time,acc_x,acc_y,acc_z,mag_x,mag_y,mag_z,gyr_x,gyr_y,gyr_z
1592231032.3107467,-9.656847396768402,-0.4505421903052065,1.430983842010772,0.5044444444444445,-0.3655555555555556,0.14666666666666667,-0.06611139567209849,-0.14619991754648998,-0.0006877913300049469
1592231032.3207467,-9.652751727248985,-0.46,1.4552344547591347,0.5044444444444445,-0.3655555555555556,0.14666666666666667,-0.03655413603180263,-0.006890370846486915,0.06957842352328922
1592231032.3307467,-9.633494235788863,-0.4489961571925754,1.5075096070185614,0.5044444444444445,-0.3655555555555556,0.14666666666666667,-0.07555994298787186,0.02463852338547806,0.01557079477707865
1592231032.3407466,-9.65046494254918,-0.427814022980328,1.49953505745082,0.5166304214641165,-0.3655555555555556,0.142604674326776,-0.037763520955738705,0.10359784200438328,-0.06347105484268961
1592231032.3507466,-9.67758860728467,-0.42,1.434468356291975,0.5244444444444445,-0.3655555555555556,0.14,-0.005160042960782173,0.11188403052948195,-0.05212790423101624
1592231032.3607466,-9.701566278549038,-0.4415662785490372,1.3481124048365427,0.5244444444444445,-0.3655555555555556,0.14,0.020936086099794828,0.057126216988767596,0.021623900583339385
1592231032.3707466,-9.68115146755669,-0.45,1.3416363993324827,0.5244444444444445,-0.3655555555555556,0.14,0.005493773760280818,0.012164364080847881,0.10700068046548847
1592231032.3807466,-9.762844565877353,-0.6193047965998786,1.4701517911353978,0.5244444444444445,-0.3655555555555556,0.14,-0.00783715886416549,0.02859605942019853,0.04938244599776989
1592231032.3907466,-9.84,-0.6436530695416991,1.5148882960986996,0.5162797475701777,-0.3614732071184222,0.127072563282411,-0.008481531640437691,0.01361746090094794,0.037320468963303585
1592231032.4007466,-9.73678205068153,-0.5626272893343951,1.5537271066560494,0.5111111111111111,-0.35888888888888887,0.11888888888888889,0.0180997997048666,0.06629853772206082,0.026957505075667958
1592231032.4107466,-9.69269634876866,-0.5088744413806219,1.499659836455263,0.5111111111111111,-0.35888888888888887,0.11888888888888889,0.017710312457095166,0.0635366664611938,0.07623809804462549
1592231032.4207466,-9.71085036794767,-0.5247506132461162,1.4630498773507767,0.5111111111111111,-0.35888888888888887,0.11888888888888889,0.023278489445932138,0.00080630501012003,0.2186263925448907
1592231032.4307466,-9.777051783408211,-0.5192538969424689,1.4236943196493206,0.5111111111111111,-0.35888888888888887,0.11888888888888889,-0.010069535360386492,0.0008138721820696027,0.2292253937657234
1592231032.4407465,-9.875799245506325,-0.5171747170648717,1.349925660181966,0.5187443186954985,-0.35888888888888887,0.12270549268108259,0.03146375880809734,0.060535016430322774,0.1709116962115153
1592231032.4507465,-9.96493897477624,-0.5506021155410904,1.3062652563059398,0.5244444444444445,-0.35888888888888887,0.12555555555555556,0.032922852900847066,0.07446584295352943,0.2631121125569299
1592231032.4607465,-9.929986465629824,-0.5199909770865487,1.2333182951442478,0.5244444444444445,-0.35888888888888887,0.12555555555555556,0.05273365837479384,-0.0327475611598967,0.18104838247919036
1592231032.4707465,-9.853663702122613,-0.4669026443732954,1.2992920668801138,0.5244444444444445,-0.35888888888888887,0.12555555555555556,0.0738231794187818,-0.1529441512832035,0.13801230383346616
1592231032.4807465,-9.72423028649386,-0.4550366530241019,1.4557697135061392,0.5244444444444445,-0.35888888888888887,0.12555555555555556,0.05220794502137468,-0.10355461490050212,0.23680058213717692
1592231032.4907465,-9.554836714897744,-0.4896196750464797,1.5955436100557756,0.5165458644320499,-0.3628381788950862,0.14266914558241048,0.06006693960365034,-0.023512160481925268,0.2266019527603893
1592231032.5007465,-9.504534176501389,-0.5127329117493052,1.6118012647520845,0.5111111111111111,-0.3655555555555556,0.15444444444444444,0.08499670679382029,0.01138247892113815,0.21132969190697964
1592231032.5107465,-9.49,-0.41687287632813763,1.4804274310986463,0.5111111111111111,-0.3655555555555556,0.15444444444444444,0.17168376885838624,0.09157824763761088,0.12470806283598981
1592231032.5207465,-9.508142938245127,-0.31161883134632773,1.3958094156731637,0.5111111111111111,-0.3655555555555556,0.15444444444444444,0.09749378962331179,0.022668243038101568,0.07936607610358873
1592231032.5307465,-9.543562586529848,-0.2234497923283655,1.3847125173059693,0.5111111111111111,-0.3655555555555556,0.15444444444444444,0.030104228948983958,-0.008074848438391999,0.14420242815019502
1592231032.5407465,-9.530399858331858,-0.1486856738091022,1.4182858154772444,0.5073396690474785,-0.36178411349192297,0.14627298663990712,0.0801419293809825,-0.01851302293835582,0.12517738144410295
1592231032.5507464,-9.505347667342798,-0.1453476673427992,1.4720860040567951,0.5044444444444445,-0.35888888888888887,0.14,0.09893875024735928,-0.03914166364217769,0.08825799016615118
1592231032.5607464,-9.475382028768914,-0.2109919671212404,1.5217560246590698,0.5044444444444445,-0.35888888888888887,0.14,0.1518704215281807,0.08720288344706584,-0.002880624685479158
1592231032.5707464,-9.431513788382555,-0.1845413651476628,1.5123241410782973,0.5044444444444445,-0.35888888888888887,0.14,0.10274005974687561,0.12404287055923141,-0.07556749980116853
1592231032.5807464,-9.455265412824051,-0.14118364679398737,1.5728981192360758,0.5044444444444445,-0.35888888888888887,0.14,0.027858444645945002,0.1166699802126199,-0.029893009212673738
1592231032.5907464,-9.534824089188344,-0.1338693432431494,1.5819598513527593,0.4988553930932287,-0.35888888888888887,0.13441094864878425,0.07657735898784275,0.1378338740458293,0.060943999407487716
1592231032.6007464,-9.630776258992805,-0.19825179856115108,1.4608741007194244,0.49,-0.35888888888888887,0.12555555555555556,0.09311339407093219,0.21813343157581627,0.011713796109248276
1592231032.6107464,-9.64832687046509,-0.2633462590698228,1.3524515284881646,0.49,-0.35888888888888887,0.12555555555555556,0.10867121729213397,0.18466043329598658,-0.018174873125107953
1592231032.6207464,-9.76170579029734,-0.26840897235263433,1.295795513823683,0.49,-0.35888888888888887,0.12555555555555556,0.1339115704419606,0.16810003944245724,0.07190890809330185
1592231032.6307464,-9.837035146279206,-0.2902513253485176,1.3302513253485178,0.49,-0.35888888888888887,0.12555555555555556,0.06804252447229267,0.17882492560203386,0.12916203237623017
1592231032.6407464,-9.7733133640553,-0.36819815668202766,1.3827327188940093,0.4961305683563748,-0.3650194572452637,0.11942498719918075,0.05426305052873845,0.1331763633069141,0.14026073114918255
1592231032.6507463,-9.665410314859667,-0.48688452771050006,1.4222948425701667,0.5044444444444445,-0.37333333333333335,0.1111111111111111,0.09670263841339771,0.11782961713537013,0.11144210277667356
1592231032.6607463,-9.60140399508473,-0.7078509987711827,1.3352913439830822,0.5044444444444445,-0.37333333333333335,0.1111111111111111,0.04773504557280515,0.1495604970985333,0.025223494060440867
1592231032.6707463,-9.660451644982183,-0.6973547692052705,1.2230322366785447,0.5044444444444445,-0.37333333333333335,0.1111111111111111,0.035307680273327945,0.15301182010125497,0.062311053013445104
1592231032.6807463,-9.74084904904905,-0.54592992992993,1.150336936936937,0.5044444444444445,-0.37333333333333335,0.1111111111111111,-0.062474313901204635,0.04869927220600364,0.029396568361806194
1592231032.6907463,-9.805696253623454,-0.5105570028987635,1.1256962536234543,0.5078706115942383,-0.37675950048312723,0.11853447326899791,-0.02550874142946974,0.0658144044945339,0.04654400795434424
1592231032.7007463,-9.822281163932463,-0.523567636610386,1.1294164371532351,0.5111111111111111,-0.38,0.12555555555555556,0.04076871741530711,0.05720929157137841,0.07424015004143623
1592231032.7107463,-9.752524111564862,-0.5324276653054131,0.9841747038549541,0.5111111111111111,-0.38,0.12555555555555556,0.0031871265533483933,-0.02880586895971555,-0.08275645057920637
1592231032.7207463,-9.76287922705314,-0.576863768115942,0.98,0.5111111111111111,-0.38,0.12555555555555556,-0.03392789376971635,-0.006875922729475245,-0.15750015585071292
1592231032.7307463,-9.765853329547069,-0.557072980264092,1.050244214113304,0.5111111111111111,-0.38,0.12555555555555556,0.04302144916286249,-0.047783592293548074,-0.10243215457195669
1592231032.7407463,-9.698328688589855,-0.4477123974838761,1.20530814555299,0.5151385018269324,-0.3736232980332829,0.1235418601976449,0.0771098109250604,-0.03554011635030376,-0.20680966913473892
1592231032.7507463,-9.642703641562493,-0.38461303967672567,1.2407739206465487,0.5244444444444445,-0.35888888888888887,0.11888888888888889,0.027187456352849554,-0.03709268035241807,-0.03188735763173668
1592231032.7607462,-9.72735114521145,-0.3827169545774408,1.2336528726760947,0.5244444444444445,-0.35888888888888887,0.11888888888888889,0.006440415689587899,-0.029566904845595605,-0.0033671566400797475
1592231032.7707462,-9.837350063093735,-0.38610414037761004,1.259558343848956,0.5244444444444445,-0.35888888888888887,0.11888888888888889,0.06231682178884131,-0.016568857590605092,-0.019652199189566517
1592231032.7807462,-9.807128225120499,-0.42937730365749927,1.2616263821944995,0.5244444444444445,-0.35888888888888887,0.11888888888888889,0.08842119837524762,0.02617993877991494,0.04556642499417123
1592231032.7907462,-9.713087684043744,-0.5084897785678402,1.2457719210109364,0.5206413245567707,-0.36300893543386875,0.12079044883272576,0.06554857267891387,-0.023291642117847868,0.17844237133304597
1592231032.8007462,-9.820736751899203,-0.4670831017231796,1.2577501389660923,0.5111111111111111,-0.37333333333333335,0.12555555555555556,0.05990011649361915,-0.10520299396477766,0.09952459014435025
1592231032.8107462,-9.93841745555299,-0.4325813899792196,1.2169023320249366,0.5111111111111111,-0.37333333333333335,0.12555555555555556,-0.04881315372862263,-0.13415505937262176,0.04010731158378242
1592231032.8207462,-9.615468347792925,-0.4803122318619506,1.0652185623033654,0.5111111111111111,-0.37333333333333335,0.12555555555555556,-0.0026653023843274254,-0.23048932561591068,0.002358769470664712
1592231032.8307462,-9.662758633003605,-0.37792057993786377,1.1229989643966718,0.5111111111111111,-0.37333333333333335,0.12555555555555556,0.09068713622409105,-0.17039756127878788,-0.0018328668349113751
1592231032.8407462,-9.874936570428696,-0.2505074365704287,1.3046828521434821,0.5078200641586468,-0.369219524642753,0.1326861572858948,0.08925558251084353,-0.048844620487670756,0.03980840446823079
1592231032.8507462,-9.61064200477327,-0.1553961813842482,1.3952377088305488,0.49777777777777776,-0.3566666666666667,0.15444444444444444,0.08246831713729018,-0.12638167586482532,-0.00841371580637719
1592231032.8607461,-9.394280920976513,-0.18493462917968298,1.2816996413282424,0.49777777777777776,-0.3566666666666667,0.15444444444444444,0.10486603220827638,-0.08075000130596928,0.029402325860639178
1592231032.8707461,-9.518422309711285,-0.2005265091863517,1.255265091863517,0.49777777777777776,-0.3566666666666667,0.15444444444444444,0.003041957715975943,-0.04409189558163234,-0.019407826510197512
1592231032.8807461,-9.588539012667727,-0.10326234165341527,1.3542695063338634,0.49777777777777776,-0.3566666666666667,0.15444444444444444,0.018321353629157495,-0.015884354750982536,-0.06325884971782136
1592231032.890746,-9.70776285620701,0.07232885686210286,1.370776285620701,0.5073566983295119,-0.36704383059771206,0.13648396840994287,0.11236557494102946,0.03796505588763295,0.008367919071754666
1592231032.900746,-9.9,0.13,1.39,0.5244444444444445,-0.38555555555555554,0.10444444444444445,0.13962634015954636,0.1407171709420428,-0.0545415391248228
1592231032.910746,-9.583929747238741,-0.07221856414613423,1.3919453589634665,0.5244444444444445,-0.38555555555555554,0.10444444444444445,0.0332806493949909,-0.04847205516760497,-0.05500852498763537
1592231032.920746,-9.560174436714775,-0.19976741771363304,1.430465164572734,0.5244444444444445,-0.38555555555555554,0.10444444444444445,-0.05351413532168446,-0.06647090805498988,-0.1251696892581162
1592231032.930746,-9.44933224009028,-0.18009539427281704,1.3894276343630978,0.5244444444444445,-0.38555555555555554,0.10444444444444445,-0.0643590161672909,-0.02735990254742495,-0.09979903346297828
1592231032.940746,-9.357173903706567,-0.2927109908516944,1.2513554954258472,0.5198493893971281,-0.3874701618252707,0.10674197196810262,-0.02150276110318068,0.0645926618792829,-0.03180008562554093
1592231032.950746,-9.69043195785777,-0.4518103599648815,1.3010342405618964,0.5111111111111111,-0.39111111111111113,0.1111111111111111,0.047356996223916814,0.12481517578951634,-0.09998024381463917
1592231032.960746,-9.834320763956905,-0.4463200293829579,1.0970401567091086,0.5111111111111111,-0.39111111111111113,0.1111111111111111,0.0021205493997051555,-0.02392851105420017,-0.07356563865550597
1592231032.970746,-9.634357386579047,-0.5247286743333754,1.0050142802982434,0.5111111111111111,-0.39111111111111113,0.1111111111111111,0.013099315823301746,0.03807626662058891,-0.06219293199120511
1592231032.980746,-9.774440860413248,-0.5874060420621902,1.0448166921644886,0.5111111111111111,-0.39111111111111113,0.1111111111111111,0.023150411783202256,0.07950966710605266,-0.06027864995401148
1592231032.990746,-9.721285443037976,-0.4749132911392405,1.103801265822785,0.5111111111111111,-0.38870049226441633,0.1111111111111111,0.08953670238584502,0.062247913403545546,-0.12765813143756372
1592231033.000746,-9.724839590921828,-0.3441054917343794,1.1840366115625292,0.5111111111111111,-0.38333333333333336,0.1111111111111111,0.14134019353872362,-0.011919060808353685,-0.22564438885237798
1592231033.010746,-9.57232064184019,-0.3510717432639243,1.173932662431016,0.5111111111111111,-0.38333333333333336,0.1111111111111111,-0.015092903266105587,-0.0414902190284621,-0.17609139219921816
1592231033.020746,-9.578721825761322,-0.3527669045432064,1.1151126969547092,0.5111111111111111,-0.38333333333333336,0.1111111111111111,-0.059595523926676844,-0.04214708707968607,-0.20514832853605713
1592231033.030746,-9.650343549457846,-0.3376311130781146,1.2915008851515821,0.5111111111111111,-0.38333333333333336,0.1111111111111111,0.07396739115945196,-0.059786590986998026,-0.18592255999503216
1592231033.040746,-9.812466423737636,-0.27,1.3870921395106715,0.5196427786453814,-0.3823176586268726,0.10867349181560529,0.11589449594990665,-0.09573087790947632,-0.032229762390907774
1592231033.050746,-9.65432558139535,-0.38317829457364344,1.2490542635658914,0.5577777777777778,-0.37777777777777777,0.09777777777777778,0.031546149745591306,0.0696812556595643,0.024292547844618748
1592231033.060746,-9.642104893261882,-0.5546200474391637,1.1821048932618818,0.5577777777777778,-0.37777777777777777,0.09777777777777778,0.03704349408134214,0.057156734772220524,-0.0005868617861730908
1592231033.070746,-9.672750053146258,-0.4843789859693878,1.041459661989796,0.5577777777777778,-0.37777777777777777,0.09777777777777778,0.014488697827951307,0.018053261045031292,-0.09233094712951646
1592231033.080746,-9.85,-0.33,0.99,0.5577777777777778,-0.37777777777777777,0.09777777777777778,0.020725784867432664,0.056723200689815706,-0.22143864884678055
1592231033.090746,-9.715542870828676,-0.39489142583426473,0.9460342487625738,0.5528863519435131,-0.37777777777777777,0.09207111430446893,-0.016255259702219856,-0.1801342097687113,-0.06509331962873191
1592231033.100746,-9.64,-0.41,1.15,0.5377777777777778,-0.37777777777777777,0.07444444444444444,0.044724062082354694,-0.04581489286485115,0.0370882466048795
1592231033.110746,-9.684051995606005,-0.66978933235689,1.2611709996338338,0.5377777777777778,-0.37777777777777777,0.07444444444444444,0.05664680392391842,0.034048246471767685,-0.040703366065230624
1592231033.120746,-9.757779809630984,-0.6172513715009144,1.2761944952407747,0.5377777777777778,-0.37777777777777777,0.07444444444444444,0.09638500389675325,0.02619835201579897,-0.06614837351219906
1592231033.130746,-9.665421373067371,-0.4033735880797885,1.242024152847873,0.5377777777777778,-0.37777777777777777,0.07444444444444444,-0.0272707695624114,0.02697894633096488,0.08132087556914844
1592231033.1407459,-9.900813645055825,-0.3023231139349824,1.1707075442600703,0.5424240056477426,-0.3824240056477426,0.07315382559167644,-0.021695696341055754,0.06780901832936455,-0.002865996217882246
1592231033.1507459,-9.661717204036426,-0.34357715973418657,1.2659143490031994,0.5577777777777778,-0.3977777777777778,0.06888888888888889,0.0031372325522095955,-0.09011419408553033,0.01557329412679706
1592231033.1607459,-9.708415593968372,-0.2549062155204119,1.2598749540272158,0.5577777777777778,-0.3977777777777778,0.06888888888888889,0.0051221305378614385,-0.07829196225463032,-0.07232685501938693
1592231033.1707458,-9.56,-0.09,1.04,0.5577777777777778,-0.3977777777777778,0.06888888888888889,-0.0032724923474893677,0.06981317007977318,-0.08072147790473774
1592231033.1807458,-9.671249481456899,-0.19937318509914545,1.2615587405625155,0.5577777777777778,-0.3977777777777778,0.06888888888888889,-0.09353930524184804,0.02263439935113529,-0.03552286415823138
1592231033.1907458,-9.611373452346674,-0.2883386121508782,1.483993665418946,0.5544089323991426,-0.3977777777777778,0.06526090155805099,-0.0494567537698458,0.02974861696900931,0.06663459031620733
1592231033.2007458,-9.451997521742124,-0.30774891576217905,1.4557513940200555,0.5433333333333333,-0.3977777777777778,0.05333333333333334,-0.0031362229796766438,0.02727009372241674,-0.1426114503226386
1592231033.2107458,-9.56934938442983,-0.43462144141273923,1.2533202102723984,0.5433333333333333,-0.3977777777777778,0.05333333333333334,-0.08799208612571957,0.07123865006188812,-0.18371595641118754
1592231033.2207458,-9.620175396957254,-0.44533334915624334,1.093403507939145,0.5433333333333333,-0.3977777777777778,0.05333333333333334,-0.18090568844411936,0.013610517267224072,-0.05687631519027103
1592231033.2307458,-9.79709314890858,-0.3950633632630607,1.1500422421753738,0.5433333333333333,-0.3977777777777778,0.05333333333333334,-0.08249607915081293,-0.049308800478740714,0.07151513785979181
1592231033.2407458,-9.396633188621784,-0.5479148577723061,1.2917838398237542,0.5468871897881163,-0.3921664254807519,0.054455603792738505,-0.12369425933537762,0.006457339378430068,0.06559799580743736
1592231033.2507458,-9.495057742163564,-0.2901416450624558,1.3078121612066935,0.5644444444444444,-0.36444444444444446,0.06,-0.09540763892309156,-0.01617015878545359,-0.06236965755429123
1592231033.2607458,-9.641650025508344,-0.3940798775599446,1.247669994898331,0.5644444444444444,-0.36444444444444446,0.06,-0.08198633598720392,0.045899958744690175,-0.1637631078068792
1592231033.2707458,-9.464726757623202,-0.8135070454037128,1.2064802803250578,0.5644444444444444,-0.36444444444444446,0.06,-0.012764257223857548,0.05929571685412854,-0.2861802243222697
1592231033.2807457,-9.3,-0.99,1.13,0.5644444444444444,-0.36444444444444446,0.06,-0.05126904677733343,0.01308996938995747,-0.30543261909900765
1592231033.2907457,-9.652500973899492,-0.8925282430853136,1.3320685625243474,0.5677011643509501,-0.3725862442107086,0.056471886767952215,-0.022804185084491554,0.08406918530812967,-0.26631314104094034
1592231033.3007457,-10.31,-0.56,1.06,0.5777777777777777,-0.3977777777777778,0.04555555555555556,-0.14398966328953217,0.074176493209759,-0.24652775684419903
1592231033.3107457,-9.760218525680079,-0.3658628453367944,1.3758628453367945,0.5777777777777777,-0.3977777777777778,0.04555555555555556,-0.17922506072326322,-0.09290886016298053,-0.03433281030201636
1592231033.3207457,-9.97,-0.42,1.43,0.5777777777777777,-0.3977777777777778,0.04555555555555556,-0.15707963267948966,-0.10471975511965977,-0.02399827721492203
1592231033.3307457,-9.519483848314607,-0.5124675210674157,1.3660805828651685,0.5777777777777777,-0.3977777777777778,0.04555555555555556,-0.06548508446101968,-0.055934952884205566,-0.18917650496913102
1592231033.3407457,-9.56548115801391,-0.7113076176613295,1.4132322497169658,0.5777777777777777,-0.3949825686919331,0.040180153467392676,-0.03458364055543571,-0.08860605149369927,-0.09487034529834129
1592231033.3507457,-9.717550741785747,-0.3902867024665514,1.3749103485937926,0.5777777777777777,-0.38333333333333336,0.017777777777777778,-0.15132574106496344,0.0016890154975725616,0.011197620731144105
1592231033.3607457,-9.835659066663359,-0.63745701739152,1.6178581884039993,0.5777777777777777,-0.38333333333333336,0.017777777777777778,-0.06979441537879642,0.04062955633303569,0.053644506919086135
1592231033.3707457,-9.609043815310478,-0.6508427834376556,1.4391572165623445,0.5777777777777777,-0.38333333333333336,0.017777777777777778,-0.10859867087599738,-0.11933548203523828,-0.010038454338715391
1592231033.3807456,-10.010751553407635,-0.5935111943978696,1.5147332084031955,0.5777777777777777,-0.38333333333333336,0.017777777777777778,-0.12046703090047235,-0.15457316411850533,0.07237784353801863
1592231033.3907456,-10.174279519022274,-0.4530849595899862,1.556816479400749,0.5804532711303853,-0.38649528002277855,0.01169711106730622,0.006615513474134824,-0.14495018785200245,0.070431802084749
1592231033.4007456,-9.69,-0.25,1.26,0.59,-0.3977777777777778,-0.01,0.01854412330243975,-0.17562375598192942,0.09599310885968812
1592231033.4107456,-9.932964772435072,-0.5249138596040114,1.368585754692723,0.59,-0.3977777777777778,-0.01,-0.02359577215632537,-0.2209006664757782,0.11133402117315654
1592231033.4207456,-9.767536491554981,-0.1749382450607994,1.1405016842256144,0.59,-0.3977777777777778,-0.01,-0.08504232380938447,-0.18031543066975117,-0.04483228779820332
1592231033.4307456,-10.19,0.54,1.16,0.59,-0.3977777777777778,-0.01,-0.2247111411942699,-0.19307704850187268,-0.03490658503988659
1592231033.4407456,-9.53223847713052,0.18842395934314504,1.5922384771305191,0.59,-0.39821633389801186,-0.006052994917893129,-0.03368417906297956,-0.0007743901968158811,0.13154702719287428
1592231033.4507456,-9.46,0.06,1.52,0.59,-0.4,0.01,-0.13962634015954636,-0.030543261909900768,0.06763150851478027
1592231033.4607456,-9.63132184421228,-0.6126436884245617,1.6095648420989968,0.59,-0.4,0.01,-0.1915554309579939,0.0021610767890872414,0.07289757471934215
1592231033.4707456,-9.69,-0.9351974253050246,1.4529541742722643,0.59,-0.4,0.01,-0.06757292705571452,0.0964506520623377,-0.09480146347321804
1592231033.4807456,-9.69,-1.35,1.56,0.59,-0.4,0.01,0.01854412330243975,-0.032724923474893676,-0.12326387842209952
1592231033.4907455,-9.704234012063852,-1.3676598793614823,1.3945959276168893,0.59,-0.40172496787786555,0.006393248982644791,-0.053086201385413215,-0.1612232046820655,-0.01337155619441035
1592231033.5007455,-9.73,-1.11,1.24,0.59,-0.4122222222222222,-0.015555555555555555,-0.15707963267948966,-0.19307704850187268,-0.028361600344907853
1592231033.5107455,-9.462420388671825,-0.9452863964861207,1.0954776679690494,0.59,-0.4122222222222222,-0.015555555555555555,0.08146493873759987,-0.24305372307043827,-0.15690594770467248
1592231033.5207455,-9.464121764141899,-0.5154093959731544,1.0617564717162034,0.59,-0.4122222222222222,-0.015555555555555555,0.09978926273430691,-0.1830679701177427,-0.16510628560990723
1592231033.5307455,-9.45,-0.12,1.09,0.59,-0.4122222222222222,-0.015555555555555555,0.0643590161672909,-0.17998707911191522,-0.14508049407202864
1592231033.5407455,-9.461137045113807,-0.3250149925037481,1.3607002180727819,0.5920214135356564,-0.4115905304923296,-0.019851059318825436,0.02945243112740431,-0.2190434895301637,-0.2072702258942589
1592231033.5507455,-9.47,-0.52,1.6,0.6077777777777778,-0.4066666666666667,-0.05333333333333334,0.02945243112740431,-0.02181661564992912,-0.04581489286485115
1592231033.5607455,-9.421390846475015,-0.3436531659708002,1.385739435683323,0.6077777777777778,-0.4066666666666667,-0.05333333333333334,0.0307045817509098,0.022508947842973834,-0.010718181905530423
1592231033.5707455,-9.52488628318584,-0.17397654867256637,1.381078539823009,0.6077777777777778,-0.4066666666666667,-0.05333333333333334,0.020626548226334755,0.022895427987078606,-0.10701906712856131
1592231033.5807455,-9.52010847990567,-0.33448187088532966,1.5516385968360027,0.6077777777777778,-0.4066666666666667,-0.05333333333333334,0.04516562506668921,-0.059847154833671035,-0.12412209439039004
1592231033.5907454,-9.412953326127543,-0.4663651370737938,1.4527261471946546,0.6077777777777778,-0.4066666666666667,-0.05333333333333334,0.10630711380987332,-0.12368606219787794,-0.10524016404323025
1592231033.6007454,-9.75,-0.73,1.45,0.6088888888888889,-0.41333333333333333,-0.07444444444444444,-0.016362461737446838,-0.02181661564992912,-0.44178646691106466
1592231033.6107454,-9.70816106621296,-0.8155769176237062,1.3969471147029633,0.6088888888888889,-0.41333333333333333,-0.07444444444444444,-0.09157209681975317,-0.032656748484262116,-0.21689177290626493
1592231033.6207454,-9.92,-0.68,1.38,0.6088888888888889,-0.41333333333333333,-0.07444444444444444,-0.07308566242726255,-0.08072147790473774,-0.22798363354175932
1592231033.6307454,-10.0085,-0.482,1.367,0.6088888888888889,-0.41333333333333333,-0.07444444444444444,0.01134464013796314,0.03501566811813624,0.01112647398146385
1592231033.6407454,-10.64200031590586,-0.526928763228558,1.6773334386352867,0.6088888888888889,-0.41278042787693714,-0.07469576510644271,-0.09163767706595856,0.08528218782108085,-0.0365947796389863
1592231033.6507454,-9.84,-0.04,1.41,0.6088888888888889,-0.4011111111111111,-0.08,0.16144295580947549,0.08944812416470939,-0.02617993877991494
1592231033.6607454,-9.913413602342986,-0.1678010087862024,1.8601570126911813,0.6088888888888889,-0.4011111111111111,-0.08,0.24322784286379465,0.18576905021529744,-0.019456757842562882
1592231033.6707454,-9.795365010799136,0.16389920806335492,1.3170741540676747,0.6088888888888889,-0.4011111111111111,-0.08,0.14255187135533887,0.1495499945395188,0.07896641049456994
1592231033.6807454,-9.737664092664092,-0.08401544401544402,1.4090637065637066,0.6088888888888889,-0.4011111111111111,-0.08,0.06650066656458606,0.11998190974541857,0.13525248777490323
1592231033.6907454,-9.690539475880486,-0.3689210482390252,1.5502894341512268,0.6093084812403792,-0.4003318681726293,-0.07922075706151821,-0.002267784576196521,0.0583709360009958,0.16483314353633485
1592231033.7007453,-9.7,-0.35,1.38,0.6166666666666667,-0.38666666666666666,-0.06555555555555556,-0.022907446432425576,0.08726646259971647,0.16689710972195776
1592231033.7107453,-9.856214713980599,-0.4924314865803762,1.308648259180155,0.6166666666666667,-0.38666666666666666,-0.06555555555555556,0.02261254233317677,-0.06539050683311003,0.014505823451075851
1592231033.7207453,-9.643528111484864,-0.3725468524747717,1.261273426237386,0.6166666666666667,-0.38666666666666666,-0.06555555555555556,0.023098669435527307,0.023000646679003124,0.06571204471884295
1592231033.7307453,-9.69,-0.45,1.3,0.6166666666666667,-0.38666666666666666,-0.06555555555555556,0.06872233929727672,0.13199052468207118,-0.13199052468207118
1592231033.7407453,-9.639373292038623,-0.28968209145563856,1.4603179085443614,0.6166666666666667,-0.38666666666666666,-0.06555555555555556,0.08160821263811344,-0.01987869683493293,0.06958135114958877
1592231033.7507453,-9.833765254388423,-0.12305622786680595,1.6684351991032076,0.6088888888888889,-0.39555555555555555,-0.10111111111111111,-0.00778516516602162,0.007569144486998288,0.077862379047596
1592231033.7607453,-9.525013197084535,-0.017304646826646,1.516145724871056,0.6088888888888889,-0.39555555555555555,-0.10111111111111111,0.06741985083843226,0.04815551560496728,0.04833175172334916
1592231033.7707453,-9.73,0.03,1.39,0.6088888888888889,-0.39555555555555555,-0.10111111111111111,0.038179077387375956,-0.08944812416470939,0.04145156973486533
1592231033.7807453,-9.482634638802686,-0.2378308520249833,1.3026224614055073,0.6088888888888889,-0.39555555555555555,-0.10111111111111111,-0.11723626383624056,0.02779212471543942,-0.11595029445204365
1592231033.7907453,-9.886297089209254,-0.31197293475272025,1.5168107003967475,0.6088888888888889,-0.39555555555555555,-0.10111111111111111,-0.049839208738061996,0.022400360307585136,0.03591773636918541
1592231033.8007452,-9.370933259612505,-0.14673324578984956,1.3577333149031263,0.6377777777777778,-0.38333333333333336,-0.10111111111111111,0.014657170073921501,-0.10928675930321147,0.03392484487472874
1592231033.8107452,-9.652586891635215,-0.44754310663805225,1.415847702212684,0.6377777777777778,-0.38333333333333336,-0.10111111111111111,-0.1348005192005675,0.12098497068803628,0.0042162968245623884
1592231033.8207452,-9.580200447532683,0.12830950418089743,1.2277936638794018,0.6377777777777778,-0.38333333333333336,-0.10111111111111111,-0.013586913405132692,0.06989451668812047,-0.0010064266105378919
1592231033.8307452,-9.795288498773719,0.006745837098231575,1.3148134761843295,0.6377777777777778,-0.38333333333333336,-0.10111111111111111,-0.06770177114037285,-0.10990398227209999,-0.03811247574027117
1592231033.8407452,-9.046338582677166,-0.14665354330708663,1.4862598425196851,0.6377777777777778,-0.38333333333333336,-0.10111111111111111,-0.05589004647011368,-0.0941550160450878,-0.12571610037802658
1592231033.8507452,-9.5,0.12,1.66,0.6177777777777778,-0.39555555555555555,-0.10111111111111111,-0.11453723216212788,-0.028361600344907853,-0.10471975511965977
1592231033.8607452,-9.177440286080857,-0.28123386018071134,1.516390413015587,0.6177777777777778,-0.39555555555555555,-0.10111111111111111,-0.12633549329685334,0.04194575333070272,-0.06900156077101541
1592231033.8707452,-10.05,-0.12,1.45,0.6177777777777778,-0.39555555555555555,-0.10111111111111111,-0.20289452554434081,0.01090830782496456,0.02617993877991494
1592231033.8807452,-9.557890542775523,-0.1496662156066757,1.2459050196533281,0.6177777777777778,-0.39555555555555555,-0.10111111111111111,-0.04320942935398982,0.15213936908538042,0.040163294293045944
1592231033.8907452,-10.251580213501729,0.039521876409562506,1.3540125008054644,0.6177777777777778,-0.39555555555555555,-0.10111111111111111,-0.21518625806489364,0.0017824845552759372,0.016577900641264846
1592231033.9007452,-10.05,-0.03,1.64,0.6255555555555555,-0.39555555555555555,-0.12222222222222222,-0.07526732399225547,-0.04581489286485115,-0.11562806294462433
1592231033.9107451,-9.596236847925685,-0.08572529937754748,1.6081569717842585,0.6255555555555555,-0.39555555555555555,-0.12222222222222222,-0.09784530499291752,0.13567733902508614,-0.007948461249159142
1592231033.9207451,-9.362342001198323,-0.044988376273217494,1.4672014379868183,0.6255555555555555,-0.39555555555555555,-0.12222222222222222,0.04758267924427902,0.0038141038830430893,0.05486848771118351
1592231033.9307451,-9.664592201114127,-0.3200920276695166,1.5788289428040894,0.6255555555555555,-0.39555555555555555,-0.12222222222222222,-0.037648029969480544,0.06446078281976042,-0.06727111834196005
1592231033.940745,-9.844322239680045,-0.17459628216377254,1.5702703695390454,0.6255555555555555,-0.39555555555555555,-0.12222222222222222,-0.06565589548476337,-0.19787955750672204,0.17453012060664835
1592231033.950745,-9.59,-0.59,1.64,0.6177777777777778,-0.38333333333333336,-0.1288888888888889,0.00545415391248228,-0.19307704850187268,0.14944381720201447
1592231033.960745,-9.65,-0.34,1.44,0.6177777777777778,-0.38333333333333336,-0.1288888888888889,-0.038179077387375956,-0.028361600344907853,0.07199483164476608
1592231033.970745,-9.465260016025642,-0.6705873397435897,1.7414178685897435,0.6177777777777778,-0.38333333333333336,-0.1288888888888889,-0.23969913866450865,0.07770158980095147,0.07835862305351765
1592231033.980745,-10.07,-0.19,1.53,0.6177777777777778,-0.38333333333333336,-0.1288888888888889,-0.0839939702522271,0.06544984694978735,0.056723200689815706
1592231033.990745,-9.440675437189155,-0.3973069148082785,1.5670190919300497,0.6177777777777778,-0.38333333333333336,-0.1288888888888889,-0.05491924343972475,-0.00562170748077398,0.001804272266200141
1592231034.000745,-9.734972967934377,-0.12966023489932885,1.4621467188665176,0.6377777777777778,-0.3888888888888889,-0.1288888888888889,-0.023535833292588525,-0.013515350689227972,0.12155434586818292
1592231034.010745,-9.488562735849058,-0.29779764150943394,1.5025169811320755,0.6377777777777778,-0.3888888888888889,-0.1288888888888889,-0.0740466226015033,0.018826092768858646,-0.02338051710291012
1592231034.020745,-10.052030802208812,-0.23367809128824066,1.5834737528833385,0.6377777777777778,-0.3888888888888889,-0.1288888888888889,-0.10157825701371813,0.05823342145674736,-0.0035163083659541156
1592231034.030745,-9.67089960157506,-0.40958479927304925,1.749607865980102,0.6377777777777778,-0.3888888888888889,-0.1288888888888889,-0.0035039815892465853,-0.07821774435121306,0.036992631483284126
1592231034.040745,-9.62152549572336,-0.39384183190778677,1.6772882435850405,0.6377777777777778,-0.3888888888888889,-0.1288888888888889,0.09983859644337925,0.0007764058070772045,0.11904834282326228
1592231034.050745,-9.380787340969801,-0.21551500882872276,1.687211934622176,0.6522222222222223,-0.3888888888888889,-0.12222222222222222,-0.08411319266853291,-0.04443993343239308,0.14671350533762584
1592231034.060745,-9.84603997826776,-0.33894938198940555,1.8486261149092227,0.6522222222222223,-0.3888888888888889,-0.12222222222222222,0.10853418101069663,0.08399164902042663,0.0856049298157197
1592231034.070745,-9.477690422900224,-0.34,1.4287023206502532,0.6522222222222223,-0.3888888888888889,-0.12222222222222222,-0.0009765691813896221,-0.20027267668655482,0.06370970907058286
1592231034.080745,-9.638820982890701,-0.38626644582055,1.6405678631255998,0.6522222222222223,-0.3888888888888889,-0.12222222222222222,-0.025898920862769334,-0.041708791366048215,0.11275575472974876
1592231034.090745,-9.591453631726553,-0.23626983380074915,1.2616290538124186,0.6522222222222223,-0.3888888888888889,-0.12222222222222222,0.02921549485474702,-0.052042744313082534,-0.00264005317880113
1592231034.100745,-10.080880481778875,-0.40624490426189,1.6414169240271772,0.5998425639969803,-0.36924651705442313,-0.16587193740992381,0.0039746936084639195,-0.090966595649893,0.12479889091760447
1592231034.110745,-9.564214795812244,-0.39088053802953615,1.5735221521181446,0.5988888888888889,-0.3688888888888889,-0.16666666666666666,0.06792639510016152,-0.06868807830133476,0.07235854274738174
1592231034.120745,-9.598610779027496,-0.4388423158562471,1.2476407153487692,0.5988888888888889,-0.3688888888888889,-0.16666666666666666,0.062379408602364184,0.09220459635844698,0.025059060715269546
1592231034.130745,-9.639076329147107,-0.4302309177132235,1.503765221742964,0.5988888888888889,-0.3688888888888889,-0.16666666666666666,0.12931277335578467,-0.02335874670206599,-0.11453512656211398
1592231034.140745,-9.812859553578276,-0.5007152719183862,1.4942854951292475,0.5988888888888889,-0.3688888888888889,-0.16666666666666666,0.18061110426922586,-0.005609700006266195,-0.018386903770314947
1592231034.150745,-9.64,-0.22,1.28,0.6377777777777778,-0.38555555555555554,-0.13777777777777778,-0.020725784867432664,-0.1112647398146385,-0.05890486225480862
1592231034.160745,-9.727516538997214,-0.2977924791086351,1.4647571378830082,0.6377777777777778,-0.38555555555555554,-0.13777777777777778,0.06625410676243926,0.016022906472978937,-0.07375508765503065
1592231034.170745,-9.530352102603223,-0.07130423381329265,1.3433126728330314,0.6377777777777778,-0.38555555555555554,-0.13777777777777778,0.06810348760084661,0.15308442723227822,-0.06583824803130178
1592231034.180745,-9.76964987466645,0.12859949866580417,1.4238513786690385,0.6377777777777778,-0.38555555555555554,-0.13777777777777778,-0.00016485507661404388,0.13425324660843824,0.024117530325452895
1592231034.1907449,-9.761171060079242,0.09468424031697259,1.5171183391283254,0.6377777777777778,-0.38555555555555554,-0.13777777777777778,-0.0834054226338712,0.08338401087900331,-0.02582681020890139
1592231034.2007449,-10.05,-0.07,1.65,0.6311111111111111,-0.39111111111111113,-0.15777777777777777,-0.0839939702522271,-0.04145156973486533,0.08290313946973066
1592231034.2107449,-9.611825805678688,-0.05174274190327863,1.4309129028393435,0.6311111111111111,-0.39111111111111113,-0.15777777777777777,-0.022255674930979463,-0.029502222253333522,0.059004444506667045
1592231034.2207448,-9.673901080432172,-0.2556297719087635,1.4655430972388956,0.6311111111111111,-0.39111111111111113,-0.15777777777777777,-0.23221624031075017,0.002015902428800353,-0.03475305682747377
1592231034.2307448,-9.42,-0.49,1.28,0.6311111111111111,-0.39111111111111113,-0.15777777777777777,-0.09053895494720585,-0.18653206380689397,-0.028361600344907853
1592231034.2407448,-9.557715222654695,-0.49,1.4057399859021116,0.6311111111111111,-0.39111111111111113,-0.15777777777777777,-0.12254319929683438,-0.12578931432698673,-0.004848277965588926
1592231034.2507448,-9.8,-0.71,1.71,0.6255555555555555,-0.38555555555555554,-0.13666666666666666,-0.011999138607461015,-0.1712604328519436,-0.006544984694978735
1592231034.2607448,-9.73046830122592,-0.5323078809106829,1.3468900175131349,0.6255555555555555,-0.38555555555555554,-0.13666666666666666,0.0014848289271235486,-0.17800241661923585,-0.048682383240555495
1592231034.2707448,-9.641077102544163,-0.568615153871792,1.39753805132763,0.6255555555555555,-0.38555555555555554,-0.13666666666666666,-0.10624662735926348,-0.16065425158411306,-0.06967889160993582
1592231034.2807448,-9.565831149340323,-0.3382223416885066,1.4648977443272182,0.6255555555555555,-0.38555555555555554,-0.13666666666666666,-0.09990168092695322,-0.12798985886619535,0.009069853687137058
1592231034.2907448,-9.479501335090335,-0.29316711169677845,1.5102493324548323,0.6255555555555555,-0.38555555555555554,-0.13666666666666666,-0.030480770927736045,-0.05592895619403991,-0.04473215716115811
1592231034.3007448,-9.467080564620769,-0.28,1.6924833877246097,0.6305704749297719,-0.3785346684316527,-0.15371739253900227,0.06629182780502221,-0.027724678349072822,-0.1381805057838158
1592231034.3107448,-9.25,-0.35,1.69,0.6311111111111111,-0.37777777777777777,-0.15555555555555556,0.031634092692397225,0.02181661564992912,-0.06326818538479445
1592231034.3207448,-9.61862722620266,-0.33324421699078816,1.5056863868986694,0.6311111111111111,-0.37777777777777777,-0.15555555555555556,-0.0414768028727204,-0.01291105974350176,-0.06326818538479445
1592231034.3307447,-9.716179950830595,-0.4434464535992464,1.6532596558141672,0.6311111111111111,-0.37777777777777777,-0.15555555555555556,-0.03468991265713077,0.014634521415372227,-0.07849906338493154
1592231034.3407447,-9.583666666666666,-0.5604561403508772,1.5364912280701755,0.6311111111111111,-0.37777777777777777,-0.15555555555555556,0.013763605241604408,0.061901776299351514,-0.07289428860577195
1592231034.3507447,-9.5,-0.73,1.62,0.6177777777777778,-0.38555555555555554,-0.16444444444444445,0.031634092692397225,-0.08726646259971647,0.06763150851478027
1592231034.3607447,-9.735246849900523,-0.7831202564291504,1.422696190406013,0.6177777777777778,-0.38555555555555554,-0.16444444444444445,0.02170062796890765,0.03193511408215843,-0.06978142016015886
1592231034.3707447,-9.829207249247132,-0.7711891261293036,1.3792072492471308,0.6177777777777778,-0.38555555555555554,-0.16444444444444445,0.03530561028312161,-0.2779876847693755,-0.0924945426537791
1592231034.3807447,-9.462386369067532,-0.7796740429192754,1.292933613726521,0.6177777777777778,-0.38555555555555554,-0.16444444444444445,0.06343454972198061,0.02846076204009057,-0.2478103940812577
1592231034.3907447,-9.42438083892407,-0.8876004765189041,1.3668574832277887,0.6177777777777778,-0.38555555555555554,-0.16444444444444445,0.08895164534784678,-0.004326116286567552,-0.22456764862535167
1592231034.4007447,-9.673051343347487,-0.6792864023976879,1.618895707710422,0.6251009938828828,-0.37823233945045054,-0.1780447029253537,0.13597837970777385,-0.006785903899447748,-0.15019475341058072
1592231034.4107447,-9.736171747730975,-0.6484570630672563,1.7685152431929254,0.6255555555555555,-0.37777777777777777,-0.17888888888888888,0.09148610171227316,0.030892571464640146,-0.2095895407239496
1592231034.4207447,-10.133237818050889,-0.5468620979356698,1.842058629380701,0.6255555555555555,-0.37777777777777777,-0.17888888888888888,0.00701518617785632,-0.01642713653420072,0.008899592426999725
1592231034.4307446,-9.838829946880733,-0.33218408327576765,1.9061232462304376,0.6255555555555555,-0.37777777777777777,-0.17888888888888888,0.156804800798723,-0.05066832462063074,-0.0808627264727483
1592231034.4407446,-9.896477256773831,-0.30609504422293976,1.979524778885301,0.6255555555555555,-0.37777777777777777,-0.17888888888888888,0.20827654955389513,-0.05691026369709065,-0.025077852057152655
1592231034.4507446,-9.69376787216148,-0.12282590412111016,1.7442388561816653,0.6178998847459739,-0.3646537706756378,-0.19310656324954054,0.13240673457693453,-0.12440088679028619,-0.06009324700972346
1592231034.4607446,-9.60440832752883,-0.285069654051544,1.654408327528829,0.6177777777777778,-0.36444444444444446,-0.19333333333333333,0.10355678480433743,-0.03941541137037026,0.04561751167380737
1592231034.4707446,-8.966001601876485,-0.5907494493549587,1.3445007008209617,0.6177777777777778,-0.36444444444444446,-0.19333333333333333,0.028443571009561262,-0.04046966913520291,0.03779749411442339
1592231034.4807446,-9.22236279832819,-0.7753685402913948,1.4547447365337292,0.6177777777777778,-0.36444444444444446,-0.19333333333333333,-0.03588603612372106,-0.004392211973020574,-0.06031939294959855
1592231034.4907446,-9.600151898734177,-0.6676781193490055,1.4499240506329114,0.6177777777777778,-0.36444444444444446,-0.19333333333333333,0.015346194071728617,-0.08416124412267141,0.005714138536592653
1592231034.5007446,-9.673068788958147,-0.02035284951024041,1.4628394924309884,0.6247599436034431,-0.3704291580093005,-0.1803664539428119,0.1534704446775187,-0.055745896931098673,0.07221800027546828
1592231034.5107446,-9.356176459151534,0.0556911770424233,1.6426029474666564,0.6255555555555555,-0.3711111111111111,-0.17888888888888888,0.06035555648789029,-0.18046405512580385,0.01151681808688057
1592231034.5207446,-9.983881238742665,0.3803747603276974,1.4982467607925165,0.6255555555555555,-0.3711111111111111,-0.17888888888888888,0.08844431393095314,-0.004184021504067326,-0.15178636854339267
1592231034.5307446,-9.51741223145445,0.3093387728622402,2.0347428699752976,0.6255555555555555,-0.3711111111111111,-0.17888888888888888,-0.011479104350146901,0.11248112895728307,-0.07491914654959023
1592231034.5407445,-9.572386696334465,0.02076355545145797,2.04742241480267,0.6255555555555555,-0.3711111111111111,-0.17888888888888888,-0.011587793588180236,0.08836508594313719,-0.05037085832063679
1592231034.5507445,-9.464626486915146,0.07562252180808882,1.6531586042823156,0.6119914089347079,-0.35232998502070667,-0.17888888888888888,-0.09737987398849071,-0.06428323759746796,0.05755096910834931
1592231034.5607445,-9.622672820801917,-0.04029666690155731,1.8188608977520964,0.6111111111111112,-0.3511111111111111,-0.17888888888888888,-0.13600275418940513,0.029246963529517417,0.08328109838436211
1592231034.5707445,-9.624993058222314,-0.21970874073198832,1.775284317490326,0.6111111111111112,-0.3511111111111111,-0.17888888888888888,-0.07709192721970537,-0.03324538248292494,0.18688912214443698
1592231034.5807445,-9.808152712287514,-0.23,1.6805277964892815,0.6111111111111112,-0.3511111111111111,-0.17888888888888888,-0.1030480440865008,-0.0718796843132857,0.11422364586712404
1592231034.5907445,-9.887980327355926,-0.3044236071728885,1.5965862291491484,0.6111111111111112,-0.3511111111111111,-0.17888888888888888,-0.11533951125025763,0.016698796073595257,-0.03205425996702876
1592231034.6007445,-9.21364799048221,-0.27464252518868276,1.6621035803249433,0.6111111111111112,-0.36785721662473714,-0.20307770796412652,-0.09119685199719868,-0.03324484951242962,-0.048550466272329715
1592231034.6107445,-9.375393538341767,-0.4278785519657454,1.6240404826780848,0.6111111111111112,-0.3711111111111111,-0.20777777777777778,-0.13658076099623997,-0.09116695756585601,-0.06220597351811748
1592231034.6207445,-9.709053735758108,-0.7193862291849256,1.5548337532865908,0.6111111111111112,-0.3711111111111111,-0.20777777777777778,0.00024555045468169223,0.17923668480965946,0.0038165334449165172
1592231034.6307445,-9.96047533377521,-0.6475665183221286,1.6182889877852475,0.6111111111111112,-0.3711111111111111,-0.20777777777777778,-0.018328456729780666,-0.0342533880066031,-0.11165672000776172
1592231034.6407444,-10.151328819297504,-0.7498019819438566,1.8128556566511496,0.6111111111111112,-0.3711111111111111,-0.20777777777777778,-0.0981150855622518,-0.10548259806002178,0.019209196937056416
1592231034.6507444,-9.432562910722872,-0.5760867126142011,1.7433731367206282,0.6185873804562697,-0.3542895050845043,-0.21992671546366047,-0.20935453768597873,-0.14109334058918838,0.1613792263944699
1592231034.6607444,-9.36717194483707,-0.5529399854834397,1.774231959353631,0.62,-0.3511111111111111,-0.2222222222222222,-0.27307723710629983,-0.15408900530555744,0.06465971658851924
1592231034.6707444,-9.720634842089943,-0.539575025469364,1.5912801630039297,0.62,-0.3511111111111111,-0.2222222222222222,-0.1598439067907794,-0.052709559393846306,0.07120389597915741
1592231034.6807444,-9.53831738700099,-0.53,1.5800032992411746,0.62,-0.3511111111111111,-0.2222222222222222,-0.06253724598550368,0.03927422686647089,-0.12018788676984049
1592231034.6907444,-9.40316484063745,-0.5237974886169607,1.5775949772339215,0.62,-0.3511111111111111,-0.2222222222222222,0.027215281229351865,0.019883603901891145,-0.017895627661700136
1592231034.7007444,-9.902178217821783,-0.6899009900990098,1.8814851485148514,0.62,-0.34796479647964795,-0.2167161716171617,-0.10002702269396957,0.020077766580801105,-0.03611621917493217
1592231034.7107444,-9.410393513163374,-0.40406560866145375,1.406459075556378,0.62,-0.3466666666666667,-0.21444444444444444,0.02768919979432216,-0.020593449776898934,-0.026702112253088883
1592231034.7207444,-9.326381139489193,-0.29256581532416503,1.2671709233791748,0.62,-0.3466666666666667,-0.21444444444444444,-0.0014062930441535865,-0.08518509746030478,-0.02550529530186016
1592231034.7307444,-9.731587882198461,-0.5575750328268618,1.7789912774338774,0.62,-0.3466666666666667,-0.21444444444444444,-0.0063904963736910216,-0.06625042384652668,0.01994393072751164
1592231034.7407444,-9.61453580510817,-0.49894648582906426,1.7756250691040432,0.62,-0.3466666666666667,-0.21444444444444444,-0.025805929316546915,-0.05841788207317078,0.012614688311172486
1592231034.7507443,-9.434396055875103,-0.577366474938373,1.7419802793755137,0.6159339906874829,-0.3615753674792294,-0.21037843513192733,-0.011830629004248742,0.033865500443444815,-0.019371433747997865
1592231034.7607443,-9.472101721892635,-0.5331862248589205,1.628451743597164,0.6133333333333333,-0.3711111111111111,-0.20777777777777778,-0.0024664045445361923,-0.07357520253316804,-0.031001786497247344
1592231034.7707443,-9.425285937421274,-0.5794281251574545,1.4349392855343377,0.6133333333333333,-0.3711111111111111,-0.20777777777777778,-0.08778261072680996,-0.012246742410310124,0.0678848833274627
1592231034.7807443,-10.309491983594333,-0.6410169649515287,1.7334323732289336,0.6133333333333333,-0.3711111111111111,-0.20777777777777778,-0.022204832645414896,0.05226744978379621,-0.01565994963115787
1592231034.7907443,-10.149395239666996,-0.6677720321267466,1.907012139215902,0.6133333333333333,-0.3711111111111111,-0.20777777777777778,0.0032724923474893677,0.050747174640403576,-0.16431423269807105
1592231034.8007443,-9.930060412224591,-0.35305140961857384,1.6797583511016347,0.6133333333333333,-0.36159673414233945,-0.22421170163292883,-0.00691738155770733,0.07759947765051389,-0.0677216142557967
1592231034.8107443,-9.4739308552333,-0.1883336771318949,1.5641668385659475,0.6133333333333333,-0.35888888888888887,-0.2288888888888889,0.002467296408695415,0.011324226719796535,-0.06547558873812796
1592231034.8207443,-9.751855006712653,-0.3500115735382622,1.4602995231702236,0.6133333333333333,-0.35888888888888887,-0.2288888888888889,-0.03447931226313076,-0.04435961017006929,-0.08845531211045818
1592231034.8307443,-9.805556404185443,-0.5454935207108124,1.657715318618091,0.6133333333333333,-0.35888888888888887,-0.2288888888888889,-0.07326067746306521,-0.0066393517358637605,-0.0561037885415227
1592231034.8407443,-9.543668243858052,-0.4251393994540491,1.7227932666060055,0.6133333333333333,-0.35888888888888887,-0.2288888888888889,-0.020819125838120525,-0.05069427126365914,0.02082543856221214
1592231034.8507442,-9.42,-0.31,1.6488391218151113,0.5914362287980028,-0.35888888888888887,-0.22435845346778602,-0.12016167069488974,-0.05456524761381751,-0.04364652727679447
1592231034.8607442,-9.656593899270929,-0.30304135590379616,1.7452555937316685,0.5811111111111111,-0.35888888888888887,-0.2222222222222222,-0.07148513586537245,-0.05530593424786272,0.05591650422221864
1592231034.8707442,-9.800097468261898,-0.22648797485318842,1.6396101269524113,0.5811111111111111,-0.35888888888888887,-0.2222222222222222,-0.03676362085019179,-0.088053931903604,-0.008683772163327802
1592231034.8807442,-9.715412369865374,-0.2597250867564175,1.6297250867564175,0.5811111111111111,-0.35888888888888887,-0.2222222222222222,-0.020385415379591112,-0.033425153557074094,0.00796643941206808
1592231034.8907442,-9.789653584337902,-0.3770207886093833,1.8231639786425937,0.5811111111111111,-0.35888888888888887,-0.2222222222222222,0.013913761690589967,-0.10462780677715616,0.03770042161659372
1592231034.9007442,-9.435079885292913,-0.2750307251126588,1.8410208930766079,0.5982192179889845,-0.35344540033683824,-0.2315539168828804,-0.03794830925297155,-0.12840137412381697,0.06631661277761616
1592231034.9107442,-9.456487250018586,-0.24151810274329047,1.8463459965801798,0.6055555555555555,-0.3511111111111111,-0.23555555555555555,-0.06160546116105459,-0.026516895281384928,0.06260578810344503
1592231034.9207442,-9.64048591045251,-0.1203239403016727,1.7420176019934788,0.6055555555555555,-0.3511111111111111,-0.23555555555555555,0.02317093687831024,0.0679399357641005,0.007653483680112981
1592231034.9307442,-9.558522223270737,-0.0571133339624422,1.6542611116353685,0.6055555555555555,-0.3511111111111111,-0.23555555555555555,-0.016174960721091522,-0.037380589666339344,0.008411759842716136
1592231034.9407442,-9.697239549723955,-0.1624367247436725,1.8004649745464973,0.6055555555555555,-0.3511111111111111,-0.23555555555555555,0.01850431310180229,-0.06440203308350034,-0.023583515930088117
1592231034.9507442,-9.5534085345953,-0.24056543733681462,1.8777382506527416,0.5861855871047287,-0.3511111111111111,-0.23203374310995067,0.0009321369765898646,-0.051743081107259684,-0.10072477428678245
1592231034.9607441,-9.912297572060758,-0.34447195311565604,1.8836024398995335,0.5688888888888889,-0.3511111111111111,-0.2288888888888889,0.008746868574442054,0.06477220371521177,-0.11118345915712204
1592231034.9707441,-9.778208050596218,-0.3330873794935986,1.7860693501987395,0.5688888888888889,-0.3511111111111111,-0.2288888888888889,0.027898338019706394,-0.05976723588877382,-0.10838651990163338
1592231034.9807441,-9.540274978811563,-0.3543704680290046,1.799725021188436,0.5688888888888889,-0.3511111111111111,-0.2288888888888889,0.12018553525804723,-0.21746680854117498,-0.015846271448149846
1592231034.990744,-9.638889557176151,-0.41472238929403804,1.9441671678821142,0.5688888888888889,-0.3511111111111111,-0.2288888888888889,0.08961651363197959,-0.18388252842683883,0.043598622579445225
1592231035.000744,-9.66463822785826,-0.3953549500381235,2.2807235442834783,0.576309821599761,-0.3511111111111111,-0.23023814938177473,-0.024934231826285118,-0.12260230590250126,-0.014261214962270771
1592231035.010744,-9.521420534458509,-0.22529033554350006,2.2389572031344183,0.5811111111111111,-0.3511111111111111,-0.2311111111111111,-0.06841396097479882,-0.09489767541566216,-0.04812937409112452
1592231035.020744,-9.705731915756541,-0.14536603030215245,2.0256099539384107,0.5811111111111111,-0.3511111111111111,-0.2311111111111111,-0.18123755754101709,-0.06308199299884848,0.0330974346503063
1592231035.030744,-9.730189790575917,-0.16495377945026177,2.0295766524869108,0.5811111111111111,-0.3511111111111111,-0.2311111111111111,-0.1590505615143725,-0.07757266777784229,0.0401139099320494
1592231035.040744,-9.709983362337686,-0.2249813543439598,1.8599908206001032,0.5811111111111111,-0.3511111111111111,-0.2311111111111111,-0.06545153667255765,-0.10962358092839497,0.03817676184135738
1592231035.050744,-9.505669773453976,-0.5285073814545207,1.9662684536363018,0.5811111111111111,-0.3552902313838432,-0.21917076747473374,-0.023102770374158386,-0.09503214771930127,0.012894348603328401
1592231035.060744,-9.530477548444402,-0.5563726888104532,2.019370047450971,0.5811111111111111,-0.35888888888888887,-0.2088888888888889,0.02124227275528587,0.0606467339753262,-0.0421879525449562
1592231035.070744,-9.917908184014737,-0.560261476998158,2.0107844309944736,0.5811111111111111,-0.35888888888888887,-0.2088888888888889,0.08841898386736452,-0.01597011129571496,0.04754483602968586
1592231035.080744,-9.489479806216425,-0.2516440425940138,1.8606576170376055,0.5811111111111111,-0.35888888888888887,-0.2088888888888889,0.06246429416538368,-0.05971178821066339,0.10393674079406214
1592231035.090744,-9.319698549449061,-0.26995514632453754,1.8849775731622687,0.5811111111111111,-0.35888888888888887,-0.2088888888888889,0.04526703108510779,-0.03485060428579426,0.09260376222702382
1592231035.100744,-9.707194552009614,-0.35948190679663505,1.8555490274625006,0.5773882187702458,-0.3551659965480235,-0.21952572414850424,0.06503078964424025,-0.0006518669197399483,0.017785974788233037
1592231035.110744,-9.930001875468866,-0.2327663165791448,1.752552513128282,0.5733333333333334,-0.3511111111111111,-0.2311111111111111,0.05020194749723188,0.0031566989823556477,-0.057419188372121205
1592231035.120744,-9.595765593871883,-0.11995510536210333,1.7126583237464574,0.5733333333333334,-0.3511111111111111,-0.2311111111111111,0.014259156097232703,0.016902719717239903,-0.10564355922968834
1592231035.130744,-9.672148432212948,-0.34891179787953985,1.83289059327769,0.5733333333333334,-0.3511111111111111,-0.2311111111111111,0.06916792386324663,0.11733795803630295,-0.11853592793964286
1592231035.140744,-9.545308770751197,-0.4168725138341319,1.8195268992097309,0.5733333333333334,-0.3511111111111111,-0.2311111111111111,0.05496726070118206,0.1361574662577165,-0.08558648715419855
1592231035.150744,-9.529786777399337,-0.4878617085802268,1.706524518266225,0.5733333333333334,-0.35462568106295067,-0.2341235996412593,0.03973076165447585,0.060421327238491,0.0006475869396017804
1592231035.160744,-9.692782758485691,-0.7449790549269859,1.8351047253650707,0.5733333333333334,-0.35888888888888887,-0.23777777777777778,0.061027120240799364,0.010835195727731114,0.03162952318632013
1592231035.170744,-9.315877588708613,-0.7299788946049334,1.6699366838148002,0.5733333333333334,-0.35888888888888887,-0.23777777777777778,0.25426947542890516,0.025280568152963902,0.0597950239159135
1592231035.180744,-9.219303878016568,-0.44618033377356225,1.4877421058950655,0.5733333333333334,-0.35888888888888887,-0.23777777777777778,0.09060229097390954,0.06457561071022434,0.08758869576783442
1592231035.190744,-9.246544178593137,-0.32274824556556336,1.4503309940874178,0.5733333333333334,-0.35888888888888887,-0.23777777777777778,-0.043601103720310765,0.1020859265040564,0.09110441240261831
1592231035.200744,-9.70631009771987,-0.49394267100977196,1.7597472312703584,0.5733333333333334,-0.35610408975750996,-0.23260600796235975,0.10952694333547444,0.08677939066595552,0.003767807693026849
1592231035.210744,-10.077296742964968,-0.25287472311100173,1.5905406514070064,0.5733333333333334,-0.3511111111111111,-0.22333333333333333,0.0988877615514469,0.022052519328874122,-0.07451406099313554
1592231035.220744,-9.230382588327151,-0.15236189732578567,1.4624712082764004,0.5733333333333334,-0.3511111111111111,-0.22333333333333333,0.1056244867212267,0.11327286495805527,-0.057700753710007234
1592231035.230744,-9.502351951783586,-0.2563732567103511,1.498512860046254,0.5733333333333334,-0.3511111111111111,-0.22333333333333333,0.13255661914870417,0.09004900228864393,-0.01557788003440097
1592231035.2407439,-9.982266630611141,-0.37188642509464576,1.6128296376419686,0.5733333333333334,-0.3511111111111111,-0.22333333333333333,0.19943725861541395,0.04622644697727382,0.04173923284440847
1592231035.2507439,-9.955015707233487,-0.4351274937783036,1.6887740198278325,0.5675530714101152,-0.3511111111111111,-0.2165021146968028,0.19800312122366087,-0.019423116358010202,-0.036435198956788734
1592231035.2607439,-9.734836103064492,-0.5174180515322457,1.7168935813386188,0.5611111111111111,-0.3511111111111111,-0.2088888888888889,0.14851306030702416,-0.0718947127042168,-0.12594172746072838
1592231035.2707438,-9.772413393464513,-0.5362066967322566,1.4793446877125798,0.5611111111111111,-0.3511111111111111,-0.2088888888888889,0.12712681718139898,-0.04702601707243105,-0.052018207954932144
1592231035.2807438,-9.716745406824147,-0.5249020795477488,1.559588128407026,0.5611111111111111,-0.3511111111111111,-0.2088888888888889,0.1385141464483396,-0.09872866491649984,-0.00747306079379563
1592231035.2907438,-9.67233869287401,-0.42289050562578134,1.6609167939991667,0.5611111111111111,-0.3511111111111111,-0.2088888888888889,0.18976889088206356,-0.11724440247938436,-0.1281721434267069
1592231035.3007438,-9.731778275822094,-0.32757409482592065,1.786684956914873,0.5640761063238748,-0.35434565134321694,-0.2056543486567831,0.28801165654583955,-0.07389391159664194,-0.1827506800788613
1592231035.3107438,-9.38009885931559,-0.3610106201652026,1.87,0.5733333333333334,-0.36444444444444446,-0.19555555555555557,0.22271600926170548,-0.0801055668411816,-0.09706157096060827
1592231035.3207438,-9.328626428216593,-0.32627545951316445,1.8340528233151185,0.5733333333333334,-0.36444444444444446,-0.19555555555555557,0.17497501964224801,-0.16232673827529093,-0.05929014823908829
1592231035.3307438,-9.674505511174031,-0.12087875417130145,1.7818677318232379,0.5733333333333334,-0.36444444444444446,-0.19555555555555557,0.1620902401690355,-0.20725801413556372,-0.06921348340275409
1592231035.3407438,-9.665051051980198,-0.22353496287128713,1.9020188737623762,0.5733333333333334,-0.36444444444444446,-0.19555555555555557,0.1535663272864213,-0.15829213564549166,-0.15254063584211233
1592231035.3507438,-9.50018259888966,-0.24184637404580153,2.013930430256766,0.5733333333333334,-0.36302254414372737,-0.20095877669828052,0.001413973315652725,-0.06959373595550103,-0.08244846893625603
1592231035.3607438,-9.21,-0.16,1.88,0.5733333333333334,-0.35888888888888887,-0.21666666666666667,0.11017390903214205,0.02617993877991494,-0.09381144729469522
1592231035.3707438,-9.35271573604061,-0.14899238578680202,1.8029035532994926,0.5733333333333334,-0.35888888888888887,-0.21666666666666667,0.0806627834565425,0.09464424399361636,-0.01053011623895183
1592231035.3807437,-9.930858277217702,-0.5254633918492858,2.074237281538282,0.5733333333333334,-0.35888888888888887,-0.21666666666666667,0.04141734725965252,0.10397076695247136,-0.07904805831033697
1592231035.3907437,-9.821757013986593,-0.2799712405859472,1.7573932384341637,0.5733333333333334,-0.35888888888888887,-0.21666666666666667,0.11644081448208357,0.06008524895357061,-0.08933080771996436
1592231035.4007437,-9.595321545064378,-0.42962437768240347,1.980591931330472,0.5667324368144969,-0.3561708726752503,-0.22171441106342393,0.14397164819575087,0.05655930453516492,-0.06180173427894496
1592231035.4107437,-9.81,-0.28,1.87,0.5544444444444444,-0.3511111111111111,-0.2311111111111111,0.23125612588924865,-0.008726646259971648,-0.11999138607461016
1592231035.4207437,-9.565554967510511,0.18915615536150068,1.7927976242980213,0.5544444444444444,-0.3511111111111111,-0.2311111111111111,0.050282869808111676,-0.016817736294429494,-0.047954923829283055
1592231035.4307437,-9.605412771654674,0.3849979678198293,1.6216673440600569,0.5544444444444444,-0.3511111111111111,-0.2311111111111111,0.06590631791796665,-0.015632728882471997,-0.010454053621471044
1592231035.4407437,-9.509077459874389,0.3259151430565248,1.6490774598743894,0.5544444444444444,-0.3511111111111111,-0.2311111111111111,0.11335545060371188,0.04379467121078067,-0.020324864590722802
1592231035.4507437,-9.782669618851811,0.2981749169697928,1.8093816226474775,0.5544444444444444,-0.35349254046075174,-0.224307027254995,0.0027394119872309387,-0.07389684166801826,-0.01692849301965005
1592231035.4607437,-9.956473196724243,0.4339784715516933,1.7439784715516933,0.5544444444444444,-0.35888888888888887,-0.2088888888888889,0.004644895800588383,0.06832588279252003,0.12528368836471365
1592231035.4707437,-9.716620629891407,0.4405045088959298,1.6583483629864326,0.5544444444444444,-0.35888888888888887,-0.2088888888888889,-0.09499727934446245,0.015084700600693668,0.10487655447496866
1592231035.4807436,-9.45594555353902,0.14351288566243198,1.505405444646098,0.5544444444444444,-0.35888888888888887,-0.2088888888888889,-0.14711499576739256,-0.009493039023165895,0.18738722762687066
1592231035.4907436,-9.31,-0.09,1.52,0.5544444444444444,-0.35888888888888887,-0.2088888888888889,-0.2399827721492203,0.04145156973486533,0.2574360646691636
1592231035.5007436,-9.456062645612217,-0.47541954809363557,1.7283839355053436,0.5563075412234096,-0.3638571469661296,-0.212925598576647,0.004579504564230064,0.009909008237523186,0.03153473555999499
1592231035.5107436,-9.718816756272401,-0.07434610215053764,1.7198131720430108,0.5611111111111111,-0.37666666666666665,-0.22333333333333333,-0.13047995374834395,-0.05783441124096365,0.006653676794453294
1592231035.5207436,-9.601940298507461,0.0012238805970149272,1.6324477611940298,0.5611111111111111,-0.37666666666666665,-0.22333333333333333,-0.12803856957851933,-0.03911361002790277,-0.017854891912504188
1592231035.5307436,-9.68,-0.03,1.57,0.5611111111111111,-0.37666666666666665,-0.22333333333333333,-0.10362892433716332,-0.015271630954950384,-0.06326818538479445
1592231035.5407436,-9.75157897822773,0.1062406676308486,1.884736934683188,0.5611111111111111,-0.37666666666666665,-0.22333333333333333,-0.0697229461836014,-0.08588854415515737,0.01917569057564217
1592231035.5507436,-9.764058948028534,0.19459669201222857,2.03,0.5542651964498794,-0.37666666666666665,-0.2162021722278836,-0.09438195940418932,-0.037472350381235545,0.06135331005805417
1592231035.5607436,-9.66,0.15,2.03,0.5344444444444445,-0.37666666666666665,-0.19555555555555557,-0.18762289458939044,-0.019634954084936207,0.030543261909900768
1592231035.5707436,-9.601389926934019,0.0654576384628256,1.8777288192314128,0.5344444444444445,-0.37666666666666665,-0.19555555555555557,-0.09379298183970677,-0.08354654041372642,0.14386022257952263
1592231035.5807436,-9.81,0.09,1.89,0.5344444444444445,-0.37666666666666665,-0.19555555555555557,-0.14398966328953217,-0.074176493209759,0.10035643198967394
1592231035.5907435,-9.513987595767968,-0.392372613401435,1.9235279095220723,0.5344444444444445,-0.37666666666666665,-0.19555555555555557,-0.09879944781186038,-0.08461864763940646,0.07473205678960762
1592231035.6007435,-9.590566389446515,-0.13886722110696875,1.7700928448523086,0.5310378628556862,-0.3782389350922474,-0.19870009240671702,-0.08715200670280052,-0.016630868049859217,0.006935941325441869
1592231035.6107435,-9.56,-0.2,1.9,0.52,-0.38333333333333336,-0.2088888888888889,-0.19634954084936207,0.056723200689815706,0.015271630954950384
1592231035.6207435,-9.131540735611367,-0.9697238128212641,1.846402642021999,0.52,-0.38333333333333336,-0.2088888888888889,-0.15413058079599296,-0.09989107051008761,-0.018884995211541165
1592231035.6307435,-9.318342713447493,-1.125359837145252,1.970407136869836,0.52,-0.38333333333333336,-0.2088888888888889,-0.1261324851535574,-0.0830736021893041,-0.1332600474188791
1592231035.6407435,-9.75,-1.18,2.26,0.52,-0.38333333333333336,-0.2088888888888889,-0.07308566242726255,0.015271630954950384,-0.20180369476184434
1592231035.6507435,-10.675047818290496,-0.5406687089061566,2.4773655110579798,0.5235126519226938,-0.38333333333333336,-0.20991341236634126,0.11235557059713495,0.04730443436073468,-0.06584252647086236
1592231035.6607435,-9.39,0.18,2.46,0.5466666666666666,-0.38333333333333336,-0.21666666666666667,0.11235557059713495,0.028361600344907853,-0.01090830782496456
1592231035.6707435,-9.61645985715515,0.5629042251097152,2.275149298683418,0.5466666666666666,-0.38333333333333336,-0.21666666666666667,0.14201863973124454,0.017667309746007477,0.04771739336391648
1592231035.6807435,-9.62933978304078,0.19940084772144928,1.8973349457601953,0.5466666666666666,-0.38333333333333336,-0.21666666666666667,0.10908973937298515,0.06439634458004473,0.11509465063641346
1592231035.6907434,-9.36,-0.3,1.83,0.5466666666666666,-0.38333333333333336,-0.21666666666666667,0.0839939702522271,0.02399827721492203,0.11999138607461016
1592231035.7007434,-9.37641222534783,-0.2939694366304265,1.7595419295978105,0.5416793802850216,-0.3799491032886456,-0.22005089671135442,0.07246946287476894,-0.025896802134933346,-0.1452886169222282
1592231035.7107434,-9.41,-0.21,1.6,0.5155555555555555,-0.3622222222222222,-0.23777777777777778,0.05781403147231216,0.032724923474893676,0.002181661564992912
1592231035.7207434,-9.51021870570197,-0.4630274539300489,1.6884262446842364,0.5155555555555555,-0.3622222222222222,-0.23777777777777778,0.0007952048163892798,0.04155166853551562,-0.08575229467638656
1592231035.7307434,-9.723084017137463,-0.571425459298526,1.714135502142183,0.5155555555555555,-0.3622222222222222,-0.23777777777777778,0.002319411527287686,-0.07512189044954518,0.0323784494466721
1592231035.7407434,-9.77,-0.46,1.72,0.5155555555555555,-0.3622222222222222,-0.23777777777777778,-0.05781403147231216,-0.1538071403320003,-0.039269908169872414
1592231035.7507434,-9.554276214098277,-0.743410978108487,1.8851414500880694,0.5178739151099768,-0.363808468233142,-0.2380218156256116,0.05871429330542394,-0.1567583710740763,-0.12077365984831892
1592231035.7607434,-9.67,-0.69,2.17,0.5366666666666666,-0.37666666666666665,-0.24,0.18980455615438332,-0.12762720155208535,-0.08290313946973066
1592231035.7707434,-9.622428880431508,-0.5835029981107795,2.0323727514169154,0.5366666666666666,-0.37666666666666665,-0.24,0.17259784521153643,0.05112696967434803,-0.03538750274269737
1592231035.7807434,-9.46,-0.64,1.99,0.5366666666666666,-0.37666666666666665,-0.24,0.19416787928436915,-0.056723200689815706,-0.10471975511965977
1592231035.7907434,-9.60202305803073,-0.8637290681389165,1.9739020033693953,0.5366666666666666,-0.37666666666666665,-0.24,0.2448157545350633,0.15550971048749682,0.0009330304092881776
1592231035.8007433,-9.579994804779602,-1.1950233784917876,2.0840135075730326,0.5358892929615864,-0.3773329869853068,-0.23855630597627958,0.1989673080431003,0.21423950570868383,-0.08551977324220267
1592231035.8107433,-9.67,-0.79,1.85,0.5288888888888889,-0.38333333333333336,-0.22555555555555556,0.20289452554434081,0.2083486794568231,-0.1090830782496456
1592231035.8207433,-10.05364642465296,-0.01940752754853789,2.0715269761007487,0.5288888888888889,-0.38333333333333336,-0.22555555555555556,0.26070855701665296,0.06986203188890186,0.004868800887042092
1592231035.8307433,-9.848876122082585,-0.027490843806104115,1.9509113105924596,0.5288888888888889,-0.38333333333333336,-0.22555555555555556,0.25382492517821054,0.09830136163075029,0.027223062851708335
1592231035.8407433,-9.0,-0.65,1.8,0.5288888888888889,-0.38333333333333336,-0.22555555555555556,0.24216443371421323,-0.08072147790473774,-0.10035643198967394
1592231035.8507433,-8.99015568068897,-1.0832295462073536,2.1291785359390527,0.5296049709862231,-0.3836087495246157,-0.22450897402868256,0.39322131226876994,0.21623019381872938,0.07749692092783837
1592231035.8607433,-9.76,-0.57,1.73,0.5433333333333333,-0.3888888888888889,-0.20444444444444446,0.445058959258554,0.032724923474893676,-0.15162547876700738
1592231035.8707433,-9.307088217846953,-0.6778161633852151,1.6743106126945566,0.5433333333333333,-0.3888888888888889,-0.20444444444444446,0.22793131211952042,0.1629579044104031,0.10437285607869072
1592231035.8807433,-9.695118285755374,-0.5791148342561301,1.8538592075932985,0.5433333333333333,-0.3888888888888889,-0.20444444444444446,0.15738428406075206,0.05379073505133059,0.10370508718247891
1592231035.8907433,-10.18,-0.23,1.55,0.5433333333333333,-0.3888888888888889,-0.20444444444444446,0.21380283336930533,0.07635815477475191,0.11780972450961724
1592231035.9007432,-9.823940341592495,-0.4871541977387539,1.8467163820062547,0.5433333333333333,-0.3888888888888889,-0.20444444444444446,0.13828044863117872,0.11951380319653858,-0.04402395707208273
1592231035.9107432,-9.35,-0.73,1.79,0.5366666666666666,-0.3888888888888889,-0.20444444444444446,0.2694352032766246,-0.04363323129985824,-0.074176493209759
1592231035.9207432,-9.762285682289043,-0.4091427291561678,1.8200335965059635,0.5366666666666666,-0.3888888888888889,-0.20444444444444446,0.16971858608322427,0.13278249018550636,-0.04414465557567675
1592231035.9307432,-9.63,0.12,1.75,0.5366666666666666,-0.3888888888888889,-0.20444444444444446,0.09926560120717749,-0.002181661564992912,0.26398104936414235
1592231035.9407432,-9.109904011037745,0.3462859958608456,1.8379282546565487,0.5366666666666666,-0.3888888888888889,-0.20444444444444446,0.23137298141901844,0.22556826091722687,-0.006129378919367097
1592231035.9507432,-9.638996747807234,0.1478762195722874,2.0611392529811767,0.5366666666666666,-0.3888888888888889,-0.20444444444444446,0.24489994963925557,0.19851432447675255,-0.042201294173332876
1592231035.9607432,-9.77,0.31,1.74,0.5433333333333333,-0.3888888888888889,-0.2111111111111111,0.07963064712224129,0.12980886311707826,-0.06981317007977318
1592231035.9707432,-9.328105012474484,-0.35157915627126335,1.80091262190973,0.5433333333333333,-0.3888888888888889,-0.2111111111111111,0.12360459294724024,0.16992083129335273,0.12207349603241163
1592231035.9807432,-9.585553957869006,-0.2511165432453807,1.4166676252785966,0.5433333333333333,-0.3888888888888889,-0.2111111111111111,0.060400424797906374,0.13126257218202572,0.11162636327700756
1592231035.9907432,-9.513451515688708,-0.6479117177805354,1.5268321219641907,0.5433333333333333,-0.3888888888888889,-0.2111111111111111,0.10020772628647598,0.08290313946973066,-0.010390835182886821
1592231036.0007432,-9.624982272646694,-0.7743132423329198,1.6829751817053713,0.5433333333333333,-0.3888888888888889,-0.2111111111111111,0.07425334060436353,0.08290313946973066,0.020429997814621716
1592231036.0107431,-9.76,-0.2,1.69,0.5155555555555555,-0.39555555555555555,-0.2111111111111111,0.13962634015954636,0.16253378659197193,-0.03490658503988659
1592231036.0207431,-9.97548153089302,0.11299702604296952,2.0186619972761886,0.5155555555555555,-0.39555555555555555,-0.2111111111111111,0.08256620952487717,0.02070077207120265,0.10557458637990846
1592231036.0307431,-9.45,0.48,1.66,0.5155555555555555,-0.39555555555555555,-0.2111111111111111,0.053450708342326333,0.04799655442984406,0.16471544815696484
1592231036.040743,-9.537695455267757,0.011975011918004132,1.806172731606547,0.5155555555555555,-0.39555555555555555,-0.2111111111111111,0.026364134562570325,0.06411209284778252,0.14692102184074743
1592231036.050743,-9.521032893691403,-0.2629572540918481,1.7061973621484188,0.5155555555555555,-0.39555555555555555,-0.2111111111111111,0.1617755959289115,0.03866564373196002,0.17600267797311597
1592231036.060743,-9.58,-0.38,1.69,0.52,-0.41,-0.19,0.09490227807719166,0.15817046346198613,0.030543261909900768
1592231036.070743,-9.549117156836388,-0.33332921124791653,1.587112210333889,0.52,-0.41,-0.19,0.10003872510496062,0.054249931476531364,0.035247693262425404
1592231036.080743,-9.653752307434134,-0.2426775825282286,1.6390619231414667,0.52,-0.41,-0.19,0.05647382609815636,0.05233006558054175,0.09261331953762049
1592231036.090743,-9.45,-0.33,1.69,0.52,-0.41,-0.19,0.1461713248545251,0.10471975511965977,0.10690141668465267
1592231036.100743,-9.433511698555668,-0.22282604061184247,1.5993143420561744,0.52,-0.41,-0.19,0.08591840318655566,0.17936143420087566,-0.062166482920992916
1592231036.110743,-9.488856780310286,-0.33816222945795826,1.6077135606205706,0.5011111111111111,-0.41,-0.18222222222222223,0.012943142856266725,0.015227389733308241,0.1358046977722286
1592231036.120743,-9.493337061805374,-0.2057285989671339,1.5322247078702491,0.5011111111111111,-0.41,-0.18222222222222223,0.0404359722422538,0.050102982704952045,-0.1149291565849687
1592231036.130743,-9.783481411764706,-0.34077929411764707,1.7166569411764705,0.5011111111111111,-0.41,-0.18222222222222223,0.096737543118877,-0.0006562437987498674,-0.13243702097130194
1592231036.140743,-9.612462857579345,-0.10246285757934538,1.551822556620708,0.5011111111111111,-0.41,-0.18222222222222223,0.08742236103717978,0.015067571482289972,-0.04971622834838304
1592231036.150743,-9.764644998663254,-0.2546449986632548,1.6319184203490813,0.5011111111111111,-0.41,-0.18222222222222223,0.03674716148796018,-0.08977766896437125,0.05687643277238921
1592231036.160743,-9.98,0.24,1.62,0.5022222222222222,-0.41,-0.18222222222222223,0.14398966328953217,0.07853981633974483,-0.07853981633974483
1592231036.170743,-9.86911735824706,0.09382150772942795,1.5844132087646945,0.5022222222222222,-0.41,-0.18222222222222223,0.16936440166859754,0.0423487668063707,0.0747541808861724
1592231036.180743,-9.816503453568687,-0.025924131125973034,1.6175724153053392,0.5022222222222222,-0.41,-0.18222222222222223,0.09236828809588096,0.029590850987908795,0.07213576301129321
1592231036.190743,-9.675607423673586,-0.23692710915916979,1.5792186725224906,0.5022222222222222,-0.41,-0.18222222222222223,0.16525904768624602,0.11334038594904523,0.04150457745015842
1592231036.200743,-9.861301090883332,-0.21464386909400013,1.6460683927179995,0.5022222222222222,-0.41,-0.18222222222222223,0.0980090054083071,0.08093072701991805,0.05770940691472201
1592231036.210743,-9.63,-0.08,1.36,0.5166666666666667,-0.43,-0.1688888888888889,0.09926560120717749,0.12326387842209952,0.08290313946973066
1592231036.220743,-9.592935931660438,-0.4643416978109984,1.4423844100373733,0.5166666666666667,-0.43,-0.1688888888888889,0.07552742277894148,-0.027220333926659027,-0.041665076710232764
1592231036.230743,-9.62,-0.32,1.28,0.5166666666666667,-0.43,-0.1688888888888889,0.05781403147231216,0.04363323129985824,-0.04363323129985824
1592231036.240743,-9.661636256295777,-0.3160382266664207,1.54,0.5166666666666667,-0.43,-0.1688888888888889,0.20408865751692923,0.0711305067836577,-0.04581489286485115
1592231036.250743,-9.514611737357711,-0.24639503348523145,1.54,0.5166666666666667,-0.43,-0.1688888888888889,0.14837810231377765,0.055936719000980004,-0.04581489286485115
1592231036.260743,-9.633454253611557,-0.03818249166563773,1.6398180022224966,0.5222222222222223,-0.4222222222222222,-0.1688888888888889,0.10184378157988365,-0.039527322145857996,-0.03601726870018771
1592231036.270743,-9.539150749732238,-0.2572790967511603,1.5346447697250982,0.5222222222222223,-0.4222222222222222,-0.1688888888888889,0.03733213549368293,0.10157018082491065,-0.02210022775894484
1592231036.280743,-9.67382071119313,-0.005588757186457519,1.342351479877919,0.5222222222222223,-0.4222222222222222,-0.1688888888888889,-0.010843503696570101,-0.02611552177295653,0.09349168498851945
1592231036.2907429,-9.907838851387549,0.007772956177006317,1.480336976320583,0.5222222222222223,-0.4222222222222222,-0.1688888888888889,-0.07350519924219569,-0.05237425366464581,-0.0018572057359765013
1592231036.3007429,-9.758037072752598,-0.38920175720561456,1.6076684881602914,0.5222222222222223,-0.4222222222222222,-0.1688888888888889,-0.15929460473125118,-0.10629902282919498,-0.02473438053305797
1592231036.3107429,-9.6472088844912,-0.3641193625663993,1.5433879283407979,0.5166666666666667,-0.4222222222222222,-0.1688888888888889,0.1167629484751588,0.12539194146385083,-0.21800340104715848
1592231036.3207428,-9.71,-0.4,1.66,0.5166666666666667,-0.4222222222222222,-0.1688888888888889,0.031634092692397225,0.01090830782496456,-0.16907877128695067
1592231036.3307428,-9.371182519280206,-0.5180719794344473,1.6070179948586119,0.5166666666666667,-0.4222222222222222,-0.1688888888888889,0.10560587986842294,0.09829535069112666,-0.08619666325904193
1592231036.3407428,-9.696574115944651,-0.15026227729040426,1.52512345120738,0.5166666666666667,-0.4222222222222222,-0.1688888888888889,-0.06260492633164046,-0.06204604450267759,-0.17365420314284474
1592231036.3507428,-9.924174730939678,0.22148539386813784,1.4947767025413765,0.5166666666666667,-0.4222222222222222,-0.1688888888888889,-0.024536283599046672,-0.027287718529439793,-0.18855062855994664
1592231036.3607428,-9.825837433850152,0.3492677095905673,1.5581744963327453,0.49777777777777776,-0.43,-0.15444444444444444,0.04986634027348355,-0.026895445183994178,-0.13788231228862668
1592231036.3707428,-9.593375024428376,0.05902091068985734,1.4711666992378347,0.49777777777777776,-0.43,-0.15444444444444444,-0.10880807889271372,0.0914298249569875,-0.09050719145559123
1592231036.3807428,-9.554604833285287,-0.13124339386951092,1.418587969635822,0.49777777777777776,-0.43,-0.15444444444444444,-0.14285860897356953,0.029557038518672824,0.002708131278914703
1592231036.3907428,-9.652156435716659,-0.27107821785832936,1.5475475250083053,0.49777777777777776,-0.43,-0.15444444444444444,-0.1057759173663425,-0.019634954084936207,-0.12141670178974837
1592231036.4007428,-9.667638699198996,-0.278819349599498,1.601735447196486,0.49777777777777776,-0.43,-0.15444444444444444,-0.1995072565867039,-0.019634954084936207,-0.014174538897983494
1592231036.4107428,-9.8,-0.29,1.72,0.5022222222222222,-0.4311111111111111,-0.19,-0.10581058590215622,0.006544984694978735,-0.05017821599483697
1592231036.4207428,-9.916640246699627,-0.3043748407156328,1.8708591161629031,0.5022222222222222,-0.4311111111111111,-0.19,-0.03369637948344549,0.0009204145355750206,0.070136710745625
1592231036.4307427,-9.74,-0.23,1.75,0.5022222222222222,-0.4311111111111111,-0.19,-0.0032724923474893677,0.01308996938995747,-0.06981317007977318
1592231036.4407427,-9.603098365264891,-0.044204924288066855,1.7206639354139053,0.5022222222222222,-0.4311111111111111,-0.19,-0.1014079180301259,0.03442375758183498,0.026188876783675596
1592231036.4507427,-9.728347286821705,0.005299042407660735,1.5312539899680802,0.5022222222222222,-0.4311111111111111,-0.19,-0.1102174029872818,0.0563191406527717,-0.027640468181099345
1592231036.4607427,-9.666851143506754,-0.08842557175337702,1.5637022870135082,0.5022222222222222,-0.43,-0.17555555555555555,-0.047128470797102265,0.07568366916907616,-0.09815498753661007
1592231036.4707427,-9.61,-0.06,1.45,0.5022222222222222,-0.43,-0.17555555555555555,-0.09053895494720585,-0.015271630954950384,0.13853550937704992
1592231036.4807427,-9.668730031948881,-0.05021166134185304,1.3227515974440895,0.5022222222222222,-0.43,-0.17555555555555555,-0.16634864488363385,0.02743805351627667,-0.01628709683114815
1592231036.4907427,-9.6774759954692,-0.08126200226540037,1.4518930033981006,0.5022222222222222,-0.43,-0.17555555555555555,-0.18326555929065816,0.007212352249424768,0.03863546418282699
1592231036.5007427,-9.648239783915658,-0.0958801080421713,1.473820162063257,0.5022222222222222,-0.43,-0.17555555555555555,-0.10752263041597591,-0.010328115489975332,-0.0697965182061918
1592231036.5107427,-9.766021974787854,-0.25729288271938,1.6406077402266148,0.4955555555555556,-0.43,-0.19,0.07341108710078703,-0.015259538555046318,-0.0014705642432006963
1592231036.5207427,-9.55,-0.37,1.65,0.4955555555555556,-0.43,-0.19,0.044724062082354694,0.05235987755982988,-0.0916297857297023
1592231036.5307426,-9.643377217628643,-0.5194035482058281,1.7153640523400497,0.4955555555555556,-0.43,-0.19,-0.03880010748366438,0.03198812888519109,-0.048849113512960826
1592231036.5407426,-9.64,-0.3734094508301405,1.5045459344401872,0.4955555555555556,-0.43,-0.19,-0.005057906960550148,-0.06671389181566874,-0.05399583581740379
1592231036.5507426,-9.64,-0.4162630906768838,1.5616841209025119,0.4955555555555556,-0.43,-0.19,-0.05492038107985073,-0.027758833909965155,-0.019715384860384648
1592231036.5607426,-9.669194782133589,-0.47865797022264717,1.6383895642671766,0.5161000318717844,-0.43,-0.17594325304679082,0.050112953888193965,0.03568287630840271,-0.032080795422341817
1592231036.5707426,-9.632375042852246,-0.4141563249914295,1.6211875214261229,0.5166666666666667,-0.43,-0.17555555555555555,0.10064953900623916,0.020671262026127218,-0.006047323534421216
1592231036.5807426,-9.620197079928243,-0.44921168028702413,1.639605840143512,0.5166666666666667,-0.43,-0.17555555555555555,-0.05035498406862003,0.0003869655342132877,0.0041913384481132515
1592231036.5907426,-9.542566563176216,-0.459679179602973,1.794866873647568,0.5166666666666667,-0.43,-0.17555555555555555,0.04368608461183357,-0.08235510706983123,-0.06109842864346977
1592231036.6007426,-9.561769849785408,-0.42371691702432046,1.7709735336194563,0.5166666666666667,-0.43,-0.17555555555555555,0.04373942734384806,0.013070384373762414,0.034887000023691536
1592231036.6107426,-9.58,-0.44,1.75,0.51,-0.43,-0.1688888888888889,-0.01854412330243975,0.0370882466048795,-0.02399827721492203
1592231036.6207426,-9.596385465784364,-0.45638546578436423,1.758192732892182,0.51,-0.43,-0.1688888888888889,-0.08467707401600941,0.02815136137331603,0.09218123079540305
1592231036.6307425,-9.714312216502726,-0.6886244330054533,1.8838382345446205,0.51,-0.43,-0.1688888888888889,0.06076001399942531,0.02617993877991494,-0.05260716441170005
1592231036.6407425,-9.533022759077852,-0.2768409810709288,1.5160455181557047,0.51,-0.43,-0.1688888888888889,0.06657538634965425,-0.059698179124983916,-0.061086523819801536
1592231036.6507425,-9.588669129268855,-0.4240064643307464,1.7006746701237814,0.51,-0.43,-0.1688888888888889,-0.00865708058947591,-0.037087239249027154,-0.03548728694430886
1592231036.6607425,-9.639946525358111,-0.42,1.6297861014324428,0.5166666666666667,-0.41,-0.17555555555555555,0.0490057207127024,0.04825321428584957,-0.06521651980796417
1592231036.6707425,-9.631103436138854,-0.42202296625456465,1.5905517180694269,0.5166666666666667,-0.41,-0.17555555555555555,0.0330534349230959,0.09643445163217426,-0.020974052175182858
1592231036.6807425,-9.686463988736856,-0.5235173126842361,1.618231994368428,0.5166666666666667,-0.41,-0.17555555555555555,-0.0051929285198504815,0.11857708309914322,0.02129824426175787
1592231036.6907425,-9.605553218945657,-0.4361702432729532,1.5637021459637719,0.5166666666666667,-0.41,-0.17555555555555555,0.1346340023858278,0.054485858425319555,-0.03946020269532823
1592231036.7007425,-9.6,-0.40231315724686106,1.566921710688285,0.5166666666666667,-0.41,-0.17555555555555555,0.06773047091774335,0.05923871409841584,-0.03155256716175307
1592231036.7107425,-9.590240415335463,-0.3704808306709265,1.6285575079872203,0.49823189563365283,-0.41,-0.16904916577919774,0.07214155361263544,0.1729225557623018,-0.04534283845753759
1592231036.7207425,-9.619716784473463,-0.3303776207020487,1.5507552414040973,0.49777777777777776,-0.41,-0.1688888888888889,0.010414761457026842,0.17994588708332496,-0.15062657207369362
1592231036.7307425,-9.647866532528505,-0.41359959758551307,1.4478227140621507,0.49777777777777776,-0.41,-0.1688888888888889,-0.008421125847650708,0.16174847622179642,0.08446310308841945
1592231036.7407424,-9.677247293687614,-0.4109175687707952,1.4672472936876142,0.49777777777777776,-0.41,-0.1688888888888889,0.09321943683065795,0.0741577836138832,-0.05598023548091166
1592231036.7507424,-9.68,-0.4304644279410182,1.4768214759803393,0.49777777777777776,-0.41,-0.1688888888888889,0.036659240504433685,0.13614006877322418,-0.09282984439272643
1592231036.7607424,-9.66216594272252,-0.44,1.524585143193698,0.5086763683362373,-0.4278340572774792,-0.15600873641070945,-0.013999784742596971,0.07667256267532421,0.051148021820459244
1592231036.7707424,-9.686338383269927,-0.42244107782004814,1.4422053891002409,0.51,-0.43,-0.15444444444444444,0.021945163905255614,0.08077289720686834,0.02575940059066536
1592231036.7807424,-9.743262195863007,-0.4022459347123308,1.31459857563015,0.51,-0.43,-0.15444444444444444,-0.015335928484119677,0.0654731266325134,-0.034591752519739706
1592231036.7907424,-9.758858587297066,-0.4,1.2911414127029337,0.51,-0.43,-0.15444444444444444,0.062377904664987105,0.09612313240923945,0.0377868319123256
1592231036.8007424,-9.73360110901788,-0.42639889098212064,1.3163988909821207,0.51,-0.43,-0.15444444444444444,0.034210086502724404,0.09747675969896741,0.010560814650659181
1592231036.8107424,-9.711069918571877,-0.4132097557156279,1.3567902442843722,0.5030543811114591,-0.41710099349270974,-0.13360758777882173,0.06678332181724095,0.08820014269009005,-0.004830163175172609
1592231036.8207424,-9.728848696070184,-0.4382730441052758,1.36,0.5022222222222222,-0.41555555555555557,-0.13111111111111112,0.02168381771907118,0.09137861017637179,0.038814226424894925
1592231036.8307424,-9.73,-0.44,1.2804265593561368,0.5022222222222222,-0.41555555555555557,-0.13111111111111112,0.02433086720400512,0.08198521256042668,0.04338048436872045
1592231036.8407423,-9.738717127884092,-0.44,1.3571712788409098,0.5022222222222222,-0.41555555555555557,-0.13111111111111112,0.01938376113886371,-0.12562190014632652,0.1320661076074572
1592231036.8507423,-9.720169178714242,-0.42016917871424175,1.3832205475238388,0.5022222222222222,-0.41555555555555557,-0.13111111111111112,-0.0773580550306238,-0.16752590605736173,0.04917831573896511
1592231036.8607423,-9.71,-0.41,1.428049100372966,0.5159621751346822,-0.4292955084680155,-0.167046372574468,0.001091903774782188,0.0683252874435388,-0.03942987343647237
1592231036.8707423,-9.69046359751673,-0.4295364024832702,1.4039514633556396,0.5166666666666667,-0.43,-0.1688888888888889,-0.02930309381637641,0.005422932036501779,-0.014457751404742997
1592231036.8807423,-9.705374882491935,-0.43154170583602225,1.2969587641962448,0.5166666666666667,-0.43,-0.1688888888888889,-0.0859936557782487,0.00015437199772620064,0.03137032998102196
1592231036.8907423,-9.71,-0.4385175336546452,1.3396227355825163,0.5166666666666667,-0.43,-0.1688888888888889,0.044788964429061315,-0.08265041915881158,-0.08369719611379489
1592231036.9007423,-9.697453785056583,-0.41490757011316515,1.3813655373585436,0.5166666666666667,-0.43,-0.1688888888888889,-0.08387430242740238,-0.15223367040786331,0.05335120559065805
1592231036.9107423,-9.69,-0.4262057633973711,1.469882035726323,0.5059902445418119,-0.42320591319327416,-0.15627129910496948,0.02652231699568841,-0.16338729642060879,0.07579702215534335
1592231036.9207423,-9.677584883534992,-0.4341383721550024,1.4924151164650072,0.5044444444444445,-0.4222222222222222,-0.15444444444444444,0.022226818260158453,-0.11656376678678174,0.03746141178594992
1592231036.9307423,-9.638556379662473,-0.43463909491561864,1.4885563796624746,0.5044444444444445,-0.4222222222222222,-0.15444444444444444,-0.007545587133163566,-0.033489314087716895,-0.06533833667631062
1592231036.9407423,-9.604412303416913,-0.437793848291543,1.501175393166172,0.5044444444444445,-0.4222222222222222,-0.15444444444444444,0.00933616940357969,0.059543941793647574,0.009235512309331784
1592231036.9507422,-9.587506656421436,-0.44624667178928185,1.5724667178928182,0.5044444444444445,-0.4222222222222222,-0.15444444444444444,-0.0133503333355947,0.04392554377487329,-0.01551166401825628
1592231036.9607422,-9.571800738778014,-0.44453382585200946,1.6181992612219858,0.5077848842015498,-0.42040016417289205,-0.15839223688465984,-0.008786489390756668,0.06921985028368884,-0.06667028801530452
1592231036.9707422,-9.555376763734614,-0.4335845091564095,1.6346232362653856,0.5144761332933053,-0.41675039194102537,-0.16630007672037092,0.02823945087571807,0.16417347128964824,-0.09533553209257528
1592231036.9807422,-9.596049130825104,-0.4223251448624826,1.5402268832122745,0.5166666666666667,-0.41555555555555557,-0.1688888888888889,-0.05173091163488601,0.033679723127409356,-0.11644051064894675
1592231036.9907422,-9.622115363685834,-0.42,1.51,0.5166666666666667,-0.41555555555555557,-0.1688888888888889,-0.016194751203936236,0.0964019774845658,-0.0790223699607048
1592231037.0007422,-9.634802747278863,-0.4248027472788631,1.4907890108845476,0.5166666666666667,-0.41555555555555557,-0.1688888888888889,0.043949452457824195,0.11406943327743402,-0.019878173211353378
1592231037.0107422,-9.64692828052737,-0.4092151584178919,1.47,0.5120478129817537,-0.42017440924046845,-0.1488738562542663,0.09761237551100213,0.06663366979526325,0.03945589229583128
1592231037.0207422,-9.6572743483621,-0.4509204385346953,1.4409026065516026,0.51,-0.4222222222222222,-0.14,-0.008257692765770541,0.11405077215946341,0.048591199371640845
1592231037.0307422,-9.66,-0.4413636693870632,1.3727273387741263,0.51,-0.4222222222222222,-0.14,0.009024073518347817,0.1891599058847187,0.044872815336810354
1592231037.0407422,-9.664596449055972,-0.4391928981119445,1.35,0.51,-0.4222222222222222,-0.14,0.004734855158888558,0.16808786431497028,0.024580228442219278
1592231037.0507421,-9.676776098418278,-0.4432239015817223,1.3635521968365554,0.51,-0.4222222222222222,-0.14,-0.027974115779427742,0.10971480155271805,0.009573238304875751
1592231037.0607421,-9.7,-0.4125153120655319,1.3650918723931913,0.51,-0.42804364617125296,-0.15081121590534283,-0.07026170881095188,0.09108102976396892,0.021843340245810368
1592231037.0707421,-9.716865550239234,-0.42686555023923445,1.3584327751196172,0.51,-0.43,-0.15444444444444444,0.00213218273332752,0.19373569630377288,-0.0027839149812238506
1592231037.0807421,-9.712227346598148,-0.44554530680370713,1.235637545570343,0.51,-0.43,-0.15444444444444444,-0.04419788368145093,0.14996999560291824,0.003629394815922455
1592231037.090742,-9.733606423516603,-0.43426238432226455,1.223606423516603,0.51,-0.43,-0.15444444444444444,0.05284205208099869,-0.03882187778043661,-0.11963302114416018
1592231037.100742,-9.734183753599163,-0.44163249280167527,1.2358162464008375,0.51,-0.43,-0.15444444444444444,0.0649603484143734,-0.04955537360406333,-0.09353400451213023
1592231037.110742,-9.744686337815194,-0.4132841554620132,1.2693726756303896,0.5010250157796032,-0.43,-0.14383764491124826,0.030442644595090416,0.04328702214309386,-0.06619852536579313
1592231037.120742,-9.733507294259988,-0.4412317643500314,1.3294781172200378,0.49777777777777776,-0.43,-0.14,0.0067157704353500505,0.0658324334039941,0.0287533745592594
1592231037.130742,-9.714858180217847,-0.4424290901089229,1.271861810980306,0.49777777777777776,-0.43,-0.14,0.004924208659628132,0.03737066964342837,-0.10590897550227621
1592231037.140742,-9.71,-0.41065147198480534,1.2646742640075974,0.49777777777777776,-0.43,-0.14,0.04387128724840305,-0.03566695521496009,-0.07035060883566982
1592231037.150742,-9.704463803106194,-0.41107239378761123,1.3087533782566394,0.49777777777777776,-0.43,-0.14,0.06385308546203661,0.006316920834215353,-0.03323085418014797
