time,acc_x,acc_y,acc_z,mag_x,mag_y,mag_z,gyr_x,gyr_y,gyr_z
1592231120.6106625,-9.686696999393344,-0.38669699939334545,1.1865150030332727,0.5044444444444445,-0.3422222222222222,-0.14,0.005354890296547423,-0.067000242821853,0.014511322561307792
1592231120.6206625,-9.703177636402337,-0.3904670907929901,1.12,0.5044444444444445,-0.3422222222222222,-0.14,-0.0007434304722749169,-0.056395871480244136,-0.05372708585037649
1592231120.6306624,-9.7201170381243,-0.38264629765537483,1.13517555718645,0.5044444444444445,-0.3422222222222222,-0.14,0.05976588921762353,0.01975267903399932,-0.1384539361839983
1592231120.6406624,-9.748968168586256,-0.42103183141374506,1.1861909884824706,0.507195994881098,-0.3415343346130588,-0.14149042315318738,0.007844151593256377,-0.08989834555209339,-0.044169672637080104
1592231120.6506624,-9.723828775267538,-0.4267657550535077,1.2561712247324615,0.5311111111111111,-0.33555555555555555,-0.15444444444444444,0.07359670562381855,-0.07899378872247226,-0.026431569186341
1592231120.6606624,-9.680563015806406,-0.426291322795729,1.277417354408542,0.5311111111111111,-0.33555555555555555,-0.15444444444444444,0.0746317562458072,-0.01848664958657175,-0.023904742556974022
1592231120.6706624,-9.651050591061532,-0.4340337273743548,1.255966272625645,0.5311111111111111,-0.33555555555555555,-0.15444444444444444,0.04862897838444652,0.06143455807321845,0.0094057982368198
1592231120.6806624,-9.637184294100665,-0.4176052352997786,1.2771842941006641,0.5311111111111111,-0.33555555555555555,-0.15444444444444444,0.06094877113451697,0.09556248737284369,-0.045131147406997627
1592231120.6906624,-9.66076675501704,-0.41,1.3,0.5295776010770331,-0.33742984559720646,-0.15222937439522066,0.072911360802797,0.08977566252537568,0.0888211339610632
1592231120.7006624,-9.678770922672568,-0.4012290773274312,1.2766108728731498,0.5111111111111111,-0.36,-0.12555555555555556,0.07284603878877806,0.12094814531882357,-0.06168784636347954
1592231120.7106624,-9.694594334862936,-0.37189150229440454,1.1821603440405546,0.5111111111111111,-0.36,-0.12555555555555556,0.012411800393040844,0.09584438184119673,0.010969056587759807
1592231120.7206624,-9.694199803632793,-0.35,1.0658001963672068,0.5111111111111111,-0.36,-0.12555555555555556,-0.04286022480278724,0.037306198557985074,0.0951555735902603
1592231120.7306623,-9.73,-0.3524277269876266,1.0469940889133864,0.5111111111111111,-0.36,-0.12555555555555556,-0.13071083605839934,0.07159132398147097,0.03918175101313976
1592231120.7406623,-9.728741961535011,-0.3618870576974845,1.1062901923249484,0.5106917649561146,-0.35804305127668273,-0.1277920683822039,-0.009419814685603125,0.04574474402441303,-0.011882952551274917
1592231120.7506623,-9.71,-0.38022676520017495,1.1951133826000875,0.5044444444444445,-0.3288888888888889,-0.16111111111111112,-0.043993124845544095,-0.09968611739045219,-0.08315851295839714
1592231120.7606623,-9.71,-0.3431255182811911,1.154793567031034,0.5044444444444445,-0.3288888888888889,-0.16111111111111112,-0.017979807852778883,-0.031634997263720814,-0.10442837350845392
1592231120.7706623,-9.688917528184499,-0.31472938204612433,1.0963530897693783,0.5044444444444445,-0.3288888888888889,-0.16111111111111112,0.10240947686442584,-0.014270762967492577,0.059685033084840355
1592231120.7806623,-9.63,-0.30205761964735517,1.1761728589420655,0.5044444444444445,-0.3288888888888889,-0.16111111111111112,-0.06219538628242427,-0.03813854903966355,0.00860093968994844
1592231120.7906623,-9.631057448229793,-0.3110574482297929,1.2010574482297929,0.5047969271877087,-0.32988758999480444,-0.15964243301417652,-0.1476886143647811,0.10881244728597213,-0.01460948136773961
1592231120.8006623,-9.659491628047787,-0.33316387601592884,1.2263277520318576,0.5111111111111111,-0.3477777777777778,-0.13333333333333333,-0.0164733712923333,-0.03579386147897828,-0.07926659654251662
1592231120.8106623,-9.68845021257552,-0.36253390020138737,1.206199149697919,0.5111111111111111,-0.3477777777777778,-0.13333333333333333,0.003978298185633639,0.035334715984728565,-0.002334656135247729
1592231120.8206623,-9.721718545333303,-0.4364059634666222,1.1364059634666224,0.5111111111111111,-0.3477777777777778,-0.13333333333333333,0.03398638410281243,0.11496352100706309,-0.029520625911849122
1592231120.8306623,-9.771953625546628,-0.49597681277331435,1.1919922709244382,0.5111111111111111,-0.3477777777777778,-0.13333333333333333,0.0032556301204030814,0.05333877421647066,-0.012271263890636425
1592231120.8406622,-9.823859538595386,-0.5284909849098491,1.2100348003480035,0.5115399487328206,-0.34837815044817116,-0.13436254362543626,0.023588655251567156,-0.051334268202033136,0.03588664084867079
1592231120.8506622,-9.83883366621766,-0.61441683310883,1.3351943889637234,0.5166666666666667,-0.35555555555555557,-0.14666666666666667,0.05951389128567895,-0.010708067997177577,-0.03405840317825852
1592231120.8606622,-9.726736448079857,-0.5513891584638846,1.3360418688479136,0.5166666666666667,-0.35555555555555557,-0.14666666666666667,0.07197199573070023,-0.058746069474880536,0.03003572993900681
1592231120.8706622,-9.645811108979279,-0.47324443591711435,1.2962833365310822,0.5166666666666667,-0.35555555555555557,-0.14666666666666667,0.11010664776147344,0.030305715298593498,0.03521565724979673
1592231120.8806622,-9.63355714002773,-0.4117785700138641,1.32,0.5166666666666667,-0.35555555555555557,-0.14666666666666667,0.14354633099290262,0.11688719580269313,0.06302664273974967
1592231120.8906622,-9.650133238968552,-0.42,1.3207994338113116,0.5166666666666667,-0.35545192524668184,-0.14638538439972373,0.07058425029195574,0.10082306776843775,0.07245992338340448
1592231120.9006622,-9.655361134591905,-0.40840283647975956,1.3753611345919037,0.5166666666666667,-0.3477777777777778,-0.12555555555555556,0.07245982042154454,-0.00037283114656753644,0.06844376609378203
1592231120.9106622,-9.644311363264926,-0.3678443183675375,1.3168863673507507,0.5166666666666667,-0.3477777777777778,-0.12555555555555556,0.13003756803703853,0.08179272359999039,-0.020810823367181812
1592231120.9206622,-9.66,-0.350115604197759,1.1659306374813445,0.5166666666666667,-0.3477777777777778,-0.12555555555555556,0.05298285504317446,0.08167359360798276,0.10055819937767604
1592231120.9306622,-9.655303230059328,-0.3084344100197759,1.1868688200395516,0.5166666666666667,-0.3477777777777778,-0.12555555555555556,0.12818412208012986,0.13083353936299616,0.04010690687180114
1592231120.9406621,-9.630907363604639,-0.3003024545348792,1.1706049090697583,0.5166666666666667,-0.3477777777777778,-0.12555555555555556,0.06875118673586149,0.13615589178188583,0.0897821961147717
1592231120.9506621,-9.666244479460262,-0.26416298630684215,1.1237555205397367,0.5166666666666667,-0.35555555555555557,-0.14,0.02252295999269969,0.11141735299408895,0.016732495437938602
1592231120.9606621,-9.694725365927267,-0.2815751219757558,1.0858239022181984,0.5166666666666667,-0.35555555555555557,-0.14,0.10445188952536633,0.02495693097639168,-0.0239665635087562
1592231120.970662,-9.727701568770522,-0.2977015687705217,1.01,0.5166666666666667,-0.35555555555555557,-0.14,0.06385757625997768,-0.05486707709639599,-0.07112845491601937
1592231120.980662,-9.762593416193464,-0.32740658380653614,1.0125934161934638,0.5166666666666667,-0.35555555555555557,-0.14,0.0757132638288834,-0.03095086694755679,0.03163651839719092
1592231120.990662,-9.779248699519517,-0.3107513004804829,1.0292486995195171,0.5166666666666667,-0.35555555555555557,-0.14,0.10659902659242351,-0.10362324992059231,0.08069037690398992
1592231121.000662,-9.72844953417971,-0.25844953417971045,1.044620186328116,0.51,-0.3411111111111111,-0.13333333333333333,0.08157393503960068,-0.020304663209655714,0.0019955089484131328
1592231121.010662,-9.683939086965138,-0.21797969565504635,1.0478781739302783,0.51,-0.3411111111111111,-0.13333333333333333,0.13889985632320867,-0.008660200446490065,-0.024547572215308823
1592231121.020662,-9.653069282886909,-0.20168313946429003,1.0027722868452367,0.51,-0.3411111111111111,-0.13333333333333333,0.17502966525706848,0.005054499622297381,0.10465496063475276
1592231121.030662,-9.61,-0.14238065338958109,1.0161903266947905,0.51,-0.3411111111111111,-0.13333333333333333,0.037278502561430296,-0.07698168233985907,0.11670153546626325
1592231121.040662,-9.61,-0.09300206023741783,0.9915010301187089,0.51,-0.3411111111111111,-0.13333333333333333,0.003164832603822991,-0.1092998959839081,0.10951971021203014
1592231121.050662,-9.63,-0.17,1.1,0.5222222222222223,-0.3477777777777778,-0.15444444444444444,-0.038179077387375956,-0.1341721862470641,0.028361600344907853
1592231121.060662,-9.637360761941599,-0.21472152388319474,1.1167506285051247,0.5222222222222223,-0.3477777777777778,-0.15444444444444444,-0.11481352603514562,0.005315242276382123,-0.08033374884300336
1592231121.070662,-9.678443775100401,-0.3,1.0493373493975904,0.5222222222222223,-0.3477777777777778,-0.15444444444444444,-0.0367202554975313,-0.052020361954836,-0.05424583198498942
1592231121.080662,-9.667756385373806,-0.30897445850477445,1.1201925316357426,0.5222222222222223,-0.3477777777777778,-0.15444444444444444,0.011201911607505914,-0.056296725740615165,0.004831801966160841
1592231121.090662,-9.651475428926325,-0.3740982842946976,1.2667211396630698,0.5222222222222223,-0.3477777777777778,-0.15444444444444444,-0.042077393776682646,-0.10069614689410562,-0.0076000359568164895
1592231121.100662,-9.64,-0.42,1.39,0.51,-0.35555555555555557,-0.12555555555555556,-0.025089107997418484,0.0,-0.16689710972195776
1592231121.110662,-10.025259521449808,-0.9058748407192411,1.4706634574543396,0.51,-0.35555555555555557,-0.12555555555555556,0.0604824355396576,-0.017753282568353478,-0.12757583381624246
1592231121.120662,-10.24,-1.27,1.48,0.51,-0.35555555555555557,-0.12555555555555556,-0.08617563181722002,0.008726646259971648,-0.06544984694978735
1592231121.130662,-9.229951001674626,-0.027228183340569374,1.3589108726663772,0.51,-0.35555555555555557,-0.12555555555555556,-0.050804515105025504,0.048514940924633355,0.008402705443337459
1592231121.140662,-9.706881473671153,-0.4608013397010482,1.341567946411958,0.51,-0.35555555555555557,-0.12555555555555556,0.060812852014604096,0.022029463980992436,0.07272457802075113
1592231121.150662,-9.59,-0.56,1.5,0.49777777777777776,-0.3333333333333333,-0.14666666666666667,0.014180800172453926,0.004363323129985824,0.08944812416470939
1592231121.160662,-9.74504609289687,-0.5013076161210859,1.2863229804200422,0.49777777777777776,-0.3333333333333333,-0.14666666666666667,0.10947412295405985,0.020682209256774997,0.07340110774103167
1592231121.170662,-9.656583817850962,-0.388242199636057,1.151509253916826,0.49777777777777776,-0.3333333333333333,-0.14666666666666667,0.14203228265303403,0.12089589302476728,-0.012058785472848067
1592231121.180662,-9.733298058607353,-0.4707848305851115,1.29910934523695,0.49777777777777776,-0.3333333333333333,-0.14666666666666667,0.10465723063769689,0.11877454086119556,0.03776159686682419
1592231121.190662,-9.668736844130606,-0.38201316067958363,1.1941973717122352,0.49777777777777776,-0.3333333333333333,-0.14666666666666667,0.15659593371630853,0.054511399763930324,-0.06083390728240466
1592231121.200662,-9.658296994696524,-0.3561579257513259,1.165721862109605,0.5222222222222223,-0.3411111111111111,-0.14,0.10827315085663114,0.10951246832784692,-0.030015523505404845
1592231121.210662,-9.65,-0.24,0.95,0.5222222222222223,-0.3411111111111111,-0.14,0.1308996938995747,0.0,0.13199052468207118
1592231121.2206619,-9.667385907077367,-0.2152281858452663,0.8678422787678994,0.5222222222222223,-0.3411111111111111,-0.14,0.005096518292280882,0.015925573164803322,-0.07835422789457197
1592231121.2306619,-9.65,-0.25,0.92,0.5222222222222223,-0.3411111111111111,-0.14,0.07526732399225547,0.13635384781205698,-0.0916297857297023
1592231121.2406619,-9.679110878034162,-0.22488492658076115,0.9848186994306263,0.5214977524722805,-0.3411111111111111,-0.139802417340925,0.0324746567541627,0.05093738453222677,0.02149332178001932
1592231121.2506618,-9.65,0.27,1.47,0.49777777777777776,-0.3411111111111111,-0.13333333333333333,0.05999569303730508,0.004363323129985824,0.01090830782496456
1592231121.2606618,-9.729675652906488,0.32688289806234205,1.0150810867733784,0.49777777777777776,-0.3411111111111111,-0.13333333333333333,0.04177849732616534,-0.07487882465501841,0.016428628389797088
1592231121.2706618,-10.039853710751665,0.09282231208372979,0.9558396764985728,0.49777777777777776,-0.3411111111111111,-0.13333333333333333,-0.03844970928702958,0.019603038721889808,0.06947870745402676
1592231121.2806618,-9.86,0.05,1.11,0.49777777777777776,-0.3411111111111111,-0.13333333333333333,0.011999138607461015,-0.019634954084936207,0.04145156973486533
1592231121.2906618,-9.744433519891091,0.06777945847829375,0.9944335198910906,0.49777777777777776,-0.3411111111111111,-0.13333333333333333,-0.05006287932610834,-0.0739392197768094,0.13357487760500733
1592231121.3006618,-9.742464262749172,-0.1532675471138151,0.9134104961171292,0.5022222222222222,-0.3333333333333333,-0.12555555555555556,0.017312952664115366,-0.046330983107447904,0.06488104158256781
1592231121.3106618,-9.76,-0.39,1.08,0.5022222222222222,-0.3333333333333333,-0.12555555555555556,0.08617563181722002,-0.12762720155208535,0.07635815477475191
1592231121.3206618,-9.66123025370991,-0.5308201691399393,1.0818453805648636,0.5022222222222222,-0.3333333333333333,-0.12555555555555556,-0.05812899210753274,0.00787671380250712,-0.003926259767156942
1592231121.3306618,-9.704952018368429,-0.560971211021057,1.172006397550876,0.5022222222222222,-0.3333333333333333,-0.12555555555555556,0.11676900725150063,-0.03797765997990477,-0.08332691022095816
1592231121.3406618,-9.581486154993426,-0.4868916929960555,1.1884685126675432,0.5022222222222222,-0.3333333333333333,-0.12555555555555556,-0.03497086992400139,-0.08107537657413019,-0.05100362277528908
1592231121.3506618,-9.52,-0.53,1.28,0.5155555555555555,-0.3477777777777778,-0.11888888888888889,-0.044724062082354694,-0.07635815477475191,0.20398535632683729
1592231121.3606617,-9.49971962172694,-0.5492990543173503,1.2695794325904102,0.5155555555555555,-0.3477777777777778,-0.11888888888888889,-0.011509786205865874,0.02381477006432385,-0.1478075451091807
1592231121.3706617,-9.479786057864887,-0.49850240505420346,1.238930289324431,0.5155555555555555,-0.3477777777777778,-0.11888888888888889,0.022907446432425576,0.00955473475836475,-0.03284161080822125
1592231121.3806617,-9.460599379746332,-0.3582018607610035,1.1426372708838615,0.5155555555555555,-0.3477777777777778,-0.11888888888888889,0.02272437630666845,-0.11290816393337556,-0.04214251741869305
1592231121.3906617,-9.502290564987476,-0.23312830503757306,1.3260784859448929,0.5155555555555555,-0.3477777777777778,-0.11888888888888889,0.009990528405124096,0.07628043346099761,0.06154738692245381
1592231121.4006617,-9.52,-0.22,1.43,0.49,-0.3411111111111111,-0.12555555555555556,0.007635815477475192,0.08072147790473774,0.004363323129985824
1592231121.4106617,-9.611905334937825,-0.16485679903730446,1.4024283995186522,0.49,-0.3411111111111111,-0.12555555555555556,-0.016424944944723407,0.11681261853803565,-0.12496326413933165
1592231121.4206617,-9.748813941224412,-0.13823721175511772,1.3408813941224413,0.49,-0.3411111111111111,-0.12555555555555556,0.10160276329145479,0.1492289613474727,-0.12760463606559763
1592231121.4306617,-9.84,-0.12,1.35,0.49,-0.3411111111111111,-0.12555555555555556,0.148352986419518,0.056723200689815706,-0.0370882466048795
1592231121.4406617,-9.863381366186337,-0.14338136618633812,1.3967627323726761,0.49,-0.3411111111111111,-0.12555555555555556,0.21636662368052975,0.07882763279964453,-0.026886201015727737
1592231121.4506617,-9.9,-0.15,1.31,0.51,-0.3477777777777778,-0.14,0.20289452554434081,0.1778054175469223,-0.061086523819801536
1592231121.4606616,-9.94574269238417,-0.15914853847683436,1.2276631537084908,0.51,-0.3477777777777778,-0.14,0.1350338753237285,0.029110757504698326,0.09658969286926819
1592231121.4706616,-9.882990042811103,-0.16957285102698544,1.0955529366491896,0.51,-0.3477777777777778,-0.14,0.0859043539709789,0.07583732229858377,0.0005757177038602651
1592231121.4806616,-9.8,-0.19683318147605278,1.0463807788297745,0.51,-0.3477777777777778,-0.14,0.2281573938149605,-0.031036756642543857,-0.06716886800622712
1592231121.4906616,-9.8,-0.13867824743493246,0.9799179970684943,0.51,-0.3477777777777778,-0.14,0.1311891142999142,-0.04009921267198744,0.061518007611871706
1592231121.5006616,-9.84,-0.14,1.0,0.5222222222222223,-0.3477777777777778,-0.12555555555555556,0.04036073895236887,0.0545415391248228,0.06763150851478027
1592231121.5106616,-9.758985483870967,-0.3110306451612903,1.045008064516129,0.5222222222222223,-0.3477777777777778,-0.12555555555555556,0.11596885959393008,-0.1408612661696016,0.006752242543653066
1592231121.5206616,-9.683514066373066,-0.33,0.907530142227998,0.5222222222222223,-0.3477777777777778,-0.12555555555555556,0.07565941718811056,-0.1314516853048536,0.10153486420458659
1592231121.5306616,-9.73707173881915,-0.20634456589184288,1.0236554341081572,0.5222222222222223,-0.3477777777777778,-0.12555555555555556,0.02120598783182409,-0.17961335072869916,0.11105179065228775
1592231121.5406616,-9.661964481301831,-0.2,1.053410655609451,0.5222222222222223,-0.3477777777777778,-0.12555555555555556,0.10962631744116344,-0.07916925010881871,0.09934744338527278
1592231121.5506616,-9.489736564805058,-0.40026343519494206,1.02,0.5222222222222223,-0.3333333333333333,-0.12555555555555556,0.04483900737028899,-0.16767069150975555,0.1777169096752129
1592231121.5606616,-9.46027186512118,-0.4297281348788198,1.02,0.5222222222222223,-0.3333333333333333,-0.12555555555555556,0.05769540793516397,-0.010179784590037017,-0.07619700148106809
1592231121.5706615,-9.506844775109908,-0.22388298951640173,0.8888346296922557,0.5222222222222223,-0.3333333333333333,-0.12555555555555556,0.09869380962352192,-0.004638668444850671,-0.05605593835657946
1592231121.5806615,-9.668334443704197,-0.18205862758161226,0.9731379080612925,0.5222222222222223,-0.3333333333333333,-0.12555555555555556,0.09331944700172379,-0.09986515843273348,-0.11550015740317239
1592231121.5906615,-9.879056335336461,0.035644363281167074,1.0463521117788206,0.5222222222222223,-0.3333333333333333,-0.12555555555555556,-0.030323557708172716,-0.08337826573075813,-0.04761246006262693
1592231121.6006615,-9.77,0.04,1.04,0.5222222222222223,-0.3333333333333333,-0.12555555555555556,-0.044724062082354694,-0.09381144729469522,-0.0916297857297023
1592231121.6106615,-9.652225689027562,-0.014357374294971796,0.9675235009400376,0.5222222222222223,-0.3333333333333333,-0.12555555555555556,-0.08227737026889134,-0.04835217948994031,-0.12424186915485255
1592231121.6206615,-9.63,-0.21058863284571278,0.9010595391222831,0.5222222222222223,-0.3333333333333333,-0.12555555555555556,-0.07791771770146352,-0.1409098005903504,0.01328259903826507
1592231121.6306615,-9.63,-0.3020294752447187,1.0656530554404937,0.5222222222222223,-0.3333333333333333,-0.12555555555555556,-0.15073265223782067,-0.1708337462902232,0.04320654473813788
1592231121.6406615,-9.667871174503947,-0.07519871807553066,1.19361352351184,0.5222222222222223,-0.3333333333333333,-0.12555555555555556,-0.09511306830218971,-0.050335186520700556,-0.04672184327191679
1592231121.6506615,-9.64,0.07,1.34,0.5222222222222223,-0.3411111111111111,-0.1111111111111111,-0.1308996938995747,-0.0916297857297023,-0.02399827721492203
1592231121.6606615,-9.599545097065276,0.14281882528250342,1.242908232956662,0.5222222222222223,-0.3411111111111111,-0.1111111111111111,-0.11236532346145134,-0.12075522498961047,-0.08224915573473836
1592231121.6706614,-9.599882723566473,0.03152459363583415,0.9729319108381427,0.5222222222222223,-0.3411111111111111,-0.1111111111111111,0.01274799824244005,-0.0252136002805588,-0.050715516718592174
1592231121.6806614,-9.627669126144546,-0.42192906036092104,1.2097990932527336,0.5222222222222223,-0.3411111111111111,-0.1111111111111111,-0.040147401969393294,-0.141709381855591,0.004149986147010246
1592231121.6906614,-9.662887387194731,-0.27911937042898083,1.2217781532013172,0.5222222222222223,-0.3411111111111111,-0.1111111111111111,-0.06445507795169533,-0.04669234891642303,-0.019973013186342023
1592231121.7006614,-9.68,-0.3,1.25,0.51,-0.3477777777777778,-0.11888888888888889,-0.001090830782496456,-0.21489366415180183,-0.10253809355466686
1592231121.7106614,-9.53590264423077,-0.3,1.201967548076923,0.51,-0.3477777777777778,-0.11888888888888889,-0.18522280464896013,-0.15351633952964727,-0.11152014106034801
1592231121.7206614,-9.584000835538225,-0.2524996518590725,1.237000417769113,0.51,-0.3477777777777778,-0.11888888888888889,-0.0290143367148267,-0.1275181336643493,0.03567127549512783
1592231121.7306614,-9.865881232137186,-0.2362059383931407,1.2882792156240077,0.51,-0.3477777777777778,-0.11888888888888889,0.036301992820004514,-0.20587153403744166,0.10156413131305472
1592231121.7406614,-10.23944248787295,-0.1695290938489822,1.4233829490331584,0.51,-0.3477777777777778,-0.11888888888888889,-0.04554594836267009,-0.2179863688754722,0.024559192372422087
1592231121.7506614,-9.976337367251174,-0.23591565818720672,1.5745542109162758,0.5153034356905684,-0.33611021925852747,-0.12525301171757086,-0.017151017356208782,-0.16054663720899,-0.027470535189781396
1592231121.7606614,-9.391908213544,0.18782220955328416,1.1662047481369875,0.5155555555555555,-0.33555555555555555,-0.12555555555555556,-0.14959497968736835,-0.1413393225053301,0.13459444618998923
1592231121.7706614,-10.119776099487616,-0.5905401366353544,1.433326216908625,0.5155555555555555,-0.33555555555555555,-0.12555555555555556,-0.14076368961172764,-0.03443094765316558,-0.04687897104569533
1592231121.7806613,-10.10625599692957,-0.8387392055267703,1.47,0.5155555555555555,-0.33555555555555555,-0.12555555555555556,0.07436761362895286,-0.12128066390792347,0.03258215882441151
1592231121.7906613,-9.578264770710204,-0.33593734761152394,1.2244775391577427,0.5155555555555555,-0.33555555555555555,-0.12555555555555556,0.02307532547496556,0.02386044192498868,-0.051120508932470124
1592231121.8006613,-9.76,-0.29,1.5,0.51,-0.33,-0.14666666666666667,-0.15489797111449674,0.05235987755982988,0.002181661564992912
1592231121.8106613,-9.651492754071008,-0.23876046720019775,1.3523095819299817,0.51,-0.33,-0.14666666666666667,-0.14141773554973672,0.021453971630867864,-0.007681925433611989
1592231121.8206613,-9.41820968389828,-0.12859901739640947,1.0347854030837684,0.51,-0.33,-0.14666666666666667,-0.1124361619020495,-0.04499158746382966,-0.028887954931919712
1592231121.8306613,-9.91647934701954,-0.41649740291862475,1.3447551323274798,0.51,-0.33,-0.14666666666666667,-0.16755638378009038,-0.07521784133939623,0.036229072342257265
1592231121.8406613,-9.692073770996124,-0.2770242416784594,1.3283498431058882,0.51,-0.33,-0.14666666666666667,-0.08213094027155106,-0.00960988831360196,0.04157157253060172
1592231121.8506613,-9.671976845151953,-0.49586396526772797,1.4442691751085384,0.5153433027817977,-0.3161074127673259,-0.13384273999035215,-0.09769644665174844,-0.07781869983982531,0.04573154139550844
1592231121.8606613,-9.606233425017448,-0.5038527854181206,1.4131167125087236,0.5155555555555555,-0.31555555555555553,-0.13333333333333333,-0.04243823891794937,-0.08826759618375075,0.04849712122186119
1592231121.8706613,-9.595158878000055,-0.376943926999811,1.266943926999811,0.5155555555555555,-0.31555555555555553,-0.13333333333333333,-0.08024130739345012,-0.14436431703038477,-0.03803227272630457
1592231121.8806612,-9.682141917375668,-0.36,1.2992851504254013,0.5155555555555555,-0.31555555555555553,-0.13333333333333333,0.01340044618051979,-0.11309621800414356,0.03763265737168984
1592231121.8906612,-9.80762298996975,-0.34654712625378126,1.451255174335297,0.5155555555555555,-0.31555555555555553,-0.13333333333333333,0.03893237758146581,-0.04748800081754582,-0.05040290351670529
1592231121.9006612,-9.383342993362625,-0.11756006356922499,1.45644573244835,0.520851744518193,-0.33144412244346805,-0.13333333333333333,-0.022033517311551065,-0.10542705644782611,0.03958215682426189
1592231121.9106612,-9.810963841194114,-0.32713398360926765,1.5735669918046338,0.5222222222222223,-0.33555555555555555,-0.13333333333333333,-0.06367639996991659,0.1091336510000776,-0.001955050300194272
1592231121.9206612,-9.510415479363912,-0.1470989980696755,1.4233164812942365,0.5222222222222223,-0.33555555555555555,-0.13333333333333333,0.013626711478265552,-0.0008248160691989859,-0.06476019402929736
1592231121.9306612,-9.569034594491566,-0.02638616220337367,1.4277103783474696,0.5222222222222223,-0.33555555555555555,-0.13333333333333333,0.04942893906118184,0.04226561247215099,0.050282121967114235
1592231121.9406612,-9.43617538033825,0.04150359101088887,1.49794153988725,0.5222222222222223,-0.33555555555555555,-0.13333333333333333,0.016932601727865863,0.06326818538479445,0.07307134153506822
1592231121.9506612,-9.979491759266164,-0.06140241628756807,1.4774390334849727,0.5163821148316636,-0.3180352333838798,-0.13917344072389193,0.02348389709427731,0.10722511089626827,0.002651705584775496
1592231121.9606612,-10.07,-0.24526679143273028,1.3555845290081099,0.5155555555555555,-0.31555555555555553,-0.14,0.03697805205421684,0.10651262817119897,-0.06478867964581134
1592231121.9706612,-9.588538336218308,-0.10349251603706344,1.1632995621627125,0.5155555555555555,-0.31555555555555553,-0.14,0.0112150866276583,0.03619789943529479,-0.02630622679536128
1592231121.9806612,-9.940308200330215,-0.1910441072411353,1.2343517572136173,0.5155555555555555,-0.31555555555555553,-0.14,0.05119717664636936,0.0651669976754204,0.01435584425037477
1592231121.9906611,-9.64200392095707,-0.07068705861385255,1.1072773854345357,0.5155555555555555,-0.31555555555555553,-0.14,0.11374963809636433,0.016971729867372387,0.09800614087047285
1592231122.0006611,-9.321349807669892,0.06253992306795664,1.1442091152815013,0.5322754529794977,-0.31555555555555553,-0.13094338889536467,0.010135609530847425,0.03127158440927594,0.1344666685984176
1592231122.0106611,-9.371973132856791,-0.06588581464136062,1.429832080354942,0.5422222222222223,-0.31555555555555553,-0.12555555555555556,0.06076871214001084,0.0358041610467066,-0.05067372123967137
1592231122.020661,-9.710248778606326,-0.1721232964772435,1.449632296220108,0.5422222222222223,-0.31555555555555553,-0.12555555555555556,0.059069230174207676,0.07515211217844461,-0.10769850292177258
1592231122.030661,-10.10120628696323,-0.25750482129082025,1.4136821805091282,0.5422222222222223,-0.31555555555555553,-0.12555555555555556,0.021814511964953875,0.13054399583167722,-0.11897295711667834
1592231122.040661,-9.952818341121494,-0.030756425233644857,1.229278621495327,0.5422222222222223,-0.31555555555555553,-0.12555555555555556,0.03522516879645682,0.048855137653800826,-0.0991231942679906
1592231122.050661,-9.675641183523998,-0.37570437826101055,1.6952769225783453,0.5248290861428886,-0.31555555555555553,-0.11299384616492565,0.0816257959605125,0.18356461662977636,0.01547193063455711
1592231122.060661,-9.783378129476771,-0.3759731223139368,1.5455815539941333,0.5222222222222223,-0.31555555555555553,-0.1111111111111111,0.14202826634805996,0.17401891239978123,0.028524491987099325
1592231122.070661,-9.552809258080222,-0.12479195535747725,0.9956548443878507,0.5222222222222223,-0.31555555555555553,-0.1111111111111111,0.16014254628782296,0.10054468517291591,0.06427555235362697
1592231122.080661,-8.991291897891232,-0.09064594894561598,1.0702859045504993,0.5222222222222223,-0.31555555555555553,-0.1111111111111111,0.021565179759908182,0.10318188953346855,0.10266400520991617
1592231122.090661,-9.736117647058823,-0.46305882352941174,1.5233882352941177,0.5222222222222223,-0.31555555555555553,-0.1111111111111111,0.09671947382779753,0.03412118687648914,0.01803079116950025
1592231122.100661,-10.347365560309933,-0.6122678385567248,1.3587683589684283,0.5426686198167637,-0.29510915796101406,-0.12474204284080541,0.07550991305143676,-0.0019790624859262647,-0.045207095627651205
1592231122.110661,-9.9036495215311,-0.37858373205741624,1.172632775119617,0.5555555555555556,-0.2822222222222222,-0.13333333333333333,0.1541765353015275,0.06369303526850359,-0.055574435832268
1592231122.120661,-9.865528018993723,-0.3658230071226461,1.2403377565290923,0.5555555555555556,-0.2822222222222222,-0.13333333333333333,0.15210863091230375,0.09923342299402745,-0.07031031815129635
1592231122.130661,-9.60406274509804,-0.13639999999999997,1.2065882352941175,0.5555555555555556,-0.2822222222222222,-0.13333333333333333,0.11865586697541253,0.11696871536515134,-0.054755427513547596
1592231122.140661,-9.632829101726161,0.013019105077928597,1.2169808949220713,0.5555555555555556,-0.2822222222222222,-0.13333333333333333,0.08732829828132858,0.02179634652591214,-0.00535132295636459
1592231122.150661,-9.459691350019453,0.12295357281805214,1.2438996239138893,0.5403496448075621,-0.2938502716177467,-0.11007723454228448,0.06563516510891981,0.22853520262760468,-0.09928448668369977
1592231122.160661,-9.832591784084142,-0.029662631474498907,1.33714427465767,0.5366666666666666,-0.2966666666666667,-0.10444444444444445,0.05830370387358364,0.15710734181625483,-0.014936090626935003
1592231122.170661,-9.656227363403197,-0.07339646104821368,1.1850946915723206,0.5366666666666666,-0.2966666666666667,-0.10444444444444445,0.0801657332652965,0.08508468799233568,0.1319081733024967
1592231122.180661,-9.030594618983164,0.13323882121061004,1.1050777706537485,0.5366666666666666,-0.2966666666666667,-0.10444444444444445,0.03955233622956131,0.1674370464802954,-0.1649171084747378
1592231122.190661,-9.843077522010821,-0.2613204495997125,1.4063151590169498,0.5366666666666666,-0.2966666666666667,-0.10444444444444445,0.04629002024175476,0.15409060084159268,-0.026028974716262948
1592231122.200661,-9.885836258634356,-0.10207479334163744,1.2549470614879403,0.5543566225040577,-0.28708460725474655,-0.1088669334037922,0.0310505704846616,0.07918723077058612,-0.07397326714873503
1592231122.210661,-9.436753889149951,0.14716271362500927,1.1271627136250093,0.5633333333333334,-0.2822222222222222,-0.1111111111111111,-0.020932711687152893,0.06152892095014993,0.016586331196382753
1592231122.220661,-9.833322836510003,-0.06418846927903402,1.0727434592162899,0.5633333333333334,-0.2822222222222222,-0.1111111111111111,0.02813733886309381,0.11354501134595252,-0.09617090639980191
1592231122.230661,-9.872063974730688,-0.14737100157933197,1.1679360252693114,0.5633333333333334,-0.2822222222222222,-0.1111111111111111,-0.012020531983955772,0.12659265694885213,-0.04422563755113551
1592231122.240661,-10.041499686849708,-0.21220579024991412,1.2659852112249228,0.5633333333333334,-0.2822222222222222,-0.1111111111111111,-0.09013622666631327,0.08676762520024162,0.0037793957725090867
1592231122.250661,-10.333097800655125,-0.209225549836219,1.5106679925128685,0.5399257786096813,-0.2867527166848645,-0.12923308896168045,-0.027244353795919024,-0.0034488526822355065,0.010209247105905647
1592231122.260661,-9.764773555439875,0.08128839146277977,1.2947188964081207,0.5288888888888889,-0.28888888888888886,-0.13777777777777778,0.04733728605999586,0.09386283729251713,-0.01628523477939399
1592231122.2706609,-9.450372940565547,-0.15298588490770904,1.4985082377378087,0.5288888888888889,-0.28888888888888886,-0.13777777777777778,0.03886283564305211,0.019903297530509956,-0.08935059154411512
1592231122.2806609,-9.928523965141613,-0.33013616557734204,1.5770261437908497,0.5288888888888889,-0.28888888888888886,-0.13777777777777778,0.12148206931713935,-0.12540335644376058,0.049061243298163054
1592231122.2906609,-9.465081914292632,-0.09612218545718665,1.5539552901299332,0.5288888888888889,-0.28888888888888886,-0.13777777777777778,0.020588891810634835,-0.03745596512465091,0.0053088095801522295
1592231122.3006608,-9.430705856437045,-0.00029927305913081403,1.3320722535166944,0.5343566101268212,-0.27561013731105305,-0.12840454136989365,-0.0411158793228682,0.10026096670326795,-0.05318030918338357
1592231122.3106608,-9.717700665822473,-0.08474449573138353,1.2646350230791226,0.5366666666666666,-0.27,-0.12444444444444444,-0.059609506591004,0.08653793503573554,-0.0396361770735986
1592231122.3206608,-9.917444581449512,-0.23662090697355803,1.3564836278942323,0.5366666666666666,-0.27,-0.12444444444444444,-0.017569653781383462,-0.08168674134602943,0.009991406192306353
1592231122.3306608,-9.86,-0.13541922723740907,1.3002794848249395,0.5366666666666666,-0.27,-0.12444444444444444,0.04928725912982274,-0.05544603152755396,0.08179877314951725
1592231122.3406608,-9.677380745001924,-0.06054528145192327,1.4585101987076912,0.5366666666666666,-0.27,-0.12444444444444444,0.04484302404093115,0.007624126978944927,0.07862691664448264
1592231122.3506608,-9.828863318813184,-0.24173091148187723,1.667132407331306,0.547873939526771,-0.27725176479183217,-0.13235546058098865,0.0015276293008101571,-0.05659122872369137,0.07055479515027624
1592231122.3606608,-9.625752085653884,-0.29375826873678706,1.4859153008569934,0.5555555555555556,-0.2822222222222222,-0.13777777777777778,0.0017895020590671176,-0.0022317012667291275,-0.006127805338184827
1592231122.3706608,-9.689947350409351,-0.35210861610550975,1.3465946244767948,0.5555555555555556,-0.2822222222222222,-0.13777777777777778,-0.014546525837704535,0.0913940282146499,-0.08480189201666066
1592231122.3806608,-9.76032958409626,-0.4306931729008632,1.2327386868951085,0.5555555555555556,-0.2822222222222222,-0.13777777777777778,0.04962780726362179,0.10253809355466686,-0.0846311204320112
1592231122.3906608,-9.86409881517533,-0.49763952607013207,1.289515099533251,0.5555555555555556,-0.2822222222222222,-0.13777777777777778,0.02707316065096143,0.033375627296279145,0.08179135544106306
1592231122.4006608,-9.652071142199096,-0.5046745713554551,1.3464497142369702,0.5634056508098989,-0.2822222222222222,-0.13777777777777778,-0.03819843188731277,-0.041858200334499336,0.17650159421464046
1592231122.4106607,-9.492925053238991,-0.5303400425911933,1.3174149893522018,0.5688888888888889,-0.2822222222222222,-0.13777777777777778,0.06804312721975059,-0.05066799204721019,0.08827951071049271
1592231122.4206607,-9.78798196770962,-0.6139962257996878,1.2740025161335415,0.5688888888888889,-0.2822222222222222,-0.13777777777777778,0.07614442584432313,-0.09489884723229179,0.03010802746727014
1592231122.4306607,-9.770043917741374,-0.511850121993726,1.319074939003137,0.5688888888888889,-0.2822222222222222,-0.13777777777777778,0.04135066123375882,-0.1439528333342175,-0.033109394749644604
1592231122.4406607,-9.67673192295548,-0.44271234606883486,1.398039153773287,0.5688888888888889,-0.2822222222222222,-0.13777777777777778,0.04588619124564584,-0.036193744697035055,-0.11022729670858251
1592231122.4506607,-9.615716521675827,-0.39292687365777307,1.4245579296036108,0.5761449827507411,-0.2858502691531483,-0.12628896249651173,0.13673791967021184,0.05286540871852187,-0.1021606525246224
1592231122.4606607,-9.455206022828463,-0.30436007447583585,1.3842515988019104,0.5822222222222222,-0.28888888888888886,-0.11666666666666667,0.20112931002243484,0.00870298053911768,-0.059392305460457484
1592231122.4706607,-9.55285481021468,-0.5058472080946518,1.418381605010975,0.5822222222222222,-0.28888888888888886,-0.11666666666666667,0.18631721470101012,0.025350559328498137,4.6602225195792324e-05
1592231122.4806607,-9.78366023489933,-0.6260595637583893,1.4642294463087249,0.5822222222222222,-0.28888888888888886,-0.11666666666666667,0.16433434372796263,0.03364764552018829,0.057152074721876917
1592231122.4906607,-9.922079891456164,-0.4364958697473961,1.2429917394947922,0.5822222222222222,-0.28888888888888886,-0.11666666666666667,0.02373443885853467,0.025844579813142424,0.1185865262700087
1592231122.5006607,-9.75159641641046,-0.4100175212403716,1.1623508215147609,0.5883742713257738,-0.2832495105439665,-0.13307213094280435,0.11587494143769751,0.0473382117816489,0.10672727466843149
1592231122.5106606,-9.89364016539799,-0.6955608025561508,1.1527142655765434,0.5955555555555555,-0.27666666666666667,-0.15222222222222223,0.14578116397132035,-0.06352789967738488,0.007744913932533168
1592231122.5206606,-9.684976170589103,-0.6901901439591216,1.1308716159779886,0.5955555555555555,-0.27666666666666667,-0.15222222222222223,0.03801829065581355,-0.022048255734533326,-0.11375066347132466
1592231122.5306606,-9.492591319673938,-0.6210174047146949,1.2062478519497688,0.5955555555555555,-0.27666666666666667,-0.15222222222222223,0.0002722390637611774,0.07254973983528919,0.008547869212362225
1592231122.5406606,-9.600384615384616,-0.5947435897435898,1.2751282051282051,0.5955555555555555,-0.27666666666666667,-0.15222222222222223,0.0911682803986461,0.08905654388381322,0.040248858872112825
1592231122.5506606,-9.69177530790027,-0.5457004105336938,1.349967624578619,0.5955555555555555,-0.2725407103308375,-0.14551754317649981,0.1936171664771851,0.047534605196897395,-0.032106636757215534
1592231122.5606606,-9.691587854421355,-0.4708150814613964,1.3910726724480493,0.5955555555555555,-0.2677777777777778,-0.13777777777777778,0.18251977191466856,0.07462607429381449,0.08567026106597345
1592231122.5706606,-9.63209859217678,-0.48044506816359267,1.2865183106121358,0.5955555555555555,-0.2677777777777778,-0.13777777777777778,0.1355214369122089,0.10543079250621888,0.032215154719079875
1592231122.5806606,-9.615255873680205,-0.5284647579187672,1.112835536954247,0.5955555555555555,-0.2677777777777778,-0.13777777777777778,0.15513179468230381,0.03832548300271911,0.0030144407774267135
1592231122.5906606,-9.702065044482413,-0.5820650444824133,1.1311724503623402,0.5955555555555555,-0.2677777777777778,-0.13777777777777778,0.11583352962768807,-0.011154199451302357,0.05607794404359734
1592231122.6006606,-9.73655444799699,-0.722642467556893,1.3544818506676697,0.5955555555555555,-0.2709513510124757,-0.12916379328359767,0.045249679623215314,-0.0026705556320775563,0.03366598813528699
1592231122.6106606,-9.61893516963386,-0.6925461874370171,1.2959489418878065,0.5955555555555555,-0.27555555555555555,-0.11666666666666667,0.06951014117244211,0.048976360110863724,0.046375514664387454
1592231122.6206605,-9.647212180612222,-0.5927878193877784,1.2837923096209514,0.5955555555555555,-0.27555555555555555,-0.11666666666666667,0.04389670846809644,0.02654438610765257,0.1092739046407212
1592231122.6306605,-9.504275834658188,-0.4239554848966614,1.2549721780604133,0.5955555555555555,-0.27555555555555555,-0.11666666666666667,0.1602487649083196,-0.08219210509640228,0.14130056597420784
1592231122.6406605,-9.363654026217228,-0.29914894328517927,1.1872802969502407,0.5955555555555555,-0.27555555555555555,-0.11666666666666667,0.23894643913254282,-0.10673996614147019,0.12619227610762765
1592231122.6506605,-9.714609899904017,-0.3276422597010833,1.3116865487453722,0.60510619010619,-0.2817353779118485,-0.12734090528208175,0.07784146327194338,0.05155114013477047,-0.029072218341293518
1592231122.6606605,-10.124329179030662,-0.5037206726013848,1.3950623145400594,0.6144444444444445,-0.2877777777777778,-0.13777777777777778,0.07504859677541303,0.09265044081082034,-0.010748362468686344
1592231122.6706605,-9.754473413126656,-0.18054105758854117,1.1817198077111744,0.6144444444444445,-0.2877777777777778,-0.13777777777777778,0.011082211486453511,0.12260200108647262,-0.01806457726728164
1592231122.6806605,-9.418383334994518,-0.050958337486295226,1.1535333399780725,0.6144444444444445,-0.2877777777777778,-0.13777777777777778,-0.006394075383097428,0.07663268360220168,-0.018733194839443777
1592231122.6906605,-9.435234577760031,-0.04104012777001397,1.129462966660012,0.6144444444444445,-0.2877777777777778,-0.13777777777777778,-0.0520269008645939,0.05695752568921004,-0.040942849290083586
1592231122.7006605,-9.873127813602629,-0.2827673682929797,1.2573488258912278,0.6105891498019494,-0.2824767476443471,-0.13488630679590652,0.06370198273393542,0.06124250372941693,0.0007636080918716898
1592231122.7106605,-10.029682064557884,-0.41989402151929456,1.2769120621308956,0.6055555555555555,-0.27555555555555555,-0.13111111111111112,0.056811007228816116,0.12928828947530602,-0.05235987755982988
1592231122.7206604,-9.771186412954583,-0.35326427130472715,1.2432580011994985,0.6055555555555555,-0.27555555555555555,-0.13111111111111112,-0.03746829178781131,0.026025184857225006,-0.022526033324735167
1592231122.7306604,-10.550995775497887,-0.6310983705491853,1.308098974049487,0.6055555555555555,-0.27555555555555555,-0.13111111111111112,-0.01988577275007269,-0.06933918205116882,0.009184834687622543
1592231122.7406604,-9.407249804024039,-0.3524431669715182,1.2419950352756728,0.6055555555555555,-0.27555555555555555,-0.13111111111111112,-0.03938306725548807,-0.1475601602315081,0.004754391808738146
1592231122.7506604,-9.926915884857994,-0.7344753610194998,1.6052463898050013,0.6000856698650557,-0.2775446048975555,-0.11818229038811154,-0.11410975055901,-0.12784406839363766,-0.01888749871221602
1592231122.7606604,-10.128385140870689,-0.7156400824608917,1.5290234043413236,0.5933333333333334,-0.28,-0.10222222222222223,-0.1293370619378587,-0.271457069750637,-0.008591587660724037
1592231122.7706604,-9.681247183565276,-0.3691035122597747,1.2647567925778662,0.5933333333333334,-0.28,-0.10222222222222223,-0.18919435596874984,-0.1630088654456874,0.042885133910733036
1592231122.7806604,-9.899773058455365,-0.4841320083132271,1.667221518836148,0.5933333333333334,-0.28,-0.10222222222222223,-0.13000740208489653,-0.011837289870209516,-0.0951622627578483
1592231122.7906604,-9.569222360101637,-0.17079063995745436,1.5107776398983632,0.5933333333333334,-0.28,-0.10222222222222223,-0.2074819707939709,0.13478583093472976,-0.07234264957907743
1592231122.8006604,-9.822042950069802,-0.1663436005584103,1.3583149671785428,0.6040381778398234,-0.27509361293452544,-0.11114292597763059,-0.23527166104824457,0.06443771720898406,-0.0046060035755526516
1592231122.8106604,-9.84,-0.31,1.49,0.62,-0.2677777777777778,-0.12444444444444444,-0.1810779098944117,-0.08508480103472357,0.07635815477475191
1592231122.8206604,-9.913888307827811,-0.605437080259826,1.5609575580755257,0.62,-0.2677777777777778,-0.12444444444444444,-0.18904885289567377,-0.04326447693261665,-0.0007865678971661939
1592231122.8306603,-9.965154619435136,-0.6225773097175682,1.4741924365725227,0.62,-0.2677777777777778,-0.12444444444444444,-0.2449544331737051,-0.03374024725348923,0.0018796335493892966
1592231122.8406603,-9.747250355225766,-0.49875059204294286,1.4867486975055257,0.62,-0.2677777777777778,-0.12444444444444444,-0.15304619372441258,-0.016635556924270926,-0.027597553807720367
1592231122.8506603,-9.62460381428085,-0.4082160290611874,1.5718061073901692,0.61757709917887,-0.2722197626165159,-0.12161772681979288,-0.04332563410792713,-0.00257569307253108,-0.011326486455057704
1592231122.8606603,-9.724326640488009,-0.5313165888716012,1.7063819120298338,0.6133333333333333,-0.28,-0.11666666666666667,-0.0962945952958571,-0.03614103338928652,0.04831229216837506
1592231122.8706603,-9.586174924478485,-0.4758052853167147,1.5806072643371947,0.6133333333333333,-0.28,-0.11666666666666667,-0.1716661634707656,-0.06544408675298628,0.0653807245881744
1592231122.8806603,-9.36704054117981,-0.2736489427125219,1.3993566393869152,0.6133333333333333,-0.28,-0.11666666666666667,-0.18379293760576362,-0.0030238186381913584,0.10939690044576425
1592231122.8906603,-9.378719089911186,-0.38819558926254866,1.3967286697934338,0.6133333333333333,-0.28,-0.11666666666666667,-0.13733800120039652,0.10841519067863618,0.03778019101681612
1592231122.9006603,-9.292310856734037,-0.5769987479878376,1.4306242174923987,0.6133333333333333,-0.27836112270381635,-0.11420835072239115,-0.08785990628243752,0.1304023067997993,-0.0345115629106978
1592231122.9106603,-9.69,-0.88,1.62,0.6133333333333333,-0.27555555555555555,-0.11,-0.014180800172453926,0.056723200689815706,0.06326818538479445
1592231122.9206603,-9.868943763919821,-0.7778942093541203,1.3647371937639199,0.6133333333333333,-0.27555555555555555,-0.11,-0.15845786943430087,0.010448531153277579,0.069927112092466
1592231122.9306602,-9.577539432176655,-0.6194321766561515,1.3204416403785488,0.6133333333333333,-0.27555555555555555,-0.11,-0.1463330568632864,-0.03816187185452901,0.0328488033113917
1592231122.9406602,-9.54,-0.48,1.24,0.6133333333333333,-0.27555555555555555,-0.11,-0.10362892433716332,-0.0545415391248228,0.06326818538479445
1592231122.9506602,-9.870848553905962,-0.5685515600388753,1.5148500284862092,0.6133333333333333,-0.2771063969227447,-0.1224067309375128,-0.11630554128040048,0.043234245839213904,-0.06235849560994804
1592231122.9606602,-9.35,-0.23,1.3,0.6133333333333333,-0.28,-0.14555555555555555,-0.06872233929727672,0.08726646259971647,-0.08508480103472357
1592231122.9706602,-9.699181894383907,-0.3175959765297569,1.1556828164291701,0.6133333333333333,-0.28,-0.14555555555555555,-0.17570133023472656,0.006091901317491188,0.11757151559473378
1592231122.9806602,-9.594091269745858,-0.3439648000769397,1.2416414608929816,0.6133333333333333,-0.28,-0.14555555555555555,-0.17778892040662297,0.020621110643371125,0.04001912487860251
1592231122.9906602,-9.89,-0.47,1.28,0.6133333333333333,-0.28,-0.14555555555555555,-0.20289452554434081,0.02181661564992912,0.006544984694978735
1592231123.0006602,-9.63,-0.4356031937000984,1.1571166466148968,0.611217901977226,-0.2787911820822244,-0.14344012419944827,-0.10942218070962051,0.0037342730041286035,0.0511196138171369
1592231123.0106602,-9.640618818744802,-0.35017330622053794,1.3630940937240041,0.6055555555555555,-0.27555555555555555,-0.13777777777777778,-0.13916460991012936,0.07145213854126417,0.0957230982454423
1592231123.0206602,-9.738117107052652,-0.4871711676704877,1.4124504565766465,0.6055555555555555,-0.27555555555555555,-0.13777777777777778,-0.10943391058043539,0.09304787104532919,0.13654154297657
1592231123.0306602,-9.844916545206639,-0.44983309041327757,1.3026602096948612,0.6055555555555555,-0.27555555555555555,-0.13777777777777778,-0.11098983958452985,0.012333378308882304,0.15479637086154055
1592231123.0406601,-9.771166147414915,-0.24929309460898375,1.18067082068068,0.6055555555555555,-0.27555555555555555,-0.13777777777777778,-0.08948694874100797,0.013344383289381064,0.02760623110919956
1592231123.0506601,-9.825672942698581,-0.1920053794559259,0.9885094140478703,0.6069818301499211,-0.27555555555555555,-0.1326839399407579,-0.18367249089149054,0.017234539555832297,0.05595463127736868
1592231123.0606601,-9.94,-0.29,1.16,0.6133333333333333,-0.27555555555555555,-0.11,-0.08835729338221293,0.006544984694978735,-0.03490658503988659
1592231123.07066,-9.72660504725309,-0.30125869768407937,1.0857274898743379,0.6133333333333333,-0.27555555555555555,-0.11,-0.12271342180436659,-0.07078810929611595,-0.015492085488415762
1592231123.08066,-9.52,-0.5941339516256521,1.208385940875797,0.6133333333333333,-0.27555555555555555,-0.11,-0.10425593504356956,-0.09000865725084073,-0.06307266128158204
1592231123.09066,-9.52,-0.71,1.35,0.6133333333333333,-0.27555555555555555,-0.11,-0.10144726277217041,-0.1974403716318585,0.08508480103472357
1592231123.10066,-10.17165645299669,-0.5097723372962373,1.5649068513298199,0.6152242921926706,-0.280913272323678,-0.11409707752856423,0.04944422151072059,-0.03323985603510757,0.017421673267576532
1592231123.11066,-8.61,0.4,1.35,0.62,-0.29444444444444445,-0.12444444444444444,0.03381575425739013,0.0370882466048795,0.028361600344907853
1592231123.12066,-9.92174362849089,-0.17006596727790535,1.5390601842434106,0.62,-0.29444444444444445,-0.12444444444444444,-0.17069658387550396,-0.13328594765515298,-0.008990137163000057
1592231123.13066,-9.599714251410735,-0.002971305078640879,1.5276571016928804,0.62,-0.29444444444444445,-0.12444444444444444,-0.14825947541235,-0.02964566101532546,0.06981000065908205
1592231123.14066,-9.66,-0.22,1.6,0.62,-0.29444444444444445,-0.12444444444444444,-0.1679879405044542,-0.03490658503988659,0.16253378659197193
1592231123.15066,-9.893319943951425,-0.04123493694535264,1.2691499299392808,0.6241700140121439,-0.29444444444444445,-0.1214327676578961,-0.1601115410496344,-0.13980741501246519,0.028160451352413886
1592231123.16066,-9.83,0.03,1.19,0.64,-0.29444444444444445,-0.11,-0.09708393964218458,-0.13635384781205698,0.15162547876700738
1592231123.17066,-9.75072292178799,0.07,1.392289168715196,0.64,-0.29444444444444445,-0.11,-0.14187153729562632,-0.15113043761622913,0.05371355188059607
1592231123.18066,-9.5288150733092,0.10819865100653664,1.3793356597828068,0.64,-0.29444444444444445,-0.11,-0.06888747378876484,-0.12288204929770734,0.09241577250253784
1592231123.19066,-9.611978382897409,0.13507026553604842,1.6614918985628409,0.64,-0.29444444444444445,-0.11,-0.11909395530365269,-0.009881162035602027,0.11352895519616575
1592231123.20066,-9.749545789187286,-0.009545789187285937,1.8423648410742293,0.6383737894291334,-0.29421212864860635,-0.11,-0.07663577698760136,-0.12351241507296888,0.26281078322329693
1592231123.21066,-9.71,0.03,1.7,0.6322222222222222,-0.29333333333333333,-0.11,-0.0818123086872342,-0.05017821599483697,0.2748893571891069
1592231123.22066,-9.661433772052646,-0.11286754410529264,1.6994192103052366,0.6322222222222222,-0.29333333333333333,-0.11,-0.1643769271059532,-0.07448135154662024,0.19039649451627683
1592231123.23066,-9.738151315155603,-0.17612679448887175,1.5953169862221794,0.6322222222222222,-0.29333333333333333,-0.11,-0.19180954496233063,-0.06220990926410339,0.18871372537188688
1592231123.24066,-9.81,-0.15,1.53,0.6322222222222222,-0.29333333333333333,-0.11,-0.1832595714594046,-0.1341721862470641,0.18871372537188688
1592231123.25066,-9.528990957854406,-0.36112735632183907,1.61528183908046,0.635367662835249,-0.29211010642826735,-0.11,-0.11771938198779945,-0.1210176864843796,0.026840355319864978
1592231123.26066,-9.47,-0.26,1.59,0.6522222222222223,-0.28555555555555556,-0.11,-0.2399827721492203,-0.2083486794568231,0.06544984694978735
1592231123.27066,-9.438722110664882,-0.49081604194556006,1.4866281793842036,0.6522222222222223,-0.28555555555555556,-0.11,-0.12885487294311787,0.056748390557283,0.00030398207214147113
1592231123.28066,-9.526589125023932,-0.6398255313038483,1.5234108749760673,0.6522222222222223,-0.28555555555555556,-0.11,0.04146838227133689,0.042183019497070616,-0.022459251360773765
1592231123.29066,-9.5,-0.58,1.55,0.6522222222222223,-0.28555555555555556,-0.11,-0.07744898555724837,0.04363323129985824,0.006544984694978735
1592231123.30066,-9.882649006622517,-0.5161630794701987,1.5421564569536426,0.6450915194996321,-0.2877966335540839,-0.10857385945548198,0.019414620714961757,0.05278203268467847,0.07995843816035901
1592231123.31066,-9.36,-0.41,1.24,0.6133333333333333,-0.29777777777777775,-0.10222222222222223,-0.044724062082354694,0.1712604328519436,0.09599310885968812
1592231123.3206599,-9.716776622445321,-0.7953449777185884,1.460185422322389,0.6133333333333333,-0.29777777777777775,-0.10222222222222223,-0.03732532056944092,0.08917741396949373,-0.03310687907747247
1592231123.3306599,-9.36,-0.89,1.3,0.6133333333333333,-0.29777777777777775,-0.10222222222222223,0.0818123086872342,-0.019634954084936207,-0.04581489286485115
1592231123.3406599,-9.623915674040461,-0.9027831348080922,1.4358252977878616,0.6133333333333333,-0.29777777777777775,-0.10222222222222223,0.06756447882971478,-0.03655860897026976,-0.03184178159350782
1592231123.3506598,-9.666203562191395,-0.9216220902892076,1.4245988126028686,0.6153158881312537,-0.29777777777777775,-0.10114082869608382,0.03735082314228387,-0.08160429933745648,-0.28130818331574786
1592231123.3606598,-9.44,-0.93,1.5,0.6255555555555555,-0.29777777777777775,-0.09555555555555556,-0.011999138607461015,-0.05235987755982988,-0.1341721862470641
1592231123.3706598,-9.660613582915648,-0.6379454592963869,1.5942454331662588,0.6255555555555555,-0.29777777777777775,-0.09555555555555556,0.13858756722065008,-0.042736768802501005,-0.18869040428714814
1592231123.3806598,-9.378066937432523,-0.7079785101023084,1.5259570202046167,0.6255555555555555,-0.29777777777777775,-0.09555555555555556,0.11466677918323563,-0.04107257459692326,-0.08591446277942834
1592231123.3906598,-9.96981343283582,-0.9768441446613088,1.839981343283582,0.6255555555555555,-0.29777777777777775,-0.09555555555555556,0.13484644115237582,-0.024559504016766143,-0.05886509890538927
1592231123.4006598,-10.761244635193133,-1.2654077253218883,1.876824034334764,0.6264711492608488,-0.29655698617072007,-0.09525035765379114,0.11051098978896498,-0.1414943293536068,0.14889137929499907
1592231123.4106598,-9.45,-0.42,1.48,0.6322222222222222,-0.28888888888888886,-0.09333333333333334,0.05781403147231216,0.004363323129985824,-0.032724923474893676
1592231123.4206598,-9.579124185709853,-0.9982483714197085,1.7517565401716473,0.6322222222222222,-0.28888888888888886,-0.09333333333333334,0.18165220054988482,0.015578205049338281,-0.07800438321757436
1592231123.4306598,-9.45,-0.74,1.55,0.6322222222222222,-0.28888888888888886,-0.09333333333333334,0.16580627893946132,-0.019634954084936207,-0.039269908169872414
1592231123.4406598,-9.717402239939256,-0.7584415337889142,1.6329869020501138,0.6322222222222222,-0.28888888888888886,-0.09333333333333334,0.17787623457949897,0.016574912835176786,-0.08352641218334385
1592231123.4506598,-9.861332038574874,-0.6813327082775247,1.596666555049558,0.6322222222222222,-0.28888888888888886,-0.0938518692145132,0.08290324904957085,-0.06654012983308286,-0.14733480707106875
1592231123.4606597,-9.32,-0.42,1.55,0.6322222222222222,-0.28888888888888886,-0.10111111111111111,0.1287180323345818,0.16253378659197193,-0.11780972450961724
1592231123.4706597,-9.780892961177903,-0.5963031619087973,1.5297611355330756,0.6322222222222222,-0.28888888888888886,-0.10111111111111111,0.030229491347974057,-0.00957846602889955,0.026157291374229938
1592231123.4806597,-9.336393552238807,-0.24574686567164178,1.371448119402985,0.6322222222222222,-0.28888888888888886,-0.10111111111111111,0.048830092420968155,-0.001963104663138697,0.05564427461579928
1592231123.4906597,-9.88,-0.51,1.53,0.6322222222222222,-0.28888888888888886,-0.10111111111111111,0.1287180323345818,-0.03490658503988659,-0.028361600344907853
1592231123.5006597,-9.48757272085281,-0.2971681743282779,1.6198651511584896,0.6321323229945485,-0.2889937713211749,-0.1009163294511514,-0.011145974457099425,-0.09912081494432266,0.11132820073045781
1592231123.5106597,-9.31,-0.09,1.61,0.6255555555555555,-0.2966666666666667,-0.08666666666666667,0.05126904677733343,-0.008726646259971648,-0.04363323129985824
1592231123.5206597,-9.942327016306743,-0.28767298369325695,1.4152872043484648,0.6255555555555555,-0.2966666666666667,-0.08666666666666667,0.06678490075454394,0.11809417061493988,-0.10075481678845259
1592231123.5306597,-9.774741522347817,-0.44299465933838017,1.3692691589754225,0.6255555555555555,-0.2966666666666667,-0.08666666666666667,-0.007429708074622496,-0.04254822627545559,-0.16473100236546773
1592231123.5406597,-9.637465407423678,-0.5570239402591698,1.3155611684603559,0.6255555555555555,-0.2966666666666667,-0.08666666666666667,-0.05562134899451564,0.09680194802544873,-0.09724206578241028
1592231123.5506597,-9.87733228753345,-0.5031669281166374,1.3326105010611793,0.6255555555555555,-0.29686215605658256,-0.08584561122901993,-0.007559046973573377,0.09567355325166325,0.08705581895133555
1592231123.5606596,-9.53,-0.59,1.13,0.6255555555555555,-0.3022222222222222,-0.06333333333333334,-0.00545415391248228,-0.032724923474893676,-0.09817477042468103
1592231123.5706596,-9.60378122674604,-0.9178122674604018,1.5075624534920804,0.6255555555555555,-0.3022222222222222,-0.06333333333333334,-0.06927592983152124,-0.06713241893384429,-0.09790342525288963
1592231123.5806596,-9.56,-0.48,1.42,0.6255555555555555,-0.3022222222222222,-0.06333333333333334,-0.05781403147231216,-0.002181661564992912,-0.09599310885968812
1592231123.5906596,-10.011014499310095,-0.4822866384672804,1.7160440181863421,0.6255555555555555,-0.3022222222222222,-0.06333333333333334,-0.01940718464990658,0.08748779201497114,-0.04424920315297053
1592231123.6006596,-9.500410538432025,-0.16938419235196317,1.4703763268960224,0.6255365491466655,-0.30217660684088615,-0.06336374358755738,-0.07279457425387992,-0.02361762344972935,0.022115167622629262
1592231123.6106596,-9.62,0.01,1.58,0.62,-0.28888888888888886,-0.07222222222222222,0.011999138607461015,0.08726646259971647,0.1090830782496456
1592231123.6206596,-9.610985702938839,-0.28267116759332805,1.2471858617950755,0.62,-0.28888888888888886,-0.07222222222222222,0.06654067773228381,0.04667508095131857,-0.1260455402387833
1592231123.6306596,-9.663498922155688,-0.5183688622754491,1.1659338922155689,0.62,-0.28888888888888886,-0.07222222222222222,0.07272980337917628,0.001933971126236833,-0.061509374248158964
1592231123.6406596,-9.85,-0.64,1.32,0.62,-0.28888888888888886,-0.07222222222222222,0.09926560120717749,-0.22362031041177347,0.06763150851478027
1592231123.6506596,-9.50970841616965,-0.6116423680141374,1.4334305279434503,0.62,-0.28888888888888886,-0.07222222222222222,0.035336620236815094,0.051686752799303265,-0.10765763285556824
1592231123.6606596,-9.63,-0.58,1.73,0.6233333333333333,-0.28888888888888886,-0.07777777777777778,0.19198621771937624,-0.02617993877991494,-0.1407171709420428
1592231123.6706595,-9.454624494435485,-0.4532131433556266,1.4306304686880436,0.6233333333333333,-0.28888888888888886,-0.07777777777777778,0.16023750258492603,-0.10401875598348145,0.05937661650688089
1592231123.6806595,-9.778004629975356,-0.640924501530879,1.8813867522963184,0.6233333333333333,-0.28888888888888886,-0.07777777777777778,0.07516647651942068,-0.04260515186623663,-0.09044790982700793
1592231123.6906595,-9.45,-0.54,1.73,0.6233333333333333,-0.28888888888888886,-0.07777777777777778,0.08617563181722002,0.04363323129985824,-0.19962203319685143
1592231123.7006595,-9.898473742343608,-0.4393222211065368,1.3730515111959032,0.6233333333333333,-0.28888888888888886,-0.07777777777777778,-0.011666160840738543,0.05761063025099518,-0.008930376077768948
1592231123.7106595,-9.99,-0.35,1.52,0.6177777777777778,-0.3022222222222222,-0.035555555555555556,-0.08835729338221293,0.02181661564992912,0.12544553998709243
1592231123.7206595,-9.456015287381158,-0.3532573465859982,1.5,0.6177777777777778,-0.3022222222222222,-0.035555555555555556,-0.056037424509678836,-0.08536077910137342,-0.06362465582660043
1592231123.7306595,-9.935075455002032,-0.4147454141056609,1.5297524693277211,0.6177777777777778,-0.3022222222222222,-0.035555555555555556,-0.010755299848035332,-0.1691147731638752,0.1224700631242304
1592231123.7406595,-9.36,-0.08,1.71,0.6177777777777778,-0.3022222222222222,-0.035555555555555556,-0.12217304763960307,-0.14289883250703572,-0.09381144729469522
1592231123.7506595,-9.831170588677544,-0.19779264716938577,1.8096707014510187,0.6177777777777778,-0.3022222222222222,-0.035555555555555556,-0.055950327274715606,-0.18441158258651744,-0.044391506723883666
1592231123.7606595,-9.73,-0.53,1.87,0.6377777777777778,-0.2966666666666667,-0.057777777777777775,-0.09926560120717749,-0.05235987755982988,0.02617993877991494
1592231123.7706594,-9.472612247062878,-0.3164171108812687,1.6696902431909193,0.6377777777777778,-0.2966666666666667,-0.057777777777777775,-0.04924169320273583,0.17157356177733518,0.0584993915398891
1592231123.7806594,-10.025626388651512,-0.7350008545547769,1.6402085113655784,0.6377777777777778,-0.2966666666666667,-0.057777777777777775,0.011302244834606501,-0.08529696398643796,0.052147714608115486
1592231123.7906594,-9.01,-0.11,1.51,0.6377777777777778,-0.2966666666666667,-0.057777777777777775,-0.007635815477475192,-0.04363323129985824,0.09381144729469522
1592231123.8006594,-9.793474165300212,-0.5284464291944319,1.4743875379408995,0.6377777777777778,-0.2966666666666667,-0.057777777777777775,0.002075976986163316,-0.004786061445304204,-0.0013641188489621758
1592231123.8106594,-9.78,-0.52,1.72,0.6233333333333333,-0.2966666666666667,-0.06,-0.044724062082354694,-0.08944812416470939,0.12544553998709243
1592231123.8206594,-9.605195443377262,-0.3976368103640831,1.501494304221577,0.6233333333333333,-0.2966666666666667,-0.06,0.027735170605841873,-0.10279587755464033,-0.033774089735655294
1592231123.8306594,-9.639076308037593,-0.44868915696451117,1.546941366250526,0.6233333333333333,-0.2966666666666667,-0.06,-0.03921681260506301,-0.08887616099105645,0.04276442260536885
1592231123.8406594,-9.405228712583552,-0.4232176692821854,1.4840220866027318,0.6233333333333333,-0.2966666666666667,-0.06,-0.016659690142465343,-0.07644590309227445,-0.02136582768924619
1592231123.8506594,-9.61650799186283,-0.5532356873002033,1.6465446091252542,0.6233333333333333,-0.2966666666666667,-0.06,-0.11682547242781108,-0.07999159450060526,0.08500491456067849
1592231123.8606594,-9.853953278175624,-0.3041162019977288,1.7082324039954575,0.6177777777777778,-0.3022222222222222,-0.03,0.1765496058451329,0.01795293746154704,0.1583200232411061
1592231123.8706594,-9.567438043427721,-0.20717347840238062,1.502049565257823,0.6177777777777778,-0.3022222222222222,-0.03,0.060189493400903855,-0.1254194192890413,0.009116072900042684
1592231123.8806593,-9.470117652640068,-0.4799779401299872,1.5800073532900043,0.6177777777777778,-0.3022222222222222,-0.03,0.15048411445544846,-0.04150932233950815,0.10680997506063486
1592231123.8906593,-9.629301674652499,-0.4501309360026567,1.5899563546657811,0.6177777777777778,-0.3022222222222222,-0.03,0.08211224963392756,-0.11964859642124631,-0.016910542235450535
1592231123.9006593,-9.773809214050663,-0.3701059921940767,1.6379364046835538,0.6177777777777778,-0.3022222222222222,-0.03,0.024292752273103423,-0.12434892822719582,-0.013967258797874763
1592231123.9106593,-9.558759243072126,-0.4677093718254624,1.8106680998842402,0.6111111111111112,-0.3022222222222222,-0.022222222222222223,0.03680479913915438,-0.07485322113501962,0.07954970262821068
1592231123.9206593,-9.43010450776841,-0.22994983627116283,1.87994147564969,0.6111111111111112,-0.3022222222222222,-0.022222222222222223,-0.10571436965672736,-0.14501346190104264,0.18426057001275656
1592231123.9306593,-9.673625026126942,-0.11305998745906778,1.7435699853689124,0.6111111111111112,-0.3022222222222222,-0.022222222222222223,0.11848551823343517,0.01118266852480515,-0.02506349593208712
1592231123.9406593,-9.24,-0.53,1.76,0.6111111111111112,-0.3022222222222222,-0.022222222222222223,0.0032724923474893677,-0.06544984694978735,0.06544984694978735
1592231123.9506593,-10.034064702692932,-0.48820712091089824,2.1277773359840957,0.6111111111111112,-0.3022222222222222,-0.022222222222222223,0.07074415166681543,-0.05086138006993307,0.10556813086938663
1592231123.9606593,-9.64,0.33,1.66,0.6177777777777778,-0.31555555555555553,-0.008888888888888889,-0.03381575425739013,-0.0545415391248228,0.0545415391248228
1592231123.9706593,-9.685906549520766,-0.3035103833865814,2.0823402555910544,0.6177777777777778,-0.31555555555555553,-0.008888888888888889,0.14746036969694004,0.0055499936777175934,0.03651407928406068
1592231123.9806592,-10.063829694744976,-0.471929820324575,1.961762944358578,0.6177777777777778,-0.31555555555555553,-0.008888888888888889,0.17882483115758369,0.018998284882091966,0.07088253092680463
1592231123.9906592,-9.93,-0.08,2.0,0.6177777777777778,-0.31555555555555553,-0.008888888888888889,-0.011999138607461015,-0.08944812416470939,0.18871372537188688
1592231124.0006592,-9.854540926496416,-0.2686476837589612,1.8239288284916362,0.6177777777777778,-0.31555555555555553,-0.008888888888888889,-0.005139715257763295,-0.0400602760468858,0.2868034792725643
1592231124.0106592,-9.430810102679098,-0.20018411424524962,1.9697422400566504,0.6166666666666667,-0.31555555555555553,0.012222222222222223,-0.05532709692827339,0.08737893159199653,0.2788469885969397
1592231124.0206592,-9.64861867107282,-0.249686061607459,1.9004395137495573,0.6166666666666667,-0.31555555555555553,0.012222222222222223,0.026750239995576783,0.11761795045867818,0.1697705276849809
1592231124.0306592,-9.687449848365718,-0.184462765359991,1.9187249241828597,0.6166666666666667,-0.31555555555555553,0.012222222222222223,0.019100480082981132,0.10759686266032939,0.39376173197128306
1592231124.0406592,-9.75,0.03,1.74,0.6166666666666667,-0.31555555555555553,0.012222222222222223,-0.0272707695624114,0.02181661564992912,0.27707101875409984
1592231124.0506592,-9.253869724837337,-0.03288975318963323,1.6561469957471557,0.6166666666666667,-0.31555555555555553,0.012222222222222223,-0.116453471850125,-0.07727527578086377,0.2290495636761002
1592231124.0606592,-9.24,0.0,1.95,0.6166666666666667,-0.3088888888888889,0.02666666666666667,-0.11671889372712078,0.02181661564992912,0.15598880189699318
1592231124.0706592,-9.616596550612508,0.035032237266279825,1.8273871695680206,0.6166666666666667,-0.3088888888888889,0.02666666666666667,-0.04984396884501012,-0.020219051418826146,0.0958013695030936
1592231124.0806592,-9.250943423319931,-0.010943423319931074,1.9894234635267087,0.6166666666666667,-0.3088888888888889,0.02666666666666667,-0.06712956031798102,-0.08687768574702316,-0.06100648152659997
1592231124.0906591,-9.43,-0.19,1.88,0.6166666666666667,-0.3088888888888889,0.02666666666666667,-0.17889624832941878,-0.01308996938995747,-0.04581489286485115
1592231124.1006591,-9.341084822552228,-0.3233727661716587,1.8736489158965877,0.6166666666666667,-0.3088888888888889,0.02666666666666667,-0.22254238399544296,0.0035371299113850767,-0.06105640055774849
1592231124.1106591,-9.64,-0.36,1.91,0.5688888888888889,-0.3233333333333333,0.035555555555555556,-0.16580627893946132,-0.006544984694978735,0.16035212502697901
1592231124.120659,-9.4986994856723,-0.6033508857865949,1.6823491713609275,0.5688888888888889,-0.3233333333333333,0.035555555555555556,-0.19834587962405578,-0.12557141877810057,0.00364825857222148
1592231124.130659,-9.294945863666445,-0.5243639973527465,1.280182660489742,0.5688888888888889,-0.3233333333333333,0.035555555555555556,-0.11935297212518774,-0.08085653589467119,-0.06256999592988513
1592231124.140659,-9.645113751630198,-0.9047065642660485,1.6251137516301983,0.5688888888888889,-0.3233333333333333,0.035555555555555556,-0.1715961703656405,-0.08499596653251186,-0.14181801273012656
1592231124.150659,-9.448033319788705,-0.8426777732629013,1.7340434413209707,0.5688888888888889,-0.3233333333333333,0.035555555555555556,-0.1883739161299382,-0.09710179040634719,-0.07680539096310579
1592231124.160659,-9.29,-0.63,1.83,0.5955555555555555,-0.3244444444444444,0.04888888888888889,-0.09708393964218458,-0.017453292519943295,-0.3076142806640006
1592231124.170659,-9.52602710613898,-0.4396555595653394,1.8376137776173864,0.5955555555555555,-0.3244444444444444,0.04888888888888889,-0.030641195673163507,-0.04569145870677725,-0.14316848934067344
1592231124.180659,-9.09474877499669,-0.58972692358628,1.7065374122632764,0.5955555555555555,-0.3244444444444444,0.04888888888888889,-0.08468981367867776,-0.021264945064285168,-0.3474436025700853
1592231124.190659,-9.328712721481187,-0.7048835357356161,1.7,0.5955555555555555,-0.3244444444444444,0.04888888888888889,-0.07310260146788264,-0.007431200553471974,-0.35997415822383044
1592231124.200659,-9.642765330188679,-0.5472346698113207,1.658048552374756,0.5955555555555555,-0.3244444444444444,0.04888888888888889,-0.040608917149671554,0.020699303654959082,-0.41412577591105015
1592231124.210659,-9.813518031105794,-0.34864262519227485,1.732797812339771,0.5831825139102528,-0.31825792362179306,0.02826715281338423,-0.1276423400684994,-0.0706834483386509,-0.3372087006350127
1592231124.220659,-9.863985135928028,-0.35649442597300995,1.6740222961079603,0.5822222222222222,-0.31777777777777777,0.02666666666666667,-0.09507948207639791,-0.0005717634455486981,-0.3306304048199943
1592231124.230659,-12.715545888984193,-2.262568925376792,2.1793799779438796,0.5822222222222222,-0.31777777777777777,0.02666666666666667,0.12596422260582513,-0.4401376563342377,0.32434050860345254
1592231124.240659,-9.458168093008235,-0.784478443403843,1.6294522041014048,0.5822222222222222,-0.31777777777777777,0.02666666666666667,-0.05881309367129814,-0.20791128150096416,0.040994091897009866
1592231124.250659,-9.860505388168024,-1.2084262150868705,1.8657321310754345,0.5822222222222222,-0.31777777777777777,0.02666666666666667,0.004642040350813698,-0.0905054167586435,0.08412735532261817
1592231124.260659,-9.44,-0.67,1.45,0.6144444444444445,-0.30333333333333334,0.06222222222222222,0.07090400086226964,-0.06763150851478027,0.1112647398146385
1592231124.270659,-9.677438199580745,-0.8155266384527153,1.8942392121188147,0.6144444444444445,-0.30333333333333334,0.06222222222222222,0.009077025439050625,-0.020843527113425346,-0.09176167948052663
1592231124.280659,-9.951964731665054,-0.42852989144284187,1.3231234391723152,0.6144444444444445,-0.30333333333333334,0.06222222222222222,0.004202208629824022,-0.09266591096763034,-0.12576776898741604
1592231124.290659,-9.50968857720195,-0.39920622845596104,1.3980934268394152,0.6144444444444445,-0.30333333333333334,0.06222222222222222,0.0737427281675905,-0.20981899954565625,0.018334488783345454
1592231124.300659,-9.816920897884229,-0.45279231054759994,1.4929593451462284,0.6144444444444445,-0.30333333333333334,0.06222222222222222,0.09608421210065111,-0.1781230748357631,-0.05830598897351229
1592231124.310659,-9.581603480800826,-0.5861321730663908,2.002395180429623,0.5717633893858564,-0.29737783727864664,0.06817771827690892,0.09949833124572387,-0.07019226912430779,-0.01710492764764114
1592231124.320659,-9.335190055165118,-0.4339378825663115,1.8717962669084864,0.5666666666666667,-0.2966666666666667,0.06888888888888889,0.0932274122237372,-0.07581179140844144,-0.020803024226852235
1592231124.330659,-9.486035899527945,-0.4141240748295355,1.649769800104901,0.5666666666666667,-0.2966666666666667,0.06888888888888889,-0.10412348218275053,-0.15360838268636387,-0.11577106800582987
1592231124.340659,-9.810005742176285,-0.8545248349124318,1.9109732988802755,0.5666666666666667,-0.2966666666666667,0.06888888888888889,0.18045090925514726,-0.1083430170555488,0.0960328836255156
1592231124.350659,-9.58683366733467,-0.520250501002004,1.7017258045502772,0.5666666666666667,-0.2966666666666667,0.06888888888888889,0.044044655688470435,-0.06517504966319124,-0.06763607346736528
1592231124.360659,-9.47292338395335,-0.2455913810845365,1.484616919766753,0.5797035558743127,-0.2966666666666667,0.0819257780965349,-0.004335464749279703,-0.07795774966008287,-0.11919158863194468
1592231124.3706589,-9.329478804175894,-0.1962749130022145,1.3407204998418223,0.5811111111111111,-0.2966666666666667,0.08333333333333333,0.03596842822803642,-0.06723241145690076,-0.04545927719849159
1592231124.3806589,-9.809103053435114,-0.6648465648854962,1.7112824427480917,0.5811111111111111,-0.2966666666666667,0.08333333333333333,-0.031136307469667168,-0.1175571125261185,0.07088540400160112
1592231124.3906589,-9.361921081550769,-0.2518725242147768,1.4888558358250914,0.5811111111111111,-0.2966666666666667,0.08333333333333333,0.05429490414992577,-0.30700679533134756,-0.0696860472714166
1592231124.4006588,-8.974754613270514,-0.08493542454487218,1.7828035046391006,0.5811111111111111,-0.2966666666666667,0.08333333333333333,-0.06939032184451499,-0.09687825223098298,-0.08616717890991037
1592231124.4106588,-9.960148232954717,-0.8521087041667921,2.449075351751981,0.5361049347379979,-0.294666392161195,0.08933415684974842,-0.004784294221335805,-0.03905470645965619,-0.06522925533723829
1592231124.4206588,-9.368954138325813,-0.41105124924237324,1.6948986463734932,0.5311111111111111,-0.29444444444444445,0.09,-0.007498442350445198,-0.03199265859241508,-0.04245858087140391
1592231124.4306588,-9.200776264745468,-0.49690325389913703,1.7207513261024465,0.5311111111111111,-0.29444444444444445,0.09,-0.07500785118044241,-0.05286068729046854,-0.06393653622207891
1592231124.4406588,-9.398443909642838,-0.6151556090357162,1.5518673084285948,0.5311111111111111,-0.29444444444444445,0.09,-0.09566835953249192,-0.044893805208548555,-0.014622132300557977
1592231124.4506588,-9.967228381815291,-0.8721568510570656,1.5608532029883961,0.5311111111111111,-0.29444444444444445,0.09,0.0012977782533134252,-0.10187388060502443,0.043281758720598924
1592231124.4606588,-9.744469284666774,-0.7844555971973277,1.7055489652924882,0.5419746890445929,-0.2885188564807271,0.1008635779334818,-0.0917435790924128,-0.24688456533577202,-0.00872266473650285
1592231124.4706588,-9.74672671829234,-0.754327328170766,1.7256726718292341,0.5433333333333333,-0.2877777777777778,0.10222222222222223,-0.04363782694372785,-0.17269326707441224,-0.01002778245954853
1592231124.4806588,-9.617219963031424,-0.8075933456561922,2.067332453129126,0.5433333333333333,-0.2877777777777778,0.10222222222222223,-0.00711076494926433,-0.065230010125599,0.07102619004049382
1592231124.4906588,-9.355450403663662,-0.5455504933666966,2.0734667862707146,0.5433333333333333,-0.2877777777777778,0.10222222222222223,-0.07513630687735669,-0.042207905170951576,-0.02885590155119655
1592231124.5006588,-9.281956902628133,-0.5460861947437317,2.116086194743732,0.5433333333333333,-0.2877777777777778,0.10222222222222223,-0.13194843361814484,-0.008679634320095653,-0.05083036386734104
1592231124.5106587,-8.958562269400593,-0.3487152966793685,2.066238432226456,0.5433333333333333,-0.2877777777777778,0.1240775015625315,-0.25692248414470026,0.10896312843034005,0.04279938871658901
1592231124.5206587,-9.238091663687994,-0.482078716390643,2.0446447436355695,0.5433333333333333,-0.2877777777777778,0.1288888888888889,-0.19271833374437358,0.11738632845586856,0.06093151398860203
1592231124.5306587,-9.875724743003621,-0.6559868925239819,1.9600655373800904,0.5433333333333333,-0.2877777777777778,0.1288888888888889,-0.19257851972217624,0.13000629711801157,0.03623416942870009
1592231124.5406587,-9.640632703173052,-0.3570105132667413,1.5796881779388277,0.5433333333333333,-0.2877777777777778,0.1288888888888889,-0.12318734577392713,-0.07177828819884985,-0.02841262211035612
1592231124.5506587,-9.726908928394081,-0.5083080742874169,1.5818655278577813,0.5433333333333333,-0.2877777777777778,0.1288888888888889,-0.1266984624387488,-0.18255326692374424,-0.017637852984841596
1592231124.5606587,-9.300001306591756,-0.6862709871300712,2.0945750310315545,0.5405084819581455,-0.28024484077727696,0.11099816351269934,-0.14114240039779224,-0.060180978203208946,0.06001400776331941
1592231124.5706587,-9.545805546899345,-0.6265425366157682,1.9228988781551886,0.54,-0.2788888888888889,0.10777777777777778,-0.12177558615863268,0.009629326578737413,0.07542896002749293
1592231124.5806587,-9.669794251692615,-0.7558758133775917,1.9250509760531098,0.54,-0.2788888888888889,0.10777777777777778,-0.1557637618311925,-0.05114510375552288,-0.027439197582543956
1592231124.5906587,-9.699843272804754,-0.9058119273657047,2.2454984729752123,0.54,-0.2788888888888889,0.10777777777777778,-0.17365342205947465,-0.04892734642451101,-0.014917360809485615
1592231124.6006587,-9.210734211775879,-0.6125356125356125,1.9793079297245963,0.54,-0.2788888888888889,0.10777777777777778,-0.15721792888980615,0.019150917348828442,-0.046207897544917234
1592231124.6106586,-9.647666394380003,-0.9448563960137233,2.3129687959483745,0.5237752001306977,-0.2842971555119897,0.11769293325346257,-0.2138374776274523,0.17141301728520178,0.0438691116500808
1592231124.6206586,-9.966577316268213,-1.026447717942526,2.2678306367222087,0.52,-0.28555555555555556,0.12,-0.2675043195201168,0.07823249059405235,0.21377262763887162
1592231124.6306586,-9.514652784746612,-0.8989254892122428,1.7357019568489715,0.52,-0.28555555555555556,0.12,-0.25878342951475897,0.035129950841360155,0.10504262570600933
1592231124.6406586,-9.722236978346013,-1.1380106244091297,1.8284527078737676,0.52,-0.28555555555555556,0.12,-0.1753421229500284,0.10458858827951895,0.017088716473067426
1592231124.6506586,-9.85,-1.1488700069362277,1.8063884695418009,0.52,-0.28555555555555556,0.12,-0.23290688146097344,0.07765280699298391,0.1802787358142572
1592231124.6606586,-9.985926500562805,-1.0928459736545892,1.9002345532536278,0.5192051081838432,-0.2791964210263015,0.14066718722007576,-0.1834165042807494,-0.0028878426684435174,0.14939009035960438
1592231124.6706586,-9.71468542770898,-0.9893073942908753,1.990982340218192,0.5188888888888888,-0.27666666666666667,0.14888888888888888,-0.18116580275569238,-0.09835055614724245,-0.047641975441385404
1592231124.6806586,-9.513944431251483,-0.89283147312594,1.9717185150003957,0.5188888888888888,-0.27666666666666667,0.14888888888888888,-0.1607502743769427,-0.09916742384632113,-0.05165648900966634
1592231124.6906586,-9.193442055843835,-0.5661010899706229,1.8637520248194823,0.5188888888888888,-0.27666666666666667,0.14888888888888888,-0.15654935648491802,0.037084712628207214,0.06960676188294795
1592231124.7006586,-9.521580893256095,-0.7138721603827676,2.116953874137488,0.5188888888888888,-0.27666666666666667,0.14888888888888888,-0.18292437914596305,-0.01679261298513643,-0.03727040039971462
1592231124.7106586,-9.65672974125209,-0.6755888236644476,2.053953694290493,0.5033163895538867,-0.27010982484140256,0.157904546398627,-0.14681824657002263,-0.07474886367248629,-0.019642967271414388
1592231124.7206585,-9.623334137321113,-0.7100241196333816,2.00667551053224,0.49777777777777776,-0.2677777777777778,0.16111111111111112,-0.09780265312204939,-0.09345248521134114,-0.05637686761696809
1592231124.7306585,-9.595337725172895,-0.9654596397233688,1.8858912609682092,0.49777777777777776,-0.2677777777777778,0.16111111111111112,0.0029777715357955474,-0.07376208306802279,-0.11265747753950646
1592231124.7406585,-9.839833662249788,-1.0044352034583215,1.6700831688751059,0.49777777777777776,-0.2677777777777778,0.16111111111111112,-0.03874981325633085,-0.09208637442486621,-0.05370621964064158
1592231124.7506585,-9.915693463075867,-1.1497625873137642,1.6868429765413655,0.49777777777777776,-0.2677777777777778,0.16111111111111112,-0.05601854523339544,-0.16940315327560843,0.007213744520610681
1592231124.7606585,-9.696399684873949,-1.1349159663865547,1.8416517857142856,0.5006967787114845,-0.27142652894491126,0.1574623599439776,0.01962521452437821,-0.08727190529532243,-0.015862879572353925
1592231124.7706585,-9.452998447019473,-0.9357878389678653,2.145160673754629,0.5022222222222222,-0.2733333333333333,0.15555555555555556,-0.038145717850842795,-0.06332604333096914,-0.07413088446840507
1592231124.7806585,-9.600043431053203,-0.7371118349619978,2.0971118349619977,0.5022222222222222,-0.2733333333333333,0.15555555555555556,-0.00824459617476421,-0.036455777942715435,-0.002475392329443646
1592231124.7906585,-9.391152420744517,-0.5038734272832425,2.1386308807213843,0.5022222222222222,-0.2733333333333333,0.15555555555555556,-0.03525067709537134,-0.09417917749333157,-0.010955584111267784
1592231124.8006585,-9.549382017833553,-0.6364997523117569,2.319691008916777,0.5022222222222222,-0.2733333333333333,0.15555555555555556,0.020363150278122716,-0.1373708727964808,0.02331484182910843
1592231124.8106585,-9.364328717639976,-0.39742925948223956,2.016730885009031,0.4937895511405445,-0.2633674493277142,0.16475483309920397,-0.014894010425187912,-0.03294098809105342,-0.014022527915631744
1592231124.8206584,-9.292347083926032,-0.30387766714082504,1.9244316195895144,0.49,-0.2588888888888889,0.1688888888888889,-0.02179112377023249,0.016302034899139884,-0.06423501479770576
1592231124.8306584,-9.310163751598074,-0.43869733155618423,1.9849843592742702,0.49,-0.2588888888888889,0.1688888888888889,-0.04376429240929673,0.07248495331234699,-0.11279973037689149
1592231124.8406584,-7.632709116541354,0.2270958646616542,1.6037171052631578,0.49,-0.2588888888888889,0.1688888888888889,-0.20475016813486582,0.4140317949714556,-0.45701016897590063
1592231124.8506584,-11.0176838250172,-0.8128428635020841,2.670707579620412,0.49,-0.2588888888888889,0.1688888888888889,-0.02449575273203361,0.5321846481394659,-0.2594113331572449
1592231124.8606584,-9.82503919239905,0.05667636579572455,1.9082410926365796,0.49344978886249674,-0.2657884666138823,0.17302863552388492,0.0931873288511469,0.3745081181009263,0.044477394408973074
1592231124.8706584,-8.546640304907099,0.1822189137684611,1.3031124344926155,0.4955555555555556,-0.27,0.17555555555555555,-0.08262944436177366,0.26893276630639235,0.03124027107878321
1592231124.8806584,-9.348781231238165,-0.8184953586108161,1.9712067611878261,0.4955555555555556,-0.27,0.17555555555555555,-0.08084490354631703,0.22511950374555226,0.07105599072375728
1592231124.8906584,-9.433637355858208,-1.024093389645518,2.1375027286100696,0.4955555555555556,-0.27,0.17555555555555555,-0.10444496390773539,0.3492588797723737,-0.06358438810082348
1592231124.9006584,-9.42551711718922,-0.9568972968646832,2.0227603593509276,0.4955555555555556,-0.27,0.17555555555555555,-0.13187770721243944,0.4233551610782566,-0.026295506298138982
1592231124.9106584,-9.474424738517508,-0.847496914181771,1.8648041317481971,0.478631845644124,-0.25660206298678334,0.18331225593162837,-0.0803629699512102,0.45479366553808076,0.022150391586105198
1592231124.9206583,-9.435075168481077,-0.8041886988076724,1.8372265422498704,0.4688888888888889,-0.24888888888888888,0.18777777777777777,-0.052182879096936474,0.47507122577977456,0.04348733480328795
1592231124.9306583,-9.641928839971666,-0.9585915109246445,1.9158971285348443,0.4688888888888889,-0.24888888888888888,0.18777777777777777,-0.0819245240480664,0.4420376438786901,0.1718750021480267
1592231124.9406583,-9.719896346081029,-1.1535781900795152,1.6993172567209391,0.4688888888888889,-0.24888888888888888,0.18777777777777777,-0.17058818927926772,0.34210227849406655,0.09456382005018221
1592231124.9506583,-9.691589265435418,-1.1884495846034306,1.5361239615085769,0.4688888888888889,-0.24888888888888888,0.18777777777777777,-0.13127588740952656,0.3426266171550383,0.12177990260233967
1592231124.9606583,-9.806808566205275,-1.2620214155131888,1.4041133455210237,0.47297872957836395,-0.25161544934853897,0.18777777777777777,-0.06703581063904246,0.3234699291441841,0.1002983151237483
1592231124.9706583,-9.83909744179362,-1.3782236274791608,1.3536389767174477,0.47555555555555556,-0.25333333333333335,0.18777777777777777,-0.06157722522095329,0.2520537130703323,0.0767660797095113
1592231124.9806583,-9.973701224177507,-1.4942425401683244,1.2138312930374906,0.47555555555555556,-0.25333333333333335,0.18777777777777777,0.009161058977867134,0.10116391384282263,0.14499077386612322
1592231124.9906583,-9.887698000426955,-0.5303977798334876,0.9806582224436065,0.47555555555555556,-0.25333333333333335,0.18777777777777777,-0.01653447347970914,0.03924149828825327,0.12828031833881595
1592231125.0006583,-9.839076866495034,-0.37082015446855465,1.2299141841363246,0.47555555555555556,-0.25333333333333335,0.18777777777777777,-0.002493117356636196,0.09160170255398521,-0.022172603334495194
1592231125.0106583,-9.77974093758951,-0.5736042773940995,1.542661914006556,0.47694804253347906,-0.24149719402098385,0.19682894313428032,0.024508368449676507,0.08800016355631493,-0.04843988561257151
1592231125.0206583,-9.72,-0.515854552699741,1.5521398684997012,0.4777777777777778,-0.23444444444444446,0.20222222222222222,0.01149995149025881,0.031415317983160135,0.02072730624927715
1592231125.0306582,-9.72,-0.4511430523295532,1.4064896843831123,0.4777777777777778,-0.23444444444444446,0.20222222222222222,-0.044439274616964036,-0.07103348764787328,0.04956363069429012
1592231125.0406582,-9.715914418311964,-0.4820427908440179,1.3920427908440178,0.4777777777777778,-0.23444444444444446,0.20222222222222222,-0.05802631144996466,-0.10472198603292532,0.014592575278660211
1592231125.0506582,-9.695577306987166,-0.4855773069871664,1.439804237115502,0.4777777777777778,-0.23444444444444446,0.20222222222222222,4.053117431805989e-05,-0.07465457885419599,0.04809461587297212
1592231125.0606582,-9.69,-0.4622595773189597,1.4988702113405201,0.4807345148912845,-0.23690839203903338,0.19926548510871553,0.013952655163190707,-0.08386667676423983,0.06840357408049019
1592231125.0706582,-9.684658678040304,-0.466706609798479,1.5206826439193917,0.48444444444444446,-0.24,0.19555555555555557,0.03808243302450093,-0.017602222320094573,0.06326304053715286
1592231125.0806582,-9.690214367926338,-0.474678448110493,1.4636066084788029,0.48444444444444446,-0.24,0.19555555555555557,0.006373084160196295,-0.07478858152601642,0.13393834711423466
1592231125.0906582,-9.679590154225203,-0.4651024614436995,1.4561270758806946,0.48444444444444446,-0.24,0.19555555555555557,-0.04236357156247146,-0.07809049566941563,0.11825454861373966
1592231125.1006582,-9.664192785334121,-0.46580721466587816,1.5016144293317564,0.48444444444444446,-0.24,0.19555555555555557,-0.008203486138975414,-0.052496634582827675,0.08874885712258865
1592231125.1106582,-9.642577749882316,-0.45216507139494744,1.5370095716303154,0.4874913611241871,-0.24,0.19555555555555557,0.03410803460325408,-0.05384476304614924,0.02890179522166273
1592231125.1206582,-9.619297750406295,-0.43517556239842614,1.576228936788983,0.4922222222222222,-0.24,0.19555555555555557,0.026831068932652222,-0.008726646259971648,0.008037214333543942
1592231125.1306581,-9.649078812691915,-0.45269703172978504,1.508224155578301,0.4922222222222222,-0.24,0.19555555555555557,-0.023064874416388728,-0.021601129118688774,-0.026107365595818458
1592231125.1406581,-9.64549390973738,-0.47516463657912644,1.4941768171043677,0.4922222222222222,-0.24,0.19555555555555557,-0.07898412078787143,-0.06979053884196598,-0.022005550644292382
1592231125.1506581,-9.618101338850538,-0.47396622038315395,1.5596622038315395,0.4922222222222222,-0.24,0.19555555555555557,-0.08195970007074059,-0.10212386994919423,0.039380451707502206
1592231125.1606581,-9.596163147982951,-0.48,1.6430211121022897,0.4900906377683065,-0.24682107025253025,0.19555555555555557,-0.027171947148376133,-0.07892213149951363,0.021309096600168154
1592231125.170658,-9.589561635552869,-0.4801095911117829,1.6806575466706974,0.4866666666666667,-0.2577777777777778,0.19555555555555557,0.01844848701586308,-0.046729373632703214,0.023185368779020357
1592231125.180658,-9.558339149746194,-0.49416957487309643,1.6899651015228427,0.4866666666666667,-0.2577777777777778,0.19555555555555557,-0.012924026065018687,0.08036675025497286,-0.015611131271457052
1592231125.190658,-9.583980459689323,-0.44407816124270755,1.5594180080129332,0.4866666666666667,-0.2577777777777778,0.19555555555555557,1.0197546501160282e-05,0.09919145814351867,0.017474607692329183
1592231125.200658,-9.611496948474237,-0.4183231615807904,1.5551493746873437,0.4866666666666667,-0.2577777777777778,0.19555555555555557,0.04374431159704933,0.09032345174929512,-0.036787594214722295
1592231125.210658,-9.619337083679602,-0.4657827782394681,1.6315655564789362,0.47955805578640076,-0.25580316364437056,0.19555555555555557,-0.00015850274043434365,0.028426172952757484,-0.045590213661296605
1592231125.220658,-9.631105556349093,-0.44,1.5644472218254535,0.4666666666666667,-0.25222222222222224,0.19555555555555557,0.013440855109452116,-0.02400373058978096,-0.01073660442226336
1592231125.230658,-9.69873954639727,-0.45936977319863515,1.42893891750853,0.4666666666666667,-0.25222222222222224,0.19555555555555557,0.05321921605343367,0.021266639014022697,-0.060098813656537534
1592231125.240658,-9.762457748496132,-0.49796619879690635,1.322457748496133,0.4666666666666667,-0.25222222222222224,0.19555555555555557,0.02802882040123592,0.053968470188959575,-0.12678634631413116
1592231125.250658,-9.786335935679329,-0.52,1.371984385924027,0.4666666666666667,-0.25222222222222224,0.19555555555555557,0.025239094052341093,0.004047971094169725,-0.13077608251108977
1592231125.260658,-9.743473147785181,-0.5017365738925912,1.455658565268522,0.4666666666666667,-0.2461344135197526,0.19115880482599418,-0.0057415072193570844,-0.10016486311842407,0.03282284595595667
1592231125.270658,-9.645444783834586,-0.4939621710526316,1.5697034774436092,0.4666666666666667,-0.23222222222222222,0.1811111111111111,0.06886902220536475,-0.06134528856557419,0.04056373189873569
1592231125.280658,-9.648163024752925,-0.4800516819294587,1.5164294133647656,0.4666666666666667,-0.23222222222222222,0.1811111111111111,0.09679028866809518,-0.05037859890945641,0.024365217300429502
1592231125.290658,-9.636149690809582,-0.42423128864880233,1.465387731892814,0.4666666666666667,-0.23222222222222222,0.1811111111111111,-0.008137462727653035,-0.05445842230068205,-0.052331577521759584
1592231125.300658,-9.576218915214412,-0.4196641864108087,1.5447885255531624,0.4666666666666667,-0.23222222222222222,0.1811111111111111,0.013502421757492356,-0.08055594161015486,-0.13821671851296613
1592231125.310658,-9.555326456158008,-0.40532645615800733,1.6273367719209964,0.471993122824674,-0.23429362183922506,0.19235585188912652,0.0006747534227619922,-0.05999198786292749,-0.022386389131992937
1592231125.320658,-9.583166643089546,-0.42,1.6156111189701514,0.4866666666666667,-0.24,0.22333333333333333,-0.024349799710681963,0.048008745069512644,0.017113806351957403
1592231125.330658,-9.60424778761062,-0.41575221238938054,1.5505309734513275,0.4866666666666667,-0.24,0.22333333333333333,-0.0001641072858622987,0.052958386484739446,0.016951317292599785
1592231125.340658,-9.618202743218678,-0.4346082296560353,1.5028109728747137,0.4866666666666667,-0.24,0.22333333333333333,-0.024857803148664186,0.019358763425518496,-0.06825491396775776
1592231125.350658,-9.626640448547768,-0.4632808970955343,1.5600786543566985,0.4866666666666667,-0.24,0.22333333333333333,-0.03432561834227851,-0.04840099646462709,-0.010038089647526626
1592231125.360658,-9.622583790745454,-0.45516758149090797,1.58,0.48838919383030266,-0.24,0.21960119114545534,0.017343610690627856,0.10881651695113545,0.04872776662528034
1592231125.370658,-9.642267483362886,-0.46182167775807675,1.5472867110323072,0.49333333333333335,-0.24,0.2088888888888889,0.031722962734271457,0.0789288551211321,0.043861309304442195
1592231125.380658,-9.66,-0.4577825068145952,1.472761226148917,0.49333333333333335,-0.24,0.2088888888888889,0.03767672453789765,0.07330898252576895,0.026048429794085767
1592231125.390658,-9.675632151029749,-0.47390803775743706,1.43,0.49333333333333335,-0.24,0.2088888888888889,-0.017014432824410897,0.05554453556370576,0.17559863816785876
1592231125.400658,-9.7,-0.4704797133727123,1.43,0.49333333333333335,-0.24,0.2088888888888889,0.0015979767835540698,0.07287235520520645,0.15458807672603078
1592231125.410658,-9.704082454107459,-0.45,1.4381649082149173,0.48652924315423557,-0.24249483306566919,0.21070331293664832,0.05260063602795544,0.025293676190147434,0.0373986580478952
1592231125.4206579,-9.709020029108046,-0.4609799708919537,1.466340009702682,0.46,-0.25222222222222224,0.21777777777777776,-0.00491316111467615,0.07017105994908762,-0.0292297894575414
1592231125.4306579,-9.69365766902119,-0.47634233097880924,1.4270809788092835,0.46,-0.25222222222222224,0.21777777777777776,0.03221979507319073,0.04245406633946537,-0.05146739966028587
1592231125.4406579,-9.67321231722316,-0.46234637634947384,1.423575365553683,0.46,-0.25222222222222224,0.21777777777777776,0.004406006300493932,0.07299428367223995,-0.006325556428431821
1592231125.4506578,-9.60965906865625,-0.40350644264285435,1.4867532213214272,0.46,-0.25222222222222224,0.21777777777777776,-0.015710774401207425,0.05700125936478058,-0.12041820411136772
1592231125.4606578,-9.569470475180596,-0.3506110411558089,1.492505136191928,0.46631365012039677,-0.25074903719412966,0.21356867769751325,0.0077824259106982555,0.12492343912479609,-0.17860295516985963
1592231125.4706578,-9.614095349654445,-0.5567604544922103,1.6821883565655382,0.49333333333333335,-0.24444444444444444,0.19555555555555557,-0.06789025659192158,0.04799655442984406,-0.011948411206658495
1592231125.4806578,-9.642627914836092,-0.4649147234426045,1.479488340655627,0.49333333333333335,-0.24444444444444444,0.19555555555555557,-0.028704074760906237,0.08378723219787632,-0.10227554212401664
1592231125.4906578,-9.693948632893486,-0.4469743164467426,1.340461474670114,0.49333333333333335,-0.24444444444444444,0.19555555555555557,-0.011809169784147651,0.15431053110750292,-0.021834149186982815
1592231125.5006578,-9.72,-0.45413717494999234,1.3687942375750115,0.49333333333333335,-0.24444444444444444,0.19555555555555557,0.0232791412728377,0.12158304816978882,0.15814518166684632
1592231125.5106578,-9.716570560454441,-0.44342943954555963,1.398573598863899,0.48876074727258717,-0.24577811537882874,0.1966987020707421,-0.0532620042358923,0.01914334350143125,0.02100221224594897
1592231125.5206578,-9.695962247880036,-0.46403775211996356,1.4238489915201455,0.4666666666666667,-0.25222222222222224,0.20222222222222222,-0.01984488400652334,0.1146070520215355,-0.05055689466345046
1592231125.5306578,-9.69763954842756,-0.4738197742137801,1.3618022578621987,0.4666666666666667,-0.25222222222222224,0.20222222222222222,-0.01437739600786219,0.042556327888252,-0.029784733310048158
1592231125.5406578,-9.71,-0.48336088799381777,1.3235262159567245,0.4666666666666667,-0.25222222222222224,0.20222222222222222,0.00116296871495483,0.006436777796291173,-0.03803789241829046
1592231125.5506577,-9.686013176987334,-0.49,1.4233040511392605,0.4666666666666667,-0.25222222222222224,0.20222222222222222,0.01970703729872916,0.0236835922768443,-0.06313839282061176
1592231125.5606577,-9.612618203117373,-0.49295271875305063,1.5714763593765253,0.46879918576609214,-0.2518941423607722,0.20008970312279672,0.028060912845037124,0.12276810433277187,-0.0034096847907664728
1592231125.5706577,-9.580916841886365,-0.4918052635227247,1.5690831581136349,0.4811111111111111,-0.25,0.18777777777777777,0.020500959650124766,0.03830079050109568,-0.08982957089550957
1592231125.5806577,-9.61658344072165,-0.46,1.5068830541237113,0.4811111111111111,-0.25,0.18777777777777777,-0.044724062082354694,0.05256686832364768,-0.0017086402269644932
1592231125.5906577,-9.662467080625287,-0.46,1.4044161492183913,0.4811111111111111,-0.25,0.18777777777777777,-0.046084009613747506,0.006855295203401585,0.05479818968801472
1592231125.6006577,-9.687445701701094,-0.45489140340218714,1.375108596597813,0.4811111111111111,-0.25,0.18777777777777777,-0.03125501905473746,0.07774563387378237,-0.03244061824664886
1592231125.6106577,-9.684396863301924,-0.4417587453207693,1.387361882018846,0.4821858999182479,-0.24912062733961535,0.19090443612581212,0.019190990039859232,0.0467028209550051,0.010381971763912312
1592231125.6206577,-9.72676908906261,-0.4567690890626107,1.3438454453130537,0.49333333333333335,-0.24,0.22333333333333333,-0.002366511022124583,0.02144490722240358,0.04876846515243348
1592231125.6306577,-9.7169017238564,-0.45,1.3038034477127995,0.49333333333333335,-0.24,0.22333333333333333,-0.010801105182340343,-0.06167406453145432,0.049194587854964736
1592231125.6406577,-9.704014435886258,-0.45598556411374314,1.3079566923412296,0.49333333333333335,-0.24,0.22333333333333333,0.01892691544449296,0.03595804804962909,0.017547775174552784
1592231125.6506577,-9.69,-0.4675349031048135,1.364790581371119,0.49333333333333335,-0.24,0.22333333333333333,0.05315657726657089,0.05965587390418729,-0.048899859603763814
