time,acc_x,acc_y,acc_z,mag_x,mag_y,mag_z,gyr_x,gyr_y,gyr_z
1592173668.6149457,0.057218030566840786,8.70860901528342,4.282847746179145,-0.25555555555555554,-0.5966666666666667,-0.5044444444444445,0.02650492995906846,-0.020263411053455156,0.009196195203878519
1592173668.6249456,0.11,8.73,4.26,-0.23555555555555555,-0.59,-0.5111111111111111,0.032724923474893676,-0.01854412330243975,0.009817477042468103
1592173668.6349456,0.11,8.73,4.2672787094833415,-0.23555555555555555,-0.59,-0.5111111111111111,0.030342971366510145,-0.017750139266311905,0.0018776366811896587
1592173668.6449456,0.10057465645537994,8.74885068708924,4.185171908098419,-0.23555555555555555,-0.59,-0.5111111111111111,0.019170976253328482,-0.01539700154512813,-0.008287849194349533
1592173668.6549456,0.061919013242816845,8.721439259932113,4.294242960271549,-0.23555555555555555,-0.59,-0.5111111111111111,0.005043651713102787,-0.015271630954950384,-0.019111624405615465
1592173668.6649456,0.08163497480903624,8.705576683460642,4.350481607887751,-0.23555555555555555,-0.59,-0.5111111111111111,0.003576653246644753,-0.019204980371655737,-0.025928313151664772
1592173668.6749456,0.08016842261463125,8.650842113073157,4.399494732156106,-0.2694198776607146,-0.59,-0.527497073420059,0.004344951072734993,-0.02501561976841516,-0.03479635269638161
1592173668.6849456,0.09982819445424398,8.683046990757074,4.3339060184858536,-0.27,-0.59,-0.5277777777777778,0.016619872557460908,-0.02653105498888614,-0.04355826698869253
1592173668.6949456,0.11,8.726713302120627,4.246573395758745,-0.27,-0.59,-0.5277777777777778,0.042333907935964775,-0.03018473878794228,-0.05576713903125974
1592173668.7049456,0.07262367708589712,8.720655919271476,4.24,-0.27,-0.59,-0.5277777777777778,0.054916872975162456,-0.024427575374216106,-0.07201241702902736
1592173668.7149456,0.07,8.754194626782512,4.246838925356503,-0.27,-0.59,-0.5277777777777778,0.05936242505635342,-0.022506255155308366,-0.07979976169552405
1592173668.7249455,0.03452067564040419,8.77,4.294349155449495,-0.26310124248563416,-0.6028119782409651,-0.5277777777777778,0.056248781425598596,-0.020849067171088535,-0.08967597882161477
1592173668.7349455,0.0763370486805754,8.742197770791655,4.3,-0.26222222222222225,-0.6044444444444445,-0.5277777777777778,0.044512276511741396,-0.026791290355929677,-0.09154987252862201
1592173668.7449455,0.1065086618469513,8.678146455690447,4.264655117537398,-0.26222222222222225,-0.6044444444444445,-0.5277777777777778,0.03399440985137696,-0.036909591010892674,-0.08777425715030979
1592173668.7549455,0.23939164656000378,8.652747780458666,4.3117566586240015,-0.26222222222222225,-0.6044444444444445,-0.5277777777777778,0.02802011043937522,-0.05229351649393133,-0.07409298610026478
1592173668.7649455,0.3037263660918346,8.66249324745481,4.301260128817785,-0.26222222222222225,-0.6044444444444445,-0.5277777777777778,0.036810382790347894,-0.0640811523527593,-0.05904821369256657
1592173668.7749455,0.2765706214689266,8.738694915254237,4.2365706214689265,-0.26222222222222225,-0.5934193345888261,-0.5209930947897049,0.06169233549166256,-0.08063704636959536,-0.044608199829750554
1592173668.7849455,0.28561453918540336,8.768538179728468,4.211461820271532,-0.26222222222222225,-0.59,-0.5188888888888888,0.0732197340793602,-0.08585671210708708,-0.040679658662501804
1592173668.7949455,0.1720508721613616,8.77,4.058351121350322,-0.26222222222222225,-0.59,-0.5188888888888888,0.059472202990902265,-0.08617563181722002,-0.037603684536333226
1592173668.8049455,0.11666698193511776,8.77,4.096666036129765,-0.26222222222222225,-0.59,-0.5188888888888888,0.036724825491539506,-0.08253956359935162,-0.03254316133254401
1592173668.8149455,0.0976069043898281,8.77,4.122393095610172,-0.26222222222222225,-0.59,-0.5188888888888888,0.021909907329295916,-0.07910855465083476,-0.032310031201497086
1592173668.8249454,0.07494958753437214,8.822676443629698,4.137525206232814,-0.2572054180670129,-0.6058865464914961,-0.49714940421631526,0.010346394992917805,-0.07416549491589332,-0.0277996875128611
1592173668.8349454,0.044390811846605385,8.788781623693211,4.122927207897737,-0.25555555555555554,-0.6111111111111112,-0.49,0.0022084117510628156,-0.06563625155993816,-0.03735405508090151
1592173668.8449454,0.03161455292716531,8.771614552927165,4.12,-0.25555555555555554,-0.6111111111111112,-0.49,-0.01171511452636358,-0.05429720199604372,-0.049331722341119585
1592173668.8549454,0.07190372514773788,8.728096274852263,4.161903725147738,-0.25555555555555554,-0.6111111111111112,-0.49,-0.03337894695527172,-0.04047531050379982,-0.032070899994515636
1592173668.8649454,0.11040715767634855,8.75040715767635,4.206488589211618,-0.25555555555555554,-0.6111111111111112,-0.49,-0.0370882466048795,-0.02690159576283726,-0.01244044981614734
1592173668.8749454,0.13701094664872532,8.791032839946176,4.237010946648725,-0.2516605851951526,-0.6009841881740634,-0.4954529585045641,-0.02561661197657459,-0.010457646382292277,-0.0006521102812189236
1592173668.8849454,0.1802223176375173,8.8,4.288266781165021,-0.25,-0.5966666666666667,-0.49777777777777776,-0.019848270022985583,0.004862708282833301,-0.012285207822259118
1592173668.8949454,0.19,8.76712215320911,4.209585921325052,-0.25,-0.5966666666666667,-0.49777777777777776,-0.04115345448995947,0.019291669863529454,-0.009892005853694569
1592173668.9049454,0.2378081214770505,8.704223858276775,4.19,-0.25,-0.5966666666666667,-0.49777777777777776,-0.05450665462493392,0.036592610642069825,-0.0017732368519054317
1592173668.9149454,0.25,8.719471819703065,4.219471819703066,-0.25,-0.5966666666666667,-0.49777777777777776,-0.04836452097126047,0.04486156649312938,0.0006429753629657877
1592173668.9249454,0.2705701834029417,8.753713455601961,4.260570183402941,-0.26371345560196113,-0.6149512741359482,-0.4878736153985836,-0.03057515291334764,0.05398017823185113,0.004082642683499992
1592173668.9349453,0.30375225953762724,8.76,4.206660641232994,-0.27,-0.6233333333333333,-0.48333333333333334,-0.021634481883086643,0.06104148333273051,0.007181466969648203
1592173668.9449453,0.31,8.775622558019112,4.15094360495222,-0.27,-0.6233333333333333,-0.48333333333333334,-0.029246568461724874,0.06899398147773175,0.0033754236803290863
1592173668.9549453,0.31,8.756729398346165,4.209811804961506,-0.27,-0.6233333333333333,-0.48333333333333334,-0.041787808136883764,0.07344242972339127,-0.001202910249835936
1592173668.9649453,0.29829585351362053,8.726591707027241,4.247556219729569,-0.27,-0.6233333333333333,-0.48333333333333334,-0.0479158728999023,0.07672994186379709,-0.002181661564992912
1592173668.9749453,0.3172799422799423,8.737279942279942,4.2668199855699855,-0.27,-0.6051467051467051,-0.50379329004329,-0.05166610603402135,0.07779587132015264,0.0052577886309289855
1592173668.9849453,0.32242511547080077,8.765149769058398,4.239700461883203,-0.27,-0.5966666666666667,-0.5133333333333333,-0.047402127228845854,0.0824067358882324,0.014510688312786348
1592173668.9949453,0.31244855173743313,8.785102896525133,4.13183117258663,-0.27,-0.5966666666666667,-0.5133333333333333,-0.044991157643127416,0.08728891113912203,0.01718619695917057
1592173669.0049453,0.22764575628371536,8.760053002284987,4.197327742573791,-0.27,-0.5966666666666667,-0.5133333333333333,-0.05452419416762073,0.09080732640352944,0.016636614846171124
1592173669.0149453,0.20546843853820598,8.72265780730897,4.2737475083056475,-0.27,-0.5966666666666667,-0.5133333333333333,-0.07093734186957518,0.0916297857297023,0.015169433519513838
1592173669.0249453,0.21,8.68770133906304,4.3468959828108815,-0.26111763376775077,-0.6014494792532624,-0.5174328869789868,-0.0912033392407004,0.08492190676294073,0.012839224379101611
1592173669.0349452,0.19516643421664343,8.672583217108322,4.37,-0.25555555555555554,-0.6044444444444445,-0.52,-0.09303871209951671,0.07424911383646914,0.010381047590393865
1592173669.0449452,0.17529769427024966,8.68470230572975,4.252381554161997,-0.25555555555555554,-0.6044444444444445,-0.52,-0.07238451253327945,0.07199483164476608,0.009015590659283819
1592173669.0549452,0.14809514788415545,8.704603234743898,4.2903177910914305,-0.25555555555555554,-0.6044444444444445,-0.52,-0.05270612056365622,0.06801241714910011,0.010319612058238038
1592173669.0649452,0.1456231937413714,8.698753612517258,4.348115968706857,-0.25555555555555554,-0.6044444444444445,-0.52,-0.047383159146941134,0.06470049188357502,0.012748493673673353
1592173669.0749452,0.15665933501961216,8.670021994941164,4.436593350196121,-0.2651745950283287,-0.6044444444444445,-0.5059414038474854,-0.049084985936452476,0.06326818538479445,0.013454379409418968
1592173669.0849452,0.23121475054229934,8.652087249939745,4.47,-0.27,-0.6044444444444445,-0.4988888888888889,-0.0484519217268515,0.05895244971483076,0.01308996938995747
1592173669.0949452,0.25,8.65,4.411373494506462,-0.27,-0.6044444444444445,-0.4988888888888889,-0.04479897458671664,0.04982008186449361,0.020284524036994173
1592173669.1049452,0.31567948686562053,8.65,4.419190883051386,-0.27,-0.6044444444444445,-0.4988888888888889,-0.03646871069469919,0.044517550112294586,0.033256198417655314
1592173669.1149452,0.3563700407860586,8.693653442096156,4.408173278951922,-0.27,-0.6044444444444445,-0.4988888888888889,-0.019530198737265986,0.04303799981985307,0.043040561404931225
1592173669.1249452,0.35751607562281007,8.723758037811406,4.358790189057025,-0.2651451405199817,-0.6044444444444445,-0.5169212241003854,0.005982033519521493,0.04322329296721162,0.04867744687969389
1592173669.1349452,0.2875784318479368,8.735605392038016,4.3087892159239685,-0.26222222222222225,-0.6044444444444445,-0.5277777777777778,0.013329658072054289,0.04703779970145679,0.0371713958067456
1592173669.1449451,0.23410950530498187,8.754356197878007,4.213862812731956,-0.26222222222222225,-0.6044444444444445,-0.5277777777777778,0.006042887235734198,0.05582664571231437,0.032249736000896076
1592173669.1549451,0.21281970701771752,8.73127882807087,4.266163515787389,-0.26222222222222225,-0.6044444444444445,-0.5277777777777778,-0.004559992264927653,0.059688110716050326,0.021451862696255097
1592173669.1649451,0.2581897216574353,8.687873518895044,4.316063240552478,-0.26222222222222225,-0.6044444444444445,-0.5277777777777778,-0.015812878199409994,0.06174792076343397,0.01978959615478181
1592173669.174945,0.281548482192654,8.653849494064218,4.373053541550474,-0.2670059490611638,-0.5955603803149815,-0.5175269345514744,-0.028274775394568127,0.06796459822666918,0.031209441333678575
1592173669.184945,0.3382885551089486,8.725876172343277,4.346886679359707,-0.27,-0.59,-0.5111111111111111,-0.024184966891892548,0.07504240408477224,0.04288201111638314
1592173669.194945,0.3669747473635543,8.763949494727107,4.274202021091566,-0.27,-0.59,-0.5111111111111111,-0.011925865788337776,0.08168394316176264,0.04852819664450521
1592173669.204945,0.34996020748951895,8.736600345815866,4.263359861673654,-0.27,-0.59,-0.5111111111111111,-0.01055048515017848,0.08836597476128204,0.05017821599483697
1592173669.214945,0.3193755654437695,8.709687782721884,4.3215610863905765,-0.27,-0.59,-0.5111111111111111,-0.023248022650220947,0.09222628755361983,0.04849088338842299
1592173669.224945,0.32445015176278313,8.651099696474432,4.4372379173476535,-0.2611707785301061,-0.5940750252937972,-0.530127895815498,-0.042483822165745116,0.10047919183958366,0.047572498101836454
1592173669.234945,0.3527375004917195,8.61681562487707,4.48,-0.25555555555555554,-0.5966666666666667,-0.5422222222222223,-0.04417557858202545,0.10541447800108132,0.050775445955530324
1592173669.244945,0.3673140943055913,8.635371811388817,4.422913424375161,-0.25555555555555554,-0.5966666666666667,-0.5422222222222223,-0.022851148208840405,0.10759332550641809,0.05741510951158111
1592173669.254945,0.26929043405169395,8.63056223586822,4.415917018842372,-0.25555555555555554,-0.5966666666666667,-0.5422222222222223,-0.011030968663380188,0.11011257861293423,0.059934362618097266
1592173669.264945,0.2402996127325966,8.645374515915746,4.414775290450552,-0.25555555555555554,-0.5966666666666667,-0.5422222222222223,-0.011494576565155816,0.10960398163152801,0.06496162624705937
1592173669.274945,0.19868801798005337,8.681147633094536,4.3554094676218575,-0.25927143325373414,-0.5898542242200059,-0.5496539776185794,-0.019044872705052257,0.10920826560029873,0.08149052969534734
1592173669.284945,0.16363463147132634,8.71045194720699,4.313182684264337,-0.26222222222222225,-0.5844444444444444,-0.5555555555555556,-0.021420138860733805,0.12281602339152209,0.09980997737400704
1592173669.294945,0.13137651268260445,8.726437247886233,4.252064769023907,-0.26222222222222225,-0.5844444444444444,-0.5555555555555556,-0.028449927831181696,0.13573998048344454,0.10292672952227705
1592173669.304945,0.10372705164274475,8.723727051642745,4.251364741786276,-0.26222222222222225,-0.5844444444444444,-0.5555555555555556,-0.05051600890416567,0.14715333784116144,0.09706391342258318
1592173669.314945,0.049983841840129266,8.72,4.330019389791844,-0.26222222222222225,-0.5844444444444444,-0.5555555555555556,-0.07036158186011124,0.1543534370141573,0.08835553080039539
1592173669.324945,0.03148903346971628,8.714751827755048,4.431985377959621,-0.2709691759638101,-0.5809456629478092,-0.5485579925622853,-0.06875339823262919,0.14505741022254998,0.049698906017230544
1592173669.334945,0.09324873704120479,8.616903536284626,4.463350252591759,-0.2788888888888889,-0.5777777777777777,-0.5422222222222223,-0.05890486225480862,0.1341721862470641,0.019634954084936207
1592173669.344945,0.11,8.588711505846648,4.397628313844506,-0.2788888888888889,-0.5777777777777777,-0.5422222222222223,-0.0643478186719783,0.14029551221637995,0.03732456244073765
1592173669.354945,0.11,8.594028475512488,4.365971524487512,-0.2788888888888889,-0.5777777777777777,-0.5422222222222223,-0.050695309418315085,0.14659523238129604,0.05516186943219471
1592173669.364945,0.10521576200217961,8.671332045962947,4.374784237997821,-0.2788888888888889,-0.5777777777777777,-0.5422222222222223,-0.0377042699462289,0.15304990109044853,0.06156133126094859
1592173669.374945,0.10488945946847178,8.755110540531527,4.394668378405416,-0.27182633632331854,-0.5837537837947988,-0.5514578678848912,-0.04239770329995637,0.16883760925794167,0.05793461248681668
1592173669.384945,0.09735984803514187,8.705759468122997,4.403679924017571,-0.2644444444444444,-0.59,-0.5611111111111111,-0.060807412042235776,0.18688121254126538,0.0440869174446097
1592173669.394945,0.04153819722826709,8.619422746535333,4.369711373267667,-0.2644444444444444,-0.59,-0.5611111111111111,-0.0729178711386481,0.18891300095292937,0.05050342874559156
1592173669.404945,-0.060494513324782666,8.585874542777065,4.408745427770652,-0.2644444444444444,-0.59,-0.5611111111111111,-0.07635815477475191,0.17544744361019202,0.08921387873445547
1592173669.414945,-0.06012564807468772,8.57186387202716,4.468136127972841,-0.2644444444444444,-0.59,-0.5611111111111111,-0.06498267294061177,0.15403786938771238,0.1285752556491996
1592173669.4249449,0.012798808575485748,8.57133134762581,4.507065078100648,-0.26728862412788573,-0.5876298502637989,-0.5682215603197143,-0.04289224615328175,0.12457417500363044,0.16014750688830273
1592173669.4349449,0.16747151332517188,8.659770223184857,4.464252754496657,-0.27111111111111114,-0.5844444444444444,-0.5777777777777777,-0.023810188773190133,0.09929066596948365,0.17192495722636394
1592173669.4449449,0.27166326458787926,8.734989793763637,4.3325255155909055,-0.27111111111111114,-0.5844444444444444,-0.5777777777777777,-0.021724785311654622,0.11144172052510899,0.15235789481784384
1592173669.4549448,0.25141725581065427,8.771433097675738,4.281433097675738,-0.27111111111111114,-0.5844444444444444,-0.5777777777777777,-0.038964167075702855,0.14197124074807554,0.1090709816937855
1592173669.4649448,0.1854585560997495,8.766637566829925,4.29890828878005,-0.27111111111111114,-0.5844444444444444,-0.5777777777777777,-0.06281088230167735,0.16619210929867195,0.07014186304315337
1592173669.4749448,0.042892042574759245,8.712668018246326,4.384663963507349,-0.2794071070563722,-0.570617784535676,-0.5745515571323985,-0.08623191492601787,0.18161110665398572,0.05741783819368217
1592173669.4849448,-0.05716934773538547,8.591508043206156,4.5356613045292296,-0.2911111111111111,-0.5511111111111111,-0.57,-0.08338653159109191,0.1841960141106618,0.08568718276394788
1592173669.4949448,-0.028840189609585287,8.54,4.519780853243134,-0.2911111111111111,-0.5511111111111111,-0.57,-0.053608118906161496,0.17656416587402612,0.10778702649765921
1592173669.5049448,-0.009020703253368387,8.644303319093,4.474510351626685,-0.2911111111111111,-0.5511111111111111,-0.57,-0.02141190058143142,0.16167918896283243,0.12112433733589181
1592173669.5149448,0.03852856416341753,8.74284285472114,4.431471435836582,-0.2911111111111111,-0.5511111111111111,-0.57,0.0017037720324905078,0.14867036720151916,0.11626282450862663
1592173669.5249448,0.06295566009408468,8.740682614352918,4.395453908517665,-0.2842427073254818,-0.5592673406065459,-0.5755805780758237,0.015445120106525488,0.13843648190034843,0.0949521739502375
1592173669.5349448,0.11866859084772591,8.682592058097855,4.387110469717425,-0.2733333333333333,-0.5722222222222222,-0.5844444444444444,0.011473807177596211,0.12949366425915937,0.05479955836069937
1592173669.5449448,0.08192706224244303,8.676100855148757,4.327798289702485,-0.2733333333333333,-0.5722222222222222,-0.5844444444444444,-0.0010657822873599279,0.12712181438361495,0.03514675437655353
1592173669.5549448,0.012270390473685468,8.663108007938595,4.364540780947371,-0.2733333333333333,-0.5722222222222222,-0.5844444444444444,-0.0035289696934229335,0.11706674096452241,0.05460646052358499
1592173669.5649447,0.010437356439896166,8.652669704382902,4.432669704382902,-0.2733333333333333,-0.5722222222222222,-0.5844444444444444,0.00552820141839975,0.10062131224261615,0.06273345442734367
1592173669.5749447,-0.04234792687030321,8.665884024376565,4.470579878117172,-0.28430926832915837,-0.5722222222222222,-0.5871884281934007,0.021171668628042588,0.08290623900012545,0.03882712393965729
1592173669.5849447,-0.06927343779641082,8.664215198998368,4.503372159198695,-0.3,-0.5722222222222222,-0.5911111111111111,0.03355257586281203,0.0698797199867525,0.015258925220222362
1592173669.5949447,-0.11082208588957057,8.664478527607363,4.480822085889571,-0.3,-0.5722222222222222,-0.5911111111111111,0.04403208721787535,0.039953852378284305,-0.004175941155078456
1592173669.6049447,-0.12750600876572882,8.580831330411424,4.41486144493143,-0.3,-0.5722222222222222,-0.5911111111111111,0.07020875624647803,0.02420987340233687,-0.022105092813602192
1592173669.6149447,-0.22,8.611865314822284,4.392933924765251,-0.3,-0.5722222222222222,-0.5911111111111111,0.12045627265384333,0.0045526585264753575,-0.032899428750715595
1592173669.6249447,-0.22343569661995055,8.740921269579555,4.356871393239901,-0.29770953558669966,-0.5680230374645049,-0.5956920399377118,0.1547639778856493,-0.019427669257759426,-0.038654348672247665
1592173669.6349447,-0.15751428571428572,8.783272527472528,4.3476967032967035,-0.29333333333333333,-0.56,-0.6044444444444445,0.10846118483210807,-0.03857585210056973,-0.04824780512436192
1592173669.6449447,-0.05749247340603466,8.711552150933297,4.314059677527263,-0.29333333333333333,-0.56,-0.6044444444444445,0.04492264042979383,-0.05682741600776613,-0.04670057710760066
1592173669.6549447,-0.00045573403063130236,8.562278670153157,4.407493462831527,-0.29333333333333333,-0.56,-0.6044444444444445,0.01100773356681332,-0.07720042120262646,-0.03137452630896418
1592173669.6649446,0.016103029831589594,8.487278791178873,4.516103029831589,-0.29333333333333333,-0.56,-0.6044444444444445,0.026524379280389348,-0.09430860240765439,-0.007066598753374079
1592173669.6749446,0.031503478703546584,8.573006957407094,4.495664347530969,-0.2965190338820069,-0.5603982125685842,-0.5992676810528499,0.07931596659784895,-0.11027497701232924,0.007780753624886481
1592173669.6849446,0.0648609159249593,8.742503513350734,4.428887327399674,-0.3022222222222222,-0.5611111111111111,-0.59,0.11949148584048476,-0.1300212671836515,-0.011272429081947248
1592173669.6949446,0.027236325630008135,8.79255580072001,4.371277900360004,-0.3022222222222222,-0.5611111111111111,-0.59,0.09963844212682023,-0.1364235464645398,-0.038804693100119775
1592173669.7049446,-0.019077256799599533,8.7182296012014,4.3590772567995995,-0.3022222222222222,-0.5611111111111111,-0.59,0.06338522262710135,-0.13179740413139057,-0.06949482149999905
1592173669.7149446,-0.04482040999085016,8.63553877002745,4.3662948975022875,-0.3022222222222222,-0.5611111111111111,-0.59,0.05312902506914986,-0.12641470959504253,-0.0881964517456247
1592173669.7249446,-0.01225413595672667,8.578235536013665,4.3782355360136656,-0.3059368684472281,-0.5648257573361171,-0.5808822319931674,0.066626321043648,-0.12369164640396169,-0.0780369983166993
1592173669.7349446,0.17221111269818598,8.634239394372232,4.401014140837023,-0.31444444444444447,-0.5733333333333334,-0.56,0.08750765757919149,-0.12217304763960307,-0.03240847192236543
1592173669.7449446,0.29587669870732514,8.680404630172612,4.339460493103184,-0.31444444444444447,-0.5733333333333334,-0.56,0.08994204486704627,-0.11885641698733254,-0.011940287534419468
1592173669.7549446,0.403760832728153,8.72094020818204,4.310940208182038,-0.31444444444444447,-0.5733333333333334,-0.56,0.07304832438014441,-0.10966110501868087,-0.017182948158984718
1592173669.7649446,0.44,8.73,4.32,-0.31444444444444447,-0.5733333333333334,-0.56,0.062177354602297986,-0.10471975511965977,-0.025089107997418484
1592173669.7749445,0.2435856475792578,8.663484885721308,4.28202015237159,-0.32643100953005105,-0.5733333333333334,-0.5669921629666039,0.015993311089253764,-0.07429766684300756,-0.04276276495658815
1592173669.7849445,0.14742333654773385,8.682061330761814,4.257423336547734,-0.3411111111111111,-0.5733333333333334,-0.5755555555555556,0.0024627319459794624,-0.060468168981631126,-0.03991102634279039
1592173669.7949445,0.07838961944610481,8.76754283721857,4.171101315002988,-0.3411111111111111,-0.5733333333333334,-0.5755555555555556,0.002449696444951819,-0.04814445447915445,-0.01560427022823407
1592173669.8049445,0.09078321380387702,8.820937063599139,4.147188809202585,-0.3411111111111111,-0.5733333333333334,-0.5755555555555556,-0.014743759636146624,-0.045422804146467495,0.01880042942040331
1592173669.8149445,0.14712155291360313,8.78863534125919,4.208486211654412,-0.3411111111111111,-0.5733333333333334,-0.5755555555555556,-0.03853496281154802,-0.042856390386124675,0.03840236915168761
1592173669.8249445,0.16262964570741645,8.74211106287775,4.291555748488997,-0.3340987225580006,-0.5753786133279906,-0.573802458417278,-0.06492870907269861,-0.04030417034098152,0.04214241344611613
1592173669.8349445,0.2202774008050604,8.65601058079356,4.38,-0.31444444444444447,-0.5811111111111111,-0.5688888888888889,-0.08530239009845696,-0.032600999076164525,0.018951927160011112
1592173669.8449445,0.23240781371646968,8.618939061504706,4.306448439379999,-0.31444444444444447,-0.5811111111111111,-0.5688888888888889,-0.0856724862152999,-0.023023176869325722,-0.00755127589881898
1592173669.8549445,0.1451992238930081,8.707201164160487,4.238934238791491,-0.31444444444444447,-0.5811111111111111,-0.5688888888888889,-0.07395811540291039,-0.01564972918612267,-0.0016721133490128284
1592173669.8649445,0.1361819044981604,8.76327273806227,4.28981821418681,-0.31444444444444447,-0.5811111111111111,-0.5688888888888889,-0.06150301343019332,-0.015231971442780653,0.02393878794666744
1592173669.8749444,0.17989428098331423,8.757367851229143,4.304947140491657,-0.3192165895356572,-0.5791461101912,-0.5688888888888889,-0.059766230925816996,-0.018257000412103624,0.025307037953136956
1592173669.8849444,0.1456710332060085,8.68969723244206,4.307315867175966,-0.3333333333333333,-0.5733333333333334,-0.5688888888888889,-0.08143917211534797,-0.010875281007750268,-0.0005712974751719661
1592173669.8949444,0.10308753842953239,8.645898615381059,4.297188923048473,-0.3333333333333333,-0.5733333333333334,-0.5688888888888889,-0.09783797222857357,-0.006544984694978735,-0.017312541787692648
1592173669.9049444,0.03090071862136329,8.632360287448545,4.334036838066002,-0.3333333333333333,-0.5733333333333334,-0.5688888888888889,-0.1111291945956595,-0.00987843814319926,-0.019316525563763724
1592173669.9149444,0.015168173384390669,8.613932730646242,4.497302712091903,-0.3333333333333333,-0.5733333333333334,-0.5688888888888889,-0.12822765155468055,-0.01858081304333774,-0.014609794537272913
1592173669.9249444,0.03744667195227848,8.61757465926681,4.577574659266809,-0.3333333333333333,-0.5702647420327792,-0.5630306691332855,-0.13743537109438944,-0.02453671198104725,-0.018841263185994397
1592173669.9349444,0.0,8.67,4.63,-0.3333333333333333,-0.5611111111111111,-0.5455555555555556,-0.1308996938995747,-0.019634954084936207,-0.03599741582238304
1592173669.9449444,-0.1324363450566295,8.640538192966023,4.567309035169888,-0.3333333333333333,-0.5611111111111111,-0.5455555555555556,-0.09581698562341007,-0.008343466750664155,-0.09708078131410787
1592173669.9549444,-0.1332604434377314,8.58932155769482,4.490787777148582,-0.3333333333333333,-0.5611111111111111,-0.5455555555555556,-0.08355237788923844,-0.006275258644674204,-0.12281035947783253
1592173669.9649444,-0.1623153708180613,8.525369258363877,4.52589487639398,-0.3333333333333333,-0.5611111111111111,-0.5455555555555556,-0.06562185504790854,-0.00661393255033344,-0.11509970374708199
1592173669.9749444,-0.0946465344048217,8.606378076343546,4.561731541938724,-0.33695525698978734,-0.5599038032256264,-0.548171389307439,-0.032467590685765706,-0.01357950093398589,-0.09797722513386542
1592173669.9849443,-0.03457173668632264,8.553618842209119,4.649085652662736,-0.35333333333333333,-0.5544444444444444,-0.56,0.019836536149553753,-0.024694353549548125,-0.1050210770064155
1592173669.9949443,-0.12322466876370222,8.500162996854447,4.633387665618149,-0.35333333333333333,-0.5544444444444444,-0.56,0.0283082597490237,-0.04013344354768512,-0.10596676051232776
1592173670.0049443,-0.05925040518638574,8.530149918962723,4.636616693679092,-0.35333333333333333,-0.5544444444444444,-0.56,0.024769107395097807,-0.06041381537127657,-0.0711258797329395
1592173670.0149443,0.015170119638167497,8.541723373212722,4.62724112440424,-0.35333333333333333,-0.5544444444444444,-0.56,0.04228018096713693,-0.07034002829721939,-0.05025325106237724
1592173670.0249443,-0.045018469656992084,8.541586631486368,4.60339489885664,-0.35333333333333333,-0.5544444444444444,-0.5590774943809245,0.07725173418620064,-0.07763011911198481,-0.040376856768680164
1592173670.0349443,-0.02,8.65,4.52,-0.35333333333333333,-0.5544444444444444,-0.5544444444444444,0.09817477042468103,-0.07853981633974483,-0.01854412330243975
1592173670.0449443,-0.025353640726058835,8.726615898184853,4.388585437095765,-0.35333333333333333,-0.5544444444444444,-0.5544444444444444,0.10375000131948924,-0.060640223138709204,-0.018423046320113833
1592173670.0549443,-0.02685130296635288,8.65384108315747,4.369446091100942,-0.35333333333333333,-0.5544444444444444,-0.5544444444444444,0.06932260273524403,-0.04843065712641859,-0.04101746703829078
1592173670.0649443,-0.03316410928143713,8.592755426646708,4.455102170658683,-0.35333333333333333,-0.5544444444444444,-0.5544444444444444,0.02850613950603917,-0.03372659353774297,-0.05433012942395611
1592173670.0749443,-0.13530720902992227,8.620143754658717,4.477581727185603,-0.35333333333333333,-0.5549498929234846,-0.5537705131390575,0.011719664764133737,-0.020725784867432664,-0.0622757396169689
1592173670.0849442,-0.17000424308142004,8.556242044222337,4.5774989392296455,-0.35333333333333333,-0.5611111111111111,-0.5455555555555556,0.034088577665109886,-0.024815821741316177,-0.03831710906057479
1592173670.0949442,-0.11657565869792014,8.629453952187522,4.5283618565625625,-0.35333333333333333,-0.5611111111111111,-0.5455555555555556,0.032724923474893676,-0.03126055500218895,-0.01854412330243975
1592173670.1049442,-0.14840547734957674,8.607725604930573,4.427725604930574,-0.35333333333333333,-0.5611111111111111,-0.5455555555555556,0.034336226432947085,-0.028609698360236673,-0.02434481395143203
1592173670.1149442,-0.19748082129963898,8.638189117027677,4.444016057460891,-0.35333333333333333,-0.5611111111111111,-0.5455555555555556,0.03714838341020214,-0.024255950709215483,-0.03611768943302834
1592173670.1249442,-0.058175985650719186,8.604560035873202,4.35954399641268,-0.35333333333333333,-0.5620231182857516,-0.5455555555555556,0.032522455107448146,-0.024293231597454185,-0.028557070177444473
1592173670.1349442,-0.02335487813476861,8.679870731191388,4.386903659482455,-0.35333333333333333,-0.5811111111111111,-0.5455555555555556,0.0017945495715523873,-0.009099657213847149,-0.010183437476561093
1592173670.1449442,-0.033261206670324686,8.64,4.479567240021948,-0.35333333333333333,-0.5811111111111111,-0.5455555555555556,-0.013636230547850046,-0.010576168757831838,-0.005216428426447851
1592173670.1549442,-0.009203786567130615,8.587646437164123,4.523079621343287,-0.35333333333333333,-0.5811111111111111,-0.5455555555555556,-0.03457447682152934,-0.006628011749568049,0.004193442663195402
1592173670.1649442,0.04262574396078889,8.4678282179951,4.516969307970592,-0.35333333333333333,-0.5811111111111111,-0.5455555555555556,-0.04505465929814922,-0.002468085798931181,-0.0046444007782239114
1592173670.1749442,-0.024734967525665202,8.472429289754873,4.464673161533627,-0.35333333333333333,-0.5795327886025561,-0.5448321577391345,-0.04979083737000322,0.0055254590044870764,-0.015710088708191416
1592173670.1849442,-0.09660472170035538,8.666604721700356,4.38679055659929,-0.35333333333333333,-0.5544444444444444,-0.5333333333333333,-0.0332629438635534,0.02918342093307445,0.011258403790582098
1592173670.1949441,-0.13374528754541093,8.729992460072658,4.350422007448534,-0.35333333333333333,-0.5544444444444444,-0.5333333333333333,-0.017225590597744204,0.04149678112791143,0.011726225292215826
1592173670.2049441,-0.24518950713913001,8.871457710734784,4.24037901427826,-0.35333333333333333,-0.5544444444444444,-0.5333333333333333,-0.029818162922418064,0.049736160714021684,0.011267675017433507
1592173670.2149441,-0.28056409988142567,8.778783218246495,4.290564099881426,-0.35333333333333333,-0.5544444444444444,-0.5333333333333333,-0.041574637237877674,0.0592415194009934,-0.005515687663988453
1592173670.224944,-0.3610155541605636,8.734900606821512,4.3710155541605635,-0.35333333333333333,-0.5544444444444444,-0.5333333333333333,-0.05912642180273564,0.06482617812617547,-0.014291579946417438
1592173670.234944,-0.25826684974314057,8.55653369948628,4.467244383418953,-0.38,-0.5666666666666667,-0.5244444444444445,-0.06410193843618245,0.06010722681135404,-0.009327828538244357
1592173670.244944,-0.2555870183914094,8.594574892975869,4.427449357855212,-0.38,-0.5666666666666667,-0.5244444444444445,-0.042577724098054395,0.06149282326271641,-0.010020626763925542
1592173670.254944,-0.21916183301365746,8.625068287384744,4.324093545628914,-0.38,-0.5666666666666667,-0.5244444444444445,-0.030005295516785963,0.05701238819095497,-0.005322315468361085
1592173670.264944,-0.26819575362933723,8.727549943738357,4.313675084392466,-0.38,-0.5666666666666667,-0.5244444444444445,-0.04546992223278166,0.05618141730971357,0.0012949075528212804
1592173670.274944,-0.13666691261921013,8.634706055966502,4.452940916050248,-0.38,-0.5666666666666667,-0.5244444444444445,-0.053065695038895536,0.049429619259834565,0.0021388823090561565
1592173670.284944,-0.20522729420659672,8.598522823929684,4.510454588413193,-0.36,-0.5666666666666667,-0.5188888888888888,-0.07370545967368243,0.04809573023673959,-0.0090985039891527
1592173670.294944,-0.19959593216992078,8.549191864339841,4.451212203490238,-0.36,-0.5666666666666667,-0.5188888888888888,-0.06087168564900353,0.03988143900521069,-0.011566688944447278
1592173670.304944,-0.21763466301896559,8.624426226477873,4.3723653369810345,-0.36,-0.5666666666666667,-0.5188888888888888,-0.02970278705545111,0.03041042163493521,0.022174264095142244
1592173670.314944,-0.1711157528928981,8.678698288291619,4.418884247107102,-0.36,-0.5666666666666667,-0.5188888888888888,-0.006022132793057532,0.013495668590368368,0.039934754791937435
1592173670.324944,-0.1514146596145552,8.726463350963613,4.438585340385445,-0.36,-0.5666666666666667,-0.5188888888888888,-0.0024131347031396185,-0.011238184284783818,0.033265027463902655
1592173670.334944,-0.13587311665160803,8.698253766696784,4.371429024932236,-0.37444444444444447,-0.5522222222222222,-0.5022222222222222,-0.01165277166490036,-0.0067700712645886365,0.025660561509589043
1592173670.344944,-0.13324472655222597,8.723377636723887,4.3,-0.37444444444444447,-0.5522222222222222,-0.5022222222222222,-0.026338788346793186,-0.0061910399345835665,0.012923870697751492
1592173670.354944,-0.1920800967894654,8.693959951605267,4.3,-0.37444444444444447,-0.5522222222222222,-0.5022222222222222,-0.041581403673452866,0.00022690336085208831,0.0024947128426685526
1592173670.364944,-0.13200113916840706,8.636399658249479,4.420401936586292,-0.37444444444444447,-0.5522222222222222,-0.5022222222222222,-0.0674135287542757,0.01007930128306655,-0.00890109220037354
1592173670.374944,-0.2116347066641352,8.612509588000758,4.5557790013290305,-0.37444444444444447,-0.5522222222222222,-0.5022222222222222,-0.08044354076592813,0.011816636217953539,-0.002820419928269079
1592173670.384944,-0.1788596971926913,8.59236844165401,4.611140302807309,-0.3777095478418499,-0.5483040981453356,-0.5152826358118441,-0.07411909005235916,0.011358037054554761,0.009358166387319641
1592173670.394944,-0.09785730986338889,8.564357192959017,4.655642807040983,-0.38,-0.5455555555555556,-0.5244444444444445,-0.04881474127816032,0.0006701145579904085,0.018022081034775192
1592173670.404944,-0.039957816647878105,8.519873449943635,4.599704716535147,-0.38,-0.5455555555555556,-0.5244444444444445,-0.03218641031849597,-0.01036979466856685,0.01744869103004295
1592173670.414944,-0.10747216764898494,8.615147347740667,4.506162409954158,-0.38,-0.5455555555555556,-0.5244444444444445,-0.026014921156629626,-0.010698999757334264,0.016362461737446838
1592173670.424944,-0.04240265841640885,8.677950498453077,4.512049501546923,-0.38,-0.5455555555555556,-0.5244444444444445,0.0049299751603936875,-0.013826189546815972,0.020371174241794708
1592173670.434944,-0.010033026189768486,8.654950460715348,4.509966973810231,-0.38,-0.552801630025944,-0.5205427120373123,0.005425333124939851,-0.022932664621525198,0.017438882126172082
1592173670.444944,-0.0022157912923289544,8.62221579129233,4.512703006219765,-0.38,-0.56,-0.5166666666666667,-0.011309453872052276,-0.0322060815356724,0.01502992562002438
1592173670.454944,0.04109938201841922,8.594921730348426,4.539319258422103,-0.38,-0.56,-0.5166666666666667,-0.025974242408540783,-0.035923158435573525,0.019754878059677686
1592173670.464944,0.005523697652481891,8.694809831455675,4.496904622065602,-0.38,-0.56,-0.5166666666666667,0.016175443869829984,-0.02873563608014157,0.012108285752871789
1592173670.4749439,0.035383273711000765,8.612695997294749,4.534229092138751,-0.38,-0.56,-0.5166666666666667,0.02106120557736897,-0.018964112665063593,-0.004991880223514669
1592173670.4849439,-0.03483456193353474,8.55066175226586,4.578278187311178,-0.38,-0.5455555555555556,-0.4888888888888889,0.0037276752709890972,-0.01041703191436543,-0.0091022875165036
1592173670.4949439,-0.00469968073133197,8.644699680731332,4.554099042193997,-0.38,-0.5455555555555556,-0.4888888888888889,-0.006926601334807009,-0.020471373774213812,-0.010522857730609746
1592173670.5049438,0.03463965045373794,8.624391895136121,4.485855860181496,-0.38,-0.5455555555555556,-0.4888888888888889,0.006065903254180969,-0.031847838331393145,-0.010802665836761968
1592173670.5149438,0.12333553834102184,8.64110523109061,4.525559230568369,-0.38,-0.5455555555555556,-0.4888888888888889,0.0024235071711531495,-0.04727029602428467,-0.024241565995239633
1592173670.5249438,0.14523979458612585,8.582693881103665,4.5620663243102095,-0.38,-0.5455555555555556,-0.4888888888888889,-0.003151721457478445,-0.05682783081622454,-0.03300263955451785
1592173670.5349438,0.10721822200042774,8.58417266699936,4.574812148000285,-0.37444444444444447,-0.5333333333333333,-0.4811111111111111,0.03088768976586974,-0.0717323696863341,-0.020215247754216063
1592173670.5449438,-0.02005201296946771,8.733535530937585,4.483483517968117,-0.37444444444444447,-0.5333333333333333,-0.4811111111111111,0.05678936970107495,-0.07584582388913332,-0.011233479146442326
1592173670.5549438,-0.17230077708365077,8.736332469907055,4.3791345421301235,-0.37444444444444447,-0.5333333333333333,-0.4811111111111111,0.057853755463934384,-0.07839072671428401,-0.029169210701779753
1592173670.5649438,-0.25859475828256245,8.638540322289916,4.5085947582825625,-0.37444444444444447,-0.5333333333333333,-0.4811111111111111,0.0280431480691713,-0.0786990424776131,-0.07137871025305179
1592173670.5749438,-0.30395652330653594,8.57805796892462,4.553956523306535,-0.37444444444444447,-0.5333333333333333,-0.4811111111111111,0.014847945499432271,-0.08529664376248261,-0.0853986129833995
1592173670.5849438,-0.24,8.52,4.61,-0.37444444444444447,-0.5377777777777778,-0.47444444444444445,0.056723200689815706,-0.11344640137963141,-0.09272061651219875
1592173670.5949438,-0.14695292460896242,8.661305889453303,4.323905849217925,-0.37444444444444447,-0.5377777777777778,-0.47444444444444445,0.09964546905096391,-0.1424252869706922,-0.10619045374594265
1592173670.6049438,-0.0738862670456027,8.695094777461998,4.193056866477199,-0.37444444444444447,-0.5377777777777778,-0.47444444444444445,0.1061026838380736,-0.1577672147243584,-0.11564874017923114
1592173670.6149437,-0.024053703369976573,8.737297531086682,4.226756172283294,-0.37444444444444447,-0.5377777777777778,-0.47444444444444445,0.08340485479196663,-0.17506345937059917,-0.12352938140549106
1592173670.6249437,-0.04672968102360786,8.72218021265093,4.264549468372679,-0.37444444444444447,-0.5377777777777778,-0.47444444444444445,0.04959946037999685,-0.1841331993347862,-0.11281059781145186
1592173670.6349437,0.0,8.65,4.47,-0.38666666666666666,-0.5522222222222222,-0.4444444444444444,0.009817477042468103,-0.20507618710933373,-0.10144726277217041
1592173670.6449437,-0.01680320093401114,8.655918079439594,4.494557439252791,-0.38666666666666666,-0.5522222222222222,-0.4444444444444444,0.010708013962267462,-0.22582431234401912,-0.1192420816665523
1592173670.6549437,-0.11085712260138009,8.6,4.425999858209661,-0.38666666666666666,-0.5522222222222222,-0.4444444444444444,0.022533456145242037,-0.24256956408045094,-0.15539659905253034
1592173670.6649437,-0.11811132393058216,8.595593089171357,4.490629558689806,-0.38666666666666666,-0.5522222222222222,-0.4444444444444444,0.018406774902794056,-0.25873291805112864,-0.17042838603940033
1592173670.6749437,-0.09376690463752975,8.538789444154235,4.498744365120824,-0.38666666666666666,-0.5522222222222222,-0.4444444444444444,0.016636398773003245,-0.2613884822458148,-0.14564312022232898
1592173670.6849437,-0.17,8.64,4.51,-0.38666666666666666,-0.56,-0.4533333333333333,0.03599741582238304,-0.26616271092913524,-0.11453723216212788
1592173670.6949437,-0.08353554249064672,8.697642971672902,4.413928380545163,-0.38666666666666666,-0.56,-0.4533333333333333,0.0464772038049452,-0.2609228169378542,-0.1030094653813095
1592173670.7049437,-0.08258079724664671,8.744838405506707,4.224516395181632,-0.38666666666666666,-0.56,-0.4533333333333333,0.04106441365034901,-0.25250969892317293,-0.12217317621162901
1592173670.7149436,-0.11511298601687414,8.668222904006136,4.294887013983126,-0.38666666666666666,-0.56,-0.4533333333333333,0.01803568249875092,-0.24424916972852825,-0.15434023086072873
1592173670.7249436,-0.02437547937931442,8.635227447047024,4.385624520620686,-0.38666666666666666,-0.56,-0.4533333333333333,-0.01165809711141707,-0.2424495467218514,-0.1642381573974514
1592173670.7349436,-0.03710768652508927,8.577107686525089,4.53,-0.39444444444444443,-0.56,-0.4266666666666667,-0.04613039532195734,-0.22693195868473867,-0.15405663122888022
1592173670.7449436,-0.011573069271115934,8.55,4.53,-0.39444444444444443,-0.56,-0.4266666666666667,-0.04977376616591353,-0.21587415904804197,-0.1445411700897892
1592173670.7549436,-0.032004041764904005,8.55,4.530572583361401,-0.39444444444444443,-0.56,-0.4266666666666667,-0.057439276538615164,-0.20136648067253118,-0.12497709631997118
1592173670.7649436,-0.10247029381047155,8.552161507084163,4.551852720357854,-0.39444444444444443,-0.56,-0.4266666666666667,-0.04391566032327284,-0.18602681270746782,-0.10874624418336148
1592173670.7749436,-0.16859124677320825,8.610017340926557,4.601443435079906,-0.39444444444444443,-0.56,-0.4266666666666667,-0.022277629065346805,-0.17250304317126405,-0.09973039782589231
1592173670.7849436,-0.23604996007756357,8.659209992015512,4.569209992015513,-0.4088888888888889,-0.5522222222222222,-0.39555555555555555,-0.007377285969106179,-0.15403620608660004,-0.09803188117287095
1592173670.7949436,-0.18594180776366157,8.646310734330601,4.554097174928962,-0.4088888888888889,-0.5522222222222222,-0.39555555555555555,-0.004725515940114687,-0.14334576496041418,-0.10948551470534433
1592173670.8049436,-0.07782155977256242,8.550435688045487,4.400871376090976,-0.4088888888888889,-0.5522222222222222,-0.39555555555555555,-0.0146798252006166,-0.12613239812774293,-0.11953988723960583
1592173670.8149436,0.019919231222733168,8.56994615414849,4.439973077074245,-0.4088888888888889,-0.5522222222222222,-0.39555555555555555,-0.03713229913913313,-0.10793644759042789,-0.09912463309756588
1592173670.8249435,-0.004808395236410797,8.553461069842394,4.431730534921196,-0.4088888888888889,-0.5522222222222222,-0.39555555555555555,-0.05061912719898717,-0.0908531320479461,-0.05596678330603294
1592173670.8349435,-0.0315889073195804,8.61158890731958,4.496292549587646,-0.40444444444444444,-0.5455555555555556,-0.39111111111111113,-0.051897683155901285,-0.07031937693052492,-0.019628073158102246
1592173670.8449435,-0.0626560324689115,8.640996012175842,4.428007975648316,-0.40444444444444444,-0.5455555555555556,-0.39111111111111113,-0.04363323129985824,-0.03934669026062932,0.0
1592173670.8549435,-0.13778462240474562,8.668449235683322,4.372879990873831,-0.40444444444444444,-0.5455555555555556,-0.39111111111111113,-0.04385072548667632,-0.009382488668831939,0.0
1592173670.8649435,-0.04208989276751085,8.601462924937257,4.497283139402236,-0.40444444444444444,-0.5455555555555556,-0.39111111111111113,-0.053245533599663754,0.009407127557142948,0.0
1592173670.8749435,-0.08916160728550887,8.583612797571497,4.614710416999521,-0.40444444444444444,-0.5455555555555556,-0.39111111111111113,-0.07937042237194332,0.02501179216327805,0.011619182151207606
1592173670.8849435,-0.17,8.5,4.83,-0.3977777777777778,-0.5366666666666666,-0.4066666666666667,-0.08508480103472357,0.05017821599483697,0.02181661564992912
1592173670.8949435,-0.2587544679681056,8.464498212812758,4.758996425625516,-0.3977777777777778,-0.5366666666666666,-0.4066666666666667,-0.05313548613930084,0.06082798762664455,0.030530065166862595
1592173670.9049435,-0.26132658205650905,8.547959492339054,4.572040507660946,-0.3977777777777778,-0.5366666666666666,-0.4066666666666667,-0.009093938771094334,0.05745226233662528,0.047618215167849774
1592173670.9149435,-0.27971416672146604,8.658285000328796,4.461714999671204,-0.3977777777777778,-0.5366666666666666,-0.4066666666666667,0.0009349329130530649,0.05243782649455158,0.08773370190443937
1592173670.9249434,-0.3197839827340348,8.68387038964042,4.452043203453194,-0.3977777777777778,-0.5366666666666666,-0.4066666666666667,0.009770349385814982,0.04975602197883433,0.0796777747788944
1592173670.9349434,-0.3172539827036869,8.698626991351842,4.453661356395084,-0.4266666666666667,-0.5433333333333333,-0.39222222222222225,0.01437299889612456,0.05697282070615621,0.06088682780672913
1592173670.9449434,-0.25997125256673514,8.66996167008898,4.53,-0.4266666666666667,-0.5433333333333333,-0.39222222222222225,-0.004370291704457624,0.06218188417570466,0.05672041326002698
1592173670.9549434,-0.17384599589322386,8.5551279945243,4.53,-0.4266666666666667,-0.5433333333333333,-0.39222222222222225,-0.025247643066651945,0.07575216256113096,0.048369472715149256
1592173670.9649434,-0.1509049536562701,8.502262384140675,4.635022754890514,-0.4266666666666667,-0.5433333333333333,-0.39222222222222225,-0.028262885214408638,0.08260699407823302,0.03758182225737557
1592173670.9749434,-0.18108161602049133,8.492229595994877,4.624459191989755,-0.4266666666666667,-0.5433333333333333,-0.39222222222222225,-0.00717111064185352,0.08798885699846369,0.032850148664268636
1592173670.9849434,-0.20944946511256585,8.626146255787962,4.464404279099473,-0.40073404651657885,-0.5368501782958114,-0.3835780155055263,0.03921971218847125,0.0958129467390727,0.04118132655394221
1592173670.9949434,-0.20046512707438785,8.706278983404898,4.345581524892654,-0.4,-0.5366666666666666,-0.38333333333333336,0.05700223158348852,0.09287282899135318,0.05913315565542997
1592173671.0049434,-0.11331010032799536,8.719632211074668,4.2725745224773295,-0.4,-0.5366666666666666,-0.38333333333333336,0.03995194048793677,0.08116279293407351,0.06314782674043015
1592173671.0149434,-0.05361852506277318,8.701206175020923,4.326381474937227,-0.4,-0.5366666666666666,-0.38333333333333336,0.012618760519437985,0.07867138962393509,0.0571179205423865
1592173671.0249434,-0.012266738267390352,8.647173433574347,4.397919871118697,-0.4,-0.5366666666666666,-0.38333333333333336,0.004322611277456372,0.08677193702413007,0.04766786793699195
1592173671.0349433,0.018368041334551527,8.675920103336379,4.438368041334552,-0.4,-0.5315644329626246,-0.38333333333333336,0.003183482810087716,0.10447544284113144,0.049733168307828715
1592173671.0449433,0.03851862309122138,8.661481376908778,4.495555869273664,-0.4,-0.5311111111111111,-0.38333333333333336,-0.022988397005070774,0.1179309963725686,0.061288592259381644
1592173671.0549433,0.06779542414978984,8.54881830340084,4.47220457585021,-0.4,-0.5311111111111111,-0.38333333333333336,-0.06450524355509546,0.12496457614714092,0.08744410816491144
1592173671.0649433,0.10738643195536637,8.633466079888416,4.479346607988842,-0.4,-0.5311111111111111,-0.38333333333333336,-0.06661195174416469,0.1376802212344793,0.13124995175994777
1592173671.0749433,0.06503753940204413,8.654987486865986,4.502481230298978,-0.4,-0.5311111111111111,-0.38333333333333336,-0.03793025668734715,0.13281342516806258,0.1382593892534836
1592173671.0849433,0.006135865595325057,8.686318480642804,4.49245434623813,-0.38440386332278226,-0.5311111111111111,-0.37748478207937664,-0.007308327200188088,0.1337705947829456,0.13866937319842274
1592173671.0949433,-0.04324974901889203,8.63810030117733,4.429450351373551,-0.38222222222222224,-0.5311111111111111,-0.37666666666666665,0.0012980557778205755,0.13134149679316087,0.12438206210753391
1592173671.1049433,-0.06766976481840253,8.656504647227605,4.340486058317189,-0.38222222222222224,-0.5311111111111111,-0.37666666666666665,0.011819023256686101,0.12800848539206675,0.0980796434103701
1592173671.1149433,-0.07,8.677704574665588,4.418522873327938,-0.38222222222222224,-0.5311111111111111,-0.37666666666666665,0.01308996938995747,0.13148974055933133,0.07172704403371577
1592173671.1249433,-0.06268753447324876,8.665375068946497,4.5396869829012685,-0.38222222222222224,-0.5311111111111111,-0.37666666666666665,-0.005256354342848683,0.12959752593431384,0.04957834931521813
1592173671.1349432,-0.0032524563866051723,8.489757369159816,4.750242630840185,-0.4000871896560687,-0.5311111111111111,-0.36300522098196053,-0.034696526655796464,0.11117914156995895,0.03635220377690665
1592173671.1449432,-0.038545037401715936,8.460727481299143,4.702182443897426,-0.4011111111111111,-0.5311111111111111,-0.3622222222222222,-0.013923206334491841,0.09966238070457481,0.016025512000005293
1592173671.1549432,-0.0849751874847008,8.540955337472463,4.565074437545897,-0.4011111111111111,-0.5311111111111111,-0.3622222222222222,0.017327428363296343,0.07473544172874699,-0.007296115765205672
1592173671.1649432,-0.09,8.594584613918471,4.523249231648917,-0.4011111111111111,-0.5311111111111111,-0.3622222222222222,0.04017949258262808,0.052541123929570666,0.000882062200889374
1592173671.1749432,-0.1903830815246568,8.592829779891096,4.498489339673288,-0.4011111111111111,-0.5311111111111111,-0.3622222222222222,0.04723529860460236,0.04079241982035581,0.0006173622025793847
1592173671.1849432,-0.22052789295794278,8.62788842816823,4.4805278929579435,-0.42005532519522554,-0.5363733928011428,-0.36853696025026034,0.043921152244051784,0.02675578066830204,-0.038230123965336614
1592173671.1949432,-0.2321367458054002,8.684615356124302,4.4678632541946,-0.4211111111111111,-0.5366666666666666,-0.3688888888888889,0.04032344731889192,0.02419406839133515,-0.04300856613714193
1592173671.2049432,-0.17914023256459358,8.60697471761996,4.477388504981545,-0.4211111111111111,-0.5366666666666666,-0.3688888888888889,0.030591910789191188,0.024804238081971765,-0.039982082958489214
1592173671.2149432,-0.13451918725137563,8.527908577689907,4.586442438245873,-0.4211111111111111,-0.5366666666666666,-0.3688888888888889,0.003327526281824606,0.017348395450580055,-0.0353995518964532
1592173671.2249432,-0.09252958853056223,8.488774657108802,4.674940822938876,-0.4211111111111111,-0.5366666666666666,-0.3688888888888889,-0.005449850435156132,0.009550148693501674,-0.0144696459080511
1592173671.2349432,-0.053730053191489366,8.575754654255318,4.61424534574468,-0.40393727836879434,-0.5104539745862884,-0.3462917405437352,0.02854364723746544,0.0019046021508216044,0.008466993719989113
1592173671.2449431,-0.03230082222852282,8.715044655514602,4.474955344485398,-0.4,-0.5044444444444445,-0.3411111111111111,0.07377118168708771,0.003986851973197106,0.011873648221864775
1592173671.2549431,-0.013097859536346852,8.696195719072694,4.367038227449908,-0.4,-0.5044444444444445,-0.3411111111111111,0.0886803726490523,0.02833191077016713,0.007389794830503072
1592173671.2649431,-0.027931280769328874,8.698965640384664,4.358965640384665,-0.4,-0.5044444444444445,-0.3411111111111111,0.07880295912754344,0.06988891023715796,0.005566985043340202
1592173671.274943,-0.15902305642915807,8.654462450672062,4.291693676008093,-0.4,-0.5044444444444445,-0.3411111111111111,0.07496529752893008,0.10066916551182073,-0.005308494210230293
1592173671.284943,-0.15396336770817298,8.695243958750192,4.288414652916731,-0.37544712944435893,-0.5177439159954167,-0.31451216800916665,0.074176493209759,0.13620089308789904,0.0023213523778353087
1592173671.294943,-0.18262211909069456,8.667377880909305,4.342195390545111,-0.37333333333333335,-0.5188888888888888,-0.31222222222222223,0.06634774663699211,0.1428057347803773,0.023200210896350527
1592173671.304943,-0.12858416624721364,8.642064907360803,4.3303245368040075,-0.37333333333333335,-0.5188888888888888,-0.31222222222222223,0.031016318676222482,0.1398869880843494,0.06064886852706626
1592173671.314943,-0.0939669023909174,8.664049646413623,4.440248232068119,-0.37333333333333335,-0.5188888888888888,-0.31222222222222223,-0.006824527465862391,0.1350376300948984,0.08074855582284848
1592173671.324943,-0.04424800217239507,8.63732000155171,4.47,-0.37333333333333335,-0.5188888888888888,-0.31222222222222223,-0.00990299837893429,0.13203328535030426,0.08684583811457353
1592173671.334943,-0.14880005347951067,8.644150010027408,4.349249949862959,-0.3885388952024423,-0.5072611062830997,-0.31222222222222223,-0.05154177270330018,0.1308996938995747,0.08835729338221293
1592173671.344943,-0.30757861264868686,8.726547167589212,4.354020963372983,-0.39222222222222225,-0.5044444444444445,-0.31222222222222223,-0.062177354602297986,0.1308996938995747,0.08835729338221293
1592173671.354943,-0.3699203768083436,8.620238869574969,4.407904452170012,-0.39222222222222225,-0.5044444444444445,-0.31222222222222223,-0.09527260026456111,0.1239322737601509,0.1083886262830564
1592173671.364943,-0.34055749712753736,8.566334498276523,4.498885005744925,-0.39222222222222225,-0.5044444444444445,-0.31222222222222223,-0.11395494744244022,0.1049630091308082,0.11774891100683012
1592173671.374943,-0.3365086757452495,8.599052054471496,4.52650867574525,-0.39222222222222225,-0.5044444444444445,-0.31222222222222223,-0.09754926131536411,0.07124699017922861,0.0791413176973591
1592173671.384943,-0.3319249139917833,8.62,4.546150172016433,-0.39222222222222225,-0.5044444444444445,-0.31222222222222223,-0.0714110682993919,0.04153868608480851,0.02522238763275607
1592173671.394943,-0.38815518151966755,8.661539415371191,4.583231532296953,-0.39222222222222225,-0.5044444444444445,-0.31222222222222223,-0.0685377579742563,0.039991576306328026,0.022890789276799495
1592173671.404943,-0.33734040143174304,8.662167550178967,4.535172851252775,-0.39222222222222225,-0.5044444444444445,-0.31222222222222223,-0.049071421352853126,0.04548706537265329,7.542058692807871e-05
1592173671.414943,-0.25809455518906255,8.644523638797265,4.442618193986328,-0.39222222222222225,-0.5044444444444445,-0.31222222222222223,-0.03856860393956528,0.054502664687787035,-0.02258297133590642
1592173671.424943,-0.3035790627569197,8.709936969032611,4.426357906275692,-0.39222222222222225,-0.5044444444444445,-0.31222222222222223,-0.04818488640928302,0.05394904073871483,-0.03975448934236536
1592173671.434943,-0.469849441953327,8.66597977285373,4.529296632081955,-0.39646566803769046,-0.5002009986289763,-0.296097128123443,-0.05787433367476811,0.041528295272507613,-0.05107171683477925
1592173671.444943,-0.5578146728778943,8.64,4.623752897170525,-0.3977777777777778,-0.4988888888888889,-0.2911111111111111,-0.07542147264770703,0.01557740000762024,-0.050621286992156365
1592173671.454943,-0.57,8.508745975456115,4.531908450375624,-0.3977777777777778,-0.4988888888888889,-0.2911111111111111,-0.09900150828034332,-0.016291074953234654,-0.06281138631533831
1592173671.464943,-0.5850419598401084,8.372227261039296,4.560167839360434,-0.3977777777777778,-0.4988888888888889,-0.2911111111111111,-0.06041752649846216,-0.03958609839645452,-0.058336561320950914
1592173671.474943,-0.5594257448925832,8.401148510214833,4.59834455306445,-0.3977777777777778,-0.4988888888888889,-0.2911111111111111,0.017552650518981187,-0.04939324948958444,-0.03695562027840024
1592173671.484943,-0.348009295120062,8.575104570100697,4.546003098373354,-0.38355624408296757,-0.4941483776572855,-0.28242017385317153,0.11366186369530654,-0.04615456286838606,-0.009575821268808935
1592173671.494943,-0.28670388091440724,8.72187134502924,4.453184476342371,-0.37777777777777777,-0.4922222222222222,-0.2788888888888889,0.1491086230540703,-0.03543373292999254,-0.019671489087220776
1592173671.504943,-0.2553055780113177,8.725130962004851,4.370611156022636,-0.37777777777777777,-0.4922222222222222,-0.2788888888888889,0.13108064658879726,-0.034897061214138034,-0.034801822956652496
1592173671.514943,-0.27530217717717714,8.773202488202488,4.379003110253111,-0.37777777777777777,-0.4922222222222222,-0.2788888888888889,0.04123068937049883,-0.048924269508941146,-0.05638541635082355
1592173671.5249429,-0.3369529652351738,8.602188139059304,4.57439672801636,-0.37777777777777777,-0.4922222222222222,-0.2788888888888889,-0.011481607438669241,-0.0626034255214326,-0.061099908246580625
1592173671.5349429,-0.37434900207841015,8.45260399168636,4.695872505196025,-0.3817636116884473,-0.48664205474728495,-0.29403505774943295,-0.011144033863148883,-0.08015337504696862,-0.06374258791882152
1592173671.5449429,-0.38,8.43,4.688859764954443,-0.38333333333333336,-0.48444444444444446,-0.3,0.04560091833330507,-0.08585348167262034,-0.0597469323399102
1592173671.5549428,-0.39383250084864946,8.554492507637844,4.555507492362155,-0.38333333333333336,-0.48444444444444446,-0.3,0.10350852615759094,-0.08693007770345078,-0.045742897292620044
1592173671.5649428,-0.39306264391008144,8.61,4.479187931730244,-0.38333333333333336,-0.48444444444444446,-0.3,0.12831561580383485,-0.08121247734209852,-0.03582025000915541
1592173671.5749428,-0.3787114203529503,8.5874228407059,4.48128857964705,-0.38333333333333336,-0.48444444444444446,-0.3,0.13753179325842033,-0.0748456372888454,-0.027043092664074512
1592173671.5849428,-0.3562890035449791,8.542578007089958,4.5242774911375525,-0.37343094700470714,-0.49815544089946534,-0.2900976136713738,0.16723384261066143,-0.06900355624639877,-0.024060072198704603
1592173671.5949428,-0.39383990634374766,8.570186580815102,4.503466744713544,-0.3688888888888889,-0.5044444444444445,-0.28555555555555556,0.20041611203310353,-0.0668344765257549,-0.02787871995900725
1592173671.6049428,-0.5353138001239267,8.799655955858487,4.316629488654805,-0.3688888888888889,-0.5044444444444445,-0.28555555555555556,0.23938436177749406,-0.07494935410938737,-0.043807681827760354
1592173671.6149428,-0.5677797636069011,8.968916690496616,4.207761891144791,-0.3688888888888889,-0.5044444444444445,-0.28555555555555556,0.15851327816886732,-0.09042078421187964,-0.06496936567575093
1592173671.6249428,-0.6024004925717009,8.935199014856599,4.2159203940573615,-0.3688888888888889,-0.5044444444444445,-0.28555555555555556,0.04407690399319188,-0.10512135278757814,-0.08819176650570795
1592173671.6349428,-0.5981976116178588,8.522091934709554,4.3826167186749885,-0.36404391369285755,-0.48990951885635037,-0.26536815890542487,-0.011003454400958235,-0.12236334079159042,-0.09976028484995987
1592173671.6449428,-0.5592194462126034,8.401546387651178,4.418453612348823,-0.3622222222222222,-0.48444444444444446,-0.2577777777777778,0.021493697450829977,-0.12385026072370249,-0.09129081058480733
1592173671.6549428,-0.47103196888121796,8.60806692598985,4.24354645920812,-0.3622222222222222,-0.48444444444444446,-0.2577777777777778,0.15030318470221557,-0.11091275376704451,-0.05435127108009513
1592173671.6649427,-0.43344849095532845,8.865946931529196,4.143448490955328,-0.3622222222222222,-0.48444444444444446,-0.2577777777777778,0.1539201960630205,-0.09966061583773747,-0.03386286081198189
1592173671.6749427,-0.4254361958891311,8.939127608221737,4.135436195889131,-0.3622222222222222,-0.48444444444444446,-0.2577777777777778,0.06896453617394945,-0.09658610584124261,-0.023024627510917436
1592173671.6849427,-0.4050820113839211,8.824098548381665,4.14622949715402,-0.3712203847780285,-0.48444444444444446,-0.2432422844183984,-0.06738101899691085,-0.09776347236769246,-0.009030665145329438
1592173671.6949427,-0.39,8.731947175147686,4.185066031065393,-0.37666666666666665,-0.48444444444444446,-0.23444444444444446,-0.14710737475300562,-0.09817477042468103,0.0020826625073656195
1592173671.7049427,-0.42333179276239774,8.700000924342561,4.153335490132643,-0.37666666666666665,-0.48444444444444446,-0.23444444444444446,-0.16726045110243806,-0.0930844620433388,0.007272070776467107
1592173671.7149427,-0.5440561556096524,8.61195788329276,4.273077213963272,-0.37666666666666665,-0.48444444444444446,-0.23444444444444446,-0.16591306490767527,-0.08841068636631991,0.005888954818790397
1592173671.7249427,-0.661062629071503,8.586653444292228,4.405511480974094,-0.37666666666666665,-0.48444444444444446,-0.23444444444444446,-0.14303638241677577,-0.09574397111170756,0.001335641518560437
1592173671.7349427,-0.7727838258164852,8.613951961292551,4.470927941938829,-0.3712409039417852,-0.4774684637981683,-0.2243680279553789,-0.09153214440512425,-0.10786482365360714,-0.015549098193905762
1592173671.7449427,-0.7825942599887451,8.637405740011255,4.465495216657287,-0.3688888888888889,-0.47444444444444445,-0.22,-0.06306745287726695,-0.11302191658160311,-0.030360638298312308
1592173671.7549427,-0.6398707939300637,8.740077523641961,4.363247195953376,-0.3688888888888889,-0.47444444444444445,-0.22,-0.03564038285294158,-0.1272729874218113,-0.05272536704677366
1592173671.7649426,-0.5044380479182093,8.74147934930607,4.3513904880204475,-0.3688888888888889,-0.47444444444444445,-0.22,-0.08406810286518371,-0.13401081427095152,-0.03867288657828655
1592173671.7749426,-0.2653696106821106,8.609629182754183,4.402129786036036,-0.3688888888888889,-0.47444444444444445,-0.22,-0.1255163272887156,-0.13460649606573058,-0.022877109017444223
1592173671.7849426,-0.05388475720267483,8.619954377851384,4.3815630273107935,-0.3658135255435424,-0.4782886486261275,-0.21000506912762396,-0.11731813143589796,-0.12435968580900335,-0.014852846285437494
1592173671.7949426,0.010694545454545457,8.711157575757577,4.336126464646465,-0.36444444444444446,-0.48,-0.20555555555555555,-0.10876155863112794,-0.11329487506729918,-0.014180800172453926
1592173671.8049426,0.07,8.803371260117402,4.2237126011740065,-0.36444444444444446,-0.48,-0.20555555555555555,-0.15863290508098346,-0.08734093166609155,-0.021411633685555254
1592173671.8149426,-0.08028169014084507,8.636056338028169,4.394929577464789,-0.36444444444444446,-0.48,-0.20555555555555555,-0.22464200403199902,-0.06283799859733105,-0.025089107997418484
1592173671.8249426,-0.22285402836155088,8.503958439721885,4.574062340417174,-0.36444444444444446,-0.48,-0.20555555555555555,-0.23823290937415617,-0.042926485905227865,-0.025089107997418484
1592173671.8349426,-0.3458143525216163,8.466581435252163,4.712395787773778,-0.36444444444444446,-0.47122475299711786,-0.20116793205411448,-0.20472085878998067,-0.01873936670865316,-0.018627799047959782
1592173671.8449426,-0.3932158145545594,8.491145303287295,4.734141022534529,-0.36444444444444446,-0.4666666666666667,-0.1988888888888889,-0.1811548257552565,-0.004276847852300639,-0.010946765755386959
1592173671.8549426,-0.41106665957333616,8.556311113475555,4.645822205671118,-0.36444444444444446,-0.4666666666666667,-0.1988888888888889,-0.1460646617179486,0.03483387072534341,0.007286751948363303
1592173671.8649426,-0.36007820831852116,8.546692736106174,4.6998435833629575,-0.36444444444444446,-0.4666666666666667,-0.1988888888888889,-0.13744894419661796,0.06650228731370324,0.01744049571374977
1592173671.8749425,-0.31484039571012606,8.514840395710126,4.805414971153672,-0.36444444444444446,-0.4666666666666667,-0.1988888888888889,-0.13141377106178861,0.09117838502555708,0.020176887450736175
1592173671.8849425,-0.526279040562602,8.408211101343715,4.82456172296873,-0.3609103562309013,-0.46363744819791536,-0.1953548006753457,-0.12058851421487163,0.13208028568549085,0.014678406956005148
1592173671.8949425,-0.4894885177453028,8.3974122224331,4.851584740937559,-0.3566666666666667,-0.46,-0.19111111111111112,-0.09183329430043564,0.13501903447553282,0.00999800549992434
1592173671.9049425,-0.44429814604615964,8.46,4.823610244040863,-0.3566666666666667,-0.46,-0.19111111111111112,-0.03929175677166901,0.09757464324546283,0.012793039926816232
1592173671.9149425,-0.5117768516764538,8.494111574161773,4.7827410494411815,-0.3566666666666667,-0.46,-0.19111111111111112,-0.002076483904774936,0.0751621463320375,0.030925279983236686
1592173671.9249425,-0.37135475876718527,8.52,4.795334460987746,-0.3566666666666667,-0.46,-0.19111111111111112,0.004436291198181454,0.06406898901472738,0.057374377942919386
1592173671.9349425,-0.2409325662733305,8.524844572287778,4.809378289151113,-0.35505180923740726,-0.46,-0.19111111111111112,0.008557100927027161,0.06528030161684287,0.08893948816587594
1592173671.9449425,-0.19177887627932882,8.517852584186219,4.83,-0.35333333333333333,-0.46,-0.19111111111111112,0.02544395900529179,0.08349223720485313,0.11111089594113875
1592173671.9549425,-0.20285127268576647,8.54427690902865,4.698605182056843,-0.35333333333333333,-0.46,-0.19111111111111112,0.04207250034921412,0.10160053439564411,0.10705917066267152
1592173671.9649425,-0.22,8.57,4.621819466358947,-0.35333333333333333,-0.46,-0.19111111111111112,0.0467072506561419,0.12157878466968831,0.09728202729882283
1592173671.9749424,-0.24185786547223725,8.578743146188895,4.648743146188894,-0.35333333333333333,-0.46,-0.19111111111111112,0.03900168628312682,0.13532857723162076,0.09381144729469522
1592173671.9849424,-0.2785983193277311,8.577102521008403,4.690094117647059,-0.35333333333333333,-0.4590446311858077,-0.19445490196078433,0.0278823681322279,0.14525392699980033,0.09381144729469522
1592173671.9949424,-0.3133999906336346,8.489800028099095,4.735849997658409,-0.35333333333333333,-0.4577777777777778,-0.1988888888888889,0.0363082972314067,0.15463071680650112,0.09125890428536548
1592173672.0049424,-0.313457414111058,8.462056781185256,4.673829656444232,-0.35333333333333333,-0.4577777777777778,-0.1988888888888889,0.06626607636256719,0.15719181269097648,0.08764360797373444
1592173672.0149424,-0.25261475817333867,8.527385241826662,4.593674865651855,-0.35333333333333333,-0.4577777777777778,-0.1988888888888889,0.10300452629994872,0.15817046346198613,0.08674995715522625
1592173672.0249424,-0.16769890690366485,8.61653120240597,4.519238688284398,-0.35333333333333333,-0.4577777777777778,-0.1988888888888889,0.12569655030537968,0.1577090301171588,0.0821906958066161
1592173672.0349424,-0.12209584857535993,8.67193610094976,4.44596805047488,-0.35333333333333333,-0.4528498394692978,-0.1988888888888889,0.12231454044003093,0.15707963267948966,0.07922568118218103
1592173672.0449424,-0.1229205646016448,8.66,4.44,-0.35333333333333333,-0.44555555555555554,-0.1988888888888889,0.08128813823888328,0.1483852715354031,0.09129505899478539
1592173672.0549424,-0.15159135344126887,8.62360756573889,4.408806484919048,-0.35333333333333333,-0.44555555555555554,-0.1988888888888889,0.04520732880300244,0.13613686064711103,0.09656022296743094
1592173672.0649424,-0.23300987272511003,8.59,4.413452123230641,-0.35333333333333333,-0.44555555555555554,-0.1988888888888889,0.0310645562778986,0.1277719276915877,0.09604135090618891
1592173672.0749424,-0.29178777755944196,8.609646295932404,4.469646295932403,-0.35333333333333333,-0.44555555555555554,-0.1988888888888889,0.034634402503511276,0.11749685820776386,0.09404504670258765
1592173672.0849423,-0.25864854098197393,8.63266407728314,4.507335922716861,-0.35781639721585945,-0.45003861943808166,-0.1988888888888889,0.03886979565399407,0.1016999539782342,0.09352084154395543
1592173672.0949423,-0.11757822349570202,8.60427346704871,4.493789111747851,-0.3655555555555556,-0.4577777777777778,-0.1988888888888889,0.03760724451253558,0.08928961926315648,0.09490227807719166
1592173672.1049423,-0.09425973847527881,8.594851947695055,4.479703895390111,-0.3655555555555556,-0.4577777777777778,-0.1988888888888889,0.03602971582471359,0.08352930486680524,0.09437301268710871
1592173672.1149423,-0.12,8.57671444295559,4.51328555704441,-0.3655555555555556,-0.4577777777777778,-0.1988888888888889,0.030334476605794976,0.07564135742241372,0.0866992786194416
1592173672.1249423,-0.13749781433439792,8.539501311399361,4.5784951915356755,-0.3655555555555556,-0.4577777777777778,-0.1988888888888889,0.025470851087465864,0.06599573917929938,0.06899623908856034
1592173672.1349423,-0.1905180189498945,8.53367867929993,4.659119119533287,-0.3627691579203847,-0.4549913801426069,-0.19711572675741654,0.030904961520597386,0.05616932277336089,0.045300596999629295
1592173672.1449423,-0.27086108778803997,8.61258326336412,4.61940292937774,-0.35333333333333333,-0.44555555555555554,-0.19111111111111112,0.05401428898170178,0.03624287564581634,0.017980542663064307
1592173672.1549423,-0.2749639493488351,8.634963949348835,4.4844592402325265,-0.35333333333333333,-0.44555555555555554,-0.19111111111111112,0.05944634513005488,0.018481203046408233,0.00815370325670963
1592173672.1649423,-0.2793820529130445,8.63,4.41,-0.35333333333333333,-0.44555555555555554,-0.19111111111111112,0.05481116940658482,0.004700360982188359,0.005898457948069747
1592173672.1749423,-0.3004870317002882,8.63699135446686,4.448452449567723,-0.35333333333333333,-0.44555555555555554,-0.19111111111111112,0.04293315056423299,-0.003760065414824239,0.0072544962442855085
1592173672.1849422,-0.32206817053273745,8.629318294672625,4.542749875860112,-0.3489671955419987,-0.4441767752003972,-0.19111111111111112,0.025842792598504923,-0.00917785107608407,0.006319382286922524
1592173672.1949422,-0.35336682817385495,8.55,4.662713559443397,-0.3322222222222222,-0.4388888888888889,-0.19111111111111112,0.017606774808957223,-0.011927878043418416,0.005963939021709208
1592173672.2049422,-0.33377658446972375,8.573111707765138,4.667643609128807,-0.3322222222222222,-0.4388888888888889,-0.19111111111111112,0.02904046966817704,-0.01762794259788698,0.00351966922302573
1592173672.2149422,-0.2534281940163612,8.564570925355147,4.6344286343306065,-0.3322222222222222,-0.4388888888888889,-0.19111111111111112,0.031524961583314304,-0.03256922773691784,-0.0043478015870215166
1592173672.2249422,-0.19156256067211466,8.52,4.633680569038248,-0.3322222222222222,-0.4388888888888889,-0.19111111111111112,0.03381952789230496,-0.04817077699282499,-0.013953534935032458
1592173672.2349422,-0.12530001474273922,8.52469998525726,4.6176500073713695,-0.33613887660327285,-0.4388888888888889,-0.190327780234901,0.053123443025743664,-0.05588871433711423,-0.02559906294527287
1592173672.2449422,-0.10784110621004114,8.613523318630124,4.537556128264856,-0.3655555555555556,-0.4388888888888889,-0.18444444444444444,0.09990097756497546,-0.05878711286469724,-0.04873413704200638
1592173672.2549422,-0.16589682503321573,8.68,4.424103174966784,-0.3655555555555556,-0.4388888888888889,-0.18444444444444444,0.10038456859711178,-0.05999569303730508,-0.05676508075559351
1592173672.2649422,-0.23064223361507552,8.67174310655397,4.400642233615075,-0.3655555555555556,-0.4388888888888889,-0.18444444444444444,0.0779993888126815,-0.05729363097568818,-0.06623044769472333
1592173672.2749422,-0.32152437709513637,8.634094999117837,4.465619376212974,-0.3655555555555556,-0.4388888888888889,-0.18444444444444444,0.06326818538479445,-0.052744259032754814,-0.07552707819262369
1592173672.2849422,-0.47615462630675615,8.58,4.54,-0.36200369272377386,-0.4388888888888889,-0.18250706471801806,0.06802323063147798,-0.05063504074444229,-0.08417115153551293
1592173672.2949421,-0.6023229783792056,8.5748064184684,4.550387163063201,-0.35333333333333333,-0.4388888888888889,-0.17777777777777778,0.09039475247378355,-0.051353512654770464,-0.08443380329667904
1592173672.3049421,-0.6695266964221782,8.565236651788911,4.536183258944554,-0.35333333333333333,-0.4388888888888889,-0.17777777777777778,0.10711124090300099,-0.058127114513091216,-0.07193989566006391
1592173672.3149421,-0.5997368234710978,8.574164089975689,4.514721363325229,-0.35333333333333333,-0.4388888888888889,-0.17777777777777778,0.13050287835870952,-0.0694484355254067,-0.04821100269352601
1592173672.324942,-0.4374864059527617,8.613072507196849,4.480447130519688,-0.35333333333333333,-0.4388888888888889,-0.17777777777777778,0.1620157241484944,-0.07959406634214107,-0.02806302258203164
1592173672.334942,-0.27539906863737595,8.668588783154485,4.389693460214619,-0.35333333333333333,-0.44051121459584713,-0.17777777777777778,0.1908351361497842,-0.08598825363623804,-0.01598770537548288
1592173672.344942,-0.07819138985489867,8.787872406763402,4.187091977455331,-0.35333333333333333,-0.4577777777777778,-0.17777777777777778,0.1906555323592583,-0.07841988905093408,-0.015546281190102026
1592173672.354942,-0.03929187192118227,8.810708128078819,4.047478448275862,-0.35333333333333333,-0.4577777777777778,-0.17777777777777778,0.1565201117177781,-0.05983179974239797,-0.024702884044256256
1592173672.364942,-0.09092660097363656,8.781810399567274,4.046379200865455,-0.35333333333333333,-0.4577777777777778,-0.17777777777777778,0.11214874860874131,-0.033909827220853235,-0.033519528320900244
1592173672.374942,-0.1882831402831403,8.73585842985843,4.13138554881412,-0.35333333333333333,-0.4577777777777778,-0.17777777777777778,0.07895216200784792,-0.0143680805152918,-0.0378406571148287
1592173672.384942,-0.3007482657724299,8.692074826577242,4.226598612617944,-0.35148904304245066,-0.4552418786278141,-0.17616402377325546,0.06289715157884027,-0.002326366901067252,-0.037006623471074
1592173672.394942,-0.38,8.704128552911767,4.294128552911768,-0.34444444444444444,-0.44555555555555554,-0.17,0.07431672268309447,0.009507351255471436,-0.020255205658929538
1592173672.404942,-0.35734384254407947,8.706223973757346,4.281119868786733,-0.34444444444444444,-0.44555555555555554,-0.17,0.0774262733759371,0.0169192332193507,-7.673437186999678e-05
1592173672.414942,-0.29500378556600315,8.7,4.282137989986567,-0.34444444444444444,-0.44555555555555554,-0.17,0.06771007390683258,0.01885590722349375,0.01729698761822375
1592173672.424942,-0.2104109787449759,8.697172212767498,4.348483361697505,-0.34444444444444444,-0.44555555555555554,-0.17,0.05721951941369807,0.016836365048030627,0.025066692584119914
1592173672.434942,-0.10455056179775281,8.688183520599251,4.371816479400749,-0.3450499375780275,-0.4449500624219725,-0.17,0.04978192166561541,0.014677189461118045,0.030543261909900768
1592173672.444942,-0.05,8.67,4.39,-0.3511111111111111,-0.4388888888888889,-0.17,0.04581489286485115,0.008726646259971648,0.030543261909900768
1592173672.454942,-0.04,8.71285348551923,4.3857581737692675,-0.3511111111111111,-0.4388888888888889,-0.17,0.05438730197060667,0.001716157426598643,0.021662378495712994
1592173672.464942,-0.036446003660768764,8.705784014643076,4.303553996339231,-0.3511111111111111,-0.4388888888888889,-0.17,0.04584151472653502,-0.0029570232865355423,0.015054995555497913
1592173672.474942,-0.03526528310809582,8.674734716891905,4.320530566216191,-0.3511111111111111,-0.4388888888888889,-0.17,0.035423062533096086,-0.004650499774629301,0.007003586392110787
1592173672.484942,-0.0494715760849594,8.66,4.348943152169919,-0.35040654589105696,-0.43965216787728084,-0.16876701086490525,0.03502623851013066,-0.005396511805208921,0.0020087352431728367
1592173672.494942,-0.06690630720585788,8.690750065378124,4.322312483655469,-0.3377777777777778,-0.4533333333333333,-0.14666666666666667,0.06888258092067605,0.00024885557827154445,-0.001090830782496456
1592173672.504942,-0.10635893363584799,8.747282132728303,4.299076800907544,-0.3377777777777778,-0.4533333333333333,-0.14666666666666667,0.08954882956355177,0.009621709113039926,0.00010070539884238423
1592173672.514942,-0.08709988412514484,8.75032491309386,4.3025752027809965,-0.3377777777777778,-0.4533333333333333,-0.14666666666666667,0.08353847572061596,0.015552542001418533,0.005699622438508713
1592173672.524942,-0.05084448446645655,8.723133363349843,4.347711121116614,-0.3377777777777778,-0.4533333333333333,-0.14666666666666667,0.0640438981888804,0.022473530547815056,0.013839003252978495
1592173672.534942,-0.020628905898244038,8.700471679423682,4.3401572264745605,-0.3377777777777778,-0.4533333333333333,-0.14666666666666667,0.055803877385593795,0.028241545110115673,0.016311009493964475
1592173672.544942,-0.02,8.756024563037776,4.277693231681906,-0.33,-0.4533333333333333,-0.15555555555555556,0.06854031578499635,0.028109970955961426,0.01215305771083781
1592173672.554942,-0.00899253395700279,8.807338310695332,4.184962669785014,-0.33,-0.4533333333333333,-0.15555555555555556,0.07424704347805215,0.021596820655524866,0.005924946940674957
1592173672.564942,-0.018541633131740516,8.778773196587485,4.086828707429807,-0.33,-0.4533333333333333,-0.15555555555555556,0.062495520896712065,0.025755717054029504,-0.0013307097066120215
1592173672.5749419,-0.09998386394952499,8.69444085865545,4.0977634346218,-0.33,-0.4533333333333333,-0.15555555555555556,0.048360751414028416,0.03249151305907268,-0.007513829759394871
1592173672.5849419,-0.1684237435637102,8.709649720791937,4.158598883167743,-0.33,-0.4533333333333333,-0.15555555555555556,0.04587220716624492,-0.005666165406940947,-0.010831888756439534
1592173672.5949419,-0.0332682774970665,8.795239828539955,4.151634138748533,-0.34444444444444444,-0.4477777777777778,-0.14666666666666667,0.07963064712224129,-0.01448499147162707,-0.017149101220770152
1592173672.6049418,-0.06984014404602447,8.819920072023011,4.19,-0.34444444444444444,-0.4477777777777778,-0.14666666666666667,0.0672184917785956,-0.01455022295979814,-0.02000437687228042
1592173672.6149418,0.01833766977776717,8.766103883703721,4.201116893037024,-0.34444444444444444,-0.4477777777777778,-0.14666666666666667,0.0337505798977456,-0.015634295150367534,-0.025939108715051847
1592173672.6249418,0.031619873506172395,8.734190063246913,4.232095031623457,-0.34444444444444444,-0.4477777777777778,-0.14666666666666667,0.012736567813100808,-0.010451242827930496,-0.035644014245526386
1592173672.6349418,0.0015602099869206076,8.74921989500654,4.23960994750327,-0.34444444444444444,-0.4477777777777778,-0.14666666666666667,0.019294569068757927,-0.008811742514016218,-0.04220201550118351
1592173672.6449418,-0.17195442293555502,8.789022788532224,4.239511394266112,-0.3377777777777778,-0.4477777777777778,-0.16333333333333333,0.03845385661903642,-0.008620049024965623,-0.05639512284065223
1592173672.6549418,-0.25,8.75,4.22,-0.3377777777777778,-0.4477777777777778,-0.16333333333333333,0.03490658503988659,-0.004363323129985824,-0.05781403147231216
1592173672.6649418,-0.2253190208667737,8.71,4.109361958266453,-0.3377777777777778,-0.4477777777777778,-0.16333333333333333,0.019054738915514437,-0.010072784849005445,-0.048785568268307086
1592173672.6749418,-0.1872440630612652,8.728618493858965,4.148274886159539,-0.3377777777777778,-0.4477777777777778,-0.16333333333333333,0.02253108497632867,-0.011810957879412562,-0.03528294649598349
1592173672.6849418,-0.10354220714428257,8.797101830518315,4.178711924674806,-0.3377777777777778,-0.4477777777777778,-0.16333333333333333,0.029171416684425234,-0.015131123733460846,-0.02864261478788693
1592173672.6949418,-0.07653169382394645,8.813468306176054,4.1995950814718395,-0.3511111111111111,-0.4666666666666667,-0.16333333333333333,0.023752452979402094,-0.014559133686450107,-0.02110411838142884
1592173672.7049417,-0.09,8.785301849166062,4.20472443799855,-0.3511111111111111,-0.4666666666666667,-0.16333333333333333,0.006227188272304369,-0.010845322037396552,-0.020276281899953612
