time,acc_x,acc_y,acc_z,mag_x,mag_y,mag_z,gyr_x,gyr_y,gyr_z
1592173675.564939,-0.2135992268963707,8.790899806724092,4.120102126034981,-0.3322222222222222,-0.46,-0.17,0.00693759944415377,-0.025776183808474795,0.007046893353712639
1592173675.574939,-0.2463847122259436,8.8,4.023615287774056,-0.3322222222222222,-0.46,-0.17,0.011006899504752655,-0.03292210683446987,0.0006964640633440756
1592173675.584939,-0.2146097345292451,8.8,4.068560935554312,-0.3322222222222222,-0.46,-0.17,0.011783634022162271,-0.034762915316354094,-0.0033443272092556157
1592173675.594939,-0.26759578423056796,8.8,4.16696359928534,-0.3322222222222222,-0.46,-0.17,0.009306541991144123,-0.03311152062900866,-0.004170024552928331
1592173675.604939,-0.25,8.79,4.21,-0.3322222222222222,-0.46,-0.16333333333333333,0.01090830782496456,-0.032724923474893676,-0.004363323129985824
1592173675.614939,-0.2593887906511878,8.78061120934881,4.256943953255939,-0.3322222222222222,-0.46,-0.16333333333333333,0.01602909875132987,-0.02350749980743612,-0.0023150067594396996
1592173675.624939,-0.1787817375519864,8.79,4.133654787344041,-0.3322222222222222,-0.46,-0.16333333333333333,0.03445251710818222,-0.013809820957552385,0.0006921553286606381
1592173675.634939,-0.17198821875389297,8.790662739584631,4.159337260415369,-0.3322222222222222,-0.46,-0.16333333333333333,0.04719489834322537,-0.002549555607794968,-0.002398542586901232
1592173675.644939,-0.19438130661493835,8.79812710220498,4.151872897795021,-0.3322222222222222,-0.46,-0.16333333333333333,0.05045184095042217,0.0055928009101970325,-0.004841249542298832
1592173675.654939,-0.29095353659111256,8.784767682955563,4.145696951133312,-0.3322222222222222,-0.46,-0.16333333333333333,0.057763347755638045,0.008934675673136114,-0.0034271907707457217
1592173675.664939,-0.2958639341586813,8.831654426336527,4.000900655149099,-0.3322222222222222,-0.46,-0.16333333333333333,0.06790221339106882,0.01099854278372741,0.006446738458873637
1592173675.674939,-0.2506345487382242,8.851269097476449,3.901903646214673,-0.3322222222222222,-0.46,-0.16333333333333333,0.06993494144696064,0.012068357137125944,0.018007040757262723
1592173675.684939,-0.25814359525625913,8.87,3.932475206324988,-0.3322222222222222,-0.46,-0.16333333333333333,0.05414735271853957,0.013157470171265638,0.026247439561223107
1592173675.694939,-0.23632706845134893,8.87,3.961563908731535,-0.3322222222222222,-0.46,-0.16333333333333333,0.036695384114172516,0.013950741471464141,0.027040710861421614
1592173675.704939,-0.2530929395308308,8.82,4.071546469765416,-0.3466666666666667,-0.46,-0.16333333333333333,0.017790679884806333,0.01627811489623108,0.026095591938699182
1592173675.7149389,-0.29,8.819582568695099,4.085825686950989,-0.3466666666666667,-0.46,-0.16333333333333333,0.0219987544167146,0.015317165646646754,0.025134642689114854
1592173675.7249389,-0.292567773518681,8.81192583013901,3.9925677735186813,-0.3466666666666667,-0.46,-0.16333333333333333,0.025969863300165704,0.015942310777948363,0.02617993877991494
1592173675.7349389,-0.33123736006566656,8.839505055973733,4.0307424160394,-0.3466666666666667,-0.46,-0.16333333333333333,0.02271848136961305,0.009817477042468103,0.026125948761968505
1592173675.7449389,-0.36786304336436193,8.824854782654256,4.0527178260186165,-0.3466666666666667,-0.46,-0.16333333333333333,0.017125142181507392,0.009817477042468103,0.024527851851081174
1592173675.7549388,-0.43843164826923525,8.860392087932691,4.090784175865382,-0.35333333333333333,-0.46,-0.15555555555555556,0.011229275751896126,0.0040211618608458725,0.02185938580857161
1592173675.7649388,-0.39870315424293606,8.868919295202446,4.108270872323915,-0.35333333333333333,-0.46,-0.15555555555555556,-0.008060207259061775,-0.004339745808786569,0.022907446432425576
1592173675.7749388,-0.34126534897521343,8.821054457479345,4.031687131966952,-0.35333333333333333,-0.46,-0.15555555555555556,-0.02685668507858246,-0.0032954970410354195,0.022907446432425576
1592173675.7849388,-0.3001370055999718,8.800068502799986,4.130274011199943,-0.35333333333333333,-0.46,-0.15555555555555556,-0.030468536946988936,6.725246662064756e-05,0.022840193965804927
1592173675.7949388,-0.3149093086324094,8.807454654316205,4.159818617264818,-0.35333333333333333,-0.46,-0.15555555555555556,-0.022411495508914612,0.007318589760887539,0.015588856671538035
1592173675.8049388,-0.3885023139907441,8.751283730865076,4.228716269134924,-0.33267390530437874,-0.46,-0.16969095368062972,0.005984851437352216,0.019424904113326265,0.012022477493195453
1592173675.8149388,-0.4489337134711333,8.789289142314088,4.190710857685912,-0.3322222222222222,-0.46,-0.17,0.039759784231900165,0.02713507010940234,0.01307058375381332
1592173675.8249388,-0.5093402636064629,8.799890043934411,4.091099560655895,-0.3322222222222222,-0.46,-0.17,0.051149103316266195,0.019718914507683274,0.007695787208008812
1592173675.8349388,-0.5547866735760246,8.835829338860819,4.027298656993565,-0.3322222222222222,-0.46,-0.17,0.046383578559098616,0.01279529857940746,0.005681628190181264
1592173675.8449388,-0.5881044242091513,8.868104424209152,4.005947787895424,-0.3322222222222222,-0.46,-0.17,0.02205558529979847,-0.0040958761946714405,0.001622007531022171
1592173675.8549387,-0.65,8.87,4.05,-0.3466666666666667,-0.46,-0.17777777777777778,-0.02181661564992912,-0.030543261909900768,-0.006544984694978735
1592173675.8649387,-0.6340285878583751,8.790142939291876,4.057985706070812,-0.3466666666666667,-0.46,-0.17777777777777778,-0.037496512853549005,-0.04970758071432507,-0.006544984694978735
1592173675.8749387,-0.4050326466568811,8.81686819861315,3.8725272055474007,-0.3466666666666667,-0.46,-0.17777777777777778,-0.022023965703260366,-0.07499164863177538,-0.010635006596369253
1592173675.8849387,-0.35246594232186584,8.876301086517202,3.86,-0.3466666666666667,-0.46,-0.17777777777777778,0.003840198436951041,-0.07840532005011723,-0.029332795303252335
1592173675.8949387,-0.37218109392908816,8.90957479190545,3.867393697976363,-0.3466666666666667,-0.46,-0.17777777777777778,0.00545415391248228,-0.0809593983444743,-0.04264117193354807
1592173675.9049387,-0.28,8.91,3.89,-0.35333333333333333,-0.4666666666666667,-0.15555555555555556,-0.020725784867432664,-0.08944812416470939,-0.04908738521234052
1592173675.9149387,-0.29504917768461786,8.887426233473073,3.8448524669461466,-0.35333333333333333,-0.4666666666666667,-0.15555555555555556,-0.03714189113707257,-0.08862731885122739,-0.04662496927189453
1592173675.9249387,-0.33666171726998106,8.870834570682504,3.802503712047514,-0.35333333333333333,-0.4666666666666667,-0.15555555555555556,-0.057539299168840756,-0.08735750013878099,-0.03881634016082763
1592173675.9349387,-0.4303301886792453,8.833867924528302,3.881297169811321,-0.35333333333333333,-0.4666666666666667,-0.15555555555555556,-0.06284626027080997,-0.0931785596237185,-0.04212047540337731
1592173675.9449387,-0.5060989683511103,8.82265567018321,3.9707876279846905,-0.35333333333333333,-0.4666666666666667,-0.15555555555555556,-0.05605790644792942,-0.1058285788561369,-0.048150395246034566
1592173675.9549387,-0.548889631213255,8.848334446819882,4.066113709246393,-0.3722229645465883,-0.4666666666666667,-0.1765440346813944,-0.04623882142322781,-0.12665822199008153,-0.06460198983303403
1592173675.9649386,-0.530865496520438,8.811730993040877,4.031730993040876,-0.37333333333333335,-0.4666666666666667,-0.17777777777777778,-0.0405967665140282,-0.14015070479406042,-0.07797335019176244
1592173675.9749386,-0.5568523558807782,8.84580314117437,3.9941968588256294,-0.37333333333333335,-0.4666666666666667,-0.17777777777777778,-0.04524263501525263,-0.15438647991811733,-0.08342171240262858
1592173675.9849386,-0.42987817093340164,8.867349577208879,4.0854226746488385,-0.37333333333333335,-0.4666666666666667,-0.17777777777777778,-0.05527761930622365,-0.16829034627077746,-0.07358497116671735
1592173675.9949386,-0.35409129462564576,8.842045647312823,4.176874469889737,-0.37333333333333335,-0.4666666666666667,-0.17777777777777778,-0.07273227160818176,-0.17169427549024388,-0.05903510756799357
1592173676.0049386,-0.20256601243901534,8.83,4.278618300994377,-0.351549745716071,-0.47973681923702405,-0.18431285406295647,-0.09353153875902055,-0.1712819642777647,-0.0481042115589497
1592173676.0149386,-0.24105999310063664,8.783807507761784,4.351854987926115,-0.3511111111111111,-0.48,-0.18444444444444444,-0.09381144729469522,-0.16734135121665777,-0.06031366814074235
1592173676.0249386,-0.3086998081031174,8.653900575690647,4.4391332054020785,-0.3511111111111111,-0.48,-0.18444444444444444,-0.06459192210611496,-0.14692774583813684,-0.09390947553620128
1592173676.0349386,-0.35750833663689574,8.621494998017862,4.478006669309517,-0.3511111111111111,-0.48,-0.18444444444444444,-0.006262273753191418,-0.13373367140762987,-0.08661050911259485
1592173676.0449386,-0.3674516557779067,8.657258278889534,4.442741721110466,-0.3511111111111111,-0.48,-0.18444444444444444,0.039808533818984325,-0.13714560321612176,-0.09755552552157157
1592173676.0549386,-0.45510631195967827,8.717281284422045,4.3638062018091395,-0.36371945362365604,-0.48,-0.18444444444444444,0.09889679634066303,-0.1364724741577085,-0.11795154452690164
1592173676.0649385,-0.39639202683425223,8.751803986582875,4.245505648301654,-0.36444444444444446,-0.48,-0.18444444444444444,0.12365063401742038,-0.1432924013261976,-0.1057173036152465
1592173676.0749385,-0.49063933626159106,8.816656905807712,4.040029282576867,-0.36444444444444446,-0.48,-0.18444444444444444,0.1414433267191659,-0.145226364074178,-0.07272737588913658
1592173676.0849385,-0.4811447202456032,8.8294276398772,4.039427639877198,-0.36444444444444446,-0.48,-0.18444444444444444,0.12535366606959666,-0.14610889005046257,-0.05650645716419485
1592173676.0949385,-0.502486918935315,8.770034882839159,4.204904072192311,-0.36444444444444446,-0.48,-0.18444444444444444,0.1071841128398951,-0.14535367740858696,-0.04009706843449464
1592173676.1049385,-0.5013298129149064,8.75,4.312021122510561,-0.36444444444444446,-0.4857801247233957,-0.18637115268557636,0.10333880416465506,-0.14318895267954398,-0.0055876934563744984
1592173676.1149385,-0.2607811539774667,8.76708706043018,4.208934107203824,-0.36444444444444446,-0.4866666666666667,-0.18666666666666668,0.12785974328666738,-0.13544319590718834,-0.0029547399324583072
1592173676.1249385,-0.27882681167986756,8.85403830239981,4.038731055680341,-0.36444444444444446,-0.4866666666666667,-0.18666666666666668,0.1429911127420463,-0.10483728475379706,-0.05552528563237125
1592173676.1349385,-0.3399283535504008,8.8117502541912,4.093213922584002,-0.36444444444444446,-0.4866666666666667,-0.18666666666666668,0.12783375549751655,-0.07929569338405826,-0.07815797010995415
1592173676.1449385,-0.33687311633514166,8.740929023508139,4.123126883664859,-0.36444444444444446,-0.4866666666666667,-0.18666666666666668,0.12077490700962662,-0.057368313017408745,-0.07570975483178066
1592173676.1549385,-0.3085049582779054,8.760155097351554,4.094174930463176,-0.37399779632093094,-0.4818899907284234,-0.19144334260490992,0.14625591733720447,-0.04096231847539214,-0.06605142647281063
1592173676.1649384,-0.2551852259591567,8.90548136731436,3.864889084603952,-0.37777777777777777,-0.48,-0.19333333333333333,0.18347771359805212,-0.029379717081188465,-0.05837965188135695
1592173676.1749384,-0.2375419061783977,8.951145234554007,3.7652514370703862,-0.37777777777777777,-0.48,-0.19333333333333333,0.17837826046779434,-0.024284698675358048,-0.040147457570929676
1592173676.1849384,-0.2737731892240684,8.926226810775931,3.790037102758509,-0.37777777777777777,-0.48,-0.19333333333333333,0.13810772914923108,-0.014176752889344165,-0.011307757071015043
1592173676.1949384,-0.33407097440356504,8.92,3.8608298462040107,-0.37777777777777777,-0.48,-0.19333333333333333,0.11391211338589695,-0.01087813376549547,-0.002091139386585647
1592173676.2049384,-0.29527717976318624,8.87954823735199,3.9385421151776105,-0.37238420942470996,-0.49707963311804804,-0.2050193980983136,0.09854211121328343,0.0007727696541770506,0.010798556921087847
1592173676.2149384,-0.3054480387341239,8.886965359156083,3.9669653591560827,-0.3711111111111111,-0.5011111111111111,-0.20777777777777778,0.09615862284200642,0.016226927549983478,0.018641870191026373
1592173676.2249384,-0.2855093018972187,8.898163566034262,3.8965279056916557,-0.3711111111111111,-0.5011111111111111,-0.20777777777777778,0.0924310812096426,0.03190172699011048,0.008948871134799622
1592173676.2349384,-0.20079884347238092,8.9,3.7770384965140953,-0.3711111111111111,-0.5011111111111111,-0.20777777777777778,0.08990188453870936,0.041818189803858354,-0.006414274237468316
1592173676.2449384,-0.19153098102205074,8.940358433577178,3.7154070569338478,-0.3711111111111111,-0.5011111111111111,-0.20777777777777778,0.08819028925958584,0.04803565346779062,-0.015477734115524028
1592173676.2549384,-0.08842563390942348,8.992314873218115,3.608178798200244,-0.3595404361091254,-0.5085494021838162,-0.1970335795616482,0.07590697897993104,0.046400696654568245,-0.018823562397808673
1592173676.2649384,0.01756326728408357,9.057911371957786,3.5896518953262975,-0.35555555555555557,-0.5111111111111111,-0.19333333333333333,0.0383033611444168,0.04156548672294695,-0.004856963411672851
1592173676.2749383,0.07720345104333869,9.034576243980739,3.5391524879614766,-0.35555555555555557,-0.5111111111111111,-0.19333333333333333,0.0003420008388300491,0.04561152208573885,0.012969811665320522
1592173676.2849383,0.11843848701949002,8.99468453894153,3.6618927663508205,-0.35555555555555557,-0.5111111111111111,-0.19333333333333333,-0.053863645902236024,0.05351953126897795,0.03671488853026031
1592173676.2949383,0.10549447882538528,8.93923067588885,3.79879140880961,-0.35555555555555557,-0.5111111111111111,-0.19333333333333333,-0.08452145000811212,0.056914999476836384,0.04243452197255719
1592173676.3049383,0.07441601010404764,8.792080050520237,4.036143922535635,-0.361240886643545,-0.5177439973804321,-0.21796976804795412,-0.10776534915348679,0.05037195048095666,0.05386609266297206
1592173676.3149383,0.08109300746775289,8.77,4.064453496266124,-0.3622222222222222,-0.5188888888888888,-0.2222222222222222,-0.09807331501585415,0.04061696940093898,0.053817280804876064
1592173676.3249383,0.10710658629406372,8.829873052029223,3.9060407233534264,-0.3622222222222222,-0.5188888888888888,-0.2222222222222222,-0.03517517928017239,0.03194971516609047,0.028101369372934202
1592173676.3349383,0.05615652801154124,8.887860863989742,3.862052176003847,-0.3622222222222222,-0.5188888888888888,-0.2222222222222222,-7.588692147206255e-05,0.034244497878241506,0.008335846099856301
1592173676.3449383,0.037685715341139965,8.949476192235233,3.83231428465886,-0.3622222222222222,-0.5188888888888888,-0.2222222222222222,0.0110225849517482,0.03085284976782697,-0.00411087383545144
1592173676.3549383,0.13811597690086622,8.97,3.82,-0.3802972944070153,-0.5309389370120843,-0.22674099026842048,-0.00898203084884774,0.02135571602190607,-0.00545415391248228
1592173676.3649383,0.3519956835193093,9.014868439178949,3.7826096340175415,-0.3888888888888889,-0.5366666666666666,-0.2288888888888889,-0.03594001158503443,0.03649021066272837,-0.0038226914251833144
1592173676.3749382,0.284794100154633,9.007904841203759,3.7920951587962413,-0.3888888888888889,-0.5366666666666666,-0.2288888888888889,-0.08271253278250723,0.07387510368417524,-0.013716726736427185
1592173676.3849382,0.04368999465771195,8.858656796153554,4.137653209188736,-0.3888888888888889,-0.5366666666666666,-0.2288888888888889,-0.1364858830422363,0.10221608077387648,-0.02430580441560446
1592173676.3949382,-0.1801733176202861,8.717896009427829,4.318490125162549,-0.3888888888888889,-0.5366666666666666,-0.2288888888888889,-0.1576574520573278,0.11284158606768482,-0.027664981125672977
1592173676.4049382,-0.3373255128324489,8.637441889333706,4.3722092914998605,-0.38074936122231534,-0.5316925108704272,-0.2288888888888889,-0.14211243772450793,0.11873565951141232,-0.024810061411435855
1592173676.4149382,-0.47395669572674004,8.61395669572674,4.3687051593540085,-0.3688888888888889,-0.5244444444444445,-0.2288888888888889,-0.10161212679282068,0.12457051347938099,-0.01615059393218563
1592173676.4249382,-0.5680160857908847,8.802815013404825,4.080509383378017,-0.3688888888888889,-0.5244444444444445,-0.2288888888888889,-0.017713571178501433,0.1517746272117991,0.01967004783665191
1592173676.4349382,-0.5480442182718427,8.8791400474504,3.7702358766289583,-0.3688888888888889,-0.5244444444444445,-0.2288888888888889,0.012808550576180664,0.1634718493045613,0.04504782686984256
1592173676.4449382,-0.5430640990745781,8.926326211213935,3.6573475775721285,-0.3688888888888889,-0.5244444444444445,-0.2288888888888889,0.03092155662159056,0.1102188159880083,0.04285418839854553
1592173676.4549382,-0.3198148675591,8.966296211905439,3.64870350327542,-0.3661728535713155,-0.5233127630621223,-0.22934156144181778,0.03565404180335283,0.07847923189013309,0.03381575425739013
1592173676.4649382,-0.29610432980193463,9.001012206356517,3.8515338553661906,-0.35555555555555557,-0.5188888888888888,-0.2311111111111111,-0.01586729189122378,0.0626391111610793,0.03416709623097864
1592173676.4749382,-0.38266696897065494,8.895435641640216,3.96,-0.35555555555555557,-0.5188888888888888,-0.2311111111111111,-0.08840216463614084,0.052745841007001984,0.03269694077165674
1592173676.4849381,-0.5331553689262147,8.810491901619676,3.945368926214757,-0.35555555555555557,-0.5188888888888888,-0.2311111111111111,-0.11783655358105236,0.03679770739226497,0.019344414872321674
1592173676.4949381,-0.61,8.8158216621151,3.91708916894245,-0.35555555555555557,-0.5188888888888888,-0.2311111111111111,-0.10310481284677336,0.006932445121492711,0.004971037741255114
1592173676.5049381,-0.593641435111253,8.894986053444054,3.871372511444693,-0.364189242580172,-0.517980079728403,-0.2433800347776713,-0.0815159158071014,-0.032819664212928444,0.0017844426138110875
1592173676.514938,-0.6457422041862452,8.92465363804642,3.855247401395415,-0.37666666666666665,-0.5166666666666667,-0.2611111111111111,-0.09067928893723654,-0.07272915817644025,0.006015761687195588
1592173676.524938,-0.49750811629752545,8.815836038765841,3.8260625736478846,-0.37666666666666665,-0.5166666666666667,-0.2611111111111111,-0.12678348199223075,-0.13134449410033008,0.012784018414408422
1592173676.534938,-0.16160604016397698,8.934718488921177,3.7410596232681232,-0.37666666666666665,-0.5166666666666667,-0.2611111111111111,-0.1503034740487673,-0.18991470906304084,0.003216510216624908
1592173676.544938,-0.14232994864154938,9.039863958913239,3.726232994864155,-0.37666666666666665,-0.5166666666666667,-0.2611111111111111,-0.1684962564444218,-0.2080648419258148,-0.041885686772271585
1592173676.554938,-0.38486177884615386,8.994125267094018,3.889336939102564,-0.37666666666666665,-0.5301555080721748,-0.2703846895773979,-0.22471915343960075,-0.21218567090716683,-0.08392164152846783
1592173676.564938,-0.4672303234844626,8.918309029546613,3.959691798267957,-0.37666666666666665,-0.5344444444444445,-0.2733333333333333,-0.25663009742710385,-0.22130417047216813,-0.09642926057156377
1592173676.574938,-0.3765944982939276,8.732422018902678,3.986906422683214,-0.37666666666666665,-0.5344444444444445,-0.2733333333333333,-0.31002091352000566,-0.2656683340467338,-0.11480143343961086
1592173676.584938,-0.06869233183387383,8.795025630296056,4.009598284339366,-0.37666666666666665,-0.5344444444444445,-0.2733333333333333,-0.28956336487719525,-0.3027577500183803,-0.10617233227526154
1592173676.594938,0.23584834611649524,8.8361040093545,4.133768159026498,-0.37666666666666665,-0.5344444444444445,-0.2733333333333333,-0.285670264142017,-0.30998007140382594,-0.09630463890657506
1592173676.604938,0.43594151055885033,8.791051178261005,4.283912265838276,-0.3898750788819508,-0.5445449949620147,-0.2880956763974744,-0.33178606257742194,-0.2850588067734311,-0.08857864964285508
1592173676.614938,0.46735457118934653,8.75896814321598,4.301613572026634,-0.39555555555555555,-0.5488888888888889,-0.29444444444444445,-0.3609871812526534,-0.26165207932419565,-0.09208001818695692
1592173676.624938,0.30026077968886644,8.795304375480349,4.180130389844433,-0.39555555555555555,-0.5488888888888889,-0.29444444444444445,-0.3675435692726253,-0.21249856597516467,-0.11619245722460944
1592173676.634938,0.06112655240637885,8.697234154132202,4.241101284832305,-0.39555555555555555,-0.5488888888888889,-0.29444444444444445,-0.3629435654577164,-0.1944108986282039,-0.12247613275320653
1592173676.644938,0.0,8.609524045896256,4.308911395788389,-0.39555555555555555,-0.5488888888888889,-0.29444444444444445,-0.3758616267676848,-0.1806327391426477,-0.08054362619159851
1592173676.654938,-0.07507168150720253,8.504928318492798,4.384597586550693,-0.3864559577971068,-0.5322062929983995,-0.3043023420160973,-0.3858077253219928,-0.15671762251881863,0.002678380157978291
1592173676.664938,-0.11255733204134367,8.464885335917312,4.397213339793282,-0.38222222222222224,-0.5244444444444445,-0.3088888888888889,-0.37164809114258207,-0.1452593924343712,0.03033934772534979
1592173676.674938,-0.21479180667186365,8.645903067121852,4.2968054622187575,-0.38222222222222224,-0.5244444444444445,-0.3088888888888889,-0.26601111298430835,-0.11998379151605885,0.02617234422136365
1592173676.684938,-0.37223275674893247,8.800893102699574,4.341786205399146,-0.38222222222222224,-0.5244444444444445,-0.3088888888888889,-0.21420531258542805,-0.09822987644524864,-0.01045072258827429
1592173676.694938,-0.4143588082901554,8.74666450777202,4.481541450777202,-0.38222222222222224,-0.5244444444444445,-0.3088888888888889,-0.23987185217975662,-0.0983987298534708,-0.047381902369758616
1592173676.704938,-0.3837309061865619,8.466712702585776,4.789854570867583,-0.37857373697035585,-0.5426868707037764,-0.3088888888888889,-0.29372701630662423,-0.12153838443715421,-0.07977741502978007
1592173676.714938,-0.3033141777532866,8.356062347476973,4.91,-0.37666666666666665,-0.5522222222222222,-0.3088888888888889,-0.2921726233413148,-0.13387554175850752,-0.08462126450288732
1592173676.724938,-0.08600359085388393,8.433996409146117,4.878001795426942,-0.37666666666666665,-0.5522222222222222,-0.3088888888888889,-0.20041044746099196,-0.14350954106467564,-0.08761501923830158
1592173676.734938,0.030503377177390684,8.516960303353478,4.927086147647826,-0.37666666666666665,-0.5522222222222222,-0.3088888888888889,-0.143824933493441,-0.14581229042136215,-0.09564780190953276
1592173676.744938,-0.027064929073924562,8.54,4.96,-0.37666666666666665,-0.5522222222222222,-0.3088888888888889,-0.13384084424776005,-0.1338184933921467,-0.09237809908508804
1592173676.754938,-0.22478001703093953,8.58463667328981,4.94086999716151,-0.3830433342794966,-0.5352177752546756,-0.30322073989970666,-0.1147906653144053,-0.10517862858535938,-0.1133984085407762
1592173676.7649379,-0.33159357960218105,8.602077413409107,4.935941939943168,-0.38666666666666666,-0.5255555555555556,-0.3,-0.096920662689947,-0.0927417277446071,-0.12395426598669158
1592173676.7749379,-0.3049139239854867,8.472456961992744,4.927485653997581,-0.38666666666666666,-0.5255555555555556,-0.3,-0.06353619836210528,-0.0904963726591266,-0.08543797858819285
1592173676.7849379,-0.11103867747972551,8.43633811603244,4.882623206487835,-0.38666666666666666,-0.5255555555555556,-0.3,-0.026108827228591876,-0.09220208060685733,-0.05407676219129499
1592173676.7949378,0.07593485382285678,8.490113315614892,4.7593767641180955,-0.38666666666666666,-0.5255555555555556,-0.3,0.024165148232084935,-0.08341456261674199,-0.03539328655472564
1592173676.8049378,0.24577093795561314,8.521541875911225,4.592290620443869,-0.38666666666666666,-0.5268379862123584,-0.316671598538438,0.09751652570334629,-0.08122605561676437,-0.04460396997158447
1592173676.8149378,0.28332278481012657,8.53768987341772,4.54743670886076,-0.38666666666666666,-0.5277777777777778,-0.3288888888888889,0.14350983582507965,-0.08259591181263512,-0.06142136744607418
1592173676.8249378,0.3679064714706947,8.572093528529306,4.461392064559516,-0.38666666666666666,-0.5277777777777778,-0.3288888888888889,0.20304756124255252,-0.05809222689715866,-0.052232347811320134
1592173676.8349378,0.21325555236454147,8.611900966877274,4.41,-0.38666666666666666,-0.5277777777777778,-0.3288888888888889,0.22851197533230505,-0.026628812618567158,-0.012916753272738824
1592173676.8449378,0.0589049521049097,8.677396698596727,4.405260330140328,-0.38666666666666666,-0.5277777777777778,-0.3288888888888889,0.22476207567745107,-0.0127433372901857,0.017748990136533915
1592173676.8549378,-0.048669962335216574,8.691773383553045,4.438226616446956,-0.3930377694078259,-0.5283087030062077,-0.31827038432029015,0.1856078021316431,-0.01185405400479847,0.04945279298152424
1592173676.8649378,-0.07838139570087799,8.645144187102634,4.470288374205269,-0.4,-0.5288888888888889,-0.30666666666666664,0.14998568235683765,-0.014035694579036011,0.06777661410819819
1592173676.8749378,-0.07556129902236207,8.653367794134171,4.342141813686931,-0.4,-0.5288888888888889,-0.30666666666666664,0.12375370422352168,-0.0015693793132152073,0.077816354908315
1592173676.8849378,-0.13650232937899237,8.736502329378991,4.361614475769656,-0.4,-0.5288888888888889,-0.30666666666666664,0.1262575464372107,0.00943594036442524,0.06702492675599135
1592173676.8949378,-0.16872876411435633,8.76300820262896,4.410635617942822,-0.4,-0.5288888888888889,-0.30666666666666664,0.12184011157381931,0.014962018758387742,0.05758749418072806
1592173676.9049377,-0.13194827586206898,8.605844827586207,4.469642241379311,-0.4020057471264368,-0.5409233716475096,-0.3106781609195402,0.044108118838789886,0.04106554728985257,0.04605562793409174
1592173676.9149377,-0.10450095750501551,8.567495212474922,4.502504787525078,-0.40444444444444444,-0.5555555555555556,-0.31555555555555553,0.02197888244857469,0.03986976065265094,0.05683207487287629
1592173676.9249377,-0.09497544304370459,8.59,4.459901772174819,-0.40444444444444444,-0.5555555555555556,-0.31555555555555553,0.04864108351134266,0.04036073895236887,0.050140713517444944
1592173676.9349377,-0.1477992277992278,8.604449806949807,4.473716216216216,-0.40444444444444444,-0.5555555555555556,-0.31555555555555553,0.083959223711858,0.03353041145617726,0.028356335717579204
1592173676.9449377,-0.2911878831161102,8.640296970779026,4.497821817532584,-0.40444444444444444,-0.5555555555555556,-0.31555555555555553,0.11142671224827111,0.02130901546613219,0.011761535758925811
1592173676.9549377,-0.41377549093655586,8.696428436555891,4.438469599697886,-0.39982995552198725,-0.5484240726753944,-0.32646252937227255,0.12968641241840112,0.0051202723606645385,0.016406951814678567
1592173676.9649377,-0.3753245240761478,8.715180291153416,4.320360582306831,-0.39222222222222225,-0.5366666666666666,-0.34444444444444444,0.12062726835023878,-0.029852312835084084,0.026187805465513237
1592173676.9749377,-0.2724782304880671,8.705687755321437,4.175873468071382,-0.39222222222222225,-0.5366666666666666,-0.34444444444444444,0.09829505849984184,-0.064438788005583,0.02052572495397975
1592173676.9849377,-0.15700298281331376,8.760089010936982,4.084272998437574,-0.39222222222222225,-0.5366666666666666,-0.34444444444444444,0.08195149664986986,-0.08744448891036774,0.006366958384327473
1592173676.9949377,-0.10564584320443197,8.824833254364544,4.127895724751249,-0.39222222222222225,-0.5366666666666666,-0.34444444444444444,0.06258417480792888,-0.08920270015988559,-0.004890549394033843
1592173677.0049376,-0.10740400526831245,8.832979973658437,4.245530039512343,-0.3918108885962049,-0.5436593383089617,-0.3465011125745312,0.01968685981498712,-0.0761587468849254,-0.017893993902909258
1592173677.0149376,-0.13470023980815346,8.706298960831335,4.369400479616307,-0.39111111111111113,-0.5555555555555556,-0.35,-0.051236783996396286,-0.06493713032300245,-0.029496029480022078
1592173677.0249376,-0.14100569163532878,8.617514229088322,4.350531303994309,-0.39111111111111113,-0.5555555555555556,-0.35,-0.08121204132631019,-0.058853114590642526,-0.009119922964231284
1592173677.0349376,-0.1535889206725738,8.585282215865485,4.332460057210633,-0.39111111111111113,-0.5555555555555556,-0.35,-0.06431487454628707,-0.04933366501504466,0.02595572978771271
1592173677.0449376,-0.15587720870219704,8.607568904340347,4.39033833912763,-0.39111111111111113,-0.5555555555555556,-0.35,-0.028935732097926044,-0.046227712557062185,0.05013446703796756
1592173677.0549376,-0.07709752511639303,8.655613003348853,4.407806501674426,-0.38940505685788707,-0.5572616098087796,-0.3482939457467759,0.006594122420744216,-0.04884811166285148,0.0627405005600509
1592173677.0649376,-0.12112052180685356,8.690002920560747,4.450002920560748,-0.38333333333333336,-0.5633333333333334,-0.3422222222222222,0.02436178128116866,-0.036481556937784265,0.019027627250327833
1592173677.0749376,-0.25,8.73,4.49,-0.38333333333333336,-0.5633333333333334,-0.3422222222222222,0.022907446432425576,-0.0272707695624114,0.001090830782496456
1592173677.0849376,-0.42938193707517136,8.689017409011386,4.4769096853758565,-0.38333333333333336,-0.5633333333333334,-0.3422222222222222,-0.015728023516830048,-0.01796499780799538,-0.02481942717184934
1592173677.0949376,-0.44,8.62,4.53,-0.38333333333333336,-0.5633333333333334,-0.3422222222222222,-0.03599741582238304,-0.01854412330243975,-0.02945243112740431
1592173677.1049376,-0.3121017612524462,8.581624266144814,4.463025440313111,-0.38178343118069147,-0.5599752120026092,-0.34738856273102847,-0.031053881720415746,-0.06199675913419779,-0.02750003614957406
1592173677.1149375,-0.1124476898566118,8.62,4.405778810408922,-0.37666666666666665,-0.5488888888888889,-0.36444444444444446,0.024603650644400947,-0.11034309497480169,-0.0019882027546823996
1592173677.1249375,0.05732650530473522,8.666903504340238,4.302250493730767,-0.37666666666666665,-0.5488888888888889,-0.36444444444444446,0.05770696743050833,-0.13103812064150452,0.021002638351292277
1592173677.1349375,0.0022804410911201334,8.719792687173536,4.269378061520603,-0.37666666666666665,-0.5488888888888889,-0.36444444444444446,0.0697679414372302,-0.12829699571032677,0.028873094254248853
1592173677.1449375,-0.09897130332277315,8.68220898106535,4.329409857805938,-0.37666666666666665,-0.5488888888888889,-0.36444444444444446,0.05795931618070809,-0.11254869417853473,0.03615746809552397
1592173677.1549375,-0.07719560731132076,8.614021963443395,4.422065890330189,-0.38570304310796644,-0.5529396783280922,-0.3582124606918239,0.013931488095764544,-0.09048669669185334,0.032966597806570005
1592173677.1649375,-0.07,8.65,4.53,-0.4088888888888889,-0.5633333333333334,-0.3422222222222222,-0.0370882466048795,-0.07635815477475191,0.0
1592173677.1749375,-0.23800583741093656,8.578780152802816,4.83401751223281,-0.4088888888888889,-0.5633333333333334,-0.3422222222222222,-0.04345793425935404,-0.08718199789323422,-0.04629536781935276
1592173677.1849375,-0.14790930238135208,8.432433631501954,4.859563059066165,-0.4088888888888889,-0.5633333333333334,-0.3422222222222222,-0.019292864487039228,-0.10766041244770101,-0.04345283443000295
1592173677.1949375,-0.04606447035709738,8.375574211857161,4.693445271142966,-0.4088888888888889,-0.5633333333333334,-0.3422222222222222,0.03985891035804544,-0.1217078506078215,-0.03354762550708375
1592173677.2049375,-0.14583734264812498,8.455272194028867,4.533280498253476,-0.4044092210578733,-0.5615912402879384,-0.34869285353368923,0.1249989773161983,-0.12951266442045362,-0.035333592845372505
1592173677.2149374,-0.24575525913428586,8.849093689038858,4.442114725576,-0.3888888888888889,-0.5555555555555556,-0.3711111111111111,0.2164162377868422,-0.1015790803581609,-0.08442571310477104
1592173677.2249374,-0.22,8.88,4.37,-0.3888888888888889,-0.5555555555555556,-0.3711111111111111,0.23889194136672384,-0.09708393964218458,-0.10690141668465267
1592173677.2349374,-0.07728314738099473,8.819132589523978,4.175761049126998,-0.3888888888888889,-0.5555555555555556,-0.3711111111111111,0.17036064369707268,-0.10362892433716332,-0.08204975920829252
1592173677.2449374,-0.005005171368451078,8.70875387852634,4.1803115303684155,-0.3888888888888889,-0.5555555555555556,-0.3711111111111111,0.11412943986346787,-0.09950460826564131,-0.06262138602767062
1592173677.2549374,0.1151743916325756,8.623496689300325,4.1913289190671,-0.39153838584060846,-0.5555555555555556,-0.3679798874408971,0.0871749581323222,-0.08619104358020498,-0.03952178698283552
1592173677.2649374,0.17,8.6,4.16,-0.4011111111111111,-0.5555555555555556,-0.3566666666666667,0.08290313946973066,-0.06654067773228381,-0.020725784867432664
1592173677.2749374,0.09601386339351764,8.781621414285324,4.083040631250172,-0.4011111111111111,-0.5555555555555556,-0.3566666666666667,0.09750405548945582,-0.01365754569041475,-0.009647960283150864
1592173677.2849374,-0.12162636780797742,8.832675829509354,4.10023076244264,-0.4011111111111111,-0.5555555555555556,-0.3566666666666667,0.07893359643359388,0.02108060328115327,-0.00012706465168507968
1592173677.2949374,-0.1670778366461615,8.77859581125769,4.188595811257689,-0.4011111111111111,-0.5555555555555556,-0.3566666666666667,0.034072452266797434,0.03787273092646649,0.017318737458801872
1592173677.3049374,-0.11195079086115993,8.79804920913884,4.2197539543058,-0.4007498535442296,-0.5568560827963289,-0.3566666666666667,-0.01581225359232121,0.04147840915657878,0.03706140718316605
1592173677.3149374,0.0027776857352488638,8.691096542093678,4.356242692480651,-0.39555555555555555,-0.5755555555555556,-0.3566666666666667,-0.03271216944761496,0.0282292321306204,0.06588521367448588
1592173677.3249373,0.23606844298522542,8.579657785073874,4.326410657911352,-0.39555555555555555,-0.5755555555555556,-0.3566666666666667,-0.01752795223507312,0.03763822147319562,0.08921502606518414
1592173677.3349373,0.24277422575048133,8.652580752501605,4.311290376250803,-0.39555555555555555,-0.5755555555555556,-0.3566666666666667,-0.00115414475513583,0.06176921022994377,0.0821782437444955
1592173677.3449373,0.13779216660500027,8.725667670948077,4.358801205137692,-0.39555555555555555,-0.5755555555555556,-0.3566666666666667,0.023279051929184898,0.09343403756416183,0.06475132086860207
1592173677.3549373,-0.1355927864161741,8.758881442716765,4.396644328150296,-0.3954312714129739,-0.5748098507000657,-0.3625080213680041,0.05068089920622798,0.12121885305353616,0.05334331319544828
1592173677.3649373,-0.18,8.75,4.37,-0.39444444444444443,-0.5688888888888889,-0.4088888888888889,0.07199483164476608,0.13962634015954636,0.06981317007977318
1592173677.3749373,-0.11710334955625537,8.659723446893787,4.283653592900086,-0.39444444444444443,-0.5688888888888889,-0.4088888888888889,0.06271880390395626,0.11117423802226305,0.09952917440512396
1592173677.3849373,0.007610615278994329,8.630277692289482,4.186222153831586,-0.39444444444444443,-0.5688888888888889,-0.4088888888888889,0.03605200771827087,0.08649685631719571,0.12243968024369094
1592173677.3949373,0.20437666310663793,8.650858751335011,4.243517911771627,-0.39444444444444443,-0.5688888888888889,-0.4088888888888889,0.0009277087019757893,0.07716795984002646,0.11532894984987466
1592173677.4049373,0.27145466335242624,8.632545480744984,4.316181778882525,-0.3934545352658397,-0.5697373824705501,-0.4067676549347359,-0.04135242473453251,0.08565998350395518,0.08226842284453223
1592173677.4149373,0.35,8.65,4.29,-0.38666666666666666,-0.5755555555555556,-0.39222222222222225,-0.05563236990731925,0.09708393964218458,0.04799655442984406
1592173677.4249372,0.3465972726764657,8.744847985245626,4.375893366120829,-0.38666666666666666,-0.5755555555555556,-0.39222222222222225,-0.03590200699353339,0.14675194701808048,0.04855855205843868
1592173677.4349372,-0.047804702667721286,8.548322427554469,4.581965916444956,-0.38666666666666666,-0.5755555555555556,-0.39222222222222225,-0.05831226668698229,0.18973521737450796,0.06999616484611848
1592173677.4449372,-0.25,8.34,4.68,-0.38666666666666666,-0.5755555555555556,-0.39222222222222225,-0.07635815477475191,0.19307704850187268,0.09272061651219875
1592173677.4549372,-0.09408961593172119,8.403398530109056,4.545004741583688,-0.3884842737474316,-0.5760099573257469,-0.3927523576207787,-0.06319486852210175,0.19860658818322593,0.10987753822210389
1592173677.4649372,-0.15,8.86,4.34,-0.41333333333333333,-0.5822222222222222,-0.4,-0.017453292519943295,0.15489797111449674,0.061086523819801536
1592173677.4749372,0.0352354474370113,9.028167101071531,4.09832406602954,-0.41333333333333333,-0.5822222222222222,-0.4,0.05187438994137041,0.1477990099178714,0.02748783004044595
1592173677.4849372,0.03509424157966838,8.896242146535029,3.9024214653502765,-0.41333333333333333,-0.5822222222222222,-0.4,0.013716054420300518,0.1695298101569583,0.05170637876519527
1592173677.4949372,-0.05683121859664901,8.962799077205812,3.909765782322235,-0.41333333333333333,-0.5822222222222222,-0.4,-0.04377850763547313,0.22936501699548553,0.07285296863720177
1592173677.5049372,-0.5983831461817688,9.080772805916478,4.185576890456967,-0.41333333333333333,-0.5788928467769598,-0.4028537503816535,-0.11433366123786444,0.2852580780941142,0.09316036079378798
1592173677.5149372,-1.18,8.9,4.61,-0.41333333333333333,-0.5666666666666667,-0.41333333333333333,-0.2617993877991494,0.26725354171163174,0.17889624832941878
1592173677.5249372,0.40778803051353973,8.207779641911552,4.470742915563478,-0.41333333333333333,-0.5666666666666667,-0.41333333333333333,-0.17678647573570003,0.21036277166156675,0.16402706979360634
1592173677.5349371,0.6183212098009189,8.4812404287902,4.415219180704441,-0.41333333333333333,-0.5666666666666667,-0.41333333333333333,0.09839757219438314,0.1265044226245426,0.12044127024782772
1592173677.5449371,0.41010512031110746,8.923978975937779,4.251622984687677,-0.41333333333333333,-0.5666666666666667,-0.41333333333333333,0.20304878667460474,0.2302166639305654,0.09469099202896568
1592173677.5549371,0.05016434118518996,8.987397286759256,4.2848767441111075,-0.4147336348045271,-0.5666666666666667,-0.4192145995123471,0.12389152880885738,0.256043395072202,0.06926327297793403
1592173677.564937,0.11,8.95,4.24,-0.41888888888888887,-0.5666666666666667,-0.43666666666666665,0.0545415391248228,0.2454369260617026,0.06763150851478027
1592173677.574937,0.0018477610451780244,8.73931435125162,4.221714121870948,-0.41888888888888887,-0.5666666666666667,-0.43666666666666665,0.04452250261967689,0.2303522767969303,0.11555327026855308
1592173677.584937,0.09,8.78,4.12,-0.41888888888888887,-0.5666666666666667,-0.43666666666666665,0.03490658503988659,0.21925698728178766,0.11999138607461016
1592173677.594937,0.10169934505910945,8.751307204349796,4.230392140709314,-0.41888888888888887,-0.5666666666666667,-0.43666666666666665,-0.0037287837589591345,0.21234126300669692,0.10809206542584732
1592173677.604937,0.09540229519661761,8.658957306799758,4.344076358203262,-0.4172089942884996,-0.5667825214666935,-0.4370721584667606,-0.026133367722888122,0.2092791989983404,0.0865840214960025
1592173677.614937,-0.18660603017369276,8.637232328304385,4.572323283043845,-0.38666666666666666,-0.5688888888888889,-0.4444444444444444,0.005716373568777276,0.1729462871404972,0.0759879300986119
1592173677.624937,-0.17411296436694468,8.620280515542078,4.444112964366944,-0.38666666666666666,-0.5688888888888889,-0.4444444444444444,0.04550889787658452,0.12737248139969043,0.0804564200838203
1592173677.634937,0.03236775119174342,8.61774378673578,4.260752071088073,-0.38666666666666666,-0.5688888888888889,-0.4444444444444444,0.08963653442436027,0.0922101367853874,0.07912625084566785
1592173677.644937,0.14342477858727884,8.735685839404592,4.23,-0.38666666666666666,-0.5688888888888889,-0.4444444444444444,0.128777883113332,0.08093819598942475,0.07651502208068875
1592173677.654937,0.15989788504212243,8.859234137815918,4.23,-0.38666666666666666,-0.5688888888888889,-0.4444444444444444,0.13955950607590265,0.0872274760509243,0.07202267917961763
1592173677.664937,0.10046438201470351,8.892848286511027,4.2495356179852966,-0.4088888888888889,-0.5611111111111111,-0.4444444444444444,0.11140994593110735,0.10191669383394718,0.09069768614862278
1592173677.674937,0.05533223413025557,8.821805912142267,4.261141443881757,-0.4088888888888889,-0.5611111111111111,-0.4444444444444444,0.07805109434436465,0.10827284958646707,0.09588904892165702
1592173677.684937,-0.003994568454153465,8.632010863091693,4.235937537222765,-0.4088888888888889,-0.5611111111111111,-0.4444444444444444,0.055850239818948245,0.1101783527051965,0.0822554546322496
1592173677.694937,-0.015016313862804394,8.59003262772561,4.448240888110775,-0.4088888888888889,-0.5611111111111111,-0.4444444444444444,0.05527350515681469,0.08874819032742871,0.0556537247037934
1592173677.704937,0.010059920892614677,8.540085601275162,4.589940079107385,-0.4088822310119317,-0.5611158667375091,-0.444450151196122,0.04799095183948588,0.04686277045460157,0.02286449323967954
1592173677.714937,0.06881271596406358,8.643729094678646,4.486438147892191,-0.4011111111111111,-0.5666666666666667,-0.45111111111111113,0.05060414508406331,-0.004696226290697942,-0.03235553364529917
1592173677.724937,0.04173855994751517,8.687173199934394,4.29652288010497,-0.4011111111111111,-0.5666666666666667,-0.45111111111111113,0.0998265820040477,-0.00992026239338564,-0.05355349369324388
1592173677.734937,0.14,8.81,4.1,-0.4011111111111111,-0.5666666666666667,-0.45111111111111113,0.14180800172453928,-0.00545415391248228,-0.04908738521234052
1592173677.744937,0.09196384121577361,8.84354971832831,4.0115858771125374,-0.4011111111111111,-0.5666666666666667,-0.45111111111111113,0.15043246745136732,0.02703682615995539,-0.02176552538335733
1592173677.754937,0.17163848396501458,8.773276967930029,3.8432108843537414,-0.4005722924090271,-0.5680675952920851,-0.45315862217903036,0.1351171488899381,0.05979130802771779,-0.01368467888362172
1592173677.764937,0.28,8.99,3.78,-0.39555555555555555,-0.5811111111111111,-0.4722222222222222,0.11344640137963141,0.08835729338221293,0.001090830782496456
1592173677.774937,0.11860226988928046,8.988818159114244,3.847204539778561,-0.39555555555555555,-0.5811111111111111,-0.4722222222222222,0.07669902236755079,0.13240083106874984,0.05569063916547908
1592173677.784937,0.05261941081132615,8.917391791400515,3.8978134235866144,-0.39555555555555555,-0.5811111111111111,-0.4722222222222222,0.015131208201202088,0.1463614064602747,0.09001592503845665
1592173677.794937,-0.15758003878269816,8.89486089675096,4.139742767818276,-0.39555555555555555,-0.5811111111111111,-0.4722222222222222,-0.015920975077405235,0.1301008996141137,0.12220568320379506
1592173677.804937,-0.3222640202397446,8.826637853141376,4.3249228962110715,-0.39469600224886053,-0.5805641226432143,-0.4717533749640249,-0.028097812610654974,0.085722734331023,0.16634328361206852
1592173677.8149369,-0.25638462621427566,8.637005490637758,4.382203294382655,-0.38333333333333336,-0.5733333333333334,-0.46555555555555556,-0.059687625101265664,-0.012775912097235345,0.1558653290053802
1592173677.8249369,-0.36998511976191617,8.612481399702395,4.330044640714251,-0.38333333333333336,-0.5733333333333334,-0.46555555555555556,-0.07472596655644541,-0.08805902056732832,0.08892786809717784
1592173677.8349369,-0.4,8.65,4.24,-0.38333333333333336,-0.5733333333333334,-0.46555555555555556,-0.06654067773228381,-0.13962634015954636,0.038179077387375956
1592173677.8449368,-0.11,8.72895658848229,3.9880883581280897,-0.38333333333333336,-0.5733333333333334,-0.46555555555555556,0.004713914769383572,-0.17028342060968008,0.0020869523253269893
1592173677.8549368,-0.10860077734591893,8.736091060521932,3.804197667962243,-0.3843438830279475,-0.5720118452711457,-0.46703251280153,0.053091539739316684,-0.1727867479945816,-0.021040133105142637
1592173677.8649368,-0.09,8.95,3.86,-0.3977777777777778,-0.5544444444444444,-0.4866666666666667,0.03381575425739013,-0.19307704850187268,-0.06872233929727672
1592173677.8749368,0.3055221545510421,8.88535452869196,3.5022947980108396,-0.3977777777777778,-0.5544444444444444,-0.4866666666666667,-0.024319851959764813,-0.16054948268880637,-0.07828949270876126
1592173677.8849368,0.07862548262548262,8.924265444015443,3.6222154922779923,-0.3977777777777778,-0.5544444444444444,-0.4866666666666667,-0.0582844785704004,-0.07977284470638814,-0.07246011940807226
1592173677.8949368,0.2887532944652983,8.800002395974763,3.9993718552831243,-0.3977777777777778,-0.5544444444444444,-0.4866666666666667,-0.07301740382826198,-0.0071593120859837454,-0.057678036994916033
1592173677.9049368,0.11,8.668024984187223,4.173160025300443,-0.39786555625834563,-0.554707779886148,-0.4858327711012721,-0.07551001831720368,0.0341037446233699,-0.03723113784779855
1592173677.9149368,0.11,8.62,4.25,-0.4,-0.5611111111111111,-0.46555555555555556,-0.028361600344907853,0.06763150851478027,-0.014180800172453926
1592173677.9249368,0.1935130922693267,8.748104738154614,4.260092477140482,-0.4,-0.5611111111111111,-0.46555555555555556,0.047033463286985336,0.09072552056108668,0.008205600010269215
1592173677.9349368,0.21238482709106138,8.956192413545532,4.125230345817878,-0.4,-0.5611111111111111,-0.46555555555555556,0.02972145137901675,0.10347150637333768,0.020933456493010247
1592173677.9449368,0.18,8.94,4.19,-0.4,-0.5611111111111111,-0.46555555555555556,-0.04799655442984406,0.11671889372712078,0.02181661564992912
1592173677.9549367,0.02939222725144372,8.856329015139691,4.240202590916185,-0.4,-0.5611111111111111,-0.46555555555555556,-0.1201005542809059,0.12310785573924019,0.032769121956419525
1592173677.9649367,-0.03494518268639027,8.744516445194083,4.39494518268639,-0.4122222222222222,-0.5722222222222222,-0.4866666666666667,-0.14222998289839403,0.12369781887857413,0.06808936753649458
1592173677.9749367,0.05,8.762373039364206,4.2958356445335255,-0.4122222222222222,-0.5722222222222222,-0.4866666666666667,-0.12141762437833802,0.11915941373076891,0.10180382234810237
1592173677.9849367,0.05961784039770987,8.694753905237611,4.193115236905967,-0.4122222222222222,-0.5722222222222222,-0.4866666666666667,-0.13651491645739086,0.11206944051439968,0.09956941363042492
1592173677.9949367,0.15118151323145732,8.633701080879613,4.34007827059262,-0.4122222222222222,-0.5722222222222222,-0.4866666666666667,-0.17042736827000723,0.10915178879837534,0.044234550244067056
1592173678.0049367,0.035991917923769545,8.551422798516978,4.471723522372835,-0.4122222222222222,-0.5722222222222222,-0.4866666666666667,-0.1452968969930202,0.11004930562969631,0.023591663123684853
1592173678.0149367,0.12081497545942245,8.527122246318912,4.502877753681086,-0.3655555555555556,-0.5722222222222222,-0.48,-0.06668700170621257,0.09594865884378226,0.018395035209874833
1592173678.0249367,-0.0481655949714616,8.501690629289792,4.520983310454447,-0.3655555555555556,-0.5722222222222222,-0.48,0.019344533491518143,0.10648678907489083,0.026594566389676798
1592173678.0349367,0.1506631267869585,8.553209437543547,4.360053098195623,-0.3655555555555556,-0.5722222222222222,-0.48,0.10884869417218791,0.11918410682225063,0.014475935931846845
1592173678.0449367,0.1580229649111553,8.881977035088845,4.218022964911155,-0.3655555555555556,-0.5722222222222222,-0.48,0.14882188481412376,0.13911060557251323,0.002913057225324799
1592173678.0549366,0.13111745461543398,8.908882545384566,4.191117454615434,-0.3655555555555556,-0.5722222222222222,-0.48,0.11066771830997113,0.14693710126567272,-0.0019785025828998946
1592173678.0649366,0.06,8.86,4.24,-0.37777777777777777,-0.56,-0.49333333333333335,0.01854412330243975,0.15053464798451094,0.0
1592173678.0749366,0.09989108236895848,8.680490129339686,4.439455411844793,-0.37777777777777777,-0.56,-0.49333333333333335,-0.015179552658810457,0.12551385614229302,0.0391629785356454
1592173678.0849366,0.09434077656094439,8.878914805859765,4.432170388280472,-0.37777777777777777,-0.56,-0.49333333333333335,0.07514064736959747,0.10277484618929772,0.09935023329249278
1592173678.0949366,0.16759962457471356,8.850798560869734,4.4732005005670485,-0.37777777777777777,-0.56,-0.49333333333333335,0.032026341296091054,0.10733781725189441,0.07949938568085294
1592173678.1049366,0.11839192835634117,8.662169058699309,4.538810762191545,-0.37777777777777777,-0.56,-0.49333333333333335,-0.02701865545171748,0.11628402888035026,0.03208446405003698
1592173678.1149366,0.01919296016564316,8.594526717018423,4.481438083809793,-0.37444444444444447,-0.56,-0.5155555555555555,0.023317178500183354,0.1044900700611303,-0.030562460079951052
1592173678.1249366,0.00927748427672956,8.768670188679245,4.256272201257861,-0.37444444444444447,-0.56,-0.5155555555555555,0.10277453627220119,0.08802946785950343,-0.05531711295060682
1592173678.1349366,-0.03100817905769419,8.862635419727692,4.093643598785386,-0.37444444444444447,-0.56,-0.5155555555555555,0.10202222216492321,0.06805428691605785,-0.05032195584302518
1592173678.1449366,-0.25,8.74,4.19,-0.37444444444444447,-0.56,-0.5155555555555555,0.07526732399225547,0.05563236990731925,-0.04363323129985824
1592173678.1549366,-0.3431346780766096,8.72306642216789,4.266201100244499,-0.37444444444444447,-0.56,-0.5155555555555555,0.06233715642230919,0.027001284573866788,-0.03993889770844502
1592173678.1649365,-0.28,8.72,4.32,-0.36777777777777776,-0.5722222222222222,-0.5011111111111111,0.06654067773228381,-0.030543261909900768,-0.04036073895236887
1592173678.1749365,-0.11437820436389648,8.68103016573268,4.388197209967807,-0.36777777777777776,-0.5722222222222222,-0.5011111111111111,0.07291710195342024,-0.06136264564539351,-0.05523906213502054
1592173678.1849365,0.0899745684884734,8.760084771705088,4.129906751124403,-0.36777777777777776,-0.5722222222222222,-0.5011111111111111,0.10475489432211002,-0.07308381299555465,-0.0654489222339334
1592173678.1949365,0.06034473826736053,8.858850872442131,4.021264040313655,-0.36777777777777776,-0.5722222222222222,-0.5011111111111111,0.1456949934435327,-0.0709290709365324,-0.06437155120442227
1592173678.2049365,0.015367140396210163,8.922486003445306,3.9575139965546944,-0.36777777777777776,-0.5722222222222222,-0.5011111111111111,0.130591517761195,-0.07090400086226964,-0.056569112620625854
1592173678.2149365,-0.08341951626355296,8.828903252710592,4.020967472894078,-0.3477777777777778,-0.5722222222222222,-0.5377777777777778,0.062114124627833014,-0.07501394920249294,-0.039058838327054084
1592173678.2249365,-0.043056072367998965,8.822176012061334,4.088239879386669,-0.3477777777777778,-0.5722222222222222,-0.5377777777777778,0.03496248425638232,-0.08015074602952416,-0.024382275964107764
1592173678.2349365,-0.05851381678110869,8.781981577625189,4.0909907888125945,-0.3477777777777778,-0.5722222222222222,-0.5377777777777778,0.019959188965655468,-0.09114343340862341,-0.02170853735635603
1592173678.2449365,-0.0894884127678181,8.721023174464364,4.119488412767819,-0.3477777777777778,-0.5722222222222222,-0.5377777777777778,0.015346038301723208,-0.10664099097094779,-0.060416857698846124
1592173678.2549365,-0.02605922595399135,8.72,4.2718593383592705,-0.3477777777777778,-0.5722222222222222,-0.5377777777777778,0.033580629158785014,-0.1234667007738364,-0.0872422355395653
1592173678.2649364,0.08894441541921268,8.860703723053858,4.266481384730708,-0.38222222222222224,-0.5788888888888889,-0.5155555555555555,0.08776543039989208,-0.14383613473563198,-0.10257647569314192
1592173678.2749364,0.060361856302387384,8.879758762465077,4.171206187674625,-0.38222222222222224,-0.5788888888888889,-0.5155555555555555,0.10127621570832712,-0.1396789700253443,-0.10361576687071383
1592173678.2849364,0.030652682304585076,8.88,4.042828289986535,-0.38222222222222224,-0.5788888888888889,-0.5155555555555555,0.07050140383050424,-0.13642504440696018,-0.09295793849520946
1592173678.2949364,0.04935593460259042,8.802576261589639,4.020644065397409,-0.38222222222222224,-0.5788888888888889,-0.5155555555555555,0.04447631093358046,-0.1310753354899335,-0.07477367461697891
1592173678.3049364,0.08161819421447356,8.831618194214474,4.02,-0.38222222222222224,-0.5788888888888889,-0.5155555555555555,0.03242394895062603,-0.12745068394596482,-0.07676325067496644
1592173678.3149364,0.11978510712807615,8.820143261914616,4.049785107128076,-0.3557465714417101,-0.5866109536998716,-0.5155555555555555,0.01645622644130028,-0.11354016608348486,-0.06553579792831968
1592173678.3249364,0.005696280567162121,8.79142407014179,4.0404746900472635,-0.35555555555555557,-0.5866666666666667,-0.5155555555555555,0.014284361475593874,-0.10409495020129308,-0.06129364642608143
1592173678.3349364,0.07598027303266386,8.79,3.9925123293545854,-0.35555555555555557,-0.5866666666666667,-0.5155555555555555,0.01936090146536112,-0.0870526001998603,-0.03622203761384701
1592173678.3449364,0.004988348280488664,8.78062354353506,4.065011651719511,-0.35555555555555557,-0.5866666666666667,-0.5155555555555555,0.02168057955347486,-0.06776500260037213,-0.03695221050842524
1592173678.3549364,0.03887646674713576,8.756674119951718,4.108876466747136,-0.35555555555555557,-0.5866666666666667,-0.5155555555555555,0.02944999204557472,-0.05297023080669164,-0.04302531713482608
1592173678.3649364,0.03075114427236817,8.836619850774342,4.100751144272368,-0.35555555555555557,-0.590944190161696,-0.5251799834193714,0.05263133704793123,-0.03753890081679681,-0.03212571546903429
1592173678.3749363,0.011062489832911158,8.877875020334178,4.109468755083545,-0.35555555555555557,-0.5911111111111111,-0.5255555555555556,0.0462205416803913,-0.027792318039534452,-0.023371045078757178
1592173678.3849363,-0.13956792306060392,8.851956014426136,4.091304009617424,-0.35555555555555557,-0.5911111111111111,-0.5255555555555556,0.008085693500494734,-0.02115252101684009,-0.028005986887068332
1592173678.3949363,-0.3136466165413534,8.734484741264927,4.272899159663866,-0.35555555555555557,-0.5911111111111111,-0.5255555555555556,-0.011346859431019082,-0.027026164871245675,-0.053563120360159894
1592173678.4049363,-0.20181853620504825,8.737878764252997,4.295757528505994,-0.35555555555555557,-0.5911111111111111,-0.5255555555555556,0.0017518991128615234,-0.03156796885001219,-0.04594714054962121
1592173678.4149363,-0.031449737135574335,8.749896447347458,4.290103552652541,-0.3423602924256102,-0.586712690067796,-0.5288543713380418,0.03136299248199505,-0.037043063236479136,-0.0231220674323273
1592173678.4249363,0.017800519146394696,8.75,4.213519169365768,-0.3422222222222222,-0.5866666666666667,-0.5288888888888889,0.06500515042308429,-0.0370882466048795,-0.0030933809048301272
1592173678.4349363,0.1195608818541549,8.840509892594685,3.920368343697004,-0.3422222222222222,-0.5866666666666667,-0.5288888888888889,0.10010920989961264,-0.042024795453016094,0.008678745900907586
1592173678.4449363,0.012913455343720917,8.88602662912501,3.9440399436875135,-0.3422222222222222,-0.5866666666666667,-0.5288888888888889,0.10657634604009904,-0.025840344200725954,0.010799950943446681
1592173678.4549363,0.08146710577903238,8.852969497373167,3.994436603152199,-0.3422222222222222,-0.5866666666666667,-0.5288888888888889,0.08024136866125364,-0.008648552595389256,0.005253146123031431
1592173678.4649363,-0.025969826128137488,8.801151478249103,4.116833434814965,-0.33574746859707283,-0.590983169083433,-0.5375218937224214,0.04441827374954405,0.017916089342691097,-0.007321798497600866
1592173678.4749362,-0.010963146556716315,8.809518426721642,4.100963146556716,-0.33555555555555555,-0.5911111111111111,-0.5377777777777778,0.03844173486540636,0.033080313318905,0.012091870973441929
1592173678.4849362,0.026262251836354125,8.846262251836354,4.000278807450027,-0.33555555555555555,-0.5911111111111111,-0.5377777777777778,0.04312357495559267,0.043704749393823565,0.03187906014918099
1592173678.4949362,-0.05802494125311185,8.867604988250621,4.034012470626556,-0.33555555555555555,-0.5911111111111111,-0.5377777777777778,0.04171282498893151,0.050485281015134886,0.05109941105573071
1592173678.5049362,0.02344742034421457,8.798117368965988,4.133447420344215,-0.33555555555555555,-0.5911111111111111,-0.5377777777777778,0.038315098268515944,0.052837282510508114,0.07619012647335935
1592173678.5149362,0.024176581496651715,8.761044145374163,4.25955854625837,-0.34849179001509795,-0.5871307312774058,-0.5377777777777778,0.04490370413242059,0.052473776151383704,0.07824627569812512
1592173678.5249362,0.028932220197873663,8.751067779802126,4.314661100989369,-0.35,-0.5866666666666667,-0.5377777777777778,0.05458407953794061,0.05041116941025445,0.06770544480937118
1592173678.5349362,0.09993182616844325,8.723775565186834,4.1801363476631135,-0.35,-0.5866666666666667,-0.5377777777777778,0.07565686443076064,0.05589950014439165,0.0589122988662109
1592173678.5449362,0.04127689561213943,8.848855820727238,4.022553791224279,-0.35,-0.5866666666666667,-0.5377777777777778,0.10290353160361837,0.07171625623681482,0.02595378843493905
1592173678.5549362,0.05127416936311262,8.898365559150816,3.964543051061479,-0.35,-0.5866666666666667,-0.5377777777777778,0.10844851793887443,0.0710822907013155,0.003707671070993398
1592173678.5649362,0.09853378665533363,8.919633446663834,3.9403665533361667,-0.3243108088964442,-0.6037927940690372,-0.5367073948151296,0.09016784995724052,0.07296570812850736,-0.00011995429875518793
1592173678.5749362,0.05206739899460063,8.913152485570658,3.8646773412772295,-0.3233333333333333,-0.6044444444444445,-0.5366666666666666,0.07301526921385475,0.08503682966424773,0.016432854950854635
1592173678.5849361,0.09513759172781856,8.882083889259507,3.7834731487658435,-0.3233333333333333,-0.6044444444444445,-0.5366666666666666,0.04819385362657812,0.09358413023953689,0.06358555601522557
1592173678.5949361,0.10936667379069602,8.861266652418607,3.845566716534872,-0.3233333333333333,-0.6044444444444445,-0.5366666666666666,0.02851430266645844,0.095854938514794,0.08186686188302479
1592173678.6049361,0.0955211693362579,8.896197076659355,3.871718245995613,-0.3233333333333333,-0.6044444444444445,-0.5366666666666666,0.020953187889386007,0.10625917907835439,0.07895465092408978
1592173678.614936,0.038082402772429726,8.892694134257477,3.9578763958413554,-0.33390914017598655,-0.6044444444444445,-0.5183993639384474,-0.005996979088164316,0.10639835481820296,0.06706621146891588
1592173678.624936,0.11667646450961032,8.88133235354904,3.97,-0.33555555555555555,-0.6044444444444445,-0.5155555555555555,-0.043855245060284126,0.09446466322955088,0.0645043533937369
1592173678.634936,0.13,8.821405642023347,3.8946643968871593,-0.33555555555555555,-0.6044444444444445,-0.5155555555555555,-0.05730522470168274,0.08541587029945011,0.07440304220982027
1592173678.644936,0.17125265894587566,8.801749468210826,3.9212526589458756,-0.33555555555555555,-0.6044444444444445,-0.5155555555555555,-0.04900493480245105,0.08759394387126622,0.07545816136999214
1592173678.654936,0.11339439634393259,8.806660560365607,3.9499816810968205,-0.33555555555555555,-0.6044444444444445,-0.5155555555555555,-0.030921526241292307,0.09780250094033652,0.049111364600528604
1592173678.664936,0.07199213033722482,8.842031478651101,4.00804721797665,-0.31953981623000516,-0.5928775215982136,-0.5324610581769699,0.001551199612623573,0.11039980121200407,0.027262185092008347
1592173678.674936,0.04442069178946366,8.901158616421073,4.02,-0.31555555555555553,-0.59,-0.5366666666666666,0.012286264942644752,0.10863521102499932,0.026949287783486313
1592173678.684936,0.06421797737587212,8.845418726997675,3.9715640452482557,-0.31555555555555553,-0.59,-0.5366666666666666,-0.004521840750978558,0.10182811391782152,0.0281513600694582
1592173678.694936,0.07,8.8141804190837,4.05491748549781,-0.31555555555555553,-0.59,-0.5366666666666666,-0.022531834923727907,0.08913971620037198,0.025773127470453554
1592173678.704936,0.07,8.783281426496691,4.08,-0.31555555555555553,-0.59,-0.5366666666666666,-0.021079486352599486,0.07743199908467924,0.02727501618055368
1592173678.714936,0.053754422874629434,8.761877211437314,4.08,-0.3318011326809261,-0.59,-0.5303489422290225,0.008923698889610723,0.06954142730570764,0.03279189424685148
1592173678.724936,0.05799849143668471,8.855981897240216,4.000015085633153,-0.33555555555555555,-0.59,-0.5288888888888889,0.04580913330929533,0.07046733943181073,0.03643325445919113
1592173678.734936,0.05214389690967665,8.934992721632263,3.8935828660064433,-0.33555555555555555,-0.59,-0.5288888888888889,0.06287735533185561,0.0734749045866867,0.0370882466048795
1592173678.744936,0.05,8.942190550658704,3.901237797365179,-0.33555555555555555,-0.59,-0.5288888888888889,0.038189726195128504,0.0750283719833421,0.035384489057713325
1592173678.754936,0.05,8.83790050935774,4.005718272477118,-0.33555555555555555,-0.59,-0.5288888888888889,0.0006116963311460222,0.06900257770833004,0.02864183875596118
1592173678.764936,0.0738962453620179,8.78,4.067965415120673,-0.32582004818584454,-0.5953102767471151,-0.5359692578850423,-0.023313597744640785,0.051547574935399465,0.00944905198123211
1592173678.774936,0.08,8.803427057776235,4.007527845930044,-0.3233333333333333,-0.5966666666666667,-0.5377777777777778,0.0004658477682203087,0.03607090840587929,-0.0030641646760639863
1592173678.784936,0.05639660112637092,8.872942396996345,3.895586404505484,-0.3233333333333333,-0.5966666666666667,-0.5377777777777778,0.02823366672779262,0.02757546066231432,-0.007170641516675399
1592173678.794936,0.018349842039003306,8.89,3.8620874605097506,-0.3233333333333333,-0.5966666666666667,-0.5377777777777778,0.03813137507923144,0.022727442122441897,-0.005909567148738668
1592173678.804936,0.0358624388151095,8.883534390296223,3.840603170888668,-0.3233333333333333,-0.5966666666666667,-0.5377777777777778,0.03574346512362834,0.011237286511196891,-0.01250704000497043
1592173678.814936,0.05,8.949662041399929,3.837740226822214,-0.3026927284740953,-0.5872063894395159,-0.528317500550627,0.03297142648927252,0.00038818730377664437,-0.026494394954858107
1592173678.824936,0.09765378853225587,8.95411540382258,3.9035383847096745,-0.2966666666666667,-0.5844444444444444,-0.5255555555555556,0.031858553151000994,-0.009754534021423341,-0.0381161343663312
1592173678.834936,0.14874472648424428,8.903506328218906,3.927748945296849,-0.2966666666666667,-0.5844444444444444,-0.5255555555555556,0.02740769866155529,-0.017916090250639723,-0.04289657537087403
1592173678.844936,0.19766511627906977,8.85233488372093,3.960132093023256,-0.2966666666666667,-0.5844444444444444,-0.5255555555555556,0.031932016336807416,-0.033604285294532216,-0.0354159776471547
1592173678.854936,0.1981975178440272,8.857703723233959,3.981802482155973,-0.2966666666666667,-0.5844444444444444,-0.5255555555555556,0.04990889281439048,-0.038822802929655974,-0.025000216967533514
1592173678.8649359,0.06103901782711066,8.84285031954255,4.037511940800538,-0.29138756213327355,-0.5927401801397765,-0.5398845535747655,0.07589437740876621,-0.02816401797814891,-0.033702414994452645
1592173678.8749359,0.0,8.785415672600477,4.074861442466507,-0.28888888888888886,-0.5966666666666667,-0.5466666666666666,0.0869559691984223,-0.018044050757995606,-0.061435453541565405
1592173678.8849359,-0.028958436359354762,8.82067726362887,3.985885081832097,-0.28888888888888886,-0.5966666666666667,-0.5466666666666666,0.10178251374455616,-0.0147830240477594,-0.06714290160758929
1592173678.8949358,0.04764155731167983,8.964158872858214,3.8915722951255467,-0.28888888888888886,-0.5966666666666667,-0.5466666666666666,0.12681852263080012,-0.012587431696762132,-0.06255725654305433
1592173678.9049358,0.12093905543523689,8.974909381055511,3.8992421824537407,-0.28888888888888886,-0.5966666666666667,-0.5466666666666666,0.11311932622023818,-0.008809311330669211,-0.047689249257275954
1592173678.9149358,0.17045477685389446,8.909090446292211,3.92,-0.30707091275901727,-0.6019697569621207,-0.5322725644361483,0.0587556666650085,-0.005801228020267933,0.0012400263722965807
1592173678.9249358,0.1582008032128514,8.89,3.9708647925033467,-0.31555555555555553,-0.6044444444444445,-0.5255555555555556,0.03084904499672106,0.0008869753912829278,0.046584753625938335
1592173678.9349358,0.11412917411685111,8.954567486589669,3.832168366114145,-0.31555555555555553,-0.6044444444444445,-0.5255555555555556,0.031966249690440526,0.01735893273157676,0.06063610079650665
1592173678.9449358,0.10704818715630535,8.916566315593252,3.868674620188275,-0.31555555555555553,-0.6044444444444445,-0.5255555555555556,0.019976671137780885,0.028289312090051394,0.06294619255338739
1592173678.9549358,0.1379886420130789,8.86201135798692,3.8932068147921526,-0.31555555555555553,-0.6044444444444445,-0.5255555555555556,-0.0010846359616160876,0.03298573169135197,0.07670176918277606
1592173678.9649358,0.28098408104196815,8.84,3.911837916063676,-0.29079273195047434,-0.5952468242482714,-0.5198954815886799,-0.01239537381210155,0.03976875408487803,0.08309888913258096
1592173678.9749358,0.16826137689614934,8.902909523382101,3.8461206354905304,-0.27666666666666667,-0.59,-0.5166666666666667,0.007825469837559173,0.044067370397747954,0.04488468571566279
1592173678.9849358,0.22050149268104777,8.875052003081663,3.796263000770416,-0.27666666666666667,-0.59,-0.5166666666666667,0.007371616766190659,0.04247635083954065,0.012969215346767982
1592173678.9949358,0.16259016158674844,8.801654772418072,3.8659710719144567,-0.27666666666666667,-0.59,-0.5166666666666667,-0.01254844638245947,0.03542454545678958,0.003947397842963343
1592173679.0049357,0.12107959324107348,8.840937762825904,3.9055397966205367,-0.27666666666666667,-0.59,-0.5166666666666667,-0.014800569538975156,0.029099135065422888,0.012336963371166337
1592173679.0149357,0.19151125508214062,8.908453376524642,3.9223022510164283,-0.2889689176830948,-0.6029857094062298,-0.525551625734087,0.006537268508568983,0.027521906190186754,0.029028725956838884
1592173679.0249357,0.15621337944134622,8.897864013832404,3.9595146482234616,-0.2966666666666667,-0.6111111111111112,-0.5311111111111111,0.011014195156602066,0.03560558487866674,0.0381261337215572
1592173679.0349357,0.1441359689887335,8.840524108539434,3.920524108539433,-0.2966666666666667,-0.6111111111111112,-0.5311111111111111,-0.01131928888735186,0.05128603498370286,0.03541492064154097
1592173679.0449357,0.11661641502485731,8.90679732093537,3.866616415024857,-0.2966666666666667,-0.6111111111111112,-0.5311111111111111,-0.01672168671525846,0.06182141858675176,0.025075952148356895
1592173679.0549357,0.1,8.982774070543375,3.8281506196377504,-0.2966666666666667,-0.6111111111111112,-0.5311111111111111,-0.011100685036367653,0.05720882316400622,0.015363140114969153
1592173679.0649357,0.1622595370068471,8.997548092598631,3.8037740462993153,-0.3008173024671231,-0.6111111111111112,-0.5221180668767887,-0.025293616539947165,0.05194819297204389,0.021774646940331925
1592173679.0749357,0.15059474283589375,8.898247379552373,3.8494052571641064,-0.30333333333333334,-0.6111111111111112,-0.5166666666666667,-0.06756318423098573,0.058519051883459676,0.038370258620806265
1592173679.0849357,0.1828246409163679,8.800572278969085,3.9426338812600057,-0.30333333333333334,-0.6111111111111112,-0.5166666666666667,-0.10953285009768568,0.06252709242944894,0.042542400517361786
1592173679.0949357,0.13379899355021618,8.757299832258369,4.062551090320599,-0.30333333333333334,-0.6111111111111112,-0.5166666666666667,-0.12435470920459597,0.06534624547211032,0.0335374734723263
1592173679.1049356,0.07409182795268499,8.718183655905369,4.131210896063087,-0.30333333333333334,-0.6111111111111112,-0.5166666666666667,-0.09774658610215595,0.07406036469601686,0.022577225757420893
1592173679.1149356,0.01309828313922122,8.789666148329154,4.08551013931643,-0.29486496778902604,-0.6111111111111112,-0.5166666666666667,-0.03388654696311846,0.08008195494844186,0.005941879306617425
1592173679.1249356,-0.05319400105647551,8.926388002112951,3.9868895983096393,-0.28888888888888886,-0.6111111111111112,-0.5166666666666667,0.017719630501356668,0.0723888394929166,-0.003630023090857846
1592173679.1349356,0.02478214591480206,8.947362380544693,3.903130712451119,-0.28888888888888886,-0.6111111111111112,-0.5166666666666667,0.02049185331984312,0.06458668800147925,0.005975805109507852
1592173679.1449356,0.0989733747935089,8.902053250412983,3.9648668739675443,-0.28888888888888886,-0.6111111111111112,-0.5166666666666667,-0.010944241323678612,0.0483795270872301,0.004410333474173674
1592173679.1549356,0.1809740971828323,8.849582529778786,4.090974097182833,-0.28888888888888886,-0.6111111111111112,-0.5166666666666667,-0.04277009520139961,0.04201975459451734,0.013272125137187736
1592173679.1649356,0.2863315777421571,8.825190225391736,4.211902253917367,-0.2825452800767662,-0.6036141188786025,-0.5212802003482104,-0.05267703886686736,0.05382421502558031,0.04429724318119862
1592173679.1749356,0.17455136390017412,8.792056877539176,4.253676146256529,-0.27666666666666667,-0.5966666666666667,-0.5255555555555556,-0.03379904042531938,0.06878678884670106,0.05142896776146495
1592173679.1849356,0.07181894150417828,8.751818941504178,4.183336118848653,-0.27666666666666667,-0.5966666666666667,-0.5255555555555556,-0.00634748051430389,0.07926673300882348,0.03589866373204562
1592173679.1949356,0.07780505775538338,8.775610115510768,4.122194942244617,-0.27666666666666667,-0.5966666666666667,-0.5255555555555556,0.03114657113433135,0.08269914991331381,0.013914587060444763
1592173679.2049356,0.09972477782562737,8.8,4.075963277610304,-0.27666666666666667,-0.5966666666666667,-0.5255555555555556,0.06549989798831399,0.08234271303749087,0.0038028966977460324
1592173679.2149355,0.11,8.82902283442729,4.006140026501495,-0.27666666666666667,-0.6004288859442783,-0.5255555555555556,0.09401932062861275,0.08132018941030135,0.002252723050746741
1592173679.2249355,0.05773343477659427,8.883229584543736,3.9061186425047265,-0.27666666666666667,-0.6044444444444445,-0.5255555555555556,0.10281928917829145,0.07836366982799574,0.011402795648209944
1592173679.2349355,0.014254552489661676,8.9,3.8542545524896616,-0.27666666666666667,-0.6044444444444445,-0.5255555555555556,0.08577898526343374,0.0693014812527053,0.03154284499157608
1592173679.2449355,0.05094108039295751,8.87660509691831,3.9494283380971824,-0.27666666666666667,-0.6044444444444445,-0.5255555555555556,0.05631257690523894,0.0460422660911501,0.045464715039374604
1592173679.2549355,0.11389291394239265,8.835790775755434,4.097469517582612,-0.27666666666666667,-0.6044444444444445,-0.5255555555555556,0.03835159789459178,0.024308814127910507,0.05014371189339381
1592173679.2649355,0.22169024669171705,8.820241463813103,4.144154876654142,-0.26699417306540324,-0.6004616529615713,-0.5255555555555556,0.04389662746004934,0.01138787417616501,0.05126904677733343
1592173679.2749355,0.29,8.85569383338486,4.058612333230279,-0.2577777777777778,-0.5966666666666667,-0.5255555555555556,0.06785466070367976,0.008025955650558124,0.0561738810432281
1592173679.2849355,0.302126839602443,8.882126839602442,3.890541344571905,-0.2577777777777778,-0.5966666666666667,-0.5255555555555556,0.07394449099898127,0.006312982484200997,0.046999365315340866
1592173679.2949355,0.3042193146123143,8.924684112326114,3.7653158876738857,-0.2577777777777778,-0.5966666666666667,-0.5255555555555556,0.06362703808004003,0.013021053390260297,0.027288983996723887
1592173679.3049355,0.3284727724235795,8.95,3.7827091586353694,-0.2577777777777778,-0.5966666666666667,-0.5255555555555556,0.043781960430375404,0.03045006434112483,0.01854412330243975
1592173679.3149354,0.2167376456408196,8.903951386098834,3.8913981518682204,-0.27369581715102004,-0.5966666666666667,-0.519302040087496,0.014383057466998769,0.06260947961296151,0.03026474726053295
1592173679.3249354,0.05374416574963002,8.854165370166584,3.9441653701665844,-0.28888888888888886,-0.5966666666666667,-0.5133333333333333,0.001113803919683324,0.085017578737802,0.043679177574231974
1592173679.3349354,-0.22218100763009746,8.814446317834996,3.9433220929900266,-0.28888888888888886,-0.5966666666666667,-0.5133333333333333,0.022175321385767333,0.0986634668547441,0.04460694576623892
1592173679.3449354,-0.260922525750112,8.849384982833259,4.029077474249888,-0.28888888888888886,-0.5966666666666667,-0.5133333333333333,0.04384030297399985,0.04362161574592212,0.017005605188797814
1592173679.3549354,-0.21950087565674256,8.86475043782837,4.058687609457093,-0.28888888888888886,-0.5966666666666667,-0.5133333333333333,0.04951686401319863,0.011761176069204071,0.006347379074900843
1592173679.3649354,-0.04354222675442662,8.869221284879949,3.937939186057291,-0.27145720672002305,-0.6047599476736402,-0.5133333333333333,0.055415862193837755,-0.06480861602443183,-0.016239190881429118
1592173679.3749354,0.05144419440167397,8.904904654743575,3.8336511508547515,-0.2577777777777778,-0.6111111111111112,-0.5133333333333333,0.06245082672787944,-0.08863076550779438,-0.029589167190195036
1592173679.3849354,0.1319345293138524,8.98483632328463,3.6293600887738116,-0.2577777777777778,-0.6111111111111112,-0.5133333333333333,0.10053174768229266,-0.12072997151842733,-0.04563877019551152
1592173679.3949354,0.12047269356908598,9.03,3.500472693569086,-0.2577777777777778,-0.6111111111111112,-0.5133333333333333,0.10849045522364936,-0.1269830156565044,-0.061326917228378214
1592173679.4049354,0.08047944393981281,9.069041112120374,3.5190411121203744,-0.2577777777777778,-0.6111111111111112,-0.5133333333333333,0.08611398421839878,-0.1281333925277314,-0.07939530062862815
1592173679.4149354,0.0342871363432021,9.089429709074562,3.601140581850877,-0.2640631444494395,-0.6111111111111112,-0.5087621575721248,0.032913722457542705,-0.1326137014353752,-0.09954554211057842
1592173679.4249353,0.005181776346065348,9.055545329038196,3.6608789691670505,-0.27,-0.6111111111111112,-0.5044444444444445,-0.009906831795935373,-0.13701497258911535,-0.11030944714133398
1592173679.4349353,-0.010513020648548924,8.932565103242744,3.7225651032427445,-0.27,-0.6111111111111112,-0.5044444444444445,-0.09274817173525764,-0.1585897517858904,-0.11361428699427946
1592173679.4449353,0.0610800829183445,8.870603064166408,3.7169846791679575,-0.27,-0.6111111111111112,-0.5044444444444445,-0.11812489556607683,-0.18875201062392094,-0.10504867559792927
1592173679.4549353,0.18918638100553864,8.855772401356747,3.8122759864325277,-0.27,-0.6111111111111112,-0.5044444444444445,-0.11986725027155289,-0.21601987867291733,-0.09327052805024702
1592173679.4649353,0.345810147299509,8.84526186579378,3.9173813420621935,-0.2642089470812875,-0.6111111111111112,-0.5044444444444445,-0.11413464240524906,-0.2197140293117698,-0.07216354442536498
1592173679.4749353,0.43,8.84,3.97,-0.2577777777777778,-0.6111111111111112,-0.5044444444444445,-0.1112647398146385,-0.210530341021816,-0.05781403147231216
1592173679.4849353,0.12614502177780504,8.947699527636342,3.726922274707073,-0.2577777777777778,-0.6111111111111112,-0.5044444444444445,-0.07492932103032737,-0.14171866615649847,-0.03423512954196809
1592173679.4949353,0.07769901594033692,9.01,3.7892475398508423,-0.2577777777777778,-0.6111111111111112,-0.5044444444444445,-0.05504512144536579,-0.08080197310198789,-0.02416402402566281
1592173679.5049353,0.0679394502302235,8.96029207754481,3.9235316087978975,-0.2577777777777778,-0.6111111111111112,-0.5044444444444445,-0.07690444321002304,-0.05518282768377161,-0.009592705930694284
1592173679.5149353,0.0,8.872872812135356,4.024254375729288,-0.2577777777777778,-0.6111111111111112,-0.5095918579022429,-0.12992367401157204,-0.039583283360829974,-0.0052914839311485025
1592173679.5249352,0.025649247643219727,8.83435075235678,4.070519398114576,-0.2577777777777778,-0.6111111111111112,-0.5188888888888888,-0.1636246173744684,-0.038179077387375956,-0.01090830782496456
1592173679.5349352,0.07566187357273708,8.81,4.054073376998168,-0.2577777777777778,-0.6111111111111112,-0.5188888888888888,-0.16530418307224884,-0.047136761108871605,-0.012587873522744994
1592173679.5449352,0.06556811240073304,8.785405794571952,4.108539139540972,-0.2577777777777778,-0.6111111111111112,-0.5188888888888888,-0.16206804877860567,-0.06207111783178869,-0.014180800172453926
1592173679.5549352,0.019059610158556374,8.763646796613815,4.221880779682888,-0.2577777777777778,-0.6111111111111112,-0.5188888888888888,-0.15071477187332527,-0.06792673169650618,-0.0145786039728392
1592173679.5649352,-0.013599165077194372,8.7666002087307,4.249800626192104,-0.25928879611968825,-0.6129998840384993,-0.5188888888888888,-0.11922905682117155,-0.05949434348811797,-0.015642490652011745
1592173679.5749352,-0.04,8.76,4.23,-0.26222222222222225,-0.6166666666666667,-0.5188888888888888,-0.07963064712224129,-0.04581489286485115,-0.016362461737446838
1592173679.5849352,-0.13594923742317322,8.797189847484635,4.178430457546096,-0.26222222222222225,-0.6166666666666667,-0.5188888888888888,-0.04028897703656157,-0.019513467865874885,-0.029317101562992616
1592173679.5949352,-0.24004052197802198,8.814448946886447,4.148897893772894,-0.26222222222222225,-0.6166666666666667,-0.5188888888888888,-0.011019688440576606,-0.010062339584189206,-0.03393597539720098
1592173679.6049352,-0.27597003092047884,8.82701498453976,4.16,-0.26222222222222225,-0.6166666666666667,-0.5188888888888888,-0.0019700336473865675,-0.02074213046466503,-0.031577099313687546
1592173679.6149352,-0.20473408677978627,8.854145597881317,4.15151264127121,-0.2663087282768249,-0.6150949335687426,-0.5129163031167773,-0.01535104228035369,-0.04077015741007425,-0.02667494947836805
1592173679.6249352,-0.07209114252117779,8.89,4.085227856302945,-0.27666666666666667,-0.6111111111111112,-0.49777777777777776,-0.047116293175662294,-0.057097534883612334,-0.01865817743407415
1592173679.6349351,-0.10124139953529293,8.877189650116177,3.970218367208825,-0.27666666666666667,-0.6111111111111112,-0.49777777777777776,-0.07056170899499256,-0.06030225465359105,-0.02164546971629058
1592173679.6449351,-0.19048871714844814,8.84770676971093,3.902293230289069,-0.27666666666666667,-0.6111111111111112,-0.49777777777777776,-0.08583525889192445,-0.06888227161011506,-0.0272707695624114
1592173679.6549351,-0.19919410413476263,8.802258805513016,4.006691232771822,-0.27666666666666667,-0.6111111111111112,-0.49777777777777776,-0.09087326200746175,-0.08307895867318817,-0.02991860259025334
1592173679.664935,-0.14505495905948323,8.732564118902731,4.1949084015675275,-0.27306878644024596,-0.6111111111111112,-0.5010988979867815,-0.08265541137154878,-0.09652053894077794,-0.033819750992980895
1592173679.674935,-0.04195938628158845,8.704874548736463,4.232688176895307,-0.26222222222222225,-0.6111111111111112,-0.5111111111111111,-0.04544476846712593,-0.11714375656483408,-0.02963879779448606
1592173679.684935,0.10664375358016975,8.781652345987606,4.096695308024787,-0.26222222222222225,-0.6111111111111112,-0.5111111111111111,-0.0163643363099523,-0.12317375692876877,-0.02972467017990206
1592173679.694935,0.25649610758959773,8.816459955171,3.9658759731026008,-0.26222222222222225,-0.6111111111111112,-0.5111111111111111,-0.009240210370388021,-0.10201664221003706,-0.024957759256984364
1592173679.704935,0.3239924888631415,8.809962444315707,3.9140676002317267,-0.26222222222222225,-0.6111111111111112,-0.5111111111111111,-0.0002361915909522578,-0.06134319885899581,-0.01614675359473659
1592173679.714935,0.33,8.87103572245645,3.809566951008269,-0.28291270385985556,-0.6055074390009187,-0.5111111111111111,0.015450352225423132,-0.008960877009424266,-0.0082562239252643
1592173679.724935,0.33,8.92,3.73,-0.31555555555555553,-0.5966666666666667,-0.5111111111111111,0.017453292519943295,0.025089107997418484,0.001090830782496456
1592173679.734935,0.14160708782742681,8.937815100154085,3.7059768875192605,-0.31555555555555553,-0.5966666666666667,-0.5111111111111111,-0.062102895736867184,0.09234479253228164,0.022293286851648678
1592173679.744935,0.013078087821760766,8.867565073184801,3.762817795082558,-0.31555555555555553,-0.5966666666666667,-0.5111111111111111,-0.11345977229556078,0.1050555224143802,0.04104564445773906
1592173679.754935,0.006319590076366087,8.824960234242077,3.9640780675028684,-0.31555555555555553,-0.5966666666666667,-0.5111111111111111,-0.1313098398858317,0.09529507297831576,0.05619079861241715
1592173679.764935,0.06563082286469916,8.8,4.185630822864699,-0.30131413916771854,-0.6004875344780376,-0.5118058143495422,-0.13437760626519005,0.07792355628536698,0.06163092292944077
1592173679.774935,0.1,8.8,4.22,-0.27,-0.6088888888888889,-0.5133333333333333,-0.13962634015954636,0.062177354602297986,0.05563236990731925
1592173679.784935,0.18535437290238882,8.730715796598696,4.2864280678004345,-0.27,-0.6088888888888889,-0.5133333333333333,-0.1305889069586384,0.032491448708039015,0.04476310273054795
1592173679.794935,0.3713103018985372,8.69,4.312843496372908,-0.27,-0.6088888888888889,-0.5133333333333333,-0.08261727594067306,0.023221097170958514,0.03787237345121186
1592173679.804935,0.5056156144194384,8.715172674765983,4.312019518024298,-0.27,-0.6088888888888889,-0.5133333333333333,-0.03095682603608285,0.02896352342118443,0.026142266989896044
1592173679.814935,0.46119127677970984,8.788213084830435,4.239247766356038,-0.27452802596044024,-0.6067990307533011,-0.5105468558192162,0.008401775914526455,0.04842056262909285,0.01260098712161964
1592173679.824935,0.42,8.85,4.15,-0.28444444444444444,-0.6022222222222222,-0.5044444444444445,0.019634954084936207,0.05890486225480862,0.004363323129985824
1592173679.834935,0.33946530690049564,8.87318480747236,4.076191383911552,-0.28444444444444444,-0.6022222222222222,-0.5044444444444445,-0.017907632066217552,0.0763775967644895,0.006921556282302617
1592173679.844935,0.17726937269372695,8.836439114391144,3.9806826568265685,-0.28444444444444444,-0.6022222222222222,-0.5044444444444445,-0.0451708599305359,0.07528342481561334,0.008652179951941447
1592173679.854935,0.08690966908476598,8.83,4.0,-0.28444444444444444,-0.6022222222222222,-0.5044444444444445,-0.06174084884904779,0.05688224540054598,0.00832990168440402
1592173679.864935,0.06260081616914624,8.84300408084573,3.9921975514925614,-0.2806877099778999,-0.6022222222222222,-0.5061783218905419,-0.07350133551776818,0.03189357729388243,0.011148023506385248
1592173679.874935,0.07,8.88,3.97,-0.27,-0.6022222222222222,-0.5111111111111111,-0.0839939702522271,0.01090830782496456,0.008726646259971648
1592173679.884935,0.11607990571596936,8.854800235710076,3.9860799057159695,-0.27,-0.6022222222222222,-0.5111111111111111,-0.13074241371344553,-0.019678535892274605,-0.0034120826908758915
1592173679.894935,0.1267938123030835,8.768700996849336,4.0705361293321625,-0.27,-0.6022222222222222,-0.5111111111111111,-0.16349979243781115,-0.02762051038583719,-0.012573795317655356
1592173679.904935,0.08722974389068197,8.620675692668819,4.3346958963826125,-0.27,-0.6022222222222222,-0.5111111111111111,-0.14907898764198851,-0.029434004468337955,-0.02573033744343979
1592173679.9149349,0.007856219609774113,8.579467286268233,4.536604603926879,-0.2743852540298038,-0.6001982588238512,-0.5111111111111111,-0.07699877531461712,-0.03560813553205779,-0.03997145866204361
1592173679.9249349,-0.02,8.67,4.46,-0.28444444444444444,-0.5955555555555555,-0.5111111111111111,-0.01090830782496456,-0.044724062082354694,-0.04908738521234052
1592173679.9349349,0.03172496308741917,8.852838450180744,4.203340461279976,-0.28444444444444444,-0.5955555555555555,-0.5111111111111111,0.01073441692429777,-0.06839843903132696,-0.04585538039809487
1592173679.9449348,0.10908395491266115,8.839974501346424,4.030916045087339,-0.28444444444444444,-0.5955555555555555,-0.5111111111111111,-0.04305315149356678,-0.08895406201824399,-0.03966404529839543
1592173679.9549348,0.10211608366605089,8.766970979083487,4.059087062749538,-0.28444444444444444,-0.5955555555555555,-0.5111111111111111,-0.08828936428575213,-0.08786397863289135,-0.03206409362358214
1592173679.9649348,0.12587073825098724,8.770323154372532,4.102710939619571,-0.2828386204309395,-0.5955555555555555,-0.5097346905281068,-0.10020171704584475,-0.06989738367619115,-0.02986761303617953
1592173679.9749348,0.11,8.81,4.19,-0.27666666666666667,-0.5955555555555555,-0.5044444444444445,-0.10799224746714915,-0.053450708342326333,-0.0272707695624114
1592173679.9849348,0.15421187750504284,8.722635632515129,4.4164943808451,-0.27666666666666667,-0.5955555555555555,-0.5044444444444445,-0.1412715163262057,-0.03951889066032094,-0.019673474502372754
1592173679.9949348,0.11157851200605029,8.639473435432029,4.370526564567972,-0.27666666666666667,-0.5955555555555555,-0.5044444444444445,-0.14410428405099415,-0.03283967313959616,-0.013836293371865439
1592173680.0049348,0.05154530283694905,8.624795720035339,4.408454697163052,-0.27666666666666667,-0.5955555555555555,-0.5044444444444445,-0.1119215726427364,-0.02077035184217253,-0.007742382159986282
