time,acc_x,acc_y,acc_z,mag_x,mag_y,mag_z,gyr_x,gyr_y,gyr_z
1592173807.5648131,-0.25,8.65,4.455969858198714,-0.30333333333333334,-0.13111111111111112,-0.27,0.015271630954950384,0.027637119790300403,0.024071547260499832
1592173807.5748131,-0.25519578243299734,8.64851549073343,4.400742254633285,-0.30333333333333334,-0.13111111111111112,-0.27,0.015514533215681863,0.03240105379391837,0.02541297767839379
1592173807.584813,-0.3134274524666793,8.631314509506664,4.411314509506664,-0.30333333333333334,-0.13111111111111112,-0.27,0.0185919202168982,0.02802702194369871,0.029739212614155006
1592173807.594813,-0.18095635146232078,8.657808729707536,4.437808729707537,-0.30333333333333334,-0.13111111111111112,-0.27,0.019555277248676544,0.02128352272125031,0.03551935480482506
1592173807.604813,-0.09217686133407141,8.668911569332964,4.437823138665929,-0.2966666666666667,-0.1111111111111111,-0.26222222222222225,0.0211042394441997,0.011264495927829268,0.04228267530821632
1592173807.614813,-0.1115891174774082,8.66,4.410465295135551,-0.2966666666666667,-0.1111111111111111,-0.26222222222222225,0.014751593476542393,0.014960856390065913,0.04882736647313652
1592173807.624813,-0.13909423251589464,8.659173251589465,4.308267484105358,-0.2966666666666667,-0.1111111111111111,-0.26222222222222225,0.008546277736853137,0.02435901426115905,0.044281760418343814
1592173807.634813,-0.24295536329530662,8.650886608988593,4.400591072659061,-0.2966666666666667,-0.1111111111111111,-0.26222222222222225,0.006544984694978735,0.028361600344907853,0.02707734148705256
1592173807.644813,-0.32323826659520716,8.674971479978561,4.416647653319042,-0.2966666666666667,-0.1111111111111111,-0.26222222222222225,0.006544984694978735,0.028361600344907853,0.021822837753389498
1592173807.654813,-0.36045371648264984,8.735462835173502,4.431814865930599,-0.3111111111111111,-0.13777777777777778,-0.26222222222222225,-0.001039348602180981,0.019041040597975647,0.010710336662644373
1592173807.664813,-0.37,8.637823806078147,4.464196816208394,-0.3111111111111111,-0.13777777777777778,-0.26222222222222225,-0.022670060500561747,0.00614934147520569,0.006624113338933344
1592173807.674813,-0.37090609192874424,8.611132614910929,4.391359137893116,-0.3111111111111111,-0.13777777777777778,-0.26222222222222225,-0.01906662812853988,0.0012143799034521794,0.007808784246813205
1592173807.684813,-0.4114965411222137,8.66112240584166,4.450374135280554,-0.3111111111111111,-0.13777777777777778,-0.26222222222222225,0.005943895849497022,0.006830667491570668,0.0160062438604725
1592173807.694813,-0.4437355880092237,8.685301691006917,4.458433897002306,-0.3111111111111111,-0.13777777777777778,-0.26222222222222225,0.01649409927230613,0.012984952821542651,0.03183154899468617
1592173807.704813,-0.45169547148399763,8.666609057032005,4.42,-0.3233333333333333,-0.1111111111111111,-0.25555555555555554,0.002236429771557855,0.02738209589554814,0.04500148295519313
1592173807.714813,-0.46455964667453875,8.640880706650924,4.42,-0.3233333333333333,-0.1111111111111111,-0.25555555555555554,-0.01390110426110211,0.03650331078357334,0.047106378698583556
1592173807.724813,-0.5895581139101029,8.59321288802766,4.42,-0.3233333333333333,-0.1111111111111111,-0.25555555555555554,-0.030757913402075593,0.056412144607797546,0.05802868296448699
1592173807.734813,-0.6845697018533441,8.593237711522965,4.4897131345688965,-0.3233333333333333,-0.1111111111111111,-0.25555555555555554,-0.01922477182494268,0.059112744188781555,0.06008398792215743
1592173807.744813,-0.8366595487510072,8.627035455278003,4.591106365834005,-0.3233333333333333,-0.1111111111111111,-0.25555555555555554,-0.0035560336365012893,0.04989583937205133,0.061005678403830456
1592173807.754813,-0.86,8.54,4.7,-0.33,-0.13111111111111112,-0.2911111111111111,-0.009817477042468103,0.03490658503988659,0.05999569303730508
1592173807.764813,-0.8503321719851136,8.520664343970227,4.7096678280148865,-0.33,-0.13111111111111112,-0.2911111111111111,0.0028376802357554885,0.018033042002255133,0.0652686752365649
1592173807.774813,-0.9430678127984717,8.659233046800383,4.501533906399236,-0.33,-0.13111111111111112,-0.2911111111111111,0.05202200132032311,0.005370492296594538,0.08197963191900969
1592173807.784813,-0.98,8.65,4.52,-0.33,-0.13111111111111112,-0.2911111111111111,0.061086523819801536,0.004363323129985824,0.0839939702522271
1592173807.794813,-1.0202639556603486,8.609736044339652,4.546842637106899,-0.33,-0.13111111111111112,-0.2911111111111111,0.03692988457714223,-0.00954504491881801,0.0722816603163923
1592173807.804813,-1.0302150824928196,8.57,4.579846369647986,-0.33,-0.1111111111111111,-0.2911111111111111,0.00761570531142289,-0.051372949301937,0.038021547753299585
1592173807.814813,-1.0955861331908356,8.57,4.533152762006546,-0.33,-0.1111111111111111,-0.2911111111111111,0.0015035263640915354,-0.08295254052981567,-0.009857187334129353
1592173807.824813,-0.928167439589944,8.589092506712229,4.444083719794972,-0.33,-0.1111111111111111,-0.2911111111111111,0.014628181906363813,-0.12777952380999752,-0.042247341041364087
1592173807.8348129,-0.8635330578512397,8.627644628099175,4.477644628099174,-0.33,-0.1111111111111111,-0.2911111111111111,0.023484414780192295,-0.1708727822432878,-0.059032200972186824
1592173807.8448129,-0.7742446228056302,8.684571603669143,4.472204056618693,-0.33,-0.1111111111111111,-0.2911111111111111,0.02399827721492203,-0.18619817694532917,-0.06935015355812638
1592173807.8548129,-0.76,8.65,4.46,-0.31777777777777777,-0.12444444444444444,-0.29777777777777775,0.009817477042468103,-0.21162117180431245,-0.07308566242726255
1592173807.8648129,-0.6500375746549064,8.658458648103469,4.366954870861844,-0.31777777777777777,-0.12444444444444444,-0.29777777777777775,-0.010481821162583612,-0.22822968851753658,-0.07585374854613323
1592173807.8748128,-0.4474602034709755,8.690507959305805,4.160253979652903,-0.31777777777777777,-0.12444444444444444,-0.29777777777777775,-0.00665580422438424,-0.2744634435830435,-0.09859034365995167
1592173807.8848128,-0.34904478771980957,8.708328378509668,4.172149227630428,-0.31777777777777777,-0.12444444444444444,-0.29777777777777775,-0.011872134662086125,-0.30023895892628794,-0.11500612089370053
1592173807.8948128,-0.31644554551637033,8.651279704653648,4.245497522588167,-0.31777777777777777,-0.12444444444444444,-0.29777777777777775,-0.044765372277537546,-0.3091290231466802,-0.13100823649040663
1592173807.9048128,-0.14,8.69,4.3,-0.3322222222222222,-0.13777777777777778,-0.29777777777777775,-0.07308566242726255,-0.31634092692397225,-0.14398966328953217
1592173807.9148128,-0.25412689012594264,8.73891152433969,4.373367286509534,-0.3322222222222222,-0.13777777777777778,-0.29777777777777775,-0.06419329636583619,-0.3154516903178296,-0.14843584632024537
1592173807.9248128,-0.329809379297264,8.49904689648632,4.621239034567784,-0.3322222222222222,-0.13777777777777778,-0.29777777777777775,-0.06654067773228381,-0.3097751487359609,-0.11304092826549657
1592173807.9348128,-0.31013342121557114,8.400300197735035,4.749866578784429,-0.3322222222222222,-0.13777777777777778,-0.29777777777777775,-0.06636239127027953,-0.30755242617718276,-0.07090036236304506
1592173807.9448128,-0.3436429184892244,8.475696566600755,4.716357081510775,-0.3322222222222222,-0.13777777777777778,-0.29777777777777775,-0.021584732133478966,-0.2920173199460479,-0.06998653258474301
1592173807.9548128,-0.32,8.69,4.62,-0.3233333333333333,-0.1511111111111111,-0.29777777777777775,0.06763150851478027,-0.29561514205653955,-0.08290313946973066
1592173807.9648128,-0.13123223133782796,8.731036471448299,4.562548939972382,-0.3233333333333333,-0.1511111111111111,-0.29777777777777775,0.10612841629910325,-0.30993957286000856,-0.07395037021756251
1592173807.9748127,-0.14405949151321634,8.730990084747798,4.540990084747797,-0.3233333333333333,-0.1511111111111111,-0.29777777777777775,0.10569176854781953,-0.316016922447919,-0.04840692867327717
1592173807.9848127,-0.1860593058733791,8.612807255911518,4.630148264683448,-0.3233333333333333,-0.1511111111111111,-0.29777777777777775,0.0958694699301789,-0.30454054667133107,-0.002546831938500256
1592173807.9948127,-0.12388318955467476,8.54857581409808,4.647346312271703,-0.3233333333333333,-0.1511111111111111,-0.29777777777777775,0.08288190273148432,-0.29042922383192693,0.0037843782777538895
1592173808.0048127,-0.14546112057603908,8.639106689382494,4.586354431193546,-0.3293948160768052,-0.14403938124372725,-0.3240442029994892,0.08052343192898989,-0.25802704676464067,-0.06704683808283626
1592173808.0148127,-0.2504643724318267,8.65913312476653,4.56173375046694,-0.33,-0.14333333333333334,-0.32666666666666666,0.119575983084012,-0.2552544031041707,-0.10207203538975078
1592173808.0248127,-0.16235673818148044,8.68662998049596,4.471233398346801,-0.33,-0.14333333333333334,-0.32666666666666666,0.1203589981758722,-0.24169829528844317,-0.11440268927375086
1592173808.0348127,-0.17602459495476117,8.559877025226193,4.4426502700301596,-0.33,-0.14333333333333334,-0.32666666666666666,0.11052857631505833,-0.2409290531251755,-0.13455368246372798
1592173808.0448127,-0.06007564855509316,8.596434988915249,4.503489362529657,-0.33,-0.14333333333333334,-0.32666666666666666,0.13909407701996374,-0.2580028842893321,-0.13821419138353597
1592173808.0548127,-0.12563802947815694,8.735638029478157,4.512209533926438,-0.33988359226309034,-0.17990262470676757,-0.32666666666666666,0.18946793542160922,-0.2738047547592392,-0.15600125860225078
1592173808.0648127,-0.09737294122841877,8.630644235439572,4.44179670596547,-0.3411111111111111,-0.18444444444444444,-0.32666666666666666,0.22113724585205843,-0.29441889849674396,-0.1405008784693621
1592173808.0748127,-0.04758479672840991,8.542135674765456,4.336686552802502,-0.3411111111111111,-0.18444444444444444,-0.32666666666666666,0.220249834851827,-0.31445321499635065,-0.1244896919696949
1592173808.0848126,-0.1575528957165072,8.605569718674897,4.294810093775034,-0.3411111111111111,-0.18444444444444444,-0.32666666666666666,0.20277023221075255,-0.302776864309993,-0.14965097275799488
1592173808.0948126,-0.2485129338359548,8.718963126651934,4.2138745179600505,-0.3411111111111111,-0.18444444444444444,-0.32666666666666666,0.22785563970498124,-0.2941656638466163,-0.18811397877112007
1592173808.1048126,-0.42953567858639924,8.8098258794699,4.0404353013252505,-0.35329786433646104,-0.18444444444444444,-0.3122641401276167,0.28565521298849794,-0.29343031489097837,-0.18874221577700157
1592173808.1148126,-0.3689222847563166,8.864291302438831,4.033213587195147,-0.35333333333333333,-0.18444444444444444,-0.31222222222222223,0.2739531402296514,-0.2882515008983629,-0.18797344257286064
1592173808.1248126,-0.3762811111705829,8.862789166622063,3.9120863886956054,-0.35333333333333333,-0.18444444444444444,-0.31222222222222223,0.24163019929469587,-0.2996494585248882,-0.18960172223379282
1592173808.1348126,-0.21287265881444295,8.86,3.9092848522880868,-0.35333333333333333,-0.18444444444444444,-0.31222222222222223,0.22673809814259094,-0.3010692959690219,-0.1624584089000843
1592173808.1448126,-0.16709736054833946,8.876451319725831,3.9264513197258304,-0.35333333333333333,-0.18444444444444444,-0.31222222222222223,0.22580197197676635,-0.2992747353720592,-0.1495847614452029
1592173808.1548126,-0.09674160541864822,8.924606715665082,3.9486516789162707,-0.33026218955661235,-0.20174780227698516,-0.33240947302685303,0.21447695075819442,-0.2798655200254603,-0.12467339088239923
1592173808.1648126,-0.10654935050516265,8.880351948484511,4.032746752525813,-0.32666666666666666,-0.20444444444444446,-0.33555555555555555,0.16397014199115123,-0.2536027155043387,-0.11314677715892571
1592173808.1748126,-0.05251808242220353,8.722189354799951,4.017153189955545,-0.32666666666666666,-0.20444444444444446,-0.33555555555555555,0.11349803989078167,-0.24154335610853087,-0.1211180754780475
1592173808.1848125,-0.0075902397783048775,8.8601512411639,4.01,-0.32666666666666666,-0.20444444444444446,-0.33555555555555555,0.11355814614544832,-0.23556357663632602,-0.15243056880720174
1592173808.1948125,-0.08644627287722881,8.933248566491242,3.9501525803157644,-0.32666666666666666,-0.20444444444444446,-0.33555555555555555,0.13593845643403935,-0.23017639106043483,-0.1737687181654933
1592173808.2048125,-0.17634238708676084,8.888210150550984,3.966342387086761,-0.32495028195974957,-0.2027280597375274,-0.3304064014348044,0.11331271831493188,-0.20523536747588705,-0.16759745592945038
1592173808.2148125,-0.22233672802018126,8.894252546015137,3.9476632719798186,-0.3244444444444444,-0.20222222222222222,-0.3288888888888889,0.10362892433716332,-0.19853120241435498,-0.1636246173744684
1592173808.2248125,-0.15051777343289913,8.93179289062684,3.8843624414030296,-0.3244444444444444,-0.20222222222222222,-0.3288888888888889,0.1088310239012084,-0.1881270032862648,-0.14888533527634068
1592173808.2348125,-0.16165876777251187,8.932085308056871,3.917488151658768,-0.3244444444444444,-0.20222222222222222,-0.3288888888888889,0.08427314021552004,-0.17335420757664058,-0.10795605876820374
1592173808.2448125,-0.1565492643780651,8.788767275969684,4.071232724030317,-0.3244444444444444,-0.20222222222222222,-0.3288888888888889,0.07524811408770414,-0.16870235442308432,-0.08717041307695989
1592173808.2548125,-0.21377048166697582,8.72,4.17985655104186,-0.34481557053250617,-0.22170764717602037,-0.322688980949044,0.10808836036302853,-0.1697270106148783,-0.09224672934977866
1592173808.2648125,-0.22170375407414356,8.86103618073956,4.115333786667292,-0.35,-0.22666666666666666,-0.3211111111111111,0.14567825511939286,-0.18193434263505767,-0.09490227807719166
1592173808.2748125,-0.22,8.953289302580249,3.9338655807268497,-0.35,-0.22666666666666666,-0.3211111111111111,0.11106570108586322,-0.1826244542554694,-0.08713551213824917
1592173808.2848125,-0.03379839091339329,8.776039990534786,3.9210336015144347,-0.35,-0.22666666666666666,-0.3211111111111111,0.05719461201448993,-0.17962981009013262,-0.09608683357741753
1592173808.2948124,0.02626374474323855,8.732527489486477,3.9112087657702843,-0.35,-0.22666666666666666,-0.3211111111111111,0.06385558170530461,-0.13926667196759396,-0.07945081302626508
1592173808.3048124,0.1059691748552968,8.762790752456588,3.862015412572352,-0.3483117961143267,-0.2216020550096469,-0.34390186356770014,0.11670208121876222,-0.06922113485093677,-0.06680281337025012
1592173808.3148124,-0.026821534448001894,8.827776354796631,3.9985677694770545,-0.3477777777777778,-0.22,-0.3511111111111111,0.1595202840930198,-0.02032838769798103,-0.04763340983850284
1592173808.3248124,-0.08296504549177605,8.778759878688597,4.129515197131029,-0.3477777777777778,-0.22,-0.3511111111111111,0.18167189868390649,-0.017265132480600937,-0.054488655335531246
1592173808.3348124,-0.17960168368540028,8.751854392392236,4.298475329331982,-0.3477777777777778,-0.22,-0.3511111111111111,0.20608011875240298,-0.035426534391742995,-0.05070564785576343
1592173808.3448124,-0.2,8.722197459861011,4.399506350347472,-0.3477777777777778,-0.22,-0.3511111111111111,0.2575385342753794,-0.054433841477473516,-0.03164886190859925
1592173808.3548124,-0.09458006718924972,8.666075027995522,4.254300111982083,-0.3526583302227199,-0.24635498320268756,-0.3472066691551574,0.37686615539712526,-0.05437846419821218,-0.0038740983501539886
1592173808.3648124,-0.15216606644276293,8.750207583053454,4.103709383725165,-0.35333333333333333,-0.25,-0.3466666666666667,0.43250193572170476,-0.03770651499683628,-0.012898975791614002
1592173808.3748124,-0.26507553482713175,9.005226604481395,3.7515634188380815,-0.35333333333333333,-0.25,-0.3466666666666667,0.46654189991397926,-0.04679202862104665,-0.04734568358375345
1592173808.3848124,-0.14079015912104564,9.115510513354803,3.436146760750142,-0.35333333333333333,-0.25,-0.3466666666666667,0.41615726439617123,-0.05305556889094751,-0.047197880944677056
1592173808.3948123,-0.12356485968000316,9.13,3.38,-0.35333333333333333,-0.25,-0.3466666666666667,0.33293293278510167,-0.043092831792891605,-0.04211565124005303
1592173808.4048123,-0.08372525458860285,9.13,3.4108498302742647,-0.3353375990066789,-0.2491430602701593,-0.3586638228844363,0.2265359537334169,-0.03733777877492698,-0.054662815364001485
1592173808.4148123,-0.0897233890782278,9.110276610921773,3.4949488784972655,-0.33,-0.24888888888888888,-0.3622222222222222,0.18227041437114733,-0.034076163413043564,-0.06019575505130974
1592173808.4248123,-0.28771579699785566,8.980895210864903,3.7548454610436024,-0.33,-0.24888888888888888,-0.3622222222222222,0.13395673352238974,-0.027789253363075334,-0.05053511025199514
1592173808.4348123,-0.38797004635682875,8.870049922738618,3.8399750386306906,-0.33,-0.24888888888888888,-0.3622222222222222,0.13940218370444357,-0.03163136982939563,-0.014637281671664316
1592173808.4448123,-0.48684722582188644,8.856680555832453,3.8633611116649056,-0.33,-0.24888888888888888,-0.3622222222222222,0.16002639159010365,-0.04292722179960973,-0.004358777911111011
1592173808.4548123,-0.32575406182370237,8.835490487418845,3.82915081236474,-0.329092240274772,-0.25161216806457287,-0.38128517645201,0.21987665978321744,-0.08364419547985583,-0.008619638504991135
1592173808.4648123,-0.2592005773162811,8.923597402076735,3.7160028865814057,-0.3288888888888889,-0.25222222222222224,-0.38555555555555554,0.2584825065151154,-0.10070524593832454,-0.017758504725012562
1592173808.4748123,-0.1245412985411958,9.048486233819602,3.404477090610232,-0.3288888888888889,-0.25222222222222224,-0.38555555555555554,0.28025744596485636,-0.1090830782496456,-0.04272153478958497
1592173808.4848123,-0.20771053946648266,9.13062632367989,3.2615263070223453,-0.3288888888888889,-0.25222222222222224,-0.38555555555555554,0.2544282395433941,-0.09624285026221527,-0.05570069122230226
1592173808.4948123,-0.2853707023938528,9.091666239779332,3.3437044626145207,-0.3288888888888889,-0.25222222222222224,-0.38555555555555554,0.22994295948573112,-0.0941346667634759,-0.06205618222614361
1592173808.5048122,-0.2721471679134972,9.044858867165399,3.5438407619287107,-0.3381418033989229,-0.26147513673225625,-0.3746202929527881,0.20548304566421843,-0.10976705047725732,-0.06270737478950583
1592173808.5148122,-0.2857459595549419,9.031418013481685,3.6586558921465118,-0.3411111111111111,-0.2644444444444444,-0.3711111111111111,0.19181944366365872,-0.13232407279350616,-0.06170927984884066
1592173808.5248122,-0.35616226591274575,9.01276754681745,3.742767546817451,-0.3411111111111111,-0.2644444444444444,-0.3711111111111111,0.16973088177807943,-0.18360164087270495,-0.0468856352037212
1592173808.5348122,-0.11722280334728036,9.002565376569038,3.6210460251046026,-0.3411111111111111,-0.2644444444444444,-0.3711111111111111,0.16986123698684288,-0.201466803769656,-0.03171967042114956
1592173808.5448122,0.053515703945061985,9.0,3.5543028603245963,-0.3411111111111111,-0.2644444444444444,-0.3711111111111111,0.18807917143996838,-0.18436349464080834,-0.029062381119408887
1592173808.5548122,0.24332280712511878,8.992456694361836,3.404220498513045,-0.35452143224562516,-0.26193000923172305,-0.3828451421038109,0.21389731161563558,-0.10432294648507288,-0.03438951312253742
1592173808.5648122,0.23233014335067306,9.016912599769686,3.298485486240718,-0.35888888888888887,-0.2611111111111111,-0.38666666666666666,0.22890288902625835,-0.04280931467698309,-0.04480454350211717
1592173808.5748122,0.055286202477573695,9.088237932507475,3.192940516873131,-0.35888888888888887,-0.2611111111111111,-0.38666666666666666,0.25050665648184844,0.08432084671268045,-0.06583549360778122
1592173808.5848122,-0.053441135964287415,9.151408795175001,3.329538158332146,-0.35888888888888887,-0.2611111111111111,-0.38666666666666666,0.2354481341406803,0.14010500646672533,-0.07112569485161728
1592173808.5948122,-0.2457980794186348,9.163859330391903,3.4782507137295613,-0.35888888888888887,-0.2611111111111111,-0.38666666666666666,0.20696964059319986,0.1545537068447029,-0.05725828249072884
1592173808.6048121,-0.6378974328605691,9.079656530364492,3.7475539632250614,-0.34475438960116067,-0.25887934806568036,-0.3836909826060923,0.17920053627546736,0.11252872500524096,-0.022434558223307918
1592173808.6148121,-0.6648390193176819,9.028188617365915,3.8145658520977483,-0.3377777777777778,-0.2577777777777778,-0.38222222222222224,0.17363968561055032,0.06766946487124836,0.0033888482126622696
1592173808.6248121,-0.2818106252258764,8.993238164076617,3.5947632815323454,-0.3377777777777778,-0.2577777777777778,-0.38222222222222224,0.19515463369296643,0.016777978775665583,0.04449540944272768
1592173808.634812,-0.007046981459060381,9.11226455855471,3.299854948602901,-0.3377777777777778,-0.2577777777777778,-0.38222222222222224,0.23693557780538022,0.05620151927791743,0.04359568163258336
1592173808.644812,0.08588965813971682,9.16,3.1569930767425487,-0.3377777777777778,-0.2577777777777778,-0.38222222222222224,0.27614119282014243,0.12679819831776967,0.06008296888669867
1592173808.654812,0.041609791549668,9.22912886921476,3.071609791549668,-0.3462268617929151,-0.2700673545270684,-0.38222222222222224,0.28924575837913885,0.2238703607834078,0.08590500517202997
1592173808.664812,0.01635626713986127,9.234493869979028,3.05,-0.35,-0.27555555555555555,-0.38222222222222224,0.27814416466909486,0.2724560162037775,0.09997664726047199
1592173808.674812,-0.0708918640576725,9.16303604531411,2.921921215242018,-0.35,-0.27555555555555555,-0.38222222222222224,0.2562722684290738,0.33918473219900497,0.1130665765726674
1592173808.684812,-0.1658181644906128,9.198840893929287,2.9088408939292862,-0.35,-0.27555555555555555,-0.38222222222222224,0.23861180067758517,0.372888100812829,0.11311667274774509
1592173808.694812,-0.21712697274031564,9.232659253945481,2.939042324246772,-0.35,-0.27555555555555555,-0.38222222222222224,0.22485058599013857,0.37863440727097786,0.11048730768952356
1592173808.704812,-0.4452378329337049,9.277619078478388,3.029523686086449,-0.3486243420531542,-0.2617989760870974,-0.3952909727172575,0.150378916002537,0.3528578145890858,0.1099141554380598
1592173808.714812,-0.5280313199105146,9.245206935123042,3.06,-0.3477777777777778,-0.25333333333333335,-0.4033333333333333,0.11511925261319142,0.3394008944389616,0.12961119579407554
1592173808.724812,-0.4764940584370194,9.241976513351041,2.927576401509856,-0.3477777777777778,-0.25333333333333335,-0.4033333333333333,0.06518547336604126,0.28785354477710673,0.17154533290337093
1592173808.734812,-0.3210474171806902,9.344740050965727,2.8294724808878513,-0.3477777777777778,-0.25333333333333335,-0.4033333333333333,0.03059914266469726,0.24440197603400263,0.14548080395146107
1592173808.744812,-0.2585054607444596,9.284021842977838,2.981209044416553,-0.3477777777777778,-0.25333333333333335,-0.4033333333333333,-0.005488954399970176,0.22824374828352878,0.13601221859900786
1592173808.754812,-0.21651632229295026,9.1630326445859,3.125870919426762,-0.3406022095895126,-0.2631181990446041,-0.4118135502831013,-0.04219038786058721,0.22855364897363126,0.15518637642094907
1592173808.764812,-0.16597753679318358,9.13927885360186,3.1346394268009297,-0.33555555555555555,-0.27,-0.4177777777777778,-0.05547504016936352,0.226701379278415,0.15998064264624737
1592173808.774812,0.02,9.149570472881793,3.108019179419449,-0.33555555555555555,-0.27,-0.4177777777777778,-0.0640205764350087,0.20684389735639458,0.1240631236125594
1592173808.784812,0.02,9.133134601934255,3.109403805802764,-0.33555555555555555,-0.27,-0.4177777777777778,-0.06790840584458697,0.23130540177511355,0.13189297263466754
1592173808.794812,0.01670002407235462,9.138350012036177,3.1217500601808865,-0.33555555555555555,-0.27,-0.4177777777777778,-0.07738348844434081,0.2461241205699234,0.1363429316265724
1592173808.804812,-0.02403483704157311,9.142017418520787,3.09802612778118,-0.3395613617291511,-0.2679970969132022,-0.4144396059664482,-0.12459377608562076,0.25567553489024164,0.10444743708598084
1592173808.814812,-0.16104684627068508,9.15,3.197526181149572,-0.3422222222222222,-0.26666666666666666,-0.4122222222222222,-0.13762558262031802,0.24241204855208184,0.07658353267525253
1592173808.824812,-0.6723746529479013,9.032497686319342,3.644626272524362,-0.3422222222222222,-0.26666666666666666,-0.4122222222222222,-0.14951193103006843,0.16875061347193215,0.08377620790918097
1592173808.834812,-0.5122003933985799,8.930721790443293,3.625739301477643,-0.3422222222222222,-0.26666666666666666,-0.4122222222222222,-0.12833581766273558,0.0900894660971357,0.11429720647685057
1592173808.844812,-0.38020452099031216,8.948913503941109,3.5819684711274697,-0.3422222222222222,-0.26666666666666666,-0.4122222222222222,-0.10694603624303252,0.05279444478673296,0.11169930704154159
1592173808.854812,-0.023694848252996698,9.167980107115532,3.4890149196633513,-0.33529832242341806,-0.27233167559296095,-0.44558283034373314,-0.006303296543411836,-0.005781945641499482,0.04941517694135772
1592173808.864812,0.06393988627132413,9.20083265637693,3.4465150284321693,-0.33,-0.27666666666666667,-0.4711111111111111,0.028411223841105906,0.0013389482634867129,0.05065761441346458
1592173808.874812,0.2514083565161567,9.01749839503531,3.3895305478279476,-0.33,-0.27666666666666667,-0.4711111111111111,0.02687863188624058,0.04097455011063431,0.05759235799021754
1592173808.8848119,0.27701537795105047,8.96259692440979,3.3851938488195796,-0.33,-0.27666666666666667,-0.4711111111111111,0.08983512455927929,0.06804166277911075,0.040396651076895496
1592173808.8948119,0.241611780997737,9.023188772925323,3.3758232850339445,-0.33,-0.27666666666666667,-0.4711111111111111,0.1447533958963606,0.08293526715718082,0.0323732874094988
1592173808.9048119,0.16268458659407964,9.364031303164342,3.34895746852671,-0.33517424672035084,-0.2604971456655703,-0.4788724811916374,0.19776543103958577,0.10708053711188399,0.017208774207759334
1592173808.9148118,0.0671114188981225,9.384158971991383,3.4693328716528162,-0.3388888888888889,-0.24888888888888888,-0.48444444444444446,0.15820529685493287,0.10081707213543731,0.013785965761799624
1592173808.9248118,-0.057117026230017076,9.026127580319727,3.5672375704899375,-0.3388888888888889,-0.24888888888888888,-0.48444444444444446,0.08290971413919937,0.058777206440746486,0.05435471128554221
1592173808.9348118,-0.11848055861112439,8.82,3.4169788129513607,-0.3388888888888889,-0.24888888888888888,-0.48444444444444446,0.144413652087148,0.023570427808099446,0.06981317007977318
1592173808.9448118,-0.15185130365478766,8.824011157918706,3.345371740863031,-0.3388888888888889,-0.24888888888888888,-0.48444444444444446,0.18935930642704077,0.009447242889829833,0.06776005341514277
1592173808.9548118,-0.07530832622904232,9.120954816709292,3.1585564080704747,-0.33601086167156075,-0.25522054876701084,-0.47753717912285687,0.2877685380220602,-0.01291854869580557,-0.04193545346645867
1592173808.9648118,0.07336475761076126,9.29168237880538,3.1156191079479822,-0.3333333333333333,-0.2611111111111111,-0.4711111111111111,0.29527232926749547,-0.01924369063848873,-0.07825939596606508
1592173808.9748118,0.21517546245919478,9.24096436343852,3.069298150163221,-0.3333333333333333,-0.2611111111111111,-0.4711111111111111,0.2795492759031801,0.02928031963288637,-0.011415294873902318
1592173808.9848118,0.20250656389256896,9.071688546308563,3.0616622907382873,-0.3333333333333333,-0.2611111111111111,-0.4711111111111111,0.28161280563633695,0.07362391772244356,0.03235653981668339
1592173808.9948118,0.1365322389708784,9.136935522058243,2.9727858890379606,-0.3333333333333333,-0.2611111111111111,-0.4711111111111111,0.3054766104595834,0.09097800766528112,0.03720980394564858
1592173809.0048118,0.06170991312352569,9.295725217191185,2.860854956561763,-0.33688973911486997,-0.2692400386117664,-0.4731433429862749,0.3204852491900537,0.09091200012131313,0.027737076030045518
1592173809.0148118,-0.0862865671641791,9.344259701492538,2.895922388059702,-0.3411111111111111,-0.2788888888888889,-0.47555555555555556,0.28378011649814666,0.07991393750456126,0.013050243612206852
1592173809.0248117,-0.18384591774094536,9.33670349907919,2.92560466543892,-0.3411111111111111,-0.2788888888888889,-0.47555555555555556,0.2581793563625774,0.07493769756335192,0.006754746967917357
1592173809.0348117,-0.2263091037402964,9.276214537755822,2.793422724064926,-0.3411111111111111,-0.2788888888888889,-0.47555555555555556,0.19397172989595696,0.055603116858811946,0.01469180474085276
1592173809.0448117,-0.15152038808470844,9.31748543708235,2.792982524498821,-0.3411111111111111,-0.2788888888888889,-0.47555555555555556,0.17398433267241384,0.045923340515946626,0.022639504440457772
1592173809.0548117,-0.15389650524377815,9.262922378932833,2.773538810533583,-0.33860392397526234,-0.28139607602473765,-0.48959580351630855,0.1551885293878237,0.04226263686761806,0.025726672177029297
1592173809.0648117,-0.10838466803559206,9.237538215833904,2.7797695642254165,-0.33555555555555555,-0.28444444444444444,-0.5066666666666667,0.1373944053072926,0.03880002714834531,0.017780566642458202
1592173809.0748117,-0.10156126781922961,9.39156126781923,2.5741264786169245,-0.33555555555555555,-0.28444444444444444,-0.5066666666666667,0.089237286458872,0.019724202372342462,-0.007866918086384435
1592173809.0848117,-0.12113118456169164,9.415565592280846,2.6065161157873127,-0.33555555555555555,-0.28444444444444444,-0.5066666666666667,0.06293742023066855,0.0040029973798242965,-0.011905306109438839
1592173809.0948117,-0.09579088037579979,9.338954401878999,2.71486595934235,-0.33555555555555555,-0.28444444444444444,-0.5066666666666667,0.04046163218583537,0.0033441424458618167,0.01605978203704732
1592173809.1048117,-0.04855448367916516,9.200809064433928,2.750809064433928,-0.3362363655974868,-0.2847848494654101,-0.5087090967924605,0.03372749901843497,0.006456729456023571,0.04027248371341371
1592173809.1148117,0.008891063730630316,9.22445531865315,2.689990213212164,-0.3377777777777778,-0.28555555555555556,-0.5133333333333333,0.03648234812270851,0.016485563065179107,0.03526841601247979
1592173809.1248116,0.024363417279190263,9.354178093746233,2.622546330883239,-0.3377777777777778,-0.28555555555555556,-0.5133333333333333,0.029472646788851226,0.03189163864193615,0.011424714136360158
1592173809.1348116,-0.051586243606656035,9.394177833321761,2.604294012821403,-0.3377777777777778,-0.28555555555555556,-0.5133333333333333,0.00558282998687383,0.049106395038516076,-0.009041027887281429
1592173809.1448116,-0.2040501764014112,9.289503724029792,2.6743810270482165,-0.3377777777777778,-0.28555555555555556,-0.5133333333333333,-0.02713573061254375,0.059589977534979466,-0.021627441389569874
1592173809.1548116,-0.27529601375308904,9.232940797249382,2.8235263779950572,-0.3338567147786015,-0.281307737306448,-0.5133333333333333,-0.054862330341293494,0.0529375830424693,-0.03837211470324269
1592173809.1648116,-0.24,9.24,2.88,-0.3244444444444444,-0.27111111111111114,-0.5133333333333333,-0.05563236990731925,0.04908738521234052,-0.028361600344907853
1592173809.1748116,-0.26636859237303834,9.31,2.8710032550877287,-0.3244444444444444,-0.27111111111111114,-0.5133333333333333,-0.03095128060097984,0.034717442655285626,-0.011413871100531828
1592173809.1848116,-0.17179240185137326,9.301599276366797,2.7794025327162086,-0.3244444444444444,-0.27111111111111114,-0.5133333333333333,-0.018653403721032538,0.018783750861971312,0.005672714749667859
1592173809.1948116,-0.008446317171938271,9.263556747291233,2.82,-0.3244444444444444,-0.27111111111111114,-0.5133333333333333,-0.0214045425921569,0.0015519237723353313,0.012411211665233235
1592173809.2048116,0.09347616099071207,9.249291640866874,2.845107120743034,-0.3225846577227382,-0.2748306845545236,-0.5133333333333333,-0.0230080865479624,-0.029321261258697925,0.0025913816595206814
1592173809.2148116,0.14201917478554518,9.28857470015138,2.88095019989908,-0.32,-0.28,-0.5133333333333333,-0.025946724637540587,-0.046125845054683624,-0.012115745678648192
1592173809.2248116,0.31,9.20380356776707,2.9177455402911625,-0.32,-0.28,-0.5133333333333333,0.012813850751246816,-0.063698187882098,-0.01582459515466883
1592173809.2348115,0.32353230940818367,9.26804307921091,2.8825538490136395,-0.32,-0.28,-0.5133333333333333,0.053047270519871334,-0.046947342350901734,-0.020921129172117005
1592173809.2448115,0.26842521951921694,9.248561969195336,2.9439038433856344,-0.32,-0.28,-0.5133333333333333,0.07433335803654956,-0.031731289216704886,-0.037499172782768264
1592173809.2548115,0.15934677808131126,9.17065322191869,2.984422036531148,-0.31549969944233164,-0.28173088482987246,-0.5133333333333333,0.09030876972744878,-0.006577822388468638,-0.02968261634716138
1592173809.2648115,0.2279552011631341,9.201644062791068,2.924177968604466,-0.3055555555555556,-0.28555555555555556,-0.5133333333333333,0.12276441922445269,0.028720279205078546,-0.01090830782496456
1592173809.2748115,0.3168775951242017,9.300316392686302,2.8112240487579827,-0.3055555555555556,-0.28555555555555556,-0.5133333333333333,0.15517407581975726,0.05399838840666549,-0.012783880942721256
1592173809.2848115,0.3158320871608631,9.33770989104892,2.68,-0.3055555555555556,-0.28555555555555556,-0.5133333333333333,0.16114653693416348,0.07201813501546672,-0.026408078779074102
1592173809.2948115,0.2929091483397165,9.36127255498085,2.697454890038299,-0.3055555555555556,-0.28555555555555556,-0.5133333333333333,0.1324663606865336,0.0868500199560572,-0.04282002894646796
1592173809.3048115,0.29802762955445705,9.326193406881199,2.745917111336629,-0.30840453508800647,-0.2870896214576445,-0.5161823128657842,0.11665861539010391,0.0951023607325859,-0.030003292280734926
1592173809.3148115,0.23147012239020875,9.303445644348452,2.707289416846652,-0.32,-0.29333333333333333,-0.5277777777777778,0.14876560160535215,0.10354874159929947,0.011481288486526412
1592173809.3248115,0.13040444759457784,9.381352883848676,2.58472800567024,-0.32,-0.29333333333333333,-0.5277777777777778,0.17292634900444492,0.10457217838493203,0.023762463702979852
1592173809.3348114,0.07952518900586449,9.426587531500978,2.5334124684990225,-0.32,-0.29333333333333333,-0.5277777777777778,0.1699624266901388,0.09070402213620087,0.02360013772420516
1592173809.3448114,0.06777545868368219,9.395002087184686,2.5455550917367367,-0.32,-0.29333333333333333,-0.5277777777777778,0.14029399616415503,0.07084367742344591,0.022240701133938615
1592173809.3548114,0.16661910336317906,9.326450786218244,2.5617746068908787,-0.31546489350108803,-0.2939248689636262,-0.5293552061252255,0.10779866788480907,0.06256451376697812,0.02598635919757487
1592173809.3648114,0.2938083068618787,9.351891375480665,2.57,-0.29444444444444445,-0.2966666666666667,-0.5366666666666666,0.11520985339291223,0.06685154717976877,0.02384284249117955
1592173809.3748114,0.33488711433756807,9.447134422262552,2.5389892316999396,-0.29444444444444445,-0.2966666666666667,-0.5366666666666666,0.12237537596259968,0.07428675092732677,0.026045053231250528
1592173809.3848114,0.49748187495513607,9.430287847247147,2.5138848611011415,-0.29444444444444445,-0.2966666666666667,-0.5366666666666666,0.09759144361976123,0.08310455935221157,0.048357528509759974
1592173809.3948114,0.7033807100544667,9.336663022303503,2.5700218661789846,-0.29444444444444445,-0.2966666666666667,-0.5366666666666666,0.07089923040204324,0.09600145716508432,0.06689872245618515
1592173809.4048114,0.7772138910812945,9.340228887134964,2.5844277821625887,-0.29444444444444445,-0.2983714811891608,-0.5346777163904235,0.0713826921922365,0.11098579019070097,0.055328452570128056
1592173809.4148114,0.74,9.37,2.51,-0.29444444444444445,-0.30333333333333334,-0.5288888888888889,0.09817477042468103,0.11017390903214205,0.05126904677733343
1592173809.4248114,0.6977895205250862,9.420931138057625,2.465117365669151,-0.29444444444444445,-0.30333333333333334,-0.5288888888888889,0.09893613123560357,0.10781470987289034,0.09332919548363271
1592173809.4348114,0.79,9.334484190655969,2.387757904672015,-0.29444444444444445,-0.30333333333333334,-0.5288888888888889,0.055135730455967924,0.10514288318085513,0.10709948046170105
1592173809.4448113,0.7368803481853055,9.330657642372381,2.397048908232517,-0.29444444444444445,-0.30333333333333334,-0.5288888888888889,0.012534455203843255,0.11192695521184673,0.07712526084214191
1592173809.4548113,0.5868856652172324,9.38,2.388640333248073,-0.29353799994315943,-0.30136937024721583,-0.5319103705598389,-0.019084775501576737,0.1306892365410195,0.025299565355973726
1592173809.4648113,0.44,9.38,2.38,-0.2877777777777778,-0.28888888888888886,-0.5511111111111111,-0.02945243112740431,0.15707963267948966,-0.001090830782496456
1592173809.4748113,0.2456080987380391,9.45,2.358783802523922,-0.2877777777777778,-0.28888888888888886,-0.5511111111111111,-0.05049513327251415,0.18775556115384048,0.011306307518314743
1592173809.4848113,0.22958627409044463,9.45,2.3528102944321665,-0.2877777777777778,-0.28888888888888886,-0.5511111111111111,-0.08500389794610469,0.18426014125036919,0.019896379156618838
1592173809.4948113,0.18,9.45,2.39,-0.2877777777777778,-0.28888888888888886,-0.5511111111111111,-0.10799224746714915,0.17344209441693648,0.01854412330243975
1592173809.5048113,0.12749148485685352,9.387514191905245,2.5799886464758046,-0.28639046576724936,-0.29166351290994574,-0.5511111111111111,-0.15979494410073286,0.10010137259654672,0.00027239807628206327
1592173809.5148113,0.15,9.35,2.61,-0.2822222222222222,-0.3,-0.5511111111111111,-0.1908953869368798,0.053450708342326333,0.001090830782496456
1592173809.5248113,0.21512860316355753,9.3,2.6551286031635573,-0.2822222222222222,-0.3,-0.5511111111111111,-0.2189492085137798,0.0014819334552562064,-0.006069711448497998
1592173809.5348113,0.29122646041506534,9.279591179861646,2.727824990392006,-0.2822222222222222,-0.3,-0.5511111111111111,-0.2030202938897478,-0.023783318151230616,-0.01306767171038636
1592173809.5448112,0.41,9.24,2.84,-0.2822222222222222,-0.3,-0.5511111111111111,-0.17998707911191522,-0.038179077387375956,-0.01090830782496456
1592173809.5548112,0.16263178887190055,9.278070198763544,2.9396490061822775,-0.2798635762665544,-0.2976413540443322,-0.5528264899879605,-0.1585914807805512,-0.043307860182324395,-0.03060062062484823
1592173809.5648112,0.09,9.27,2.98,-0.27,-0.2877777777777778,-0.56,-0.16035212502697901,-0.05563236990731925,-0.04908738521234052
1592173809.5748112,-0.0034077711038556432,9.217106148593077,2.9810614859307627,-0.27,-0.2877777777777778,-0.56,-0.15495770132482858,-0.09733987965131703,-0.07704555515619499
1592173809.5848112,-0.10022228154044019,9.2262961974326,2.9034815210269604,-0.27,-0.2877777777777778,-0.56,-0.12177720489841905,-0.12631814637756528,-0.09158129142036373
1592173809.5948112,-0.08,9.26,2.89,-0.27,-0.2877777777777778,-0.56,-0.0916297857297023,-0.1461713248545251,-0.09599310885968812
1592173809.6048112,-0.089748243393167,9.304237760646318,2.8157622393536825,-0.27016006220426897,-0.2892183376161984,-0.56,-0.06093853724677148,-0.1698827830519347,-0.05700086557878047
1592173809.6148112,0.11957987387142144,9.26193276167143,2.8311764439000044,-0.27111111111111114,-0.29777777777777775,-0.56,-0.07094067368155324,-0.193489555855083,-0.027738261399054994
1592173809.6248112,0.13744365743721831,9.27475352364599,2.7684154921180033,-0.27111111111111114,-0.29777777777777775,-0.56,-0.08391407849355104,-0.20792310170358896,-0.02100463858324148
1592173809.6348112,-0.042974299606390376,9.396756425098403,2.745764991896272,-0.27111111111111114,-0.29777777777777775,-0.56,-0.09242554413359477,-0.2127213475136328,-0.04658127789064583
1592173809.6448112,0.05560747663551402,9.367663551401868,2.861682242990654,-0.27111111111111114,-0.29777777777777775,-0.56,-0.1203685892423893,-0.2481589056778386,-0.0548881582519712
1592173809.6548111,0.08150289876616619,9.121965214806005,3.146531886427828,-0.27111111111111114,-0.29594090150801905,-0.56,-0.16569909309923087,-0.2549265214567487,-0.043954788820549553
1592173809.6648111,0.09,9.02,3.24,-0.27111111111111114,-0.28555555555555556,-0.56,-0.1712604328519436,-0.2530727415391778,-0.0272707695624114
1592173809.6748111,0.22347591613395418,9.05082103490911,3.177694209875569,-0.27111111111111114,-0.28555555555555556,-0.56,-0.0751348620741747,-0.249638287522354,-0.04513754643625971
1592173809.684811,0.07271774846421258,9.220162626791751,2.938478498976142,-0.27111111111111114,-0.28555555555555556,-0.56,0.01931444234971057,-0.23950260193454315,-0.082938619131831
1592173809.694811,-0.0018954381532568648,9.274906990485116,2.897732523787209,-0.27111111111111114,-0.28555555555555556,-0.56,0.06703536430258202,-0.2388310667815838,-0.10130522207351034
1592173809.704811,-0.13181267762263685,9.286970221178796,2.8554553317681948,-0.27111111111111114,-0.28555555555555556,-0.5588217526806432,0.07526732399225547,-0.2538321312127951,-0.12865117800761797
1592173809.714811,-0.31,9.27,2.83,-0.27111111111111114,-0.28555555555555556,-0.5522222222222222,0.07526732399225547,-0.2825251726665821,-0.15271630954950383
1592173809.724811,-0.31864285714285717,9.380678571428572,2.6265071428571427,-0.27111111111111114,-0.28555555555555556,-0.5522222222222222,0.08835729338221293,-0.35284557906021613,-0.15335210806273034
1592173809.734811,-0.18871910057792238,9.417301005293575,2.5507959788257004,-0.27111111111111114,-0.28555555555555556,-0.5522222222222222,0.08099692711330413,-0.399885792326575,-0.12784975412929225
1592173809.744811,-0.05,9.41,2.58,-0.27111111111111114,-0.28555555555555556,-0.5522222222222222,0.061086523819801536,-0.4134248665661568,-0.09599310885968812
1592173809.754811,0.20658203308214254,9.31,2.721974609924643,-0.27081857630746037,-0.2873107643774602,-0.551783420016746,0.014208496448223511,-0.38323804071757644,-0.06806230157262493
1592173809.764811,0.3,9.31,2.75,-0.26666666666666666,-0.31222222222222223,-0.5455555555555556,-0.016362461737446838,-0.3108867730114899,-0.074176493209759
1592173809.774811,0.5108508662545436,9.278376270197128,2.816494919211483,-0.26666666666666666,-0.31222222222222223,-0.5455555555555556,-0.03254780202975085,-0.20428597077956576,-0.08074958001637723
1592173809.784811,0.67,9.27,2.85,-0.26666666666666666,-0.31222222222222223,-0.5455555555555556,-0.031634092692397225,-0.11017390903214205,-0.07526732399225547
1592173809.794811,0.5132651739252478,9.168804655280375,3.233148791915877,-0.26666666666666666,-0.31222222222222223,-0.5455555555555556,-0.008395861652855281,0.03241335848038106,-0.04164235265409365
1592173809.804811,0.38377136752136753,9.16,3.3280535523504273,-0.26666666666666666,-0.31174642390788226,-0.5447337221035138,0.028005929490812622,0.1280226422784591,-0.009889150218882134
1592173809.814811,0.23,9.16,3.28,-0.26666666666666666,-0.3,-0.5244444444444445,0.07308566242726255,0.16471544815696484,0.015271630954950384
1592173809.824811,0.029673547767642826,9.22192030724916,3.0993470955352858,-0.26666666666666666,-0.3,-0.5244444444444445,0.11046245812535162,0.1614864214623546,0.03809214608161771
1592173809.834811,-0.14,9.23,2.76,-0.26666666666666666,-0.3,-0.5244444444444445,0.12544553998709243,0.15707963267948966,0.04690572364734761
1592173809.844811,-0.15,9.264091908962213,2.738977022759447,-0.26666666666666666,-0.3,-0.5244444444444445,0.129387569372855,0.14307188295720896,0.08524651910368694
1592173809.854811,-0.14581675726563212,9.30198153603207,2.728458805308391,-0.2664954228120434,-0.29985321955318006,-0.5250315662317242,0.13533506771290743,0.12479708383697041,0.10595468726885
1592173809.864811,0.04,9.39,2.66,-0.2588888888888889,-0.29333333333333333,-0.5511111111111111,0.13853550937704992,0.09599310885968812,0.11235557059713495
1592173809.874811,0.043843335847430234,9.371258485077039,2.602449089537765,-0.2588888888888889,-0.29333333333333333,-0.5511111111111111,0.1162848415689741,0.049736759210109394,0.045647994932392896
1592173809.884811,0.14,9.38,2.55,-0.2588888888888889,-0.29333333333333333,-0.5511111111111111,0.09053895494720585,0.016362461737446838,0.014180800172453926
1592173809.894811,0.12568839993528555,9.238577900016178,2.7535099498463036,-0.2588888888888889,-0.29333333333333333,-0.5511111111111111,0.050958792689705414,0.0015562119139384807,-0.0038930005227454005
1592173809.904811,0.19354635172302218,9.221613412069246,2.9146725853421778,-0.2588888888888889,-0.29333333333333333,-0.5511111111111111,0.04725771555734424,0.007107827612480245,-0.01129515478746775
1592173809.914811,0.20273672165538284,9.278158195861543,2.8127627062076854,-0.2588888888888889,-0.2877777777777778,-0.5366666666666666,0.10867558996982964,-0.0017826767100333639,-0.0061516687899234555
1592173809.924811,0.19011539308522352,9.363352565514203,2.6547980621008587,-0.2588888888888889,-0.2877777777777778,-0.5366666666666666,0.1474513034366555,-0.012194580123567405,0.007099840660935643
1592173809.9348109,0.27100850175635083,9.382110166471517,2.4778898335284834,-0.2588888888888889,-0.2877777777777778,-0.5366666666666666,0.15081475542568143,-0.02422846066925425,0.014581080591953722
1592173809.9448109,0.10597348013970284,9.39731565342647,2.464026519860297,-0.2588888888888889,-0.2877777777777778,-0.5366666666666666,0.11988202102782816,-0.02647275556724464,0.005212844812015267
1592173809.9548109,0.08114485289764992,9.380763235265102,2.4888551471023503,-0.2588888888888889,-0.2877777777777778,-0.5366666666666666,0.08557583524299704,-0.02827834429276207,-0.016454219894193864
1592173809.9648108,0.04,9.35,2.49,-0.27111111111111114,-0.2877777777777778,-0.5488888888888889,0.053450708342326333,-0.04581489286485115,-0.02945243112740431
1592173809.9748108,0.15724095119854836,9.351810237799636,2.5072846433005442,-0.27111111111111114,-0.2877777777777778,-0.5488888888888889,0.03907244185832413,-0.05305100965024886,-0.032329990851797115
1592173809.9848108,0.24011002862319794,9.37202200572464,2.484044011449279,-0.27111111111111114,-0.2877777777777778,-0.5488888888888889,0.03609569686581009,-0.060767676167692394,-0.02814103373622576
1592173809.9948108,0.33,9.39,2.52,-0.27111111111111114,-0.2877777777777778,-0.5488888888888889,0.0272707695624114,-0.06763150851478027,-0.02617993877991494
1592173810.0048108,0.5189327791708171,9.323873527290214,2.5483399168756224,-0.27111111111111114,-0.2877777777777778,-0.5488888888888889,0.013874679625172779,-0.06866197697149093,-0.025149470323204276
1592173810.0148108,0.52,9.31,2.64,-0.24444444444444444,-0.29333333333333333,-0.5277777777777778,0.009817477042468103,-0.062177354602297986,-0.02617993877991494
1592173810.0248108,0.5495285833631699,9.349371444484227,2.66952858336317,-0.24444444444444444,-0.29333333333333333,-0.5277777777777778,0.019480683351285617,-0.037482494035319905,-0.025106249190046327
1592173810.0348108,0.52,9.36,2.6,-0.24444444444444444,-0.29333333333333333,-0.5277777777777778,0.030543261909900768,-0.009817477042468103,-0.02399827721492203
1592173810.0448108,0.1688724855024747,9.384926184761136,2.846469826029696,-0.24444444444444444,-0.29333333333333333,-0.5277777777777778,0.017068210276505763,0.03283473181183636,-0.013028473013876888
1592173810.0548108,0.15105359304968455,9.30474116872358,2.6326431165962147,-0.24444444444444444,-0.29333333333333333,-0.5277777777777778,-0.006256665400490909,0.08628757190495374,-0.012056603194002027
1592173810.0648108,0.08,9.31,2.6,-0.2588888888888889,-0.29333333333333333,-0.5133333333333333,-0.011999138607461015,0.11017390903214205,0.020725784867432664
1592173810.0748107,0.08309526922775178,9.390562776223229,2.5877488951070893,-0.2588888888888889,-0.29333333333333333,-0.5133333333333333,-0.013458305566729726,0.11948375423866976,0.04034422201879149
1592173810.0848107,0.20990575342465753,9.405809315068494,2.51,-0.2588888888888889,-0.29333333333333333,-0.5133333333333333,-0.027437054013748664,0.1406548889872285,0.08110604805567374
1592173810.0948107,0.3804333925399645,9.370216696269981,2.5117335701598575,-0.2588888888888889,-0.29333333333333333,-0.5133333333333333,-0.03893549006497208,0.14979838564463765,0.11223738111626055
1592173810.1048107,0.3969887507400829,9.378494375370042,2.5779550029603313,-0.2588888888888889,-0.29333333333333333,-0.5133333333333333,-0.06783004100888294,0.16334270639959586,0.10772260753127448
1592173810.1148107,0.4109011838062534,9.264945102114584,2.8711207753479124,-0.24444444444444444,-0.30666666666666664,-0.5277777777777778,-0.10757507813120797,0.18260986373417107,0.09291722431950845
1592173810.1248107,0.3230134730538922,9.217850299401197,2.967312874251497,-0.24444444444444444,-0.30666666666666664,-0.5277777777777778,-0.12279488650483457,0.18682518375518456,0.07497420404396488
1592173810.1348107,0.19331741052331386,9.18,2.92286396691858,-0.24444444444444444,-0.30666666666666664,-0.5277777777777778,-0.11026762435318214,0.1916738073918924,0.06970903330394523
1592173810.1448107,0.1315815848441638,9.189489509064982,2.9413012833570993,-0.24444444444444444,-0.30666666666666664,-0.5277777777777778,-0.06532754235359953,0.18767858051200065,0.06967122208550576
1592173810.1548107,0.14866979018129964,9.292018741087798,2.847316154002852,-0.24444444444444444,-0.30666666666666664,-0.5277777777777778,-0.016862657315242627,0.17649437627237985,0.07992340930515819
1592173810.1648107,0.21291865597693901,9.340729663994235,2.747081344023061,-0.24,-0.3,-0.52,0.017930856487417646,0.15915821510829314,0.0783806283505867
1592173810.1748106,0.25579419836364103,9.349800200056427,2.707602400677114,-0.24,-0.3,-0.52,0.023758534493251503,0.14394607370377388,0.07644533394626847
1592173810.1848106,0.54,9.34,2.59,-0.24,-0.3,-0.52,0.011999138607461015,0.14180800172453928,0.08072147790473774
1592173810.1948106,0.6115797647241527,9.295262647047403,2.670527235314672,-0.24,-0.3,-0.52,-0.006545196449216906,0.15547224860840722,0.08072147790473774
1592173810.2048106,0.62,9.298721323137116,2.7933772007825004,-0.24,-0.3,-0.52,-0.02204552909886133,0.17325256184099858,0.0740620364852929
1592173810.2148106,0.58,9.25,2.86,-0.23222222222222222,-0.29333333333333333,-0.5422222222222223,-0.01308996938995747,0.20398535632683729,0.04908738521234052
1592173810.2248106,0.40901410652182413,9.25,2.8330022273455513,-0.23222222222222222,-0.29333333333333333,-0.5422222222222223,-0.01308996938995747,0.20398535632683729,0.04908738521234052
1592173810.2348106,0.3419133556375003,9.269234657744999,2.7338267112750008,-0.23222222222222222,-0.29333333333333333,-0.5422222222222223,0.005793611693169288,0.21972167389610958,0.042792858184631605
1592173810.2448106,0.22111572999697307,9.330743819997982,2.720743819997982,-0.23222222222222222,-0.29333333333333333,-0.5422222222222223,0.03336949429465074,0.20648703601141313,0.04678401638478232
1592173810.2548106,0.24650751690041367,9.347671677933608,2.7376716779336094,-0.23222222222222222,-0.29333333333333333,-0.5422222222222223,0.02321350860980083,0.18894487891939965,0.04401420210709597
1592173810.2648106,0.4,9.32,2.78,-0.24,-0.3,-0.5277777777777778,-0.001090830782496456,0.17235126363444003,0.04690572364734761
1592173810.2748106,0.5366168952962378,9.265353241881504,2.7617844139605014,-0.24,-0.3,-0.5277777777777778,-0.005064855177115959,0.1703642514371303,0.04889273584465736
1592173810.2848105,0.6442901455499881,9.26,2.6751388690050106,-0.24,-0.3,-0.5277777777777778,0.01408821880539738,0.18662633698976686,0.043944655549740606
1592173810.2948105,0.556219619187632,9.335024304649894,2.6981341142437105,-0.24,-0.3,-0.5277777777777778,0.027547454097074917,0.19785274720782753,0.031357408157733704
1592173810.3048105,0.4958966445855365,9.332270949226505,2.738645253867474,-0.24,-0.3,-0.5277777777777778,0.02414605709330478,0.20106052836531682,0.027170827308618306
1592173810.3148105,0.39086814834126316,9.33,2.75,-0.2444015729214191,-0.28019292185361405,-0.5343801371599065,0.013184669683399776,0.18559906684680133,0.017537470558558678
1592173810.3248105,0.3142179006027522,9.311054475150689,2.731054475150688,-0.24444444444444444,-0.28,-0.5344444444444445,0.006890060881103169,0.1503084181408898,0.011253384011088993
1592173810.3348105,0.22206169551708832,9.329541845440646,2.6518326182374117,-0.24444444444444444,-0.28,-0.5344444444444445,0.00014993072894499242,0.10145592400193722,0.007710780841947688
1592173810.3448105,0.22,9.33,2.716754557291667,-0.24444444444444444,-0.28,-0.5344444444444445,-0.002080512170447807,0.06290721292161341,0.004515047221803481
1592173810.3548105,0.28925170461111754,9.31461073230864,2.750778535382719,-0.24444444444444444,-0.28,-0.5344444444444445,-0.003860370256774218,0.04346008255609782,0.006881386167657783
1592173810.3648105,0.2902770192465866,9.280415528869879,2.779722980753413,-0.23239151176180292,-0.28,-0.5344444444444445,-0.007590488309247094,0.03387619048169426,0.002257206845373074
1592173810.3748105,0.33544379993433293,9.289088759986866,2.7436449600525337,-0.23222222222222222,-0.28,-0.5344444444444445,0.009218493108798274,0.03778147392474859,0.005155951315511759
1592173810.3848104,0.2560029644268775,9.308666007905138,2.62800395256917,-0.23222222222222222,-0.28,-0.5344444444444445,0.02923361823328694,0.05141402379338656,0.00545415391248228
1592173810.3948104,0.21319185855648828,9.337606106082633,2.656808141443512,-0.23222222222222222,-0.28,-0.5344444444444445,0.029539475566574113,0.05035230487317657,0.0014390085391756697
1592173810.4048104,0.20224640888423934,9.324492817768478,2.683260773347282,-0.23222222222222222,-0.28,-0.5344444444444445,0.018457218504252693,0.04002878895808163,-0.0014465259766923793
