time,acc_x,acc_y,acc_z,mag_x,mag_y,mag_z,gyr_x,gyr_y,gyr_z
1592264807.8646576,-0.27699181220124003,9.67150409389938,0.6562397652515499,-0.44555555555555554,-0.5577777777777778,-0.2788888888888889,-0.08776192868990619,0.005290082719961397,0.0037647059250520178
1592264807.8746576,-0.32,9.660133354417036,0.7201333544170356,-0.44555555555555554,-0.5577777777777778,-0.2788888888888889,-0.09141637648163324,-0.017419407692768972,0.03799493405055984
1592264807.8846576,-0.31689226721239583,9.67223066803099,0.7648618623008332,-0.4478000292354919,-0.5588136887069792,-0.2752632006366841,-0.02392971161976438,-0.07162569361502201,0.0978824896434625
1592264807.8946576,-0.2911804791232466,9.63,0.9044097604383767,-0.46,-0.5644444444444444,-0.25555555555555554,-0.02959175134115359,-0.033845488164394935,-0.022134824652986475
1592264807.9046576,-0.3504705576498115,9.634698037176655,0.9193960743533083,-0.46,-0.5644444444444444,-0.25555555555555554,0.1289746817192586,-0.07749427495695321,-0.024327667557797278
1592264807.9146576,-0.43,9.64,0.93,-0.46,-0.5644444444444444,-0.25555555555555554,0.17235126363444003,-0.2203478180642841,-0.01854412330243975
1592264807.9246576,-0.17362404219325306,9.575503831226989,0.9639245696089164,-0.46,-0.5644444444444444,-0.25555555555555554,0.0766583422009551,-0.11930551631482056,-0.059930128126107166
1592264807.9346576,-0.1842861077231774,9.67250068851556,0.6737482787110989,-0.4579761576897352,-0.5624206021341797,-0.25757939786582035,0.09453241618619138,0.0048692759999095225,-0.09112323201660454
1592264807.9446576,-0.24,9.77,0.43,-0.4533333333333333,-0.5577777777777778,-0.26222222222222225,0.1287180323345818,-0.06654067773228381,-0.07744898555724837
1592264807.9546576,-0.08980602406211781,9.823844819249695,0.27576722887454136,-0.4533333333333333,-0.5577777777777778,-0.26222222222222225,-0.01477326595994937,0.023245998310994404,-0.03360037420414373
1592264807.9646575,-0.06,9.8,0.24,-0.4533333333333333,-0.5577777777777778,-0.26222222222222225,-0.10581058590215622,0.07526732399225547,0.06654067773228381
1592264807.9746575,-0.1613625924484235,9.749865706500584,0.4794431685480732,-0.4533333333333333,-0.5577777777777778,-0.26222222222222225,0.09326085162491585,0.05285187663638833,0.022337913023098014
1592264807.9846575,-0.3524468817030232,9.67265935489093,0.7295750536241855,-0.45659584227069755,-0.5577777777777778,-0.258959713284858,0.03061279359804808,0.05618862341249775,0.07454807938063895
1592264807.9946575,-0.36,9.65,0.79,-0.4666666666666667,-0.5577777777777778,-0.24888888888888888,0.020725784867432664,-0.022907446432425576,0.09926560120717749
1592264808.0046575,-0.3751510602364421,9.625858510039407,0.8168680803152562,-0.4666666666666667,-0.5577777777777778,-0.24888888888888888,0.022621279903258747,0.06292654594475192,0.035711249293216216
1592264808.0146575,-0.34481265871304684,9.701815198121794,0.6352455560346892,-0.4666666666666667,-0.5577777777777778,-0.24888888888888888,0.08050441977433154,0.04626447967866144,0.05054605975159085
1592264808.0246575,-0.35,9.79,0.49,-0.4666666666666667,-0.5577777777777778,-0.24888888888888888,0.11671889372712078,0.03381575425739013,0.04036073895236887
1592264808.0346575,-0.21397414676440452,9.785961220146607,0.4162197525025617,-0.464017235490397,-0.5566738481209987,-0.2515383200651586,-0.06344968958451463,0.12212550058965267,-0.012913709982365632
1592264808.0446575,-0.23,9.81,0.28,-0.4533333333333333,-0.5522222222222222,-0.26222222222222225,-0.08617563181722002,0.016362461737446838,-0.12217304763960307
1592264808.0546575,-0.24841965541957578,9.91825824948897,0.014129124744484852,-0.4533333333333333,-0.5522222222222222,-0.26222222222222225,-0.1344289306713284,0.03970639685777411,-0.08333962815763235
1592264808.0646574,-0.15158959745204628,9.879205201273976,-0.0007947987260231316,-0.4533333333333333,-0.5522222222222222,-0.26222222222222225,-0.21668832751179257,0.03204551501631109,-0.009406054718554241
1592264808.0746574,-0.13,9.89,0.01,-0.4533333333333333,-0.5522222222222222,-0.26222222222222225,-0.27379852640661045,0.07090400086226964,0.02945243112740431
1592264808.0846574,-0.06627342277414347,9.878505377536312,0.21762057877813507,-0.44895442953764275,-0.5522222222222222,-0.26495903709452884,-0.43595144747756215,0.06801455110133824,-0.006551515891591968
1592264808.0946574,-0.2,9.82,0.46,-0.4266666666666667,-0.5522222222222222,-0.2788888888888889,-0.25634523388666713,0.30870511144649704,-0.18980455615438332
1592264808.1046574,-0.40091491757369285,9.749206628749604,0.5587204434564195,-0.4266666666666667,-0.5522222222222222,-0.2788888888888889,-0.37341656827801745,0.13258234533815202,-0.10521177375045752
1592264808.1146574,-0.45,9.595686798503476,0.8915660074826297,-0.4266666666666667,-0.5522222222222222,-0.2788888888888889,-0.3022706090782329,0.08522414286102856,-0.03939875563269001
1592264808.1246574,-0.45,9.55,1.12,-0.4266666666666667,-0.5522222222222222,-0.2788888888888889,-0.22689280275926282,0.05781403147231216,0.00545415391248228
1592264808.1346574,-0.3446664122402248,9.593999236720675,1.1923332061201124,-0.4310738337824346,-0.5522222222222222,-0.2750002120220349,-0.3022707501556482,-0.006761652156026934,-0.06315797828495648
1592264808.1446574,-0.36,9.64,1.2,-0.44555555555555554,-0.5522222222222222,-0.26222222222222225,-0.20943951023931953,-0.09708393964218458,-0.1308996938995747
1592264808.1546574,-0.1775485409333485,9.623976382423074,1.0256614057000113,-0.44555555555555554,-0.5522222222222222,-0.26222222222222225,-0.15753543570885117,-0.16671243517935505,0.013006364214734917
1592264808.1646574,0.19,9.73,0.75,-0.44555555555555554,-0.5522222222222222,-0.26222222222222225,-0.20071286397934787,-0.016362461737446838,-0.06872233929727672
1592264808.1746573,0.08277893650418217,9.758368417657557,0.8972210634958179,-0.44555555555555554,-0.5522222222222222,-0.26222222222222225,-0.22156725368434113,0.05313378173916784,-0.2322378665569368
1592264808.1846573,0.021713876511775934,9.725972310630173,1.0438892425206874,-0.4444495721055237,-0.550895042082184,-0.26841572954240045,-0.22999344238958616,-0.050955545759957775,-0.1566251777163172
1592264808.1946573,0.27,9.75,1.14,-0.44,-0.5455555555555556,-0.29333333333333333,-0.18980455615438332,0.05563236990731925,-0.17235126363444003
1592264808.2046573,0.1707000383582662,9.728599923283468,1.1895714833689517,-0.44,-0.5455555555555556,-0.29333333333333333,-0.19767409119783808,0.04017376329958522,-0.14895602474212283
1592264808.2146573,0.2395172960888483,9.63,1.2951311329599269,-0.44,-0.5455555555555556,-0.29333333333333333,-0.15840969154989004,0.05302034427582638,-0.050829557272426086
1592264808.2246573,0.27,9.63,1.35,-0.44,-0.5455555555555556,-0.29333333333333333,-0.15707963267948966,0.025089107997418484,0.031634092692397225
1592264808.2346573,0.5924106804478898,9.836205340223945,1.3537946597760553,-0.44,-0.5465376973873098,-0.29333333333333333,-0.05833996036017627,0.07962087568370729,-0.259169705777373
1592264808.2446573,0.78,9.93,1.26,-0.44,-0.5522222222222222,-0.29333333333333333,-0.09926560120717749,0.25634523388666713,-0.26289021858164585
1592264808.2546573,0.8161274789002226,10.070637394501112,1.1362988660487754,-0.44,-0.5522222222222222,-0.29333333333333333,-0.15228044038632227,0.3336499087387284,-0.24819645174597893
1592264808.2646573,0.7104497632824829,10.14724546889197,1.1179637511357658,-0.44,-0.5522222222222222,-0.29333333333333333,-0.12185622105275919,0.3911149487645048,-0.4961774045118538
1592264808.2746572,0.47839390241745805,10.122189329230551,1.2443068597803597,-0.44,-0.5522222222222222,-0.29333333333333333,-0.11469628392087163,0.4481166111649119,-0.6436860749954649
1592264808.2846572,0.4126170363937791,10.016308518196888,1.3113183863582538,-0.43982421515223286,-0.552046437374455,-0.29309895353631044,-0.07392408735016344,0.4768879323536346,-0.7248250628921841
1592264808.2946572,0.14,9.88,1.36,-0.43333333333333335,-0.5455555555555556,-0.28444444444444444,-0.1854412330243975,0.36324665057131983,-0.6632251157578453
1592264808.3046572,-0.07437421871093555,9.786554827741387,1.2665548277413872,-0.43333333333333335,-0.5455555555555556,-0.28444444444444444,-0.13327558759699773,0.4387968956730712,-0.6500338031210315
1592264808.3146572,-0.25,9.71,1.19,-0.43333333333333335,-0.5455555555555556,-0.28444444444444444,-0.09053895494720585,0.5006913291658732,-0.6392268385429232
1592264808.3246572,-0.417748478299661,9.723546007891033,1.164521482245177,-0.43333333333333335,-0.5455555555555556,-0.28444444444444444,-0.019526534973715183,0.20317291588937111,-0.9558501785437603
1592264808.3346572,-0.5092235858595873,9.690282332414695,1.239364752066935,-0.43333333333333335,-0.5455555555555556,-0.28444444444444444,0.02038701028970154,0.15963086651109834,-0.9685499429457567
1592264808.3446572,-0.61,9.58,1.24,-0.41888888888888887,-0.5455555555555556,-0.31444444444444447,0.07963064712224129,0.17453292519943295,-0.9468411192069237
1592264808.3546572,-0.6379996690933157,9.646000716964481,1.1819992278844031,-0.41888888888888887,-0.5455555555555556,-0.31444444444444447,-0.004362450802258805,0.19918511732668376,-1.2147485758308842
1592264808.3646572,-0.59,9.75,1.07,-0.41888888888888887,-0.5455555555555556,-0.31444444444444447,0.12217304763960307,0.11453723216212788,-1.1301006906663285
1592264808.3746572,-0.49811423559926105,9.604824504114497,1.0787061260286244,-0.41888888888888887,-0.5455555555555556,-0.31444444444444447,-0.008946619917235724,0.12624208196263745,-1.0753151592929977
1592264808.3846571,-0.60768524565692,9.57351850124088,1.07087962531022,-0.41888888888888887,-0.5455555555555556,-0.31444444444444447,0.04910761782225265,0.09806870188317987,-1.0804375920347173
1592264808.3946571,-0.6752014403506941,9.709615123682289,1.117600720175347,-0.38666666666666666,-0.5788888888888889,-0.29333333333333333,-0.012090961488797349,0.21615439288181734,-1.217792880121639
1592264808.4046571,-0.66,9.55,1.11,-0.38666666666666666,-0.5788888888888889,-0.29333333333333333,0.03599741582238304,0.2650718801466388,-1.3297227238631797
1592264808.414657,-1.2194581829760136,9.700482912332838,1.0263839949055402,-0.38666666666666666,-0.5788888888888889,-0.29333333333333333,-0.0280982125259544,0.20723342017771157,-1.3438713965104647
1592264808.424657,-1.1734048648648647,9.488874594594595,1.2131902702702702,-0.38666666666666666,-0.5788888888888889,-0.29333333333333333,-0.06533592883779908,0.03847713952821485,-1.266887332961819
1592264808.434657,-1.150732972972973,9.14123891891892,1.2585340540540542,-0.38666666666666666,-0.5788888888888889,-0.29333333333333333,0.013803903396144887,0.17449872618030604,-1.2833747980105574
1592264808.444657,-1.54,9.29,1.22,-0.3411111111111111,-0.5844444444444444,-0.29777777777777775,0.042542400517361786,0.16580627893946132,-1.5195272800175632
1592264808.454657,-1.7461483316641189,9.377809287860417,1.370847609509251,-0.3411111111111111,-0.5844444444444444,-0.29777777777777775,-0.1030082128144682,0.03736188867403246,-1.2942844946603622
1592264808.464657,-1.679021796155864,9.326495206753469,1.09116826441551,-0.3411111111111111,-0.5844444444444444,-0.29777777777777775,-0.023802555108576266,0.020553838678843413,-1.4844517923146645
1592264808.474657,-1.65,9.0,1.2,-0.3411111111111111,-0.5844444444444444,-0.29777777777777775,-0.06654067773228381,0.031634092692397225,-1.4551682638502723
1592264808.484657,-2.1225123449355654,9.336210706973382,1.0818719137661086,-0.3411111111111111,-0.5844444444444444,-0.29777777777777775,0.0444752323217804,0.11588723871557097,-1.565192960421711
1592264808.494657,-2.24,8.92,1.12,-0.29444444444444445,-0.6377777777777778,-0.31444444444444447,-0.014180800172453926,0.12108221685710661,-1.2795445078683427
1592264808.504657,-2.537342625254524,9.082920932633572,0.9853147494909518,-0.29444444444444445,-0.6377777777777778,-0.31444444444444447,-0.06945700533576783,0.08879970724340955,-1.4215801296787305
1592264808.514657,-2.489354090758529,9.16944636350731,1.2224769318128046,-0.29444444444444445,-0.6377777777777778,-0.31444444444444447,-0.11347659756605835,-0.005293107584871958,-1.2123643678188794
1592264808.524657,-2.6379181513875394,9.236791923118453,1.2592149875823344,-0.29444444444444445,-0.6377777777777778,-0.31444444444444447,-0.07136195897503783,-0.037099436425021726,-1.167045589785807
1592264808.534657,-2.381275240254832,8.768796026347047,1.3799881222330201,-0.29444444444444445,-0.6377777777777778,-0.31444444444444447,0.06202788216271392,0.0485335480090905,-1.220566205057127
1592264808.544657,-3.25,9.29,1.26,-0.23555555555555555,-0.6377777777777778,-0.2788888888888889,-0.025089107997418484,0.24216443371421323,-1.5173456184525702
1592264808.554657,-3.4191069809610157,8.994582955575702,1.1680961015412512,-0.23555555555555555,-0.6377777777777778,-0.2788888888888889,-0.12167312473792403,0.06093916771228389,-1.5532841907286628
1592264808.564657,-3.34,8.81,1.59,-0.23555555555555555,-0.6377777777777778,-0.2788888888888889,-0.14180800172453928,-0.0272707695624114,-1.3548118318605984
1592264808.574657,-3.160386270197916,8.394345922172292,1.2067690983841668,-0.23555555555555555,-0.6377777777777778,-0.2788888888888889,0.00813956465803336,0.003339533749821208,-1.4023218667920017
1592264808.584657,-3.5614093125537813,8.33820269624247,1.1746872549956975,-0.23555555555555555,-0.6377777777777778,-0.2788888888888889,0.07813128931277871,-0.017657983646602395,-1.4408173153521118
1592264808.594657,-3.51,8.22,1.34,-0.20222222222222222,-0.6588888888888889,-0.2788888888888889,0.09053895494720585,0.1854412330243975,-1.3679018012505557
1592264808.604657,-4.207610106861081,8.629468690702087,1.4184070708079497,-0.20222222222222222,-0.6588888888888889,-0.2788888888888889,0.25630655967036975,0.048739861972935374,-1.1818623707002731
1592264808.614657,-3.811654260316543,8.337894774878947,1.4618045819180456,-0.20222222222222222,-0.6588888888888889,-0.2788888888888889,0.18136084634583755,0.05646895993867377,-1.455254350951124
1592264808.624657,-4.18,8.45,1.67,-0.20222222222222222,-0.6588888888888889,-0.2788888888888889,0.11235557059713495,0.09490227807719166,-1.36353847812057
1592264808.634657,-4.082686276754035,8.42567156918851,1.5078104612567242,-0.20222222222222222,-0.6588888888888889,-0.2788888888888889,-0.03448914281472042,0.12586351283270333,-1.313115895804451
1592264808.644657,-4.46,8.13,1.4,-0.13444444444444445,-0.6666666666666666,-0.29333333333333333,0.16144295580947549,0.11017390903214205,-1.3700834628155487
1592264808.654657,-4.656640986530855,8.284833897779272,1.124015408081487,-0.13444444444444445,-0.6666666666666666,-0.29333333333333333,0.09350735928436302,0.21017233329751228,-1.1782320443811012
1592264808.6646569,-4.938151445003937,8.083394745006323,1.0040973200009546,-0.13444444444444445,-0.6666666666666666,-0.29333333333333333,0.08296564298281502,0.15202405906223215,-1.2606300753307407
1592264808.6746569,-5.176634307697839,8.470618775392802,1.0780077661525187,-0.13444444444444445,-0.6666666666666666,-0.29333333333333333,0.08107802853371252,0.10158649440046878,-1.1990276416269383
1592264808.6846569,-4.988129831373818,8.19163215043325,1.1232488404702836,-0.13444444444444445,-0.6666666666666666,-0.29333333333333333,0.039952731451189175,0.06539623296784824,-1.1200670712284935
1592264808.6946568,-5.06,7.95,1.09,-0.09,-0.6944444444444444,-0.29333333333333333,0.001090830782496456,0.09272061651219875,-1.1759155835311794
1592264808.7046568,-5.296990278473008,8.081926390389125,0.9516402771557289,-0.09,-0.6944444444444444,-0.29333333333333333,-0.1377590500656847,0.07626619127647785,-1.2247510174968423
1592264808.7146568,-5.200381761608425,7.756740067017712,1.0769016275730015,-0.09,-0.6944444444444444,-0.29333333333333333,-0.11562218843705942,0.18783646557552783,-1.1061494095119255
1592264808.7246568,-5.63,8.06,0.9,-0.09,-0.6944444444444444,-0.29333333333333333,-0.13308135546456762,0.23561944901923448,-0.96647607329186
1592264808.7346568,-5.496640938373647,7.756237692962198,1.0926297556825086,-0.09,-0.6944444444444444,-0.29333333333333333,-0.09186424075962199,0.0974208879497109,-1.0561839111790947
1592264808.7446568,-5.71,7.7,1.02,-0.051111111111111114,-0.7022222222222222,-0.29777777777777775,-0.038179077387375956,-0.07526732399225547,-0.9512044423369095
1592264808.7546568,-5.56412806697934,7.408256133958681,1.4089918213884258,-0.051111111111111114,-0.7022222222222222,-0.29777777777777775,-0.038179077387375956,0.041421845557955556,-1.007427405847466
1592264808.7646568,-5.78,7.69,1.17,-0.051111111111111114,-0.7022222222222222,-0.29777777777777775,-0.0818123086872342,-0.0643590161672909,-1.119192382841364
1592264808.7746568,-6.199393183372902,7.719259989537644,1.5016132147599695,-0.051111111111111114,-0.7022222222222222,-0.29777777777777775,0.10543818204079451,-0.2430981209531365,-0.8957685018590568
1592264808.7846568,-6.1201681519097395,7.5730024303977554,1.175172202572665,-0.051111111111111114,-0.7022222222222222,-0.29777777777777775,0.029999172094995155,-0.1825879676665652,-0.7172968188970359
1592264808.7946568,-6.47,7.36,0.94,-0.006666666666666667,-0.6755555555555556,-0.29333333333333333,0.10362892433716332,-0.14398966328953217,-0.5857761302005968
1592264808.8046567,-6.140096354924954,7.210051883421129,0.9999203218889801,-0.006666666666666667,-0.6755555555555556,-0.29333333333333333,0.11015895150916953,0.26503873104167264,-0.7177015694448686
1592264808.8146567,-6.601747334472551,7.453843173120894,0.6342788033406339,-0.006666666666666667,-0.6755555555555556,-0.29333333333333333,0.03252006288629179,0.0739051047816701,-0.36268460322019985
1592264808.8246567,-6.08,7.13,1.21,-0.006666666666666667,-0.6755555555555556,-0.29333333333333333,0.05999569303730508,-0.03599741582238304,-0.32834006553143325
1592264808.8346567,-6.503021020507116,7.636238270442942,1.1614566042041012,-0.006666666666666667,-0.6755555555555556,-0.29333333333333333,0.05091809925083504,-0.11996515834723089,-0.13922352831330745
1592264808.8446567,-6.62,7.48,0.98,0.03333333333333333,-0.6888888888888889,-0.28555555555555556,0.01854412330243975,-0.1832595714594046,-0.23125612588924865
1592264808.8546567,-6.050005929000222,7.5991032387163715,1.3373097161491143,0.03333333333333333,-0.6888888888888889,-0.28555555555555556,-0.08353703883722156,-0.22594805744508115,-0.28415272808889136
1592264808.8646567,-5.962772819231227,7.474495537308105,0.9291386409615614,0.03333333333333333,-0.6888888888888889,-0.28555555555555556,-0.014556638954018099,0.02141307446577245,-0.4193461967038025
1592264808.8746567,-5.806938266247152,7.336296878955553,0.9366760695815703,0.03333333333333333,-0.6888888888888889,-0.28555555555555556,-0.02050312930573833,-0.11926929404745688,-0.21899296843936397
1592264808.8846567,-6.125481176087664,7.647255433799862,1.1338692994828397,0.03333333333333333,-0.6888888888888889,-0.28555555555555556,-0.04366822341240659,-0.22682151668555953,-0.2545679343888902
1592264808.8946567,-5.58,7.31,1.04,0.04555555555555556,-0.6977777777777778,-0.28555555555555556,0.14180800172453928,-0.014180800172453926,-0.33706671179140485
1592264808.9046566,-6.598175893111736,7.89997107825166,1.2398289136013687,0.04555555555555556,-0.6977777777777778,-0.28555555555555556,-0.07928552175307554,0.12594889780631602,-0.2727108504974513
1592264808.9146566,-6.4836356845073135,7.219912282815626,0.7681858929561173,0.04555555555555556,-0.6977777777777778,-0.28555555555555556,-0.028817232558152453,0.058477120526664844,-0.011256242283771777
1592264808.9246566,-6.39,7.66,1.33,0.04555555555555556,-0.6977777777777778,-0.28555555555555556,0.044724062082354694,-0.12435470920459597,-0.1287180323345818
1592264808.9346566,-6.297674617448477,7.641534923489695,1.5331158416133501,0.04555555555555556,-0.6977777777777778,-0.28555555555555556,0.004439514365169768,-0.11294075401806025,-0.04344907299987372
1592264808.9446566,-6.09,7.28,1.2,0.07222222222222222,-0.6977777777777778,-0.29444444444444445,0.053450708342326333,-0.1265363707695889,-0.014180800172453926
1592264808.9546566,-6.129395996586236,7.45334238497944,1.3891007836139344,0.07222222222222222,-0.6977777777777778,-0.29444444444444445,0.12135020628008551,-0.14028816782027428,-0.15943415652031848
1592264808.9646566,-6.009146601941747,7.3567997572815536,1.061706796116505,0.07222222222222222,-0.6977777777777778,-0.29444444444444445,0.19282403930387423,-0.12757766406679283,0.02763715102765863
1592264808.9746566,-5.97,7.21,1.14,0.07222222222222222,-0.6977777777777778,-0.29444444444444445,0.23125612588924865,-0.07526732399225547,-0.05563236990731925
1592264808.9846566,-6.0409847255808256,7.393377207750467,1.1518307875968041,0.07222222222222222,-0.6977777777777778,-0.29444444444444445,0.12091506454460309,-0.13398683616981538,-0.03369321151130785
1592264808.9946566,-5.950696541646371,7.659303458353628,1.2250082805650269,0.07222222222222222,-0.6936502679006332,-0.28618942469015535,0.05485449544771145,-0.1765590118725043,-0.08135281016765167
1592264809.0046566,-5.848826700309669,7.496770730588371,0.920010781052873,0.07222222222222222,-0.6933333333333334,-0.28555555555555556,-0.07962594300050461,-0.21251825782826161,-0.05236105359026405
1592264809.0146565,-6.013887087087087,7.388480480480481,1.1187987987987986,0.07222222222222222,-0.6933333333333334,-0.28555555555555556,-0.07674744705761041,-0.09518740093397392,-0.17787106393995905
1592264809.0246565,-6.1496021305497965,7.449621076714092,1.4499052691785228,0.07222222222222222,-0.6933333333333334,-0.28555555555555556,-0.11879308658415057,-0.11459819998683773,-0.2518630751661452
1592264809.0346565,-5.834737256023451,7.1497497676413815,1.3749374419103453,0.07222222222222222,-0.6933333333333334,-0.28555555555555556,-0.03374478435590504,-0.16284675605863086,-0.15781927943298907
1592264809.0446565,-6.37,7.36,1.41,0.07222222222222222,-0.7022222222222222,-0.27111111111111114,0.00545415391248228,-0.05999569303730508,-0.17235126363444003
1592264809.0546565,-6.148630581089954,7.228818122127381,1.221426050558109,0.07222222222222222,-0.7022222222222222,-0.27111111111111114,0.10830528832655481,-0.08146027761067673,-0.12137287527268234
1592264809.0646565,-6.073012504192018,7.235983327743976,1.4228874622718344,0.07222222222222222,-0.7022222222222222,-0.27111111111111114,0.11029254008068645,-0.08028787358325194,-0.03363305199055702
1592264809.0746565,-5.8904769717288445,7.32078536272202,1.189691609006824,0.07222222222222222,-0.7022222222222222,-0.27111111111111114,0.2783636909696368,0.0378669001208537,-0.17881506564046773
1592264809.0846565,-6.07584083130447,7.529200804488197,1.5052813944462087,0.07222222222222222,-0.7022222222222222,-0.27111111111111114,0.19711707911721266,0.0729984837207118,-0.08842667069724945
1592264809.0946565,-5.974244636639336,7.1927698528585875,1.2856355535587254,0.07698507785557095,-0.7022222222222222,-0.2787316801244691,0.14430095582104543,0.06341991088395108,0.014813840613080491
1592264809.1046565,-6.174802955665025,7.192247063281546,1.2380617658203865,0.07777777777777778,-0.7022222222222222,-0.28,0.010998934823472473,-0.08580155002178262,-0.0874256023690462
1592264809.1146564,-6.040448222565687,7.235455950540959,1.1159041731066461,0.07777777777777778,-0.7022222222222222,-0.28,0.13886343300486376,-0.12948768341991354,-0.016111250320766823
1592264809.1246564,-6.152125385894087,7.495442412728568,1.2585504630729043,0.07777777777777778,-0.7022222222222222,-0.28,0.11768507293694155,0.031222783949474447,0.013762704498516787
1592264809.1346564,-6.275906605718383,7.424093394281617,1.3197149771443937,0.07777777777777778,-0.7022222222222222,-0.28,0.15351177421262036,0.015904698026444918,-0.10999430374869255
1592264809.1446564,-6.249066652641913,7.37,1.3561866694716176,0.08317333426831691,-0.6959274063165932,-0.26741036818874203,0.08536549270446661,-0.11009684216819163,0.03117016164539041
1592264809.1546564,-6.249185389567731,7.350814610432269,1.5038904217579818,0.08444444444444445,-0.6944444444444444,-0.2644444444444444,-0.04865225681191228,-0.25559909473889725,-0.09825746775243042
1592264809.1646564,-6.211890699813666,7.664401726537255,1.7767651013043375,0.08444444444444445,-0.6944444444444444,-0.2644444444444444,0.0026698686102524932,-0.37814606063964196,-0.024747530303986798
1592264809.1746564,-5.933328237345627,7.4128686429543995,0.874121061557939,0.08444444444444445,-0.6944444444444444,-0.2644444444444444,0.05332620724401116,-0.1612633177659877,-0.11751058834204542
1592264809.1846564,-6.065851433536055,7.202671589921808,0.9715616854908774,0.08444444444444445,-0.6944444444444444,-0.2644444444444444,0.0752858046180232,-0.175803349755416,-0.07303946086284317
1592264809.1946564,-6.428311332904056,7.327116065679331,1.5976094655505473,0.08444444444444445,-0.7066002629319597,-0.28969114438005295,0.029843581412016484,-0.17271967364436883,0.02357604562823292
1592264809.2046564,-6.112858895065112,7.3504084135807295,1.5510618753098986,0.08444444444444445,-0.7088888888888889,-0.29444444444444445,-0.09399343746125749,-0.06085998264265424,0.0272885899666454
1592264809.2146564,-6.298650619094168,7.010428885630499,1.2557050342130986,0.08444444444444445,-0.7088888888888889,-0.29444444444444445,-0.010941629879659603,0.03219639125802426,0.048672503416684276
1592264809.2246563,-6.432675400880166,7.345136830391016,1.7323187819313066,0.08444444444444445,-0.7088888888888889,-0.29444444444444445,0.17987037583380405,-0.046827921461940154,0.13589989137280367
1592264809.2346563,-6.630943288787658,7.5263880634197555,1.8104582095129633,0.08444444444444445,-0.7088888888888889,-0.29444444444444445,0.09146225079930162,-0.10170303936559988,0.14547742626896568
1592264809.2446563,-5.954435861586857,6.866499825235932,1.4919010835372246,0.10127002990407395,-0.714497417375432,-0.28229263272360094,0.18111409299167103,-0.177234647298269,0.11405205838697
1592264809.2546563,-6.696906768717865,7.151500246519381,1.2192498767403093,0.10444444444444445,-0.7155555555555555,-0.28,0.21300516672099143,-0.05064514781054555,0.14151826940602727
1592264809.2646563,-6.0954260679079955,7.218945357186321,1.4673060727759524,0.10444444444444445,-0.7155555555555555,-0.28,0.19819023980248157,-0.08432659598042756,0.04176210537639091
1592264809.2746563,-5.964999042787403,7.283001340097636,1.1309921508567053,0.10444444444444445,-0.7155555555555555,-0.28,0.0284671124063334,-0.20736941684615562,0.02159828242831525
1592264809.2846563,-6.014574685236366,7.194494300836359,1.185505699163641,0.10444444444444445,-0.7155555555555555,-0.28,0.0953943627812377,-0.23076587371943866,0.05049165816787425
1592264809.2946563,-5.9398620406026845,7.614275993569373,1.4393793696489325,0.10444444444444445,-0.7155555555555555,-0.25167815289772894,0.04886919458586443,-0.21774486506536633,-0.08658191499870693
1592264809.3046563,-5.953979962606272,7.594055102832751,1.5319398878188168,0.10444444444444445,-0.7155555555555555,-0.24888888888888888,-0.039421409238440105,-0.2637229934419135,-0.0622101407111168
1592264809.3146563,-5.884397649363369,7.618481880509305,1.6399216454456416,0.10444444444444445,-0.7155555555555555,-0.24888888888888888,0.11177650077919858,-0.34977419595106485,0.0032212094115835616
1592264809.3246562,-5.967848095146007,7.1674453684006965,1.6144188744923613,0.10444444444444445,-0.7155555555555555,-0.24888888888888888,0.07339697426777098,-0.12018345751678056,0.0893841003506526
1592264809.3346562,-6.112761407435037,7.176380703717518,1.6631045629740147,0.10444444444444445,-0.7155555555555555,-0.24888888888888888,0.08608205066094468,-0.08909075264762893,-0.05351974139818745
1592264809.3446562,-6.189464182909779,7.304641829097787,1.850891109466239,0.09287710977693707,-0.7292260419807916,-0.26886883058731076,0.17244784060107854,-0.2008869537180957,0.04563766314112208
1592264809.3546562,-6.2876147163647165,7.440152955152955,1.5346176121176123,0.09222222222222222,-0.73,-0.27,0.23705389797775867,-0.058894130514484805,0.045694130413358555
1592264809.3646562,-6.280498994174047,7.535500431068265,1.4450014368942186,0.09222222222222222,-0.73,-0.27,0.28797964006075333,-0.03119863812812767,0.012544083776175836
1592264809.3746562,-6.560299056603774,7.599767452830189,1.229468396226415,0.09222222222222222,-0.73,-0.27,0.4002225724781715,-0.057125470268002375,0.013224059249353024
1592264809.3846562,-6.132663058757379,7.339927783244307,1.1209117585043575,0.09222222222222222,-0.73,-0.27,0.39421457594089504,-0.018888285474398324,-0.06666376803459603
1592264809.3946562,-6.171063205068768,7.340531602534384,1.0478936794931233,0.08597932656810728,-0.73,-0.2468121018561445,0.10205530274009883,-0.06108871525855481,0.06232670958194439
1592264809.4046562,-6.106318537859008,7.501911543634781,1.0922478044149062,0.08444444444444445,-0.73,-0.2411111111111111,0.08368507845931984,-0.10072133685148224,0.11863412641122387
1592264809.4146562,-5.73053748716193,7.596845829053977,1.2073656282095173,0.08444444444444445,-0.73,-0.2411111111111111,0.02004440463284518,-0.1360664824278971,-0.018879507398724266
1592264809.4246562,-5.810407263294422,7.449592736705577,1.1303450064850844,0.08444444444444445,-0.73,-0.2411111111111111,0.03205118337291597,-0.05476055417687267,-0.14801427709483622
1592264809.4346561,-5.87080508780805,7.395355929753559,1.1900932283009322,0.08444444444444445,-0.73,-0.2411111111111111,0.10370011174748306,-0.01986790956388952,-0.0705388401927225
1592264809.4446561,-6.151362380614097,7.535183913489621,1.1174863840871418,0.09533454363669851,-0.7399825909262329,-0.25290871856938635,0.1578449965460625,-0.01872691860998099,-0.0971300044040944
1592264809.4546561,-6.228100074682599,7.529274831964153,1.1307251680358477,0.09777777777777778,-0.7422222222222222,-0.25555555555555554,0.13528199862570106,-0.1140167453907037,0.033830010821014986
1592264809.464656,-6.2804968978816165,7.647732938348891,1.4315994075233358,0.09777777777777778,-0.7422222222222222,-0.25555555555555554,0.1443809441875631,-0.21192267301829967,0.06212482815217668
1592264809.474656,-6.082285714285715,7.4683186813186815,1.1025604395604396,0.09777777777777778,-0.7422222222222222,-0.25555555555555554,0.07603330297029419,-0.23340182599987355,0.21810382331171996
1592264809.484656,-6.017916959506947,7.506664323944424,1.1993701681353732,0.09777777777777778,-0.7422222222222222,-0.25555555555555554,0.20193650283462272,-0.20703139085928707,0.29316019780537655
1592264809.494656,-6.138117005736274,7.71235222859586,1.5577635657533757,0.08354255491819179,-0.7390588393645364,-0.24052948698154814,0.1269863914212626,-0.21028638388989132,0.35296053642565783
1592264809.504656,-6.098069086211926,7.689100795866494,1.5470373765573566,0.07777777777777778,-0.7377777777777778,-0.23444444444444446,0.09351409261412136,-0.18825787546490505,0.34079814486187715
1592264809.514656,-5.835067618647627,7.362620747585048,1.2725627887442252,0.07777777777777778,-0.7377777777777778,-0.23444444444444446,0.15816835601906318,-0.2908774271098985,0.305422081884393
1592264809.524656,-5.629212092694977,7.346578520174098,1.2865785201740971,0.07777777777777778,-0.7377777777777778,-0.23444444444444446,0.1626485798184184,-0.17678788197004427,0.2753202744851638
1592264809.534656,-5.509286726499764,7.271608408124705,0.8757203589985829,0.07777777777777778,-0.7377777777777778,-0.23444444444444446,0.12312810425526541,-0.020084528887830952,0.2547870514179523
1592264809.544656,-5.7590873936581595,7.524828835429641,1.3513306468026216,0.06203633600629571,-0.747397547749239,-0.22832277264442363,0.08459952853006676,-0.016486876922555113,0.22443740114566446
1592264809.554656,-5.693018235021232,7.518769938978696,1.4180865717446385,0.057777777777777775,-0.75,-0.22666666666666666,0.13212345788416321,0.03034695674499588,0.19383988655791892
1592264809.564656,-5.727656348704991,7.570644609391451,1.0949413034323014,0.057777777777777775,-0.75,-0.22666666666666666,0.017161318993221708,-0.050442482327804364,0.22911497712258438
1592264809.574656,-5.706716474281802,7.483717867006586,1.302564265986828,0.057777777777777775,-0.75,-0.22666666666666666,0.07361249947397495,-0.028768675949574343,0.12756808044459503
1592264809.584656,-5.82709370699362,7.654983110221444,1.3051382459652194,0.057777777777777775,-0.75,-0.22666666666666666,0.09783126722443787,-0.03137370170866105,0.11612823744954733
1592264809.594656,-6.069010089194326,7.787747477701418,1.3883616025734757,0.047743659729330146,-0.7543003363064776,-0.2281001121021592,0.11579928780864099,-0.13500231182207545,0.10859540240266753
1592264809.604656,-5.988603859250851,7.679693530079454,1.41422247446084,0.042222222222222223,-0.7566666666666667,-0.2288888888888889,0.13379701970098415,-0.24829586848711044,0.11850681614474266
1592264809.614656,-5.989332102362886,7.5674859352009465,1.129388361559101,0.042222222222222223,-0.7566666666666667,-0.2288888888888889,0.19879808002999128,-0.31942062537129795,0.22129907311265945
1592264809.624656,-6.1113940210732665,7.782457730948297,1.1081144327370744,0.042222222222222223,-0.7566666666666667,-0.2288888888888889,0.16484113025300257,-0.303840770620184,0.22896722558131588
1592264809.634656,-5.931063630426758,7.725869275107186,1.0624540730855505,0.042222222222222223,-0.7566666666666667,-0.2288888888888889,0.19190584332258537,-0.2506837171277436,0.2499095212039729
1592264809.644656,-5.867759990466354,8.022415984746166,1.3458167156590133,0.05161793914356082,-0.7566666666666667,-0.2194931719675503,0.21018286457608473,0.060151816947265166,0.4442832361844199
1592264809.654656,-5.926146671681083,8.238736367055283,1.4917784881534413,0.056666666666666664,-0.7566666666666667,-0.21444444444444444,0.11076272791973782,-0.0004611518926680158,0.4568947399052816
1592264809.664656,-5.314877903851051,7.758043349084632,1.1374389519255257,0.056666666666666664,-0.7566666666666667,-0.21444444444444444,0.11039200728372293,-0.17341079642272436,0.23135035939647713
1592264809.674656,-5.546841841722502,7.6414912134290285,0.9811988840935645,0.056666666666666664,-0.7566666666666667,-0.21444444444444444,0.2278655744339658,-0.13879384007954054,0.24404942592835957
1592264809.684656,-5.6319063024203215,7.69005511622334,0.9900551162233404,0.056666666666666664,-0.7566666666666667,-0.21444444444444444,0.22445209175610698,-0.13239890004510857,0.262228806027749
1592264809.694656,-5.3712223490007,7.720942986491957,1.2005005705031468,0.045444317665967335,-0.7566666666666667,-0.20633941461060604,0.10213808077959187,-0.042699868158016616,0.23971609696583698
1592264809.704656,-5.461152249979657,7.6464626902107575,1.2329432826104647,0.03666666666666667,-0.7566666666666667,-0.2,0.09310745356567093,-0.09777133435124573,0.25993195367089156
1592264809.7146559,-5.742457100552603,7.850329446603738,1.2688538113746333,0.03666666666666667,-0.7566666666666667,-0.2,0.06310721855162998,-0.3642476387296795,0.3081675554822399
1592264809.7246559,-5.492501303626452,7.5794851860630486,1.2832761317847832,0.03666666666666667,-0.7566666666666667,-0.2,0.13361684245997613,-0.32126866901536827,0.27259481183183193
1592264809.7346559,-5.384586965099178,7.4984350227770005,1.3563262670827505,0.03666666666666667,-0.7566666666666667,-0.2,0.14437138950331443,-0.25980972403356506,0.273978746880235
1592264809.7446558,-5.514483253950253,7.7344707794662435,1.34996257654797,0.027281024503750743,-0.7601245348319515,-0.18666250850533,0.12448241401042466,-0.20143827016085836,0.31041405493140606
1592264809.7546558,-5.636583278149756,8.087283741691806,0.9593996026782429,0.015555555555555555,-0.7644444444444445,-0.17,0.23291614277278289,-0.12345102092629501,0.3486767705649109
1592264809.7646558,-5.563528944231024,7.864899103634036,1.1976500198701814,0.015555555555555555,-0.7644444444444445,-0.17,0.18824246258317556,-0.25125603890203296,0.3436116964863836
1592264809.7746558,-5.577519666382334,7.719399582977917,1.4515797080845416,0.015555555555555555,-0.7644444444444445,-0.17,0.1225418530712077,-0.403050679159169,0.299551168852144
1592264809.7846558,-5.61,7.927517866186483,1.4288139853319077,0.015555555555555555,-0.7644444444444445,-0.17,0.16463769682101514,-0.24222659386121723,0.2080163948000275
1592264809.7946558,-5.755889651428793,8.39614826877593,1.6305172346942733,0.02655517213153598,-0.7644444444444445,-0.17,0.14116215681551206,-0.05964963520851264,0.21076317509019812
1592264809.8046558,-5.765223824686271,8.375492414309797,1.7313598052069676,0.03666666666666667,-0.7644444444444445,-0.17,0.0979327404293738,-0.1386505788463704,0.28723582906688894
1592264809.8146558,-5.3352900225709075,7.863260544421179,1.1790582764528323,0.03666666666666667,-0.7644444444444445,-0.17,0.23717656672610649,-0.17783712826148163,0.37337230592394366
1592264809.8246558,-5.409946342164519,8.063305226848081,1.246595122886025,0.03666666666666667,-0.7644444444444445,-0.17,0.13858567933590568,-0.28792330345834205,0.36944446960309135
1592264809.8346558,-5.440704229544305,8.074573324999255,1.3099502931809388,0.03666666666666667,-0.7644444444444445,-0.17,0.08455836324839153,-0.33849780827026,0.35263974412605925
1592264809.8446558,-5.283230264698993,7.865676973530101,1.3616861872413524,0.02075219281122303,-0.7575481724404189,-0.1599208332248857,0.055171277345357456,-0.2730910663863547,0.3904189583249887
1592264809.8546557,-5.459799331103679,7.914347826086956,1.6535005574136008,0.0033333333333333335,-0.75,-0.14888888888888888,-0.02791043176039707,-0.3748590732492002,0.39125923370934196
1592264809.8646557,-5.50294295174192,7.914774824928946,1.5186486565677284,0.0033333333333333335,-0.75,-0.14888888888888888,0.17955140521592622,-0.2732088916011519,0.283144308389508
1592264809.8746557,-5.527455750424311,7.715493413076861,1.5317683666047037,0.0033333333333333335,-0.75,-0.14888888888888888,0.1721807579581006,-0.27910456783912874,0.21273377864785126
1592264809.8846557,-5.644580957079428,8.018235027133695,1.622815984213123,0.0033333333333333335,-0.75,-0.14888888888888888,0.2172586627819062,-0.39507327193700065,0.25623058633368095
1592264809.8946557,-5.499451538461538,7.87680423076923,1.2555253846153847,0.00016743589743589736,-0.7568594444444444,-0.14202944444444443,0.2232367575266357,-0.4141271098599039,0.3174216884992456
1592264809.9046557,-5.573942555817345,7.571141029956244,1.0680612588354088,-0.0033333333333333335,-0.7644444444444445,-0.13444444444444445,0.21698830892263396,-0.4148587466792195,0.3273393112053395
1592264809.9146557,-4.9249760881899975,7.5589016778795495,0.9804871524681852,-0.0033333333333333335,-0.7644444444444445,-0.13444444444444445,0.2556930520068184,-0.22903485240964455,0.2351058204210727
1592264809.9246557,-5.004577302031383,7.754276851964481,1.1036747354336456,-0.0033333333333333335,-0.7644444444444445,-0.13444444444444445,0.2949976105565105,-0.16906563514202097,0.28455556953238437
1592264809.9346557,-5.6655052492141005,7.943034460942289,1.160832361256648,-0.0033333333333333335,-0.7644444444444445,-0.13444444444444445,0.16705640263323554,-0.2749537127330079,0.4103925860309897
1592264809.9446557,-4.977470841987539,7.652529158012461,1.1126489854609363,-0.011686815430224921,-0.75765724024072,-0.12765724024072003,0.2220296389703539,-0.3706058805795792,0.45059258574442157
1592264809.9546556,-5.180268716175586,7.630762552615754,0.9483587642814191,-0.021111111111111112,-0.75,-0.12,0.15946725988832136,-0.2950463587478972,0.5363774187344125
1592264809.9646556,-5.227825347320669,8.381796994612985,1.2855650694641338,-0.021111111111111112,-0.75,-0.12,0.15389887279871092,-0.3209350348370312,0.5839202023980438
1592264809.9746556,-4.837109058499433,8.302187651920272,1.1881251012801815,-0.021111111111111112,-0.75,-0.12,0.1729904540589267,-0.2924407555402421,0.6191018856038174
1592264809.9846556,-5.345803742802303,8.146623625894259,1.2398708776827778,-0.021111111111111112,-0.75,-0.12,0.14652202381051005,-0.13263417860719062,0.5190058802684284
1592264809.9946556,-5.303482544237207,8.249683405069344,1.4086408417025347,-0.03402231787023753,-0.7505379669482969,-0.10547489239598277,0.10112037871271928,-0.12147222407518139,0.4254240051736178
1592264810.0046556,-5.191394695662641,8.204212173494362,1.3318408698792281,-0.04777777777777778,-0.7511111111111111,-0.09,0.021081794079197948,-0.14524930739017208,0.4462668695396332
1592264810.0146556,-5.044308353196951,7.704308353196951,1.198086544254394,-0.04777777777777778,-0.7511111111111111,-0.09,0.048469180146198776,-0.24372523292561982,0.6094201024229067
1592264810.0246556,-5.088948846062336,7.6912234118486795,1.085129193433262,-0.04777777777777778,-0.7511111111111111,-0.09,-0.006343844115289279,-0.33863996852167777,0.6045940642276462
1592264810.0346556,-5.119504127323475,7.583793772393452,0.8623730625334045,-0.04777777777777778,-0.7511111111111111,-0.09,-0.0489792025763901,-0.48517543434308436,0.40226670219816185
1592264810.0446556,-5.172019448640484,7.478012965760322,0.36144511581067473,-0.05923369838872105,-0.7418372706165379,-0.09,-0.04436937729997952,-0.5857993707733483,0.2876317135219282
1592264810.0546556,-5.262677146599976,7.76558731292922,0.4459219562542178,-0.07111111111111111,-0.7322222222222222,-0.09,-0.03870372927736552,-0.5654994778358855,0.375378207920906
1592264810.0646555,-4.817940477995048,8.285691981203577,1.0786726289727655,-0.07111111111111111,-0.7322222222222222,-0.09,0.030670528257067883,-0.08171232551107085,0.3975354233611431
1592264810.0746555,-4.835273013525441,8.294801889267909,1.4780031487798477,-0.07111111111111111,-0.7322222222222222,-0.09,-0.17679866095774768,0.025818479597174607,0.6038136485913116
1592264810.0846555,-4.532028175051635,8.422792759440396,1.500012080589221,-0.07111111111111111,-0.7322222222222222,-0.09,-0.07448640715776533,-0.0561986361032444,0.7104367999896213
1592264810.0946555,-4.199117104939789,8.046009461784223,1.0445791349225855,-0.07629782092242156,-0.7260924742634007,-0.08717088555746702,0.09404581908422521,0.01790655429077296,0.7400134101223036
1592264810.1046555,-4.328566368765702,7.80772455829661,1.1990630534162514,-0.08333333333333333,-0.7177777777777777,-0.08333333333333333,-0.04129289363734968,0.1258501370805879,0.8936782022237948
1592264810.1146555,-4.978753062607517,8.1603974873586,1.4347372673721523,-0.08333333333333333,-0.7177777777777777,-0.08333333333333333,0.012171096710274415,0.0077611447296579705,0.7986868171826538
1592264810.1246555,-5.113483877140943,8.70357477753325,1.6613577648071955,-0.08333333333333333,-0.7177777777777777,-0.08333333333333333,-0.09845147049208108,-0.17225722109927316,0.7271794672094402
1592264810.1346555,-4.66294371252682,8.703520022458843,1.5195359842788105,-0.08333333333333333,-0.7177777777777777,-0.08333333333333333,-0.04240280112587825,-0.1289151820236199,0.6368915564003075
1592264810.1446555,-4.55774375119252,8.7775246454239,1.4449507091521974,-0.09014847322040606,-0.724106121958631,-0.06775587073430997,-0.18472795748697807,0.08738235860061708,0.5177479527931801
1592264810.1546555,-5.246741056777157,8.763930095175583,1.412730554643912,-0.09888888888888889,-0.7322222222222222,-0.04777777777777778,-0.27849192698374486,0.11770715705993386,0.47050159380592826
1592264810.1646554,-3.9378958214365523,8.17026044640862,1.45068128212131,-0.09888888888888889,-0.7322222222222222,-0.04777777777777778,-0.21079919612964038,0.053562264118404576,0.5118750733207033
1592264810.1746554,-4.582601485741673,8.070132278936017,1.4003968368080517,-0.09888888888888889,-0.7322222222222222,-0.04777777777777778,-0.2529193246721164,0.15372537376867296,0.49738516823348444
1592264810.1846554,-5.167014624983228,8.09973131624849,1.48829833624044,-0.09888888888888889,-0.7322222222222222,-0.04777777777777778,-0.3408406013686188,0.13443585613230055,0.49014449716608927
1592264810.1946554,-3.876772129399218,7.926737765138049,1.050323498044792,-0.11055364642993509,-0.7249820278864004,-0.05300680702031573,-0.15425683819813432,-0.01070407596854267,0.6211324131066175
1592264810.2046554,-4.506324808608471,8.41362257353464,1.212284610461947,-0.13111111111111112,-0.7122222222222222,-0.06222222222222222,-0.12644880129125663,0.14700940121712902,0.6561105028530596
1592264810.2146554,-4.727592158737748,8.82012096581401,1.4339753765240257,-0.13111111111111112,-0.7122222222222222,-0.06222222222222222,-0.14421296675571715,-0.03168648282010546,0.6499511941723407
1592264810.2246554,-3.990754970704063,8.520264143694169,1.8181509941408125,-0.13111111111111112,-0.7122222222222222,-0.06222222222222222,-0.1251820264516032,-0.04669983732637886,0.7126336417201954
1592264810.2346554,-4.35,8.51,1.89,-0.13111111111111112,-0.7122222222222222,-0.06222222222222222,-0.02945243112740431,0.05126904677733343,0.8061239482648809
1592264810.2446554,-4.149795452383217,8.470658357910759,1.9706583579107602,-0.142587976617089,-0.7007453567162444,-0.05457097855157031,0.09263811147251796,0.09996725727419856,0.7845945954449347
1592264810.2546554,-3.54,8.51,2.01,-0.16444444444444445,-0.6788888888888889,-0.04,0.19634954084936207,0.1636246173744684,0.8017606251348951
1592264810.2646554,-3.8805492891243905,8.415091548187398,1.6539436545826556,-0.16444444444444445,-0.6788888888888889,-0.04,0.1035997378464717,0.19564895061593668,0.8265939221256634
1592264810.2746553,-3.5994423960927024,8.417630722083892,1.3494423960927024,-0.16444444444444445,-0.6788888888888889,-0.04,0.3213809004739854,0.23213418616836934,0.7001917120614207
1592264810.2846553,-3.52,8.46,1.27,-0.16444444444444445,-0.6788888888888889,-0.04,0.39706240482870997,0.284706834231575,0.6828600698427815
1592264810.2946553,-3.5880038841236446,8.751925554296813,1.1433183363003723,-0.16520753088417758,-0.6792704321087555,-0.03465839492186798,0.41092674226274295,0.2177005541193339,0.7135958645332924
1592264810.3046553,-3.24,8.66,1.36,-0.16666666666666666,-0.68,-0.024444444444444446,0.3665191429188092,0.2585268954516601,0.7973973020049092
1592264810.3146553,-3.5592889496191704,8.485587945039095,0.9378304106885296,-0.16666666666666666,-0.68,-0.024444444444444446,0.5318302295649942,0.510774316502044,0.6812412271663004
1592264810.3246553,-3.745138096596311,8.959356579197566,1.316330813842936,-0.16666666666666666,-0.68,-0.024444444444444446,0.37008231086770965,0.2700162174191651,0.665326660686645
1592264810.3346553,-3.957052601946433,9.344277728625432,1.2173988578782273,-0.16666666666666666,-0.68,-0.024444444444444446,0.26460525234026,0.17967815808037257,0.6210294069349285
1592264810.3446553,-4.309405652792381,9.366915084420805,1.04956367122271,-0.17140539853354497,-0.674896750297208,-0.017518605562083824,0.20702475940761095,0.21601896920789934,0.5247240806543964
1592264810.3546553,-3.96,8.91,0.68,-0.1811111111111111,-0.6644444444444444,-0.0033333333333333335,0.14398966328953217,0.21162117180431245,0.5203262832508094
1592264810.3646553,-3.4005042890564074,9.15378034832337,1.0690623862750195,-0.1811111111111111,-0.6644444444444444,-0.0033333333333333335,0.10404129636913227,-0.014363351994073686,0.5085239592121373
1592264810.3746552,-3.85,9.34,0.87,-0.1811111111111111,-0.6644444444444444,-0.0033333333333333335,0.12435470920459597,-0.038179077387375956,0.47560222116845474
1592264810.3846552,-3.3737472786647316,9.109759388606678,0.8129059325108854,-0.1811111111111111,-0.6644444444444444,-0.0033333333333333335,0.11952792647033604,0.042061500879940455,0.4887184371898579
1592264810.3946552,-2.9573249967771043,8.952939280649737,1.0638507154827899,-0.19254293612937418,-0.6628996032257602,-0.009203729964333291,0.0302579330897789,0.13680848954466124,0.5531441600771573
1592264810.4046552,-3.21,9.35,0.97,-0.2222222222222222,-0.6588888888888889,-0.024444444444444446,-0.07526732399225547,0.21162117180431245,0.6326818538479445
1592264810.4146552,-2.8622975532156656,9.059391712749035,0.651046132868722,-0.2222222222222222,-0.6588888888888889,-0.024444444444444446,0.2711633780349862,0.25986454931932557,0.6632031355299728
1592264810.4246552,-2.99,8.97,0.07,-0.2222222222222222,-0.6588888888888889,-0.024444444444444446,0.17016960206944715,0.2159844949342983,0.7286749627076325
1592264810.4346552,-3.024595344401578,8.943458754172266,1.1784793445749706,-0.2222222222222222,-0.6588888888888889,-0.024444444444444446,0.13669009549051434,0.20450800371679495,0.6255366261449026
1592264810.4446552,-2.66,8.843401492689908,0.5260470981153937,-0.22942912752236952,-0.6542764694967946,-0.02069685368836785,0.16333045031650245,0.3233037604413365,0.5609622671036181
1592264810.4546552,-2.66,9.11,1.0,-0.25,-0.6411111111111111,-0.01,0.11890055529211369,0.37742745074377376,0.6894050545377601
1592264810.4646552,-3.2171348342651758,9.855491214057508,0.9351699780351438,-0.25,-0.6411111111111111,-0.01,-0.10060784801018044,0.1389792583809718,0.7044823104688426
1592264810.4746552,-2.8498827534039335,9.449012859304085,0.8797655068078669,-0.25,-0.6411111111111111,-0.01,-0.0641127128476425,0.22344806311536947,0.6281799077440862
1592264810.4846551,-2.66,8.837491969259545,0.5462540153702273,-0.25,-0.6411111111111111,-0.01,-0.036708032663206686,0.3398832312830384,0.6412450506941195
1592264810.4946551,-2.655198303287381,8.84127465535525,0.7628398727465536,-0.2483994344291269,-0.6411111111111111,-0.0067988688582538,-0.07849655327371581,0.29639850431094744,0.6489145263873043
1592264810.5046551,-2.64,9.51,1.12,-0.24333333333333335,-0.6411111111111111,0.0033333333333333335,-0.0818123086872342,0.2781618495365963,0.6588617926278594
1592264810.514655,-2.3431161029123677,8.935588350528928,0.5864698968264334,-0.24333333333333335,-0.6411111111111111,0.0033333333333333335,0.1117974048656708,0.21941041875008443,0.6398172006642063
1592264810.524655,-2.7952833317312313,9.027114293953668,0.6587618956070365,-0.24333333333333335,-0.6411111111111111,0.0033333333333333335,0.036103898438899926,0.3552085237408942,0.6932824425957682
1592264810.534655,-2.75,9.26,0.4,-0.24333333333333335,-0.6411111111111111,0.0033333333333333335,-0.05563236990731925,0.2825251726665821,0.8083056098298738
1592264810.544655,-2.575495358540609,9.356985153798881,0.7979480544684154,-0.24810884339072714,-0.6374209442485795,0.004635745167168009,-0.0016688296141701931,0.2268422075740217,0.6716267391123488
1592264810.554655,-3.01,9.88,0.46,-0.2677777777777778,-0.6222222222222222,0.01,0.022907446432425576,0.23561944901923448,0.6523168079328807
1592264810.564655,-2.1325141392051883,9.095404067063821,0.626358494834477,-0.2677777777777778,-0.6222222222222222,0.01,0.06438440664323772,0.16788709150819897,0.6087245688161115
1592264810.574655,-2.37,9.52,0.54,-0.2677777777777778,-0.6222222222222222,0.01,-0.0643590161672909,0.13962634015954636,0.6032294227205401
1592264810.584655,-2.0839528155905898,9.373798748626404,1.0614781009620775,-0.2677777777777778,-0.6222222222222222,0.01,0.08654746980905573,0.1750570699897666,0.6241075143864708
1592264810.594655,-2.1492270775448348,9.350772922455166,0.47807969184137405,-0.2706206323145576,-0.6192297437624541,0.014787965535629086,0.12425389897157099,0.1883356267254406,0.5942446030725413
1592264810.604655,-2.08,9.42,0.53,-0.28888888888888886,-0.6,0.04555555555555556,0.20071286397934787,0.17889624832941878,0.47342055960346185
1592264810.614655,-1.909954486345904,9.311387516254875,1.0062041612483745,-0.28888888888888886,-0.6,0.04555555555555556,0.10954366700787264,0.15025860680079986,0.7738329456435187
1592264810.624655,-2.2545760475882086,9.827423424719964,0.8241356647717734,-0.28888888888888886,-0.6,0.04555555555555556,0.0832026986462628,0.11782076599555458,0.601528432099042
1592264810.634655,-2.08,9.59,0.88,-0.28888888888888886,-0.6,0.04555555555555556,0.11671889372712078,0.07744898555724837,0.5748678223756323
1592264810.644655,-2.1409069617460372,9.7549960965344,0.6534896982451376,-0.2917174871487352,-0.5987035591309038,0.043316248599843864,0.23752108094477115,0.05758261731832544,0.6691244734763333
1592264810.654655,-1.98,9.46,1.02,-0.31555555555555553,-0.5877777777777777,0.024444444444444446,0.30870511144649704,0.05563236990731925,0.5901394533305827
1592264810.664655,-1.650772605410675,9.680004874482085,0.7419229831830368,-0.31555555555555553,-0.5877777777777777,0.024444444444444446,0.16039466290784654,0.13643759426501492,0.5758321029625479
1592264810.674655,-1.36,9.26,0.75,-0.31555555555555553,-0.5877777777777777,0.024444444444444446,0.11017390903214205,0.15053464798451094,0.6348635154129374
1592264810.684655,-1.7930088093208298,9.617079662782988,0.8000884721038174,-0.31555555555555553,-0.5877777777777777,0.024444444444444446,0.238158231863991,0.14731045101522927,0.4522218024120926
1592264810.694655,-1.697656720659278,9.6568096997253,0.744466420384579,-0.31555555555555553,-0.5877777777777777,0.024444444444444446,0.11160908978771303,0.21491889678200793,0.5536344710622605
1592264810.704655,-1.03,9.49,0.6,-0.3233333333333333,-0.5733333333333334,0.03111111111111111,0.12217304763960307,0.3196134192714616,0.6697701004528239
1592264810.714655,-1.1387179637902656,9.94444774276981,0.443629202915589,-0.3233333333333333,-0.5733333333333334,0.03111111111111111,0.20067737286495146,0.21362425567536855,0.6037371989353643
1592264810.724655,-0.8490055024892214,9.777649174626617,0.2676491746266168,-0.3233333333333333,-0.5733333333333334,0.03111111111111111,0.09767367060236987,0.2166275448903551,0.4019819916349227
1592264810.734655,-0.7708933479440243,9.809580182154598,0.30532829144735657,-0.3233333333333333,-0.5733333333333334,0.03111111111111111,0.19407867990732486,0.22498591133155352,0.40527944673907407
1592264810.744655,-1.049674492967108,9.84725330986042,0.365605295776672,-0.3233333333333333,-0.5733333333333334,0.03111111111111111,0.06504035675161196,0.200328906906895,0.411854647918983
1592264810.754655,-1.22,9.86,0.43,-0.35,-0.5877777777777777,0.03111111111111111,0.042542400517361786,0.001090830782496456,0.40797071265367457
1592264810.7646549,-1.009384216664507,9.66038901127381,0.4861264740184009,-0.35,-0.5877777777777777,0.03111111111111111,0.024530419441666382,0.21489547348626029,0.4764720304385097
1592264810.7746549,-0.73,9.57,0.33,-0.35,-0.5877777777777777,0.03111111111111111,0.062177354602297986,0.09926560120717749,0.5508695451607102
1592264810.7846549,-0.4305276197112221,9.801366856346533,0.1990527619711222,-0.35,-0.5877777777777777,0.03111111111111111,-0.11102409240127394,0.16138405018714813,0.4339204339046083
1592264810.7946548,-0.349346572213835,9.898784113343398,0.1909346572213835,-0.35,-0.5877777777777777,0.03111111111111111,-0.08091546530901865,0.2543665750308777,0.46934234813079095
1592264810.8046548,-0.34,10.01,0.28,-0.3688888888888889,-0.5611111111111111,0.03888888888888889,-0.11890055529211369,0.2868884957965679,0.5443245604657315
1592264810.8146548,-0.43034875630544445,9.947907462167333,0.2544198991128892,-0.3688888888888889,-0.5611111111111111,0.03888888888888889,-0.1874311595910059,0.30299708180136903,0.3775912935652533
1592264810.8246548,-0.45038655462184873,9.871304201680672,0.09376806722689077,-0.3688888888888889,-0.5611111111111111,0.03888888888888889,-0.316340560258163,0.31120283893905704,0.4670702744531908
1592264810.8346548,-0.49,9.8,0.07,-0.3688888888888889,-0.5611111111111111,0.03888888888888889,-0.13744467859455345,0.25416357232167425,0.33052172709642613
1592264810.8446548,-0.5801867156412611,9.769937761452914,0.15267115600448933,-0.3688888888888889,-0.5611111111111111,0.03888888888888889,-0.13416539707476205,0.2508842908018828,0.2509991502414845
1592264810.8546548,-0.71,9.78,0.08,-0.3566666666666667,-0.5544444444444444,0.04,-0.22907446432425577,0.09272061651219875,0.3839724354387525
1592264810.8646548,-0.8621395775941231,9.789508723599631,0.10852617079889808,-0.3566666666666667,-0.5544444444444444,0.04,-0.18343586734344444,0.35929151251375574,0.22216286432496687
1592264810.8746548,-0.76,9.9,0.16,-0.3566666666666667,-0.5544444444444444,0.04,-0.14180800172453928,0.27598018797160334,0.19198621771937624
1592264810.8846548,0.35397877069282657,9.649800735744941,1.1358623927038625,-0.3566666666666667,-0.5544444444444444,0.04,-0.14038332973862436,0.2742705815885055,-0.02491080715810447
1592264810.8946548,-1.622948344573881,9.264058859595341,1.1921164163090128,-0.3566666666666667,-0.5544444444444444,0.04,-0.02203920431933415,0.1322576310853572,0.14427746103391786
1592264810.9046547,-0.01,9.64,1.03,-0.37777777777777777,-0.5366666666666666,0.01,0.05999569303730508,0.11235557059713495,-0.04036073895236887
