time,acc_x,acc_y,acc_z,mag_x,mag_y,mag_z,gyr_x,gyr_y,gyr_z
1592264941.71453,-0.4446678488928296,9.702444641482138,0.4795571318571062,-0.32,-0.5688888888888889,0.12,0.03929212846697952,-0.005403910079161047,-0.1337142139608691
1592264941.72453,-0.4917502150478596,9.71,0.5435004300957192,-0.32,-0.5688888888888889,0.12,-0.024814758236019738,0.06141367922222049,-0.207663743376626
1592264941.73453,-0.49942660004758505,9.71,0.5588532000951701,-0.32,-0.5688888888888889,0.12,0.0338007011559424,0.05806422439982265,-0.09461964312069901
1592264941.74453,-0.53,9.7,0.56,-0.3333333333333333,-0.5555555555555556,0.11333333333333333,-0.07308566242726255,-0.014180800172453926,-0.014180800172453926
1592264941.75453,-0.5730732701822431,9.703463364908878,0.551902986002337,-0.3333333333333333,-0.5555555555555556,0.11333333333333333,-0.007077449843850048,0.12798112964217706,0.15121345765247302
1592264941.76453,-0.5642022659732541,9.724033710995544,0.37605056649331353,-0.3333333333333333,-0.5555555555555556,0.11333333333333333,0.10225373601320442,0.11176910216218255,0.06927330102817406
1592264941.77453,-0.6667535206233469,9.74,0.4121563371220245,-0.3333333333333333,-0.5555555555555556,0.11333333333333333,0.06677850987801362,0.11879470049282574,0.20346590752723756
1592264941.78453,-0.7042320752019443,9.74,0.4796177353634999,-0.3333333333333333,-0.5555555555555556,0.11333333333333333,0.04388416370804135,-0.021024342188076278,0.07345872749060936
1592264941.79453,-0.6048616395302124,9.6437022945861,0.5097232790604249,-0.3466666666666667,-0.5688888888888889,0.15555555555555556,0.10585793935697216,-0.03514077455376943,-0.1151018905332455
1592264941.80453,-0.6029450193123838,9.721472509656193,0.4436107004911545,-0.3466666666666667,-0.5688888888888889,0.15555555555555556,0.012071753159574174,0.028421574971402457,0.04008406502494057
1592264941.81453,-0.713505266638326,9.771881583297906,0.36974210004251096,-0.3466666666666667,-0.5688888888888889,0.15555555555555556,-0.010171709796219137,-0.09607750642341818,-0.10891229941876447
1592264941.82453,-0.6706680836500531,9.73349946863123,0.4281654268062035,-0.3466666666666667,-0.5688888888888889,0.15555555555555556,-0.0020740855336121074,-0.07963064712224129,0.10708302860393172
1592264941.8345299,-0.6102282183835581,9.756164418106165,0.4810503089143866,-0.3466666666666667,-0.5688888888888889,0.15555555555555556,0.06220733835095317,-0.07963064712224129,0.11532423679426061
1592264941.8445299,-0.59,9.764366220616546,0.4325351175338103,-0.32666666666666666,-0.5488888888888889,0.09888888888888889,-0.039154895564373536,-0.12665156486477183,-0.038355926120944
1592264941.8545299,-0.5819021641924521,9.788097835807548,0.3436820336254695,-0.32666666666666666,-0.5488888888888889,0.09888888888888889,-0.16404699481862098,-0.09788723476635441,-0.09005275385438144
1592264941.8645298,-0.5736927873033867,9.814076803174153,0.25036559444523165,-0.32666666666666666,-0.5488888888888889,0.09888888888888889,-0.06929673736837731,-0.06492939530678529,0.09956686650334946
1592264941.8745298,-0.7204330673680095,9.7810433067368,0.3204330673680095,-0.32666666666666666,-0.5488888888888889,0.09888888888888889,0.028752413690667118,-0.0011294837169463336,-0.11462527711111048
1592264941.8845298,-0.7949679242265385,9.788496792422652,0.3949679242265385,-0.32666666666666666,-0.5488888888888889,0.09888888888888889,-0.05417860086418837,0.02976638445054884,0.0016407530981476792
1592264941.8945298,-0.93,9.84,0.47,-0.3333333333333333,-0.5688888888888889,0.12777777777777777,-0.17016960206944715,-0.10362892433716332,0.09490227807719166
1592264941.9045298,-1.2151081849295202,9.900901444399327,0.45120192586576946,-0.3333333333333333,-0.5688888888888889,0.12777777777777777,-0.1308341390129417,-0.10378888838485466,0.055886743116068935
1592264941.9145298,-1.3840421282868145,9.944147449003852,0.49606319243022207,-0.3333333333333333,-0.5688888888888889,0.12777777777777777,-0.1322454547042275,-0.2559732383385684,0.3457933580513765
1592264941.9245298,-1.3925340696535138,9.997013627861406,0.539411418900864,-0.3333333333333333,-0.5688888888888889,0.12777777777777777,-0.15724725548753837,-0.2865330017494495,0.3464448833827302
1592264941.9345298,-1.3551750244945222,9.982070009797809,0.6365449363142425,-0.3333333333333333,-0.5688888888888889,0.12777777777777777,-0.21267051467871895,-0.3175048230621681,0.34970507509985854
1592264941.9445298,-1.09,10.05,0.73,-0.3333333333333333,-0.5488888888888889,0.12,-0.07308566242726255,-0.3817907738737596,0.4516039439535327
1592264941.9545298,-0.9731433402613873,10.103933842956282,0.6850551308697643,-0.3333333333333333,-0.5488888888888889,0.12,-0.006408606830213881,-0.3200164429529645,0.6398685715216701
1592264941.9645298,-0.94,10.05,0.62,-0.3333333333333333,-0.5488888888888889,0.12,-0.05126904677733343,-0.37306412761378793,0.6806784082777886
1592264941.9745297,-0.96,9.988380500758726,0.7932389984825493,-0.3333333333333333,-0.5488888888888889,0.12,-0.17222688988949342,-0.37959109042690864,0.8216700249614669
1592264941.9845297,-0.96,9.972468892261002,0.825062215477997,-0.3333333333333333,-0.5488888888888889,0.12,0.00047398997658248954,-0.29367457230257943,0.9744105016269411
1592264941.9945297,-0.9419841769936288,9.87949076991295,0.8820105486709141,-0.32,-0.5755555555555556,0.10666666666666667,0.01506957433937769,-0.2914682590608109,1.0377717895558958
1592264942.0045297,-0.8101865882064484,9.805093294103225,0.9337381390216991,-0.32,-0.5755555555555556,0.10666666666666667,0.10737024524383817,-0.28950862934509025,1.1208084492474144
1592264942.0145297,-0.62,9.71,0.83,-0.32,-0.5755555555555556,0.10666666666666667,0.03381575425739013,-0.34797501961636945,1.2424562612634633
1592264942.0245297,-0.4058129149773782,9.729401844996769,0.8090030749946139,-0.32,-0.5755555555555556,0.10666666666666667,0.009854267504255105,-0.35309957628495625,1.425588689843603
1592264942.0345297,-0.23329925377519245,9.704757036253598,0.7679283937559982,-0.32,-0.5755555555555556,0.10666666666666667,0.1012575419239308,-0.38446344495837437,1.375406499966134
1592264942.0445297,0.14,9.62,0.66,-0.35333333333333333,-0.5555555555555556,0.11333333333333333,0.16580627893946132,-0.3217950808364545,1.4158983556804
1592264942.0545297,0.3914392844482016,9.588971939679857,0.5767102069755392,-0.35333333333333333,-0.5555555555555556,0.11333333333333333,0.03140373645505293,-0.3066519543940722,1.440204567782846
1592264942.0645297,0.48590218741044994,9.534243958353233,0.42143901041169163,-0.35333333333333333,-0.5555555555555556,0.11333333333333333,0.12231407729516797,-0.41449975531887756,1.5616226785235667
1592264942.0745296,0.64,9.5,0.43,-0.35333333333333333,-0.5555555555555556,0.11333333333333333,0.11017390903214205,-0.40142572795869574,1.578432142272372
1592264942.0845296,0.8833529849820032,9.477877001365274,0.4005026684870299,-0.35333333333333333,-0.5555555555555556,0.11333333333333333,0.14154609131759632,-0.34270343803976855,1.4585743176433286
1592264942.0945296,1.03,9.5,0.38,-0.40444444444444444,-0.5288888888888889,0.13444444444444445,0.2781618495365963,-0.26289021858164585,1.3166327544732224
1592264942.1045296,1.06005549746642,9.47,0.43987050591168664,-0.40444444444444444,-0.5288888888888889,0.13444444444444445,0.27151798554523904,-0.39674356954651,1.4246250019403714
1592264942.1145296,1.0966950777754103,9.474463385183608,0.4034753888770509,-0.40444444444444444,-0.5288888888888889,0.13444444444444445,0.2159751974207036,-0.2264152204776158,1.4168349252165044
1592264942.1245296,1.143759906801052,9.491279720403156,0.687160256297107,-0.40444444444444444,-0.5288888888888889,0.13444444444444445,0.20125395671317867,-0.2407485467957645,1.347239171466995
1592264942.1345296,1.084531975358763,9.313595926076289,0.8500370677634018,-0.40444444444444444,-0.5288888888888889,0.13444444444444445,0.2270970170335141,-0.2480169075108588,1.2753631599510622
1592264942.1445296,1.2,9.38,0.75,-0.4033333333333333,-0.51,0.10666666666666667,0.23125612588924865,-0.3043417883165112,1.459531586980258
1592264942.1545296,1.4426471230086564,9.463993234887612,0.54468320360806,-0.4033333333333333,-0.51,0.10666666666666667,0.3462931469277535,-0.2076292485053788,1.3923418224798922
1592264942.1645296,1.68,9.38,0.41,-0.4033333333333333,-0.51,0.10666666666666667,0.35452000431134817,-0.0839939702522271,1.550070541927464
1592264942.1745296,1.641108148641893,9.370277037160472,0.31277037160473253,-0.4033333333333333,-0.51,0.10666666666666667,0.38315649364989546,-0.10520618457707695,1.545828099062494
1592264942.1845295,1.7936723097421428,9.353823967395563,0.23720785328003763,-0.4033333333333333,-0.51,0.10666666666666667,0.30897984964851544,-0.07757808301641991,1.5942318331323373
1592264942.1945295,2.03,9.33,0.02,-0.4633333333333333,-0.48333333333333334,0.10777777777777778,0.29779680362153244,-0.15053464798451094,1.523890603147549
1592264942.2045295,1.9674876178303242,9.446094424029399,-0.02465170154976833,-0.4633333333333333,-0.48333333333333334,0.10777777777777778,0.28610701549161277,-0.10669794249731213,1.61643475917608
1592264942.2145295,2.1239074895146794,9.3909298981426,-0.10665140802875975,-0.4633333333333333,-0.48333333333333334,0.10777777777777778,0.18789671991271858,-0.2765688313724108,1.4574208784348863
1592264942.2245295,2.34,9.25,-0.21,-0.4633333333333333,-0.48333333333333334,0.10777777777777778,0.12435470920459597,-0.3196134192714616,1.4246250019403714
1592264942.2345295,2.542005510893958,9.290401102178793,-0.23020055108939577,-0.4633333333333333,-0.48333333333333334,0.10777777777777778,0.13463788791539175,-0.34752490434362154,1.4576780763679293
1592264942.2445295,2.9,9.31,-0.27,-0.49333333333333335,-0.4488888888888889,0.12,0.09053895494720585,-0.2716168648416175,1.3439035240356336
1592264942.2545295,3.1559106491208673,9.130862545615393,-0.3808946146190424,-0.49333333333333335,-0.4488888888888889,0.12,0.08123378115954946,-0.2660337605690237,1.3373899023842741
1592264942.2645295,3.478630140248113,9.091015310617426,-0.7989846893825749,-0.49333333333333335,-0.4488888888888889,0.12,0.031899547143836936,-0.1659943827689453,1.3807140045051223
1592264942.2745295,3.64,9.11,-0.78,-0.49333333333333335,-0.4488888888888889,0.12,-0.044724062082354694,-0.1287180323345818,1.1715522604011936
1592264942.2845294,3.625569084516213,9.160508204193254,-0.7150608803229587,-0.49333333333333335,-0.4488888888888889,0.12,-0.058891580228742274,-0.23654858711542065,1.0778892237667423
1592264942.2945294,3.74,9.09,-0.54,-0.54,-0.43666666666666665,0.11333333333333333,-0.15489797111449674,-0.32834006553143325,1.119192382841364
1592264942.3045294,3.7590500673277023,9.223350471293916,-0.3875994613783817,-0.54,-0.43666666666666665,0.11333333333333333,-0.2951656700998885,-0.18807236654604156,1.059968243269754
1592264942.3145294,3.761154377712581,9.08,-0.30994980966467034,-0.54,-0.43666666666666665,0.11333333333333333,-0.15080839379831784,-0.18743674743600175,0.9600351120061279
1592264942.3245294,3.9951247929858744,9.075405358012665,-0.2932847540185095,-0.54,-0.43666666666666665,0.11333333333333333,-0.2053846164579083,-0.14870334872734958,0.9798279695900197
1592264942.3345294,4.232113979542134,8.862932294203604,0.01725280077934732,-0.54,-0.43666666666666665,0.11333333333333333,-0.21964751851663172,-0.064017367753679,0.9414964203072005
1592264942.3445294,4.38,8.84,0.03,-0.5866666666666667,-0.4033333333333333,0.12,-0.10799224746714915,-0.022907446432425576,0.8192139176548384
1592264942.3545294,4.432592935307371,8.704761023495333,0.22534518828451885,-0.5866666666666667,-0.4033333333333333,0.12,-0.0735702518020745,0.03610168899341666,0.9437887591093943
1592264942.3645294,4.330931855108478,8.602251983178821,0.0009318551084774921,-0.5866666666666667,-0.4033333333333333,0.12,0.05554766188755643,0.07133601176306001,0.7789190424458359
1592264942.3745294,4.45,8.89,0.12,-0.5866666666666667,-0.4033333333333333,0.12,0.044724062082354694,0.1265363707695889,0.6479534848028948
1592264942.3845294,4.294500783364193,8.779854721549638,0.13943740207947586,-0.5866666666666667,-0.4033333333333333,0.12,-0.011817048637786355,0.18449100925773348,0.6663293457869407
1592264942.3945293,4.434173902908095,9.009557957922956,0.13131884142432543,-0.5897801930959458,-0.3794629640421936,0.11169726285525573,-0.073109374757927,0.09065990054798093,0.625370128080194
1592264942.4045293,4.513566459172464,8.884705236177224,0.3116184547784694,-0.59,-0.37777777777777777,0.1111111111111111,-0.12578664928341318,-0.03309439197500691,0.6475284961714132
1592264942.4145293,4.618460539979232,8.861049041820069,-0.20705749079580865,-0.59,-0.37777777777777777,0.1111111111111111,-0.11820651896941659,0.05877413350201156,0.5808108832877934
1592264942.4245293,4.542801432458201,8.676883008162221,0.06135455665883771,-0.59,-0.37777777777777777,0.1111111111111111,-0.12908434834346563,0.030954070563309365,0.43095902713099465
1592264942.4345293,4.678087099741182,8.946174199482364,-0.06146927338452653,-0.59,-0.37777777777777777,0.1111111111111111,-0.1598064879743239,0.02678950764887432,0.363391383803632
1592264942.4445293,4.710382217897649,8.799173229543587,-0.11,-0.601755067013984,-0.35961085602889353,0.08225776480405969,-0.08510609556941395,0.17310085115697593,0.24209554158251237
1592264942.4545293,4.421768655207281,8.835510212335691,-0.07207482305358948,-0.6022222222222222,-0.35888888888888887,0.0811111111111111,-0.1455220323721793,0.22192099679197907,0.33129719858940654
1592264942.4645293,4.390046262072255,8.661283176344343,-0.31734112316680574,-0.6022222222222222,-0.35888888888888887,0.0811111111111111,-0.1826492160646151,0.20193357476892684,0.13649249400427604
1592264942.4745293,4.371472368316727,8.753619737294184,0.010859211882548847,-0.6022222222222222,-0.35888888888888887,0.0811111111111111,-0.10142042228644203,0.1693798978964381,0.25485969516635426
1592264942.4845293,4.306083492236447,8.753608349223645,0.12587476164532824,-0.6022222222222222,-0.35888888888888887,0.0811111111111111,-0.15913660346074376,0.1296407887064682,0.22733195055078612
1592264942.4945292,4.46984698756774,8.769984698756774,-0.30962511954096267,-0.6410813586937272,-0.3466760174264159,0.07555980590089612,-0.3238774305520751,0.23116182136001276,0.3500473546917172
1592264942.5045292,4.333884585592564,8.369215724244771,-0.15876065065840433,-0.6411111111111111,-0.3466666666666667,0.07555555555555556,-0.24066359081924082,0.009362682566342068,0.43182006738570344
1592264942.5145292,4.71672218174248,8.778041011762257,-0.19348912251483294,-0.6411111111111111,-0.3466666666666667,0.07555555555555556,-0.30993492181448073,0.09770548723283573,0.25374175111245445
1592264942.5245292,4.8618676505593905,8.652198524160914,0.05170221375862888,-0.6411111111111111,-0.3466666666666667,0.07555555555555556,-0.3713277566245873,0.2545745099071013,0.35779597610003855
1592264942.5345292,4.90959409369873,8.529136537643556,-0.16756456219238017,-0.6411111111111111,-0.3466666666666667,0.07555555555555556,-0.2776353581405114,0.07330625456702969,0.28100203961979436
1592264942.5445292,4.865674748398902,8.644867337602928,0.2589272644098811,-0.640105087933313,-0.3416365507776761,0.08863385686693097,-0.1976605587694507,0.0071048713088675865,0.4017377325089043
1592264942.5545292,4.747301278623171,8.54730127862317,0.21608439885264233,-0.64,-0.3411111111111111,0.09,-0.2544782952191766,0.007503074486246225,0.0980902096933528
1592264942.5645292,4.475639121504187,8.400862695528518,0.3560941696950545,-0.64,-0.3411111111111111,0.09,-0.19098690710523272,0.10097759712478489,0.2413662606452069
1592264942.5745292,4.890015479876161,8.87001547987616,0.21338379598047963,-0.64,-0.3411111111111111,0.09,-0.15948310089202278,-0.0296793035525722,0.266031916557618
1592264942.5845292,4.583939539635796,8.777474808181582,0.15949496163631627,-0.64,-0.3411111111111111,0.09,-0.22664485985287414,0.09316680884981945,0.1492345102077089
1592264942.5945292,4.415222218851439,8.437851833874344,0.4147592755513758,-0.6460864201276177,-0.34212551446571404,0.04333744568826327,-0.31334720648776976,-0.08862193476095956,0.21113838412461583
1592264942.6045291,4.6948428543190355,8.620241154378336,0.4332180272781182,-0.6466666666666666,-0.3422222222222222,0.03888888888888889,-0.29446027159378985,-0.09241874596555019,0.22478660883093204
1592264942.6145291,4.554840105123613,8.547042351791985,0.3906914435890876,-0.6466666666666666,-0.3422222222222222,0.03888888888888889,-0.15646096162192846,-0.044545305571587195,0.13513177839342652
1592264942.6245291,4.770775337529052,8.448686705141931,0.24316454704515186,-0.6466666666666666,-0.3422222222222222,0.03888888888888889,-0.18747618948585043,-0.10471630826188727,0.07285782797714355
1592264942.634529,4.979298573673636,8.32414649187372,0.611005589926197,-0.6466666666666666,-0.3422222222222222,0.03888888888888889,-0.2735672925881879,-0.1648999621545293,0.1873882755911937
1592264942.644529,5.14194209692328,8.428279413706589,0.38930146573352703,-0.6518152574203677,-0.3381033496192614,0.03991860703962909,-0.04740742226288114,-0.01241351170313601,0.15256391301340438
1592264942.654529,4.9961974921630095,8.379577586206896,0.3490141065830721,-0.6522222222222223,-0.3377777777777778,0.04,-0.05842852141467772,-0.054034422494590124,0.1557583254244532
1592264942.664529,5.01208363077261,8.171200647960024,0.6993880072483664,-0.6522222222222223,-0.3377777777777778,0.04,-0.00011746302588960811,-0.01721249631184732,0.31040850502055906
1592264942.674529,5.134514741721222,8.70708845032733,0.4606790270941845,-0.6522222222222223,-0.3377777777777778,0.04,-0.02112829814226602,-0.22603539006077356,0.14992003596384787
1592264942.684529,5.01868580170467,8.616160122386537,0.6069712974429955,-0.6522222222222223,-0.3377777777777778,0.04,-0.15833680581905327,-0.1762290689256149,0.06303634311715159
1592264942.694529,5.13073409412544,8.450486886874831,0.6891460660624492,-0.674620892006999,-0.3339159381597128,0.04540657546529095,-0.035050382491507104,-0.16881321569162128,0.08841122563793721
1592264942.704529,5.0320303906031505,8.279107392560828,0.6948308007830707,-0.6844444444444444,-0.3322222222222222,0.04777777777777778,-0.06415787295038235,-0.17573449661044982,0.16008035796571102
1592264942.714529,5.306599079321997,8.418823873766,0.6014831962960006,-0.6844444444444444,-0.3322222222222222,0.04777777777777778,-0.06601611761144413,-0.10876770940762903,0.08089148391556986
1592264942.724529,5.321004930116791,8.106029580700746,0.689562272640245,-0.6844444444444444,-0.3322222222222222,0.04777777777777778,-0.07252343449954277,0.02645029689746073,0.19329965797158233
1592264942.734529,5.477934485896269,8.438844404003639,0.6750136487716105,-0.6844444444444444,-0.3322222222222222,0.04777777777777778,-0.09205956710260582,0.15518383031864502,0.27999214249649024
1592264942.744529,5.2241187214611875,7.949185185185185,0.4608503297818366,-0.6774037995377417,-0.3322222222222222,0.028667455888156043,-0.053842986809415884,0.012110269414729036,0.19099201760893655
1592264942.754529,5.355002725785935,8.16722696710885,0.6294475740505179,-0.6766666666666666,-0.3322222222222222,0.02666666666666667,-0.010422855419670383,0.04969434938751845,0.21089447988197335
1592264942.764529,5.259395161290323,8.004959677419354,0.5574193548387096,-0.6766666666666666,-0.3322222222222222,0.02666666666666667,-0.006826489413042338,-0.0985134557886013,0.24263507441472582
1592264942.774529,5.16953449905482,7.952372400756143,0.35623109640831757,-0.6766666666666666,-0.3322222222222222,0.02666666666666667,0.11954108329176014,-0.033637128139178865,0.12360772725571252
1592264942.784529,5.240718867287567,7.946546855452072,0.6025160355064837,-0.6766666666666666,-0.3322222222222222,0.02666666666666667,0.04707516341502019,-0.06340121141564042,0.22257568456720156
1592264942.794529,5.6380040255872945,8.136551229734202,0.7189409396713355,-0.6821264230481722,-0.33300218741958015,0.0009278151538546428,-0.0032724923474893677,-0.006308760338363348,0.1859277878266597
1592264942.804529,5.491318410232983,8.063547738693467,0.7526687985381453,-0.6844444444444444,-0.3333333333333333,-0.01,0.015345283211530092,0.06823946354202817,0.16415892014513658
1592264942.814529,5.437813641273597,7.856837868422406,0.5213499819968108,-0.6844444444444444,-0.3333333333333333,-0.01,0.06893521990983736,0.05276083824969767,0.14440582973744
1592264942.824529,5.810819158675854,8.238778971714932,0.4867758878234472,-0.6844444444444444,-0.3333333333333333,-0.01,0.058481681094018426,-0.011883816353483408,0.18968923390040573
1592264942.834529,5.7317663043478255,8.109152576489533,0.5924174718196458,-0.6844444444444444,-0.3333333333333333,-0.01,0.0872732693135364,0.05193852001723513,0.18491382248906005
1592264942.844529,5.785254411954142,8.173672549272188,0.4221183820687878,-0.6844444444444444,-0.3440929194040105,0.008829275623685002,0.11285271851784506,-0.12646576115111607,0.2810451810117265
1592264942.854529,5.6664101836461676,8.017908136376535,0.5276316536263024,-0.6844444444444444,-0.3466666666666667,0.013333333333333334,0.08720167697129157,-0.14406546026367573,0.27081086971283086
1592264942.864529,5.718700164662442,7.9919025996706745,0.45410957537049046,-0.6844444444444444,-0.3466666666666667,0.013333333333333334,0.07508269757569801,0.0036742942953157665,0.2989895817148226
1592264942.874529,5.706386682956627,7.921676847892486,0.33735491753207086,-0.6844444444444444,-0.3466666666666667,0.013333333333333334,0.10029312782086688,-0.11726830727639895,0.3251308773527509
1592264942.8845289,5.818150905786481,7.930209884504896,0.2998950577475523,-0.6844444444444444,-0.3466666666666667,0.013333333333333334,0.08394818055648533,-0.057527845873926065,0.2928927016267527
1592264942.8945289,5.654077603812117,7.8539171448021,0.37862296995040357,-0.6872192507590738,-0.3466666666666667,-0.000540698239813283,0.08697187570066049,0.036286168267190534,0.19602143235862382
1592264942.9045289,5.545148882536967,7.732673133622921,0.34752425108595353,-0.6888888888888889,-0.3466666666666667,-0.008888888888888889,0.23042514415363263,-0.14040478249981814,0.12445178433038633
1592264942.9145288,5.508276536600433,7.763034078039741,0.3430340780397405,-0.6888888888888889,-0.3466666666666667,-0.008888888888888889,0.23100843441485397,-0.053083635304893045,0.28760905281298893
1592264942.9245288,5.494711305422231,7.7652886945777695,0.22024259848880864,-0.6888888888888889,-0.3466666666666667,-0.008888888888888889,0.18800079490799515,0.03607045581537538,0.23233319363545024
1592264942.9345288,5.586265397536394,7.747676371780515,0.23777995520716688,-0.6888888888888889,-0.3466666666666667,-0.008888888888888889,0.1797336105930261,-0.09441091561105594,0.17417990157553434
1592264942.9445288,5.857589670014347,7.856047824007653,0.11318125298900047,-0.7074243052234443,-0.3232959243317924,-0.03951262022424146,0.2619699768311324,-0.26256928166275934,0.2180240511405384
1592264942.9545288,5.981542065677531,7.886152644774157,0.07077103283876536,-0.7144444444444444,-0.31444444444444447,-0.051111111111111114,0.2711534265201895,-0.19751596000468696,0.18757658214032055
1592264942.9645288,6.162140597798102,7.828081063188093,0.07808106318809308,-0.7144444444444444,-0.31444444444444447,-0.051111111111111114,0.21236174809114183,-0.12847693313458614,0.13102059121308485
1592264942.9745288,6.358499146953222,7.8515497440859665,0.12232461612895011,-0.7144444444444444,-0.31444444444444447,-0.051111111111111114,0.21195927351510535,-0.025043775924462996,0.12627746130144066
1592264942.9845288,6.270101381193287,7.929959447522685,-0.017886453063518853,-0.7144444444444444,-0.31444444444444447,-0.051111111111111114,0.20813582160719118,0.0059196819132513664,0.12696429826338082
1592264942.9945288,5.99065764840872,7.883649978863458,0.002846186363910874,-0.7026358945454302,-0.3240388912373936,-0.03708845810603163,0.24709290191836036,0.01621898511178845,0.11280154706899323
1592264943.0045288,5.920238959089203,7.857347679219317,0.00928312273239084,-0.6966666666666667,-0.3288888888888889,-0.03,0.2337961662400336,0.04608988648761236,0.07558530669252028
1592264943.0145288,6.018559377818953,7.96676914450106,-0.08537069995367776,-0.6966666666666667,-0.3288888888888889,-0.03,0.11107865738576445,0.08944352329859603,0.039808422261950596
1592264943.0245287,5.927173706240486,7.831901874048706,-0.10527183219178082,-0.6966666666666667,-0.3288888888888889,-0.03,0.13726097966069553,0.017038160428488103,0.08193091785622139
1592264943.0345287,5.921104528309339,7.735236684637715,-0.02826431265675297,-0.6966666666666667,-0.3288888888888889,-0.03,0.1208961140640899,0.0975217626732381,0.12644707848147058
1592264943.0445287,6.0174616079494125,7.815907859078591,0.13492321589882567,-0.706430793937569,-0.3215657934357121,-0.03366154772658837,0.05010431147027759,0.21011746107794424,0.1776645062534291
1592264943.0545287,6.200196635246391,7.87,-0.08699439207731774,-0.7144444444444444,-0.31555555555555553,-0.03666666666666667,0.05129585874979427,0.0805793744506953,0.229114682282947
1592264943.0645287,6.180137267136108,7.907448524823959,-0.20127573758802034,-0.7144444444444444,-0.31555555555555553,-0.03666666666666667,-0.016799319096013253,0.06648078364528694,0.188927754363773
1592264943.0745287,6.012587692161249,7.750979486935415,-0.08258769216124887,-0.7144444444444444,-0.31555555555555553,-0.03666666666666667,-0.0253027988974592,0.14023901419049398,0.20567105356527796
1592264943.0845287,5.871022266561949,7.6724478359618775,-0.02591793848570398,-0.7144444444444444,-0.31555555555555553,-0.03666666666666667,-0.04405499018213993,0.0525412003052127,0.20525521756103848
1592264943.0945287,5.803607054196085,7.684428216784344,0.06868007866653772,-0.7066308440174385,-0.31129359168627957,-0.045900921716764645,-0.0477311354687743,0.13274500102655634,0.1801118228584257
1592264943.1045287,5.831565030573459,7.7362865642042635,0.05740042968104446,-0.7022222222222222,-0.3088888888888889,-0.051111111111111114,-0.05206188660239035,0.2622479065542066,0.13264437416944758
1592264943.1145287,5.8007492523579485,7.728204738900391,0.04011870255348515,-0.7022222222222222,-0.3088888888888889,-0.051111111111111114,-0.08415743175940865,0.20188946562944438,0.14709465401583077
1592264943.1245286,5.825651066238914,7.749410266087941,0.04997546706925836,-0.7022222222222222,-0.3088888888888889,-0.051111111111111114,-0.06749482015101774,0.1830719337431854,0.12084640884401929
1592264943.1345286,5.932575263471863,7.780195863988864,0.07307218134818054,-0.7022222222222222,-0.3088888888888889,-0.051111111111111114,-0.07060171774863133,0.20688988579116357,0.047878252757787274
1592264943.1445286,6.024848816029144,7.804711376055638,0.14010995197880444,-0.7083165351143493,-0.31498320178101596,-0.051111111111111114,-0.03284186400289305,0.26537891676927294,0.12256404156439059
1592264943.1545286,6.1237708206970565,7.91,0.11250594877058741,-0.7144444444444444,-0.3211111111111111,-0.051111111111111114,0.0016323527124998283,0.3775758094304241,0.096362911335572
1592264943.1645286,6.097805364465458,7.759215497344657,0.14319761579312973,-0.7144444444444444,-0.3211111111111111,-0.051111111111111114,0.034684517734018386,0.3952295490374913,0.0633537613493343
1592264943.1745286,5.872683054269089,7.578378814867593,0.11041610260064126,-0.7144444444444444,-0.3211111111111111,-0.051111111111111114,0.058571511829006884,0.4162935662862625,0.0368050010771504
1592264943.1845286,5.976198609731877,7.574899702085402,0.23469910625620655,-0.7144444444444444,-0.3211111111111111,-0.051111111111111114,0.06162099840578341,0.3995305855019157,0.06484138652225184
1592264943.1945286,6.091300309597523,7.6730224458204335,0.39697755417956654,-0.7076302889576883,-0.3247802717578259,-0.06473942208462333,0.06975153645196959,0.3029153497661801,0.08225936356287807
1592264943.2045286,5.838410960814391,7.715941291312229,0.3540587086877702,-0.7,-0.3288888888888889,-0.08,0.14802722793106227,0.16845501565682564,0.028092201193352814
1592264943.2145286,5.937786477837543,7.8311186763804725,0.3277762647239055,-0.7,-0.3288888888888889,-0.08,0.18010687961931407,0.13138520903712353,0.01830080869472828
1592264943.2245286,5.875413471354971,7.787268928512073,0.23567059996676085,-0.7,-0.3288888888888889,-0.08,0.19953182774051498,0.09155701015338721,-0.0027888584997641415
1592264943.2345285,5.764575135387852,7.708897027311333,0.2045751353878521,-0.7,-0.3288888888888889,-0.08,0.17892570037805203,0.00948598212278632,-0.03651429290099456
1592264943.2445285,5.9116315053695105,7.808783122577365,0.33943572472517,-0.7,-0.3198549773004879,-0.08903391158840102,0.16294458970771608,0.016880046629923234,-0.01994271850472932
1592264943.2545285,5.939065239479218,7.934970345691265,0.30508896292620685,-0.7,-0.30666666666666664,-0.10222222222222223,0.17222419206813236,0.19117540833573712,0.07285585105095438
1592264943.2645285,6.020012955165872,8.006472493406745,0.17,-0.7,-0.30666666666666664,-0.10222222222222223,0.19179912154065443,0.3443233887486324,0.02007904884527427
1592264943.2745285,6.118765560411007,8.0402057399315,0.2006172197944963,-0.7,-0.30666666666666664,-0.10222222222222223,0.2223455058065057,0.4267168206615351,-0.014710562328781485
1592264943.2845285,5.9471533004926105,7.953871330049262,0.2592565517241379,-0.7,-0.30666666666666664,-0.10222222222222223,0.16665087213684882,0.36931302385676457,0.04847222113362035
1592264943.2945285,5.801733989215779,7.839556648692965,0.323467978431558,-0.7,-0.31188177298479064,-0.09874548467680622,0.12677818139617578,0.26915362976464163,0.025880100482339144
1592264943.3045285,5.8255615893063375,7.970108607514068,0.29326092832395506,-0.7,-0.32,-0.09333333333333334,0.1229140899435488,0.2815805561484913,-0.03860992029957705
1592264943.3145285,5.721858137096005,7.845099628181905,0.09201639813137572,-0.7,-0.32,-0.09333333333333334,0.1355648180526137,0.21864506542801615,-0.005117825687618752
1592264943.3245285,5.815056666272329,7.831174730864782,0.15505666627232936,-0.7,-0.32,-0.09333333333333334,0.10602913919841034,0.22175868437743135,-0.02336927835060827
1592264943.3345284,5.9484928794942205,7.939547863848267,0.28932179577239925,-0.7,-0.32,-0.09333333333333334,0.08154926653673247,0.2707866380540964,-0.03389795492942192
1592264943.3445284,5.742754744671625,7.872754744671625,0.2181131383209366,-0.695974858150903,-0.31516982978108354,-0.10178613121643708,0.038212041354186335,0.09228866484114717,-0.11229768354283551
1592264943.3545284,5.838009748941104,7.978810723835215,0.2878034121293864,-0.6888888888888889,-0.30666666666666664,-0.11666666666666667,-0.02422069714944255,-0.0023537485678301363,-0.08810438975932419
1592264943.3645284,5.905067579544447,8.144824293184437,0.30504054772666844,-0.6888888888888889,-0.30666666666666664,-0.11666666666666667,-0.07088630857890556,-0.028228908219677294,0.01749752322835348
1592264943.3745284,5.916622348619504,8.040621637634791,0.28542220642256194,-0.6888888888888889,-0.30666666666666664,-0.11666666666666667,-0.08943362111769006,-0.03750020035577607,-0.03186691700871819
1592264943.3845284,5.91564607344835,7.846823681007947,0.29364736201589237,-0.6888888888888889,-0.30666666666666664,-0.11666666666666667,-0.1028845762078229,0.044057490992127066,-0.09137357441913097
1592264943.3945284,5.773298646284188,7.800936089879363,0.35543834607238234,-0.6936140016985398,-0.3085042105370865,-0.11509162906344968,-0.08753065681262427,0.15656259556396251,-0.11724080286520534
1592264943.4045284,5.59,7.61,0.47,-0.7088888888888889,-0.31444444444444447,-0.11,-0.042542400517361786,0.3065234498815041,-0.07308566242726255
1592264943.4145284,5.817367904027625,7.700528383889501,0.45420742416574883,-0.7088888888888889,-0.31444444444444447,-0.11,0.05264878064892199,0.13141736199514698,0.006486632570543702
1592264943.4245284,5.815768260199075,7.685902612271602,0.37628043366512454,-0.7088888888888889,-0.31444444444444447,-0.11,0.13231108589407775,0.1865586221898876,-0.0875842711194358
1592264943.4345284,6.00541102045851,7.781597737405065,0.4533859627482423,-0.7088888888888889,-0.31444444444444447,-0.11,0.10467669778027419,0.19228312114087162,-0.10280916257253087
1592264943.4445283,6.247603815284402,8.012304292194951,0.5188019076422008,-0.7035893657994391,-0.31444444444444447,-0.11382743334238042,0.035550019132946906,0.1486219827274036,-0.04987153482683721
1592264943.4545283,6.124938239740422,7.8781018399026586,0.4566254931602817,-0.6888888888888889,-0.31444444444444447,-0.12444444444444444,0.04208621517260772,0.09708788128949421,-0.08743703939808554
1592264943.4645283,5.877186260092672,7.717388807191809,0.3042712466357759,-0.6888888888888889,-0.31444444444444447,-0.12444444444444444,0.042500602639649526,0.05875498311619087,-0.034473806000489327
1592264943.4745283,5.697995483180792,7.695939617259004,0.22393510043979556,-0.6888888888888889,-0.31444444444444447,-0.12444444444444444,0.02510523771919937,-0.08619489931445987,-0.15878790506263374
1592264943.4845283,5.5664071408209805,7.72095816704675,0.1852693842645382,-0.6888888888888889,-0.31444444444444447,-0.12444444444444444,0.09178005482196039,-0.08134848016216542,-0.27532702660939307
1592264943.4945283,5.612751033261169,7.689518598701043,0.2820082660893525,-0.6910285814253537,-0.3123047519079796,-0.12811248879266984,0.05121202558941155,-0.1313048105471974,-0.19622197311644346
1592264943.5045283,5.631315076517537,7.82931829830856,0.33600644358204584,-0.6966666666666667,-0.30666666666666664,-0.13777777777777778,0.036719950438950585,-0.0989822104466666,-0.06595983849597171
1592264943.5145283,5.7939275479988535,7.853956204030949,0.2839275479988538,-0.6966666666666667,-0.30666666666666664,-0.13777777777777778,0.09030185632789448,-0.05952149579868235,-0.05695717342093576
1592264943.5245283,5.938553183555514,7.78236878903701,0.2938486995432087,-0.6966666666666667,-0.30666666666666664,-0.13777777777777778,0.08078594949195717,-0.10808198906923296,-0.14379624852787393
1592264943.5345283,6.056264741086671,7.823213704059808,0.33966348134921415,-0.6966666666666667,-0.30666666666666664,-0.13777777777777778,0.04380024957970479,-0.10719630465613109,-0.2484298345604984
1592264943.5445282,5.894965554194734,7.60248966625842,0.3600321494182486,-0.694723115261618,-0.3116643702796489,-0.13444597536912295,0.07253749156940208,-0.06327269433015995,-0.12410116452677522
1592264943.5545282,6.12,7.67,0.15,-0.6888888888888889,-0.32666666666666666,-0.12444444444444444,0.09053895494720585,-0.03381575425739013,0.001090830782496456
1592264943.5645282,6.087505592539687,8.02256124841657,0.4577505862059672,-0.6888888888888889,-0.32666666666666666,-0.12444444444444444,0.0913989951833153,0.17105636696882612,-0.19960989096810522
1592264943.5745282,5.78520953479431,7.96520953479431,0.15895809304113803,-0.6888888888888889,-0.32666666666666666,-0.12444444444444444,0.02333857832185516,0.03399860786029996,-0.20724484761540415
1592264943.5845282,5.73,7.91,0.17,-0.6888888888888889,-0.32666666666666666,-0.12444444444444444,0.053450708342326333,-0.014180800172453926,-0.2825251726665821
1592264943.5945282,5.608445855750172,7.883296792200963,0.25689171150034384,-0.6854046716916342,-0.31949327831937757,-0.12444444444444444,0.07961008455824131,0.018777018608860052,-0.09328396898985467
1592264943.6045282,5.69,8.34,0.42,-0.67,-0.2877777777777778,-0.12444444444444444,0.011999138607461015,0.02945243112740431,0.1308996938995747
1592264943.6145282,5.746072572548645,7.850362862743223,0.05749199215948748,-0.67,-0.2877777777777778,-0.12444444444444444,0.053079918704063214,0.09871291082935574,-0.040810692960657785
1592264943.6245282,5.8032194870473,7.659476736692873,0.2324345920866091,-0.67,-0.2877777777777778,-0.12444444444444444,0.10462106157547721,0.04831920640121014,-0.04294195472329746
1592264943.6345282,5.984838541573074,7.569608258908516,0.17195870545742062,-0.67,-0.2877777777777778,-0.12444444444444444,0.14720440819348735,0.05991022838903315,-0.08606013693015162
1592264943.6445282,6.083031217788249,7.617280960094242,0.11849948461198645,-0.6718524108705968,-0.29181940149544333,-0.12444444444444444,0.10078266074557946,0.07642790786962735,-0.02892733529056424
1592264943.6545281,6.1,7.77,0.39,-0.6822222222222222,-0.31444444444444447,-0.12444444444444444,0.03599741582238304,0.14398966328953217,-0.09926560120717749
1592264943.6645281,5.75971240480906,7.813847248179865,0.1350966554157717,-0.6822222222222222,-0.31444444444444447,-0.12444444444444444,0.11941485755677253,0.1859138786921851,-0.040340169296061365
1592264943.6745281,5.713575734379485,7.8756544828246104,0.1978999617261506,-0.6822222222222222,-0.31444444444444447,-0.12444444444444444,0.056512309521885934,0.17314258825194048,0.008874076982416988
1592264943.684528,5.83,8.19,0.39,-0.6822222222222222,-0.31444444444444447,-0.12444444444444444,0.042542400517361786,0.2912518189265538,-0.007635815477475192
1592264943.694528,5.510960357342267,8.083673925181463,0.3132774986041318,-0.6815819839940442,-0.3149779763012594,-0.1264718655003412,0.14821168393959663,0.10610659023509497,0.008892920298844642
1592264943.704528,5.52,7.93,0.25,-0.6755555555555556,-0.32,-0.14555555555555555,0.10581058590215622,0.08835729338221293,0.020725784867432664
1592264943.714528,5.645626088158076,8.256895675003454,0.6812347657869283,-0.6755555555555556,-0.32,-0.14555555555555555,0.07744518716900478,0.034425666883933406,-0.17189832090936033
1592264943.724528,5.724046380785778,8.330325989314925,0.385814145903267,-0.6755555555555556,-0.32,-0.14555555555555555,0.03795581577055277,-0.06226350810909012,-0.10870749434469877
1592264943.734528,5.813037891986062,8.01978912601626,0.25261614401858307,-0.6755555555555556,-0.32,-0.14555555555555555,0.022327348703580552,-0.08784153218144417,-0.1728343220830913
1592264943.744528,5.77081449031171,8.042307329401854,0.29126672283066557,-0.6755555555555556,-0.3173755312178227,-0.1438360760086118,-0.057734999082004926,0.04944277365396396,-0.06625450696086899
1592264943.754528,5.801136085590232,7.832157747019455,0.24908868472185575,-0.6755555555555556,-0.2877777777777778,-0.12444444444444444,-0.009172874996362178,0.07650660112563114,-0.22868930976078117
1592264943.764528,5.793346383878173,7.984112602983211,0.4702815074580261,-0.6755555555555556,-0.2877777777777778,-0.12444444444444444,-0.03783620967138747,0.10872231517602145,-0.32258656394547025
1592264943.774528,5.71,7.92,0.31,-0.6755555555555556,-0.2877777777777778,-0.12444444444444444,-0.0839939702522271,0.09053895494720585,-0.2694352032766246
1592264943.784528,5.919505331918933,8.089505331918932,0.42732622410809,-0.6755555555555556,-0.2877777777777778,-0.12444444444444444,-0.09314718000952471,0.22148493500582792,-0.4534130019381944
1592264943.794528,5.825835520071465,7.995835520071465,0.5522193065713807,-0.6755555555555556,-0.2877777777777778,-0.12444444444444444,-0.10506793666080946,0.12697036441349877,-0.45171003670229654
1592264943.804528,5.811741731760013,7.920368954628553,0.5484427455542629,-0.67,-0.2877777777777778,-0.13777777777777778,-0.00827831245157648,0.04020301537238351,-0.21967486412301324
1592264943.814528,5.84487628630231,7.754516807683513,0.46211250857534875,-0.67,-0.2877777777777778,-0.13777777777777778,-0.19687407754486483,0.22347568116693206,-0.40381822194476485
1592264943.824528,5.630648241596149,7.714675879201926,0.6946758792019253,-0.67,-0.2877777777777778,-0.13777777777777778,-0.11022838988016674,0.1925333691583724,-0.4457266742736712
1592264943.834528,5.465032714984182,7.710065429968363,0.7824789689387402,-0.67,-0.2877777777777778,-0.13777777777777778,-0.022921721037143315,0.11563112178849241,-0.43337815610108277
1592264943.844528,5.3601502881739265,7.501578025826221,0.8500751440869628,-0.6701419388309299,-0.28781952449275716,-0.1379948606956705,0.02308777929542528,0.1052204056232481,-0.2872983432124763
1592264943.854528,5.38,7.71,0.86,-0.6888888888888889,-0.29333333333333333,-0.16666666666666666,0.04690572364734761,0.0272707695624114,-0.34143003492139073
1592264943.864528,5.188044868199663,8.105697139652271,1.132956814357824,-0.6888888888888889,-0.29333333333333333,-0.16666666666666666,0.08344592414176141,0.2517494285932777,-0.31690732688944345
1592264943.874528,5.341680668269116,7.973255194078869,0.5020742997215546,-0.6888888888888889,-0.29333333333333333,-0.16666666666666666,0.094641272039751,0.14835057210069147,-0.2883947192193158
1592264943.884528,5.580759329833897,8.02734072769109,0.804937261810599,-0.6888888888888889,-0.29333333333333333,-0.16666666666666666,0.012814281068049119,0.24754926845620356,-0.31305421777348236
1592264943.894528,5.520440066153735,7.642805421730063,1.0085147767311426,-0.6888888888888889,-0.29333333333333333,-0.16666666666666666,0.18635679513762754,0.14473972220645331,-0.16254104206384803
1592264943.904528,5.94,7.88,0.57,-0.6888888888888889,-0.29333333333333333,-0.1511111111111111,0.2203478180642841,0.24216443371421323,-0.29779680362153244
1592264943.914528,5.458062042154815,8.116401237669585,0.42217993811652077,-0.6888888888888889,-0.29333333333333333,-0.1511111111111111,0.3066556604301562,0.3245164026095283,-0.42252128695063695
1592264943.924528,5.208814561515994,8.0951566099119,0.4211854384840066,-0.6888888888888889,-0.29333333333333333,-0.1511111111111111,0.32727604508020136,0.24554406377195417,-0.2932986258204707
1592264943.9345279,5.1315761083832125,8.382817640944769,0.4109359879574209,-0.6888888888888889,-0.29333333333333333,-0.1511111111111111,0.11235557059713495,0.3042042469132345,-0.27983617567816116
1592264943.9445279,4.7933382316046025,8.255038887495072,0.44851797426615536,-0.6888888888888889,-0.29333333333333333,-0.1511111111111111,0.11235557059713495,0.3337210699369426,-0.18062685384847563
1592264943.9545279,4.63,8.37,0.86,-0.6622222222222223,-0.29333333333333333,-0.16444444444444445,0.2476185876266955,0.19416787928436915,-0.222529479629277
1592264943.9645278,4.86,8.31877445450293,0.7824194480367609,-0.6622222222222223,-0.29333333333333333,-0.16444444444444445,0.23546787387542115,0.18328436375025406,-0.17048247717818177
1592264943.9745278,4.86,8.2,0.74,-0.6622222222222223,-0.29333333333333333,-0.16444444444444445,0.3567016658763411,0.11017390903214205,-0.3065234498815041
1592264943.9845278,5.088387162340698,8.246129392873838,0.602580743511047,-0.6622222222222223,-0.29333333333333333,-0.16444444444444445,0.2797190199570579,0.24320236256278752,-0.21471773085520818
1592264943.9945278,5.1565885485477345,8.621237017012541,0.704882822821602,-0.6622222222222223,-0.29333333333333333,-0.16444444444444445,0.381083803603415,0.11858877532781636,-0.22215734800356468
1592264944.0045278,4.88,8.43,0.3,-0.6755555555555556,-0.32,-0.18777777777777777,0.3217950808364545,0.37306412761378793,-0.1810779098944117
1592264944.0145278,5.114442245313102,8.188755016768376,0.05974105228434769,-0.6755555555555556,-0.32,-0.18777777777777777,0.1920883500423512,0.13810527021966745,-0.18304118340649014
1592264944.0245278,5.2454393826835055,8.667974070790098,0.27520812863955524,-0.6755555555555556,-0.32,-0.18777777777777777,0.2779650874934164,0.23581621106241432,-0.1085452306292889
1592264944.0345278,4.96,8.36,0.14,-0.6755555555555556,-0.32,-0.18777777777777777,0.40578905108868163,0.10799224746714915,-0.10362892433716332
1592264944.0445278,5.51831531504096,8.27252702743856,0.09449249322410695,-0.6751811811202133,-0.31962562556465773,-0.186873039559034,0.1336397098755126,-0.006570862734372247,0.01446349865157945
1592264944.0545278,5.46,8.36,0.25,-0.6622222222222223,-0.30666666666666664,-0.15555555555555556,0.07744898555724837,0.10581058590215622,-0.05126904677733343
1592264944.0645278,5.253925262667564,8.450654210444593,0.3459810568811138,-0.6622222222222223,-0.30666666666666664,-0.15555555555555556,0.1478942062870939,0.06293186330150002,-0.11425177900565037
1592264944.0745277,5.2741462029808375,8.41311426543648,-0.12069410929737404,-0.6622222222222223,-0.30666666666666664,-0.15555555555555556,0.09543228712878647,0.26100940644325205,-0.11333282801143253
1592264944.0845277,5.071392669046693,8.145282245237,-0.012641122618500584,-0.6622222222222223,-0.30666666666666664,-0.15555555555555556,-0.014229344089429751,0.2620416446937952,-0.12364097096222942
1592264944.0945277,5.234473860945177,8.338014562935209,-0.10900728146760454,-0.6622222222222223,-0.30666666666666664,-0.15555555555555556,-0.14764983221623793,0.25557277254219246,-0.05167476827564804
1592264944.1045277,4.959719508510425,8.642585356027798,0.280560982979152,-0.6677777777777778,-0.30666666666666664,-0.16333333333333333,0.054762363968494654,0.03192275800421206,-0.14064933047389985
1592264944.1145277,5.03,8.83,0.14,-0.6677777777777778,-0.30666666666666664,-0.16333333333333333,0.09053895494720585,0.14180800172453928,-0.06654067773228381
1592264944.1245277,5.0536646183535625,8.430857244426388,-0.13366461835356255,-0.6677777777777778,-0.30666666666666664,-0.16333333333333333,0.09257159742708802,-0.13663438039458517,0.05769481620422358
1592264944.1345277,5.051470635131544,8.217960138187618,-0.021774116396492155,-0.6677777777777778,-0.30666666666666664,-0.16333333333333333,0.015778752764915648,-0.037194807698593485,0.005483142240478465
1592264944.1445277,5.281824608025512,8.151083178315174,0.35719532288068034,-0.6677777777777778,-0.30666666666666664,-0.16333333333333333,0.012536466255198307,0.15004723823758306,0.05411743988623861
1592264944.1545277,5.15,8.32,0.16,-0.6733333333333333,-0.31444444444444447,-0.16111111111111112,-0.011999138607461015,0.15271630954950383,0.09053895494720585
1592264944.1645277,5.197701822746411,8.495226862627161,0.12743664844791966,-0.6733333333333333,-0.31444444444444447,-0.16111111111111112,0.11966612514775474,0.0016429927277879489,0.07128260663504855
1592264944.1745276,4.959505928853756,7.977648221343873,-0.10984189723320158,-0.6733333333333333,-0.31444444444444447,-0.16111111111111112,-0.14026661040144645,-0.14824950840062506,-0.12917721604341922
1592264944.1845276,5.133229180817824,8.15910415898461,0.36658334465425896,-0.6733333333333333,-0.31444444444444447,-0.16111111111111112,0.06194101181393867,0.17130588501663432,-0.11282599097514752
1592264944.1945276,4.848329031381605,8.313764240107128,0.13866322510528456,-0.6733333333333333,-0.31444444444444447,-0.16111111111111112,-0.016197419783124986,0.15354715056275625,-0.12081742147939269
1592264944.2045276,4.81,8.45,0.04,-0.6733333333333333,-0.31444444444444447,-0.18444444444444444,-0.022907446432425576,0.09490227807719166,0.13962634015954636
1592264944.2145276,4.817430274753758,7.812496371176775,0.06675479523068947,-0.6733333333333333,-0.31444444444444447,-0.18444444444444444,0.03181029946887513,-0.08234409576232993,0.08803371983439309
1592264944.2245276,5.032288096113768,8.181440480568837,0.2691523844550693,-0.6733333333333333,-0.31444444444444447,-0.18444444444444444,0.08778434310582114,0.021280547944312434,0.014365721198080517
1592264944.2345276,5.045837398373983,8.254390243902439,0.37226016260162603,-0.6733333333333333,-0.31444444444444447,-0.18444444444444444,0.017412497222386514,-0.04677092179455129,0.00935276539203872
1592264944.2445276,5.015859376395961,8.141972661484855,0.6045898329312964,-0.6733333333333333,-0.31444444444444447,-0.18444444444444444,0.1506688650982118,-0.20291795409076374,0.08456494848759656
1592264944.2545276,5.34,8.57,0.59,-0.6611111111111111,-0.3,-0.18222222222222223,-0.011999138607461015,-0.10362892433716332,-0.10144726277217041
1592264944.2645276,4.991869991095281,8.182083704363313,0.7690382902938557,-0.6611111111111111,-0.3,-0.18222222222222223,0.08565110054157613,-0.03201874896120274,0.035263072036481616
1592264944.2745275,5.150430928580031,8.196066241117668,0.4721878838973865,-0.6611111111111111,-0.3,-0.18222222222222223,0.1341733949238314,0.04188188493960926,-0.18562926108845978
1592264944.2845275,5.22,8.57,0.22,-0.6611111111111111,-0.3,-0.18222222222222223,0.11235557059713495,-0.020725784867432664,-0.2159844949342983
1592264944.2945275,5.107169380520339,8.499480862825212,0.39629784293697046,-0.6611111111111111,-0.3,-0.18222222222222223,0.09081672583323722,-0.022264273779139646,-0.18829169452357258
1592264944.3045275,5.02,8.35,-0.12,-0.68,-0.29333333333333333,-0.18222222222222223,0.25634523388666713,-0.014180800172453926,-0.2247111411942699
1592264944.3145275,4.954214885906575,8.17144040460356,-0.16698936720958943,-0.68,-0.29333333333333333,-0.18222222222222223,0.1271764644169978,-0.16487769788706816,-0.06786334969538571
1592264944.3245275,5.413055760489303,8.19479925747876,0.3231276327375711,-0.68,-0.29333333333333333,-0.18222222222222223,0.048373681414715805,-0.37206156225075615,-0.12246650419890574
1592264944.3345275,4.937633119500823,8.495343183650578,0.2036626704525537,-0.68,-0.29333333333333333,-0.18222222222222223,-0.06206118592289867,0.03599674664796254,-0.15371548255566053
1592264944.3445275,5.011147684649631,8.546803379254742,0.4315578224138535,-0.68,-0.29333333333333333,-0.18222222222222223,0.0020923745780286607,0.14104820196823104,-0.16333851663079965
1592264944.3545275,4.92,8.66,0.47,-0.6877777777777778,-0.3,-0.16,-0.03599741582238304,-0.10581058590215622,0.03381575425739013
1592264944.3645275,5.2298566205168235,8.78758802021281,0.26950453966558485,-0.6877777777777778,-0.3,-0.16,-0.04395038381814949,-0.08791640791168172,-0.08150228168122331
1592264944.3745275,4.941342904841402,8.410327212020034,0.356591652754591,-0.6877777777777778,-0.3,-0.16,0.046090751040030714,-0.08362217724295419,-0.22650986470092666
1592264944.3845274,5.229467398837768,8.549210961241137,0.04053260116223277,-0.6877777777777778,-0.3,-0.16,-0.053433494186991316,-0.049057260440504236,-0.2803779394122592
1592264944.3945274,5.028216132643813,8.251060937250093,0.24178386735618704,-0.6877777777777778,-0.3,-0.16,-0.046928869707561584,-0.03767416760150219,-0.29338718837111866
1592264944.4045274,5.54,8.55,0.0,-0.68,-0.31444444444444447,-0.17333333333333334,0.0643590161672909,-0.23343778745424157,-0.20943951023931953
1592264944.4145274,5.464232109903629,8.407935206069306,-0.14206479393069507,-0.68,-0.31444444444444447,-0.17333333333333334,0.01890154540422965,0.02794266943336063,-0.0844314656409011
1592264944.4245274,5.0,7.96,0.16,-0.68,-0.31444444444444447,-0.17333333333333334,0.07090400086226964,-0.0643590161672909,-0.1854412330243975
1592264944.4345274,5.184126314112775,8.477307263459702,0.037249123924816815,-0.68,-0.31444444444444447,-0.17333333333333334,-0.05343211661028953,0.059977101305268274,-0.1156217209051912
1592264944.4445274,5.03325295723385,8.29640641690074,-0.010738616133243659,-0.68,-0.31444444444444447,-0.17333333333333334,-0.0943754409449087,0.11349441139844407,-0.17371010899836206
1592264944.4545274,4.76,8.27,0.12,-0.7122222222222222,-0.31444444444444447,-0.16444444444444445,-0.11890055529211369,0.05563236990731925,-0.15053464798451094
1592264944.4645274,5.0103786536758195,8.451308680248008,0.32720992028343665,-0.7122222222222222,-0.31444444444444447,-0.16444444444444445,-0.04167331080181212,-0.004642552621696605,-0.18067210924901883
1592264944.4745274,5.03,8.65,0.3,-0.7122222222222222,-0.31444444444444447,-0.16444444444444445,-0.038179077387375956,0.044724062082354694,-0.31306843457648287
1592264944.4845273,5.2174918699187,8.837491869918699,0.5130589430894309,-0.7122222222222222,-0.31444444444444447,-0.16444444444444445,-0.14322896401824248,0.2845724758059261,-0.3223648847208073
1592264944.4945273,4.823458464230326,8.458692090507814,0.2757947270052094,-0.7122222222222222,-0.31444444444444447,-0.16444444444444445,-0.16144295580947549,0.2173150334713609,-0.35222616680475044
1592264944.5045273,5.34,8.29,0.1,-0.6877777777777778,-0.3,-0.21666666666666667,-0.1461713248545251,0.09272061651219875,-0.3752457891787809
1592264944.5145273,4.845972901768913,8.002566051938276,0.05508844561535567,-0.6877777777777778,-0.3,-0.21666666666666667,-0.13637314365201836,0.20539970034102634,-0.2704052503119587
1592264944.5245273,4.557053953753925,8.39251926919783,0.2679845846417357,-0.6877777777777778,-0.3,-0.21666666666666667,-0.14536371148472646,0.09935419422962118,-0.27941530845958906
1592264944.5345273,4.83,8.49,0.19,-0.6877777777777778,-0.3,-0.21666666666666667,-0.19853120241435498,0.2716168648416175,-0.41233403578366035
1592264944.5445273,4.024751083208065,7.489030860376691,0.27388009549916,-0.6877777777777778,-0.3,-0.21666666666666667,-0.1826713774447558,0.20756757169515924,-0.48980318082747176
1592264944.5545273,6.42,10.08,0.69,-0.68,-0.32,-0.19555555555555557,-0.0032724923474893677,0.19198621771937624,-0.5159629601208237
1592264944.5645273,5.078891374596073,8.92176982351479,0.827158836689038,-0.68,-0.32,-0.19555555555555557,-0.22271087803680625,0.19863586577056766,-0.6680736592918275
1592264944.5745273,4.539717784368124,8.998250263082369,0.13038099110303264,-0.68,-0.32,-0.19555555555555557,-0.02707374588333809,0.20302536158122544,-0.7906876178282052
1592264944.5845273,4.34,7.76,0.4,-0.68,-0.32,-0.19555555555555557,0.11235557059713495,0.29561514205653955,-0.6741334235828097
1592264944.5945272,4.13690855295266,8.03993685944363,0.36706625183016106,-0.68,-0.32,-0.19555555555555557,0.08122044381537454,0.0680892155744442,-0.608869407828735
1592264944.6045272,4.21,8.7,0.38,-0.6877777777777778,-0.3333333333333333,-0.19555555555555557,-0.2781618495365963,0.09926560120717749,-0.8388488717397746
1592264944.6145272,4.21,8.479633385633921,0.4901833071830393,-0.6877777777777778,-0.3333333333333333,-0.19555555555555557,-0.37206133640575423,-0.04195922704403603,-0.9237340078694934
1592264944.6245272,4.459512319745657,8.898217894856364,0.7319325536505052,-0.6877777777777778,-0.3333333333333333,-0.19555555555555557,0.036667898362788276,-0.0932486296410488,-0.6543448217647423
1592264944.6345272,4.456122672508215,8.850613362541074,0.8302026286966045,-0.6877777777777778,-0.3333333333333333,-0.19555555555555557,0.2834565008100169,-0.10785843251902252,-0.7435887581539765
1592264944.6445272,4.1243071935721245,8.568945128378513,0.6800125295837394,-0.6877777777777778,-0.3333333333333333,-0.19555555555555557,0.22705898409602865,0.01869116992131689,-0.8871116417288163
1592264944.6545272,4.699594339622641,9.237961886792453,0.8623818867924529,-0.668321928721174,-0.3527891823899371,-0.19555555555555557,-0.15077314887333304,-0.043403621710999166,-0.9295065420068567
1592264944.6645272,4.128952660677263,8.768567380787836,0.6309246717346233,-0.6677777777777778,-0.35333333333333333,-0.19555555555555557,-0.0035112764873344027,-0.1562929454209726,-0.880127355954487
1592264944.6745272,4.112294191513594,8.67996670852437,-0.1392766404812662,-0.6677777777777778,-0.35333333333333333,-0.19555555555555557,0.015733186519813022,-0.2136740730964656,-0.8357087712017662
1592264944.6845272,3.9322533983275867,8.36951412832402,0.1404858716759798,-0.6677777777777778,-0.35333333333333333,-0.19555555555555557,0.06555424818387483,-0.10297350938478235,-0.8530810727682658
1592264944.6945271,3.5329168388938097,8.413595905914772,0.249945674638323,-0.6677777777777778,-0.35333333333333333,-0.19555555555555557,0.020630969224572623,0.0907315492217653,-0.8027714552187285
1592264944.7045271,3.07,8.55,1.13,-0.6588888888888889,-0.37777777777777777,-0.19555555555555557,0.26070855701665296,-0.2454369260617026,-0.8061239482648809
1592264944.7145271,3.634164981652063,9.202086796974463,0.7050445592750693,-0.6588888888888889,-0.37777777777777777,-0.19555555555555557,0.17678921223584132,-0.2534292446122561,-0.7917377748738846
1592264944.7245271,3.1710975962930785,9.100967274833478,0.8707066319142774,-0.6588888888888889,-0.37777777777777777,-0.19555555555555557,0.24912325806313648,-0.18737743397021878,-0.8204731274721078
1592264944.734527,3.590346964064436,9.07,0.7706758173672672,-0.6588888888888889,-0.37777777777777777,-0.19555555555555557,0.23736627555111328,-0.2193685554287344,-0.7177741412820904
1592264944.744527,3.301551046176046,9.049035173160172,0.38263311688311685,-0.6588888888888889,-0.37777777777777777,-0.19555555555555557,0.1914058973171585,-0.27055454440911814,-0.7875571780246589
1592264944.754527,3.169032234982648,9.310967049479446,0.9787077385424494,-0.645842327247286,-0.39784941107255156,-0.19555555555555557,0.1023975199623606,-0.08040532391493405,-0.8351892751551709
1592264944.764527,3.220909128734293,9.362626279437464,0.4547470250478489,-0.6444444444444445,-0.4,-0.19555555555555557,0.03690088913337474,-0.1337094659413492,-0.8317309217540314
1592264944.774527,3.0912682170542634,9.291193798449612,-0.08992558139534884,-0.6444444444444445,-0.4,-0.19555555555555557,0.09311162438338197,-0.2801402275976263,-0.8376278177475848
1592264944.784527,3.2770201720909284,9.361007893426883,0.5300613933202171,-0.6444444444444445,-0.4,-0.19555555555555557,0.07242791114262166,-0.1223747583783201,-0.881068136876833
1592264944.794527,3.1615050605695107,9.455734962504588,0.25706014998164556,-0.6444444444444445,-0.4,-0.19555555555555557,0.06584472895154796,-0.03168866569394432,-0.9087754781529523
1592264944.804527,3.443544004969973,9.006899150962933,0.061392420791054045,-0.6330731460389775,-0.4475527024228619,-0.19555555555555557,0.13438615081885547,-0.2908925608448635,-0.8222172375110413
1592264944.814527,3.3154879404885156,9.026186203458723,-0.19986119099658728,-0.6322222222222222,-0.45111111111111113,-0.19555555555555557,-0.07948412385712053,-0.24488370976010754,-0.9075511754549809
1592264944.824527,3.25,9.096623925794571,0.6457904787887054,-0.6322222222222222,-0.45111111111111113,-0.19555555555555557,-0.09012951521140317,-0.047302763633428835,-1.025672280066124
1592264944.834527,2.8019267092836664,9.186087917291452,0.1675750401178544,-0.6322222222222222,-0.45111111111111113,-0.19555555555555557,0.21381164311992298,-0.1307854254078508,-1.1451205980629156
1592264944.844527,2.8570922024326673,9.689615008688097,0.18667680278019116,-0.6322222222222222,-0.45111111111111113,-0.19555555555555557,0.1368909706148197,-0.12285274373154197,-1.1051442048519036
1592264944.854527,2.0714094711682103,9.12541305646848,0.41451523752614283,-0.6322222222222222,-0.46811290376124554,-0.19555555555555557,0.1846353316747058,-0.23192392160879907,-1.07261371288097
1592264944.864527,2.0391595481964293,9.084264604671876,0.33573539532812435,-0.6322222222222222,-0.4711111111111111,-0.19555555555555557,0.19099470592922158,-0.22654220539145428,-1.040874124253766
1592264944.874527,2.2097753535580735,9.438876767790367,0.2382958922596789,-0.6322222222222222,-0.4711111111111111,-0.19555555555555557,0.2500148453899938,-0.0926530510663124,-0.9085699712482582
1592264944.884527,2.2787445330589144,9.372510933882172,0.19803961924363261,-0.6322222222222222,-0.4711111111111111,-0.19555555555555557,0.2522558111538299,-0.10385960684377821,-0.8806127889562244
1592264944.894527,2.3026250607527947,9.299499756988821,0.21525012150558925,-0.6322222222222222,-0.4711111111111111,-0.19555555555555557,0.2745894980117537,-0.13014302613719464,-1.1443168550178415
1592264944.904527,2.0543345645180504,9.21886691290361,0.23,-0.5933989523897781,-0.49194310955778847,-0.18798028339312745,0.27419614525254365,-0.1622597683744379,-1.1941317514333452
1592264944.914527,1.8869499333252515,9.220254172222896,0.15309370832828223,-0.5866666666666667,-0.4955555555555556,-0.18666666666666668,0.2475678964156448,-0.179228958991167,-1.1205470283178935
1592264944.924527,2.1283994766681205,9.72687200174444,-0.18879960750109026,-0.5866666666666667,-0.4955555555555556,-0.18666666666666668,0.21227172178035428,-0.19020915780310257,-1.1096842440964616
1592264944.934527,1.472755861941761,9.451123971134114,-0.22569524819588224,-0.5866666666666667,-0.4955555555555556,-0.18666666666666668,0.20413703595354596,-0.14915225329678583,-1.1810545828420558
1592264944.944527,1.2139308055661944,9.415330196421731,-0.08474840874687678,-0.5866666666666667,-0.4955555555555556,-0.18666666666666668,0.17472844753042044,-0.1342613729187996,-1.2579182817897965
1592264944.954527,0.9169680831661499,9.495568484406347,0.01518949480211563,-0.5917298316007052,-0.5318415709161651,-0.17569647597624982,0.14216738102884377,-0.13752736129986176,-1.2365203353606666
1592264944.964527,0.87498299668128,9.583852992993814,-0.018869996312533294,-0.5933333333333334,-0.5433333333333333,-0.17222222222222222,0.1268445314712447,-0.13453826954035816,-1.182598670701592
1592264944.974527,0.8163401845049492,9.72273196309901,-0.12546392619802038,-0.5933333333333334,-0.5433333333333333,-0.17222222222222222,0.2655667196273114,-0.16786424592787863,-1.069233446376564
1592264944.9845269,0.6278949519230769,9.866093990384616,-0.22005528846153846,-0.5933333333333334,-0.5433333333333333,-0.17222222222222222,0.21657084270178392,-0.09811747558670617,-1.0854007527262788
1592264944.9945269,0.4710801258261761,9.94756794966953,-0.32918990563036793,-0.5933333333333334,-0.5433333333333333,-0.17222222222222222,0.15566420908754075,-0.03464090395544227,-1.0065412897493418
1592264945.0045269,0.26065542921204354,9.995217008327995,-0.45847653747597694,-0.5823432717631148,-0.5661588458253257,-0.15193287778489573,0.1259199395690702,0.05430289805357197,-0.8646751727535992
1592264945.0145268,0.19020003992812937,9.974457177081254,-0.5012856857656219,-0.5788888888888889,-0.5733333333333334,-0.14555555555555555,0.08116721806157817,0.07122813592648759,-0.8165585537304751
1592264945.0245268,0.12811134937653879,9.910815132502051,-0.5081113493765388,-0.5788888888888889,-0.5733333333333334,-0.14555555555555555,0.04200889754233095,0.1268225864232389,-0.8262836839922476
1592264945.0345268,0.05960216998191682,9.839602169981918,-0.3943037974683544,-0.5788888888888889,-0.5733333333333334,-0.14555555555555555,0.058969957039297555,0.16317684415995357,-0.7998531506924466
1592264945.0445268,-0.0054025359134848155,9.825675316989186,-0.36,-0.5788888888888889,-0.5733333333333334,-0.14555555555555555,-0.02325582991445891,0.12774767243496726,-0.6242897598075512
1592264945.0545268,-0.08041329807329053,9.883884397431054,-0.3465289006422365,-0.539223985224363,-0.5987787432313311,-0.15528468286949587,-0.10011304526502626,0.008915800521084566,-0.6131057065452759
1592264945.0645268,-0.1905046153846154,9.919696923076923,-0.30767692307692307,-0.52,-0.6111111111111112,-0.16,-0.09875878444361759,0.0328237695257999,-0.673229880054662
1592264945.0745268,-0.42869260878260623,9.960868260906832,-0.30956086968943747,-0.52,-0.6111111111111112,-0.16,-0.07792363921907007,0.18600950845904338,-0.6562076590002783
1592264945.0845268,-0.47983314263920673,9.858125715102975,-0.16845942982456139,-0.52,-0.6111111111111112,-0.16,-0.024825812981601386,0.10167964155514073,-0.6761330720023633
1592264945.0945268,-0.53534319054867,9.740649416539828,0.026029571646009983,-0.52,-0.6111111111111112,-0.16,-0.03731286429373015,0.05977510755617403,-0.5839719939662136
1592264945.1045268,-0.38673817319634185,9.781812126002032,0.16393737533401076,-0.507179213762707,-0.6209152417631587,-0.1660333111704908,-0.13477595909408435,0.05867303351562841,-0.4347167782820568
1592264945.1145267,-0.3212193619903929,9.83,0.1446343966826785,-0.5011111111111111,-0.6255555555555555,-0.1688888888888889,-0.13737839664036802,0.09033921338256594,-0.3960248235350827
1592264945.1245267,-0.3669244390411502,9.760755609588498,0.0661511219176996,-0.5011111111111111,-0.6255555555555555,-0.1688888888888889,-0.060831524790513236,0.11688181057443657,-0.44355987056155766
1592264945.1345267,-0.4417573518965762,9.744351470379316,0.07435147037931525,-0.5011111111111111,-0.6255555555555555,-0.1688888888888889,-0.03309917497933024,0.1879994706373328,-0.41739565178279364
1592264945.1445267,-0.47507370093647516,9.805810710301227,0.05463149531762399,-0.5011111111111111,-0.6255555555555555,-0.1688888888888889,-0.05276185381085972,0.154486683028294,-0.38931403600094644
1592264945.1545267,-0.6170214952470668,9.843557420570352,0.10125117752847479,-0.5011111111111111,-0.6255555555555555,-0.1646259979256468,-0.11610065975276423,0.19217669506505666,-0.14921970972173623
1592264945.1645267,-1.3582276912181301,9.546975920679886,0.3937092776203966,-0.5011111111111111,-0.6255555555555555,-0.16111111111111112,-0.05846354703915631,0.16324645755291597,0.03552577829213228
1592264945.1745267,-0.40635362755246085,9.340454502681848,0.6860346287757599,-0.5011111111111111,-0.6255555555555555,-0.16111111111111112,0.11551484318805202,-0.06456697920157509,-0.03344868821069706
1592264945.1845267,1.466947350535233,9.82828482656504,0.4051455203048766,-0.5011111111111111,-0.6255555555555555,-0.16111111111111112,0.13010404435753925,-0.1412028378161489,-0.11447712618654064
1592264945.1945267,0.7601755725190839,9.743323155216284,0.30489567430025444,-0.5011111111111111,-0.6255555555555555,-0.16111111111111112,0.14001465371290833,-0.1678000289421768,-0.11039068736321832
1592264945.2045267,-1.0727024058002854,9.470845142626972,-0.15298582884763265,-0.47780589223739833,-0.6200719746440937,-0.16111111111111112,0.04629737647910925,0.02225603962877285,-0.007961518879301552
