time,acc_x,acc_y,acc_z,mag_x,mag_y,mag_z,gyr_x,gyr_y,gyr_z
1592265028.1644475,-0.6398976982097186,9.803299232736572,0.17340153452685422,-0.35333333333333333,-0.5866666666666667,0.11888888888888889,0.013516816217890866,0.01347217864111352,0.04124791079081867
1592265028.1744475,-0.6053653983636508,9.788211533878782,0.20715386448486775,-0.3545256440808113,-0.5862692297508407,0.11749785968349793,0.034667432370120106,0.021506150426822853,0.09075289260722522
1592265028.1844475,-0.63,9.78,0.24,-0.36,-0.5844444444444444,0.1111111111111111,0.01854412330243975,0.025089107997418484,0.031634092692397225
1592265028.1944475,-0.615620868952146,9.780784348285891,0.17045738961840134,-0.36,-0.5844444444444444,0.1111111111111111,0.157493200497089,0.09391825200072795,-0.011243334288082583
1592265028.2044475,-0.5854599968439325,9.78183998737573,0.1227000157803377,-0.36,-0.5844444444444444,0.1111111111111111,0.09085086679474941,-0.005427989121739113,0.007260557294448161
1592265028.2144475,-0.5545505456634118,9.775905908960368,0.14045645462377943,-0.36,-0.5844444444444444,0.1111111111111111,0.037819846479017566,0.02215293817202385,-0.04124782215584002
1592265028.2244475,-0.5113829212997949,9.815691460649898,0.11146280902515383,-0.3590514232250171,-0.5834958676694615,0.1092139575611453,0.14175736400064057,0.1338748368218451,-0.0685339198595142
1592265028.2344475,-0.5973477354920604,9.84132613225397,0.025304529015879096,-0.35333333333333333,-0.5777777777777777,0.09777777777777778,0.027161459189648598,0.08775509355138536,0.09590310545764036
1592265028.2444475,-0.6370543141412494,9.84705431414125,-0.049845049747186426,-0.35333333333333333,-0.5777777777777777,0.09777777777777778,0.014231329603579188,0.03888933615164375,0.06407149658736687
1592265028.2544475,-0.6559069108092145,9.874093089190785,-0.05725528647371529,-0.35333333333333333,-0.5777777777777777,0.09777777777777778,-0.06980793821565394,0.020827329422259268,0.05781403147231216
1592265028.2644475,-0.7017861766398159,9.870861262945915,0.023508702531645567,-0.35333333333333333,-0.5777777777777777,0.09777777777777778,-0.0682595364501862,-0.01526284405566675,0.06512449631291935
1592265028.2744474,-0.8249049101616714,9.846321317378747,0.11716718556585018,-0.3551045508917147,-0.5768240452463416,0.09941274783166827,-0.08691812836169582,-0.09523420422999601,0.08154478733774766
1592265028.2844474,-0.86,9.82,0.24,-0.36777777777777776,-0.57,0.1111111111111111,-0.014180800172453926,0.0272707695624114,0.07963064712224129
1592265028.2944474,-0.628893201789854,9.784885438568116,0.16267184214782468,-0.36777777777777776,-0.57,0.1111111111111111,-0.021983101279626,-0.001140817637050446,0.09222709923759041
1592265028.3044474,-0.5171358923135465,9.836103262937595,0.08,-0.36777777777777776,-0.57,0.1111111111111111,-0.06203389250595083,0.00845513191994102,0.21935421982014372
1592265028.3144474,-0.4788672955528761,9.815566352223561,0.09154691822115044,-0.36777777777777776,-0.57,0.1111111111111111,-0.03905598185498464,-0.007253146561223863,0.1824490499133777
1592265028.3244474,-0.5614892111779272,9.785026529890343,0.12718075698620446,-0.36634162638053686,-0.5710372204535629,0.1095951735251346,-0.021642592062060033,0.014203951869287952,0.14519933944910995
1592265028.3344474,-0.71,9.85,0.22,-0.3477777777777778,-0.5844444444444444,0.09,0.022907446432425576,0.07090400086226964,0.2454369260617026
1592265028.3444474,-0.8424426101102609,9.912760137374224,0.20515876363198168,-0.3477777777777778,-0.5844444444444444,0.09,0.025672084983665612,0.1281110658782129,0.15656592939600517
1592265028.3544474,-0.98,9.92,0.14,-0.3477777777777778,-0.5844444444444444,0.09,-0.0643590161672909,0.10362892433716332,0.2181661564992912
1592265028.3644474,-1.31586642599278,10.00586642599278,0.23057761732851986,-0.3477777777777778,-0.5844444444444444,0.09,0.017138251138716882,-0.12423558418231975,0.2311271558238091
1592265028.3744473,-1.36129627650098,10.05388882950294,0.25870372349902016,-0.34936211572341985,-0.5825720450541402,0.09,-0.018281220063073773,-0.1970968172656912,0.31924984787864236
1592265028.3844473,-1.37,10.08,0.25,-0.36,-0.57,0.09,-0.148352986419518,-0.26070855701665296,0.3021601267515183
1592265028.3944473,-1.2299395629939565,10.06,0.09304509530450951,-0.36,-0.57,0.09,-0.08066011550367681,-0.28637325447856865,0.4637040008900113
1592265028.4044473,-0.9820790472326308,10.040032936346929,-0.06405928542447314,-0.36,-0.57,0.09,-0.13786232835738332,-0.36187513894522105,0.5260359684201285
1592265028.4144473,-0.91,10.01,-0.01,-0.36,-0.57,0.09,-0.15489797111449674,-0.41887902047863906,0.4919646829059016
1592265028.4244473,-0.7137132102670884,10.012455852320505,0.0650882953589877,-0.3609080918503094,-0.57,0.09,-0.23682817321789873,-0.41793176719111985,0.5256453336671054
1592265028.4344473,-0.62,9.9,0.29,-0.37444444444444447,-0.57,0.09,-0.18980455615438332,-0.4363323129985824,0.7024950239277177
1592265028.4444473,-0.5501037299795765,9.837010372997957,0.3239170160163388,-0.37444444444444447,-0.57,0.09,-0.13420545758260458,-0.37953058023131026,0.758341708138241
1592265028.4544473,-0.48,9.83,0.38,-0.37444444444444447,-0.57,0.09,-0.1854412330243975,-0.358883327441334,0.6872233929727672
1592265028.4644473,-0.5302686077506664,9.823781012917777,0.5140598728726676,-0.37444444444444447,-0.57,0.09,-0.09554912708743972,-0.37960911230876665,0.8623772216481506
1592265028.4744473,-0.47680977980705497,9.741993887620591,0.69,-0.37466598751339897,-0.5697784569310455,0.09,-0.03466892226133031,-0.3740411276857168,0.9133833653458954
1592265028.4844472,-0.4,9.79,0.69,-0.38,-0.5644444444444444,0.09,0.15489797111449674,-0.2399827721492203,0.8432121948697604
1592265028.4944472,-0.3465278224509489,9.762873914441943,0.6904808620135092,-0.38,-0.5644444444444444,0.09,0.057748771090985584,-0.26818122154081175,0.9957711426933236
1592265028.5044472,-0.23968790731354092,9.80343736422882,0.47968790731354094,-0.38,-0.5644444444444444,0.09,0.07864100057090906,-0.2872279882442993,1.0947496375009453
1592265028.5144472,-0.22,9.81,0.46,-0.38,-0.5644444444444444,0.09,0.1308996938995747,-0.35452000431134817,1.1584622910112363
1592265028.5244472,-0.11620934493815849,9.778483737975263,0.4197472896625439,-0.38098276242344037,-0.5645848390763645,0.09042118389576016,0.18488990459409313,-0.3793885809366449,1.1776759202428628
1592265028.5344472,0.03,9.72,0.41,-0.41888888888888887,-0.57,0.10666666666666667,0.1636246173744684,-0.370882466048795,1.3297227238631797
1592265028.5444472,0.506245066767584,9.597918311077471,0.14133859544791047,-0.41888888888888887,-0.57,0.10666666666666667,0.14707963299703528,-0.20031936403902204,1.2208141183858765
1592265028.5544472,0.62,9.56,0.02,-0.41888888888888887,-0.57,0.10666666666666667,0.1636246173744684,-0.26070855701665296,1.1802789066611654
1592265028.5644472,0.8122286922187214,9.564289873569178,-0.031114346109360667,-0.41888888888888887,-0.57,0.10666666666666667,0.20129284504110598,-0.18689355676632294,1.0966710538737272
1592265028.5744472,0.929327164679137,9.639567463008017,-0.08966358233956845,-0.41888888888888887,-0.57,0.10666666666666667,0.043449352374232225,-0.1485731712633825,1.1906472373690336
1592265028.5844471,1.1329047106510637,9.754190578697873,-0.19838115739574508,-0.4266666666666667,-0.5455555555555556,0.11333333333333333,0.04978369632213295,-0.2653060489183685,1.132562885120859
1592265028.5944471,1.14,9.734543463108633,-0.18091307378273425,-0.4266666666666667,-0.5455555555555556,0.11333333333333333,-0.00010438000417993705,-0.22481671597477243,1.1368472667117315
1592265028.6044471,1.1460929909784872,9.686488549618321,-0.15820957668285912,-0.4266666666666667,-0.5455555555555556,0.11333333333333333,-0.018904453248635666,-0.23207065324661588,1.1210977409812275
1592265028.614447,1.16,9.61,-0.04,-0.4266666666666667,-0.5455555555555556,0.11333333333333333,0.025089107997418484,-0.14180800172453928,1.030835089459151
1592265028.624447,1.2478040966896418,9.61,-0.020487978513412938,-0.4266666666666667,-0.5455555555555556,0.11333333333333333,-0.04940598983463651,-0.15670702129095027,1.1149081284410416
1592265028.634447,1.4,9.63,-0.02,-0.4722222222222222,-0.5244444444444445,0.09222222222222222,-0.0839939702522271,-0.25416357232167425,1.0679233360640303
1592265028.644447,1.4793091078771619,9.614041529353438,0.018670127446119747,-0.4722222222222222,-0.5244444444444445,0.09222222222222222,-0.020245283594755525,-0.23019535824914358,1.0321576768472784
1592265028.654447,1.54,9.51,0.01,-0.4722222222222222,-0.5244444444444445,0.09222222222222222,-0.1308996938995747,-0.33706671179140485,0.9981101659842572
1592265028.664447,1.62,9.55853641282527,0.04853641282526815,-0.4722222222222222,-0.5244444444444445,0.09222222222222222,-0.10554475546884075,-0.30295761805146476,0.8875611619934475
1592265028.674447,1.62,9.550517178746917,0.040517178746917,-0.4722222222222222,-0.5244444444444445,0.09222222222222222,-0.11604190833049277,-0.27146615946650865,0.765969141345978
1592265028.684447,1.75,9.53,0.06,-0.4922222222222222,-0.49777777777777776,0.10666666666666667,-0.17453292519943295,-0.22907446432425577,0.8410305333047675
1592265028.694447,1.9862562018367993,9.603793412857597,0.13379341285759527,-0.4922222222222222,-0.49777777777777776,0.10666666666666667,-0.18899861034559068,-0.15624121412915112,0.752593036856999
1592265028.704447,1.97,9.49,0.02,-0.4922222222222222,-0.49777777777777776,0.10666666666666667,-0.15707963267948966,-0.20943951023931953,0.605411084285533
1592265028.714447,2.135655585053691,9.442397273843959,0.04344414946308991,-0.4922222222222222,-0.49777777777777776,0.10666666666666667,-0.08807979868697866,-0.13156144526780472,0.6187988201794576
1592265028.724447,2.102416293537267,9.384228513690218,0.3758370646273329,-0.4922222222222222,-0.49777777777777776,0.10666666666666667,-0.019188758175449697,-0.15331651069249808,0.7212289198873888
1592265028.734447,2.3,9.38,0.34,-0.5077777777777778,-0.4711111111111111,0.10666666666666667,-0.11017390903214205,-0.1636246173744684,0.6130468997630082
1592265028.744447,2.3326957192441187,9.38785190898573,0.3009371384496722,-0.5077777777777778,-0.4711111111111111,0.10666666666666667,-0.059902301431553354,-0.14730043778172158,0.5738792175399723
1592265028.754447,2.57,9.59,0.09,-0.5077777777777778,-0.4711111111111111,0.10666666666666667,-0.2650718801466388,-0.10799224746714915,0.5508695451607102
1592265028.764447,2.4248660125093244,9.435814540655304,0.18391748436334424,-0.5077777777777778,-0.4711111111111111,0.10666666666666667,-0.03849179848620836,-0.06455481112268477,0.5632802412591286
1592265028.774447,2.4569564468927525,9.540108452401446,0.14380444138405923,-0.5077777777777778,-0.4711111111111111,0.10666666666666667,-0.1268800134502514,-0.18094721300602856,0.530025269292459
1592265028.784447,2.48,9.86,0.35,-0.5222222222222223,-0.48444444444444446,0.09888888888888889,-0.15053464798451094,-0.04690572364734761,0.4406956361285682
1592265028.794447,2.4659558642431407,9.534984237229692,0.30385498251317666,-0.5222222222222223,-0.48444444444444446,0.09888888888888889,-0.13359410127718632,-0.01900246459472559,0.5403232893436498
1592265028.804447,2.3697785536636693,9.44080065046872,-0.1061158408264779,-0.5222222222222223,-0.48444444444444446,0.09888888888888889,-0.03414653037949782,-0.07672795621852152,0.33695521832564085
1592265028.814447,2.592392599230404,9.149917242106373,-0.043977122977175695,-0.5222222222222223,-0.48444444444444446,0.09888888888888889,-0.005639476120694079,-0.04976415914676587,0.394880743263717
1592265028.824447,2.7618949976279583,9.452073691423752,0.22870064835802012,-0.5222222222222223,-0.48444444444444446,0.09888888888888889,-0.10612775540277561,-0.10442978307621822,0.394880743263717
1592265028.834447,2.715134051796558,9.36,0.4409960876557137,-0.5333333333333333,-0.46555555555555556,0.07555555555555556,-0.07204915979861196,0.030196373374814588,0.4206301674249874
1592265028.844447,2.5049401578813346,9.39667129661782,0.08580572724957751,-0.5333333333333333,-0.46555555555555556,0.07555555555555556,-0.06326970053276652,0.04079063693697937,0.2614086563896171
1592265028.854447,2.6167893724327977,9.655184058649198,0.2547969635522279,-0.5333333333333333,-0.46555555555555556,0.07555555555555556,-0.12772200338502576,-0.015400377685895476,0.23929267265636817
1592265028.8644469,2.74,9.84,0.29,-0.5333333333333333,-0.46555555555555556,0.07555555555555556,-0.04036073895236887,-0.04036073895236887,0.1461713248545251
1592265028.8744469,2.4736913740278106,9.589356587320292,-0.45409763139288245,-0.5333333333333333,-0.46555555555555556,0.07555555555555556,-0.09162502957380407,-0.1608318219127416,0.24101026250418023
1592265028.8844469,2.89,9.16,-0.24,-0.56,-0.4577777777777778,0.07555555555555556,-0.08835729338221293,-0.0818123086872342,-0.05781403147231216
1592265028.8944468,2.9761999050464993,9.714108693830816,-0.39274527327058956,-0.56,-0.4577777777777778,0.07555555555555556,0.021203615482213486,-0.21601413657842844,-0.11282736930488828
1592265028.9044468,2.8876374901322874,9.307038729277803,-0.12474128651053752,-0.56,-0.4577777777777778,0.07555555555555556,-0.13969520369649366,-0.07104527679596903,0.1854852545427113
1592265028.9144468,2.97,9.48,0.18,-0.56,-0.4577777777777778,0.07555555555555556,-0.09926560120717749,0.04036073895236887,0.358883327441334
1592265028.9244468,2.478359351086624,9.410246097337007,0.4589335782063055,-0.5599817705676292,-0.4577413189130361,0.0754552936775159,-0.0878382889841987,0.059440895232531245,0.19283457488257397
1592265028.9344468,2.28,9.44,0.33,-0.5577777777777778,-0.4533333333333333,0.06333333333333334,-0.025089107997418484,-0.007635815477475192,0.031634092692397225
1592265028.9444468,2.640200856594299,9.326516762664305,0.006240584847142225,-0.5577777777777778,-0.4533333333333333,0.06333333333333334,-0.1242015804704706,-0.14818890265759618,0.28343822590241113
1592265028.9544468,3.2,10.07,-0.02,-0.5577777777777778,-0.4533333333333333,0.06333333333333334,-0.07744898555724837,-0.07090400086226964,0.1679879405044542
1592265028.9644468,2.4363790020064555,9.2753644333944,0.4394927156939719,-0.5577777777777778,-0.4533333333333333,0.06333333333333334,-0.3305605290026952,-0.0026415271984583334,0.27627913631873874
1592265028.9744468,2.9211951496117945,9.138152316147606,0.1284785832679054,-0.5577777777777778,-0.4533333333333333,0.06333333333333334,-0.13797843676074228,-0.04854192224058185,0.026820467611545717
1592265028.9844468,2.84,9.29,0.47,-0.5722222222222222,-0.4477777777777778,0.06333333333333334,-0.25416357232167425,0.0272707695624114,0.39706240482870997
1592265028.9944468,3.067135263635878,9.396831294406754,-0.3433359153800951,-0.5722222222222222,-0.4477777777777778,0.06333333333333334,-0.05607085253047724,-0.19577262836756737,0.27645515011128696
1592265029.0044467,2.94,9.7,0.84,-0.5722222222222222,-0.4477777777777778,0.06333333333333334,-0.17235126363444003,-0.17016960206944715,0.20071286397934787
1592265029.0144467,2.94,9.0539131131773,0.37011862776530935,-0.5722222222222222,-0.4477777777777778,0.06333333333333334,-0.12002732158692227,-0.11998133112590967,0.20925554839526916
1592265029.0244467,2.893877591928551,9.408979264571594,0.27697966547139136,-0.5722222222222222,-0.4477777777777778,0.06333333333333334,-0.12996913863929765,-0.22455521451523336,0.16516517685058368
1592265029.0344467,3.1,9.78,0.56,-0.59,-0.4622222222222222,0.06333333333333334,-0.09053895494720585,-0.39269908169872414,0.09490227807719166
1592265029.0444467,2.928080988705041,9.051279340863307,-0.10522306978428664,-0.59,-0.4622222222222222,0.06333333333333334,-0.12449426364409596,-0.15808016788780857,0.0469805872461735
1592265029.0544467,2.905908551851364,9.07964026881012,0.5470457240743182,-0.59,-0.4622222222222222,0.06333333333333334,-0.12660421529842517,-0.49011591949511374,0.3986504267663856
1592265029.0644467,3.297251533742331,9.69726380368098,0.3727116564417178,-0.59,-0.4622222222222222,0.06333333333333334,-0.13426721567719566,-0.3701918296269936,0.3535375873857624
1592265029.0744467,3.454963190184049,9.763668711656441,0.488920245398773,-0.59,-0.4622222222222222,0.06333333333333334,-0.1650527357117981,-0.34393359195042095,0.28472289554370994
1592265029.0844467,3.64,9.09,0.22,-0.5822222222222222,-0.4688888888888889,0.04888888888888889,-0.222529479629277,-0.3043417883165112,0.38615409700374537
1592265029.0944467,3.8763577524211335,9.16999568510883,0.2990948317192444,-0.5822222222222222,-0.4688888888888889,0.04888888888888889,-0.2717207808817374,-0.1698663262180857,0.30621829130369865
1592265029.1044466,3.74,9.07,0.39,-0.5822222222222222,-0.4688888888888889,0.04888888888888889,-0.3817907738737596,-0.03599741582238304,0.1287180323345818
1592265029.1144466,3.683958860365778,8.836495251524074,0.15649525152407417,-0.5822222222222222,-0.4688888888888889,0.04888888888888889,-0.28907481690498543,-0.3273904234385304,0.15113287907428544
1592265029.1244466,3.510902514336127,8.624202911336567,0.14889986766651964,-0.5822222222222222,-0.4688888888888889,0.04888888888888889,-0.29029177235520975,-0.16837240181685592,0.06048793824705094
1592265029.1344466,3.79,9.17,0.51,-0.6,-0.4488888888888889,0.021111111111111112,-0.2650718801466388,-0.1308996938995747,-0.05126904677733343
1592265029.1444466,3.3298327511379275,9.05495818778448,0.8905229173282523,-0.6,-0.4488888888888889,0.021111111111111112,-0.3780139151816164,-0.01409639270955515,-0.0030032198393088114
1592265029.1544466,3.3816375099261258,8.857909377481532,0.5873874437519552,-0.6,-0.4488888888888889,0.021111111111111112,-0.2962458011604272,0.02610767521073977,-0.0002849856776370773
1592265029.1644466,3.27,8.83,1.22,-0.6,-0.4488888888888889,0.021111111111111112,-0.042542400517361786,-0.01854412330243975,0.06872233929727672
1592265029.1744466,3.811579517834855,9.552106023779807,0.960983708861591,-0.6,-0.4488888888888889,0.021111111111111112,-0.14100433538800317,-0.04422984544260707,0.09098329848542173
1592265029.1844466,3.9,8.92,0.4,-0.6055555555555555,-0.45111111111111113,0.035555555555555556,-0.13962634015954636,-0.05563236990731925,-0.014180800172453926
1592265029.1944466,3.890011043396458,9.029878522638962,0.7196466113133462,-0.6055555555555555,-0.45111111111111113,0.035555555555555556,0.031444963006643095,0.09037753215809087,0.05337602018616864
1592265029.2044466,3.546544489992766,8.890528092597059,0.8280081986978538,-0.6055555555555555,-0.45111111111111113,0.035555555555555556,-0.061653903129626667,0.035057307499103005,0.04402805575236057
1592265029.2144465,3.77,9.25,0.76,-0.6055555555555555,-0.45111111111111113,0.035555555555555556,-0.26725354171163174,0.07744898555724837,-0.1287180323345818
1592265029.2244465,3.5678244524918092,9.091147784100707,1.2654388687704776,-0.6055555555555555,-0.45111111111111113,0.035555555555555556,-0.13177939371634018,0.18062987734435992,-0.05861803715097165
1592265029.2344465,3.74,9.32,0.82,-0.6322222222222222,-0.45111111111111113,0.013333333333333334,-0.20071286397934787,0.25634523388666713,-0.09053895494720585
1592265029.2444465,3.630176848225461,8.703300763112205,0.7101768482254612,-0.6322222222222222,-0.45111111111111113,0.013333333333333334,-0.004427671003092271,0.19460294313826748,-0.027875137471218128
1592265029.2544465,3.7582559525257193,9.294215774497166,1.0699058783471558,-0.6322222222222222,-0.45111111111111113,0.013333333333333334,-0.08561447091755894,0.06095719045246757,0.00789586176806133
1592265029.2644465,3.5656839166845606,9.034238780330686,1.2021580416577196,-0.6322222222222222,-0.45111111111111113,0.013333333333333334,0.10872376229079879,0.07963486334600872,-0.04286189658507172
1592265029.2744465,3.5254495609428176,8.895431284399814,0.6944407797991681,-0.6322222222222222,-0.45111111111111113,0.013333333333333334,0.06811592244510237,-0.03602133976122861,0.008440383957233413
1592265029.2844465,3.22,8.92,1.59,-0.6322222222222222,-0.4722222222222222,-0.0011111111111111111,0.016362461737446838,0.2825251726665821,0.042542400517361786
1592265029.2944465,3.2024095318600816,8.735300084530854,1.3877096163909353,-0.6322222222222222,-0.4722222222222222,-0.0011111111111111111,0.039388330688102616,0.07721117452323473,-0.020778739096941598
1592265029.3044465,3.6079159110066668,9.15771258525122,0.5043715037421135,-0.6322222222222222,-0.4722222222222222,-0.0011111111111111111,-0.013892467981663013,0.06428138826977027,0.0638821590825213
1592265029.3144464,3.5201850346641166,9.14004111881425,1.3582318909873297,-0.6322222222222222,-0.4722222222222222,-0.0011111111111111111,0.03589425238524329,0.08830795434705914,0.055650311374647904
1592265029.3244464,3.5282926201089646,9.297559782070332,0.9453689945517583,-0.6322222222222222,-0.4722222222222222,-0.0011111111111111111,-0.0779802347359572,0.18514783790397807,0.0628690461332456
1592265029.3344464,3.36,8.92,1.24,-0.6311111111111111,-0.44555555555555554,0.006666666666666667,-0.0643590161672909,0.04908738521234052,0.09926560120717749
1592265029.3444464,3.4752272727272726,9.028449197860963,1.0976604278074866,-0.6311111111111111,-0.44555555555555554,0.006666666666666667,-0.10132767971847426,0.15481776296872496,0.16802731541237853
1592265029.3544464,3.5397677491338304,8.972554759527865,1.03,-0.6311111111111111,-0.44555555555555554,0.006666666666666667,0.049447835315876126,0.06336520007855748,0.22628477141347292
1592265029.3644464,3.4019150146246346,8.817379753006175,0.9936618459538511,-0.6311111111111111,-0.44555555555555554,0.006666666666666667,-0.03216905000497024,0.1670203909714258,0.08974263429553778
1592265029.3744464,3.4777917129703124,9.11142721066836,1.2355834259406255,-0.6311111111111111,-0.44555555555555554,0.006666666666666667,0.03670535616828645,0.37627929895968876,0.194131858836241
1592265029.3844464,3.629822442323952,9.759171397511777,1.0603551153520958,-0.6433152487552173,-0.4533218249654413,-0.02107000979721115,-0.06852865391857524,0.07141888116065115,0.27156037327282956
1592265029.3944464,3.232558759389387,8.824357079395849,0.7536390436959857,-0.6433333333333333,-0.4533333333333333,-0.021111111111111112,0.06495284537931142,0.06548473661862417,0.22555311877063108
1592265029.4044464,3.3757597164324404,8.74287985821622,0.4360203190135044,-0.6433333333333333,-0.4533333333333333,-0.021111111111111112,0.21482733371106988,-0.31324831096871397,0.2683159451623859
1592265029.4144464,4.073433729077462,9.086903950953678,0.7569039509536785,-0.6433333333333333,-0.4533333333333333,-0.021111111111111112,0.05977717657508544,-0.08716317548883976,0.14246503725667842
1592265029.4244463,3.8014200909721687,8.857403823914888,0.5522854830005397,-0.6433333333333333,-0.4533333333333333,-0.021111111111111112,0.12605470140664476,-0.09101982538235462,0.27654578680189246
1592265029.4344463,4.24,8.99,0.03,-0.65,-0.46,-0.044444444444444446,0.001090830782496456,0.07744898555724837,0.2159844949342983
1592265029.4444463,3.9963644626221315,8.702635007195335,0.5485064000605923,-0.65,-0.46,-0.044444444444444446,-0.03025582721382373,-0.002962006694181646,0.2132586985867922
1592265029.4544463,4.154049529726464,9.442148589179395,0.27032818477291676,-0.65,-0.46,-0.044444444444444446,-0.026976279450393915,0.10149859303247943,0.15935855818516595
1592265029.4644463,4.146120538326507,9.276067875950849,0.24710356933879463,-0.65,-0.46,-0.044444444444444446,4.148859032315419e-05,0.03175409046133189,0.08172358693254314
1592265029.4744463,4.070791139240506,9.18220332278481,0.2896044303797468,-0.65,-0.46,-0.044444444444444446,-0.08165179086639215,-0.012479829070950355,0.006538943701721235
1592265029.4844463,3.555813607219909,9.06187760187183,0.7941863927800905,-0.643898933422468,-0.46,-0.044444444444444446,-0.1754325979059424,-0.10801956049898775,0.0063401701030724004
1592265029.4944463,3.6081865453363666,9.085066623334416,0.65064023399415,-0.6433333333333333,-0.46,-0.044444444444444446,-0.12217021155047081,-0.20163778354760697,-0.08493342477728906
1592265029.5044463,3.9845620180368577,8.93724009933342,0.12693138151875571,-0.6433333333333333,-0.46,-0.044444444444444446,-0.06552064901050984,-0.3019140446798167,-0.0306511901418116
1592265029.5144463,3.882733683958881,8.416690174515898,0.41859024623475977,-0.6433333333333333,-0.46,-0.044444444444444446,-0.10210650738564184,-0.5103473330023836,-0.05666202237244213
1592265029.5244462,4.071474368901967,8.865518042434566,0.6895911413969336,-0.6433333333333333,-0.46,-0.044444444444444446,-0.1372917899685415,-0.37818074398508583,-0.06831148279068987
1592265029.5344462,4.221226127527216,8.744944634525663,0.3361707620528771,-0.6495912908242613,-0.4547850354242267,-0.062175324002073616,-0.16772044097446348,-0.23662257225669975,-0.028165352592311906
1592265029.5444462,4.646382874417845,8.60340428139554,0.21472342511643108,-0.65,-0.45444444444444443,-0.06333333333333334,-0.14318199039542456,-0.06740409984237733,-0.0374920830519333
1592265029.5544462,4.385314074920767,8.596223827089936,1.1218195043383385,-0.65,-0.45444444444444443,-0.06333333333333334,-0.09257943817379803,0.07024044566917625,0.3733431404439552
1592265029.5644462,4.57188566953798,8.92206342991386,0.6660509005481597,-0.65,-0.45444444444444443,-0.06333333333333334,-0.08414149294301579,0.015617245782356855,0.15602036508995576
1592265029.5744462,4.084241047803846,8.440775710001763,0.9395378373610865,-0.65,-0.45444444444444443,-0.06333333333333334,-0.035979424522654097,0.07944342215286944,0.1107769062035388
1592265029.5844462,3.648879492600423,8.649704016913319,0.9971881606765327,-0.6755391120507399,-0.4661498708010336,-0.02076814658210007,0.03787004710227125,-0.07341775467394222,-0.09297429808952348
1592265029.5944462,3.7534577981651376,8.832082568807339,0.9575834862385321,-0.6766666666666666,-0.4666666666666667,-0.01888888888888889,0.0141936499589193,-0.05140190796511713,-0.0590741511861546
1592265029.6044462,3.927922364108939,9.148345010735676,0.8481336874223077,-0.6766666666666666,-0.4666666666666667,-0.01888888888888889,-0.04130561610773505,0.012944015762827195,0.038855099086009766
1592265029.6144462,3.618919248379616,9.030397514419931,0.6901117916394125,-0.6766666666666666,-0.4666666666666667,-0.01888888888888889,-0.020441223135684323,-0.03022617049762546,0.08951587541358359
1592265029.6244462,3.8998463108943455,8.9896102005709,0.6561844269267849,-0.6766666666666666,-0.4666666666666667,-0.01888888888888889,0.05415557568967305,-0.11105663258658213,0.12954147048665743
1592265029.6344461,4.042563398543264,8.7594352286161,0.5227189871486864,-0.6766666666666666,-0.46017660493120965,-0.01888888888888889,0.06791666448526469,-0.10171582104284108,0.07430486539428342
1592265029.6444461,4.122559245254764,8.861817603234622,0.757237093332335,-0.6766666666666666,-0.4477777777777778,-0.01888888888888889,-0.006865932586096243,-0.04921537232148446,-0.013617150497787455
1592265029.6544461,4.4266857271626145,9.195348581730093,0.647186276442917,-0.6766666666666666,-0.4477777777777778,-0.01888888888888889,-0.03707303685762349,0.04222026114315562,0.008188835742351427
1592265029.664446,4.084232002803008,8.847078403363609,0.76,-0.6766666666666666,-0.4477777777777778,-0.01888888888888889,-0.04833215622436733,0.0843126670067284,0.05293015070992782
1592265029.674446,3.9346813349025553,8.610849773593186,0.9117071273264048,-0.6766666666666666,-0.4477777777777778,-0.01888888888888889,-0.09028486803397429,0.2558163666753892,0.1605631714405641
1592265029.684446,3.7883801076050605,8.53197179002472,1.3361974698269594,-0.6698004620877966,-0.4578129998545878,-0.03684665471054885,0.02165545757591189,0.3096652392240819,0.19070329793330218
1592265029.694446,3.9375299217002233,9.051479865771812,1.0885729865771812,-0.6622222222222223,-0.4688888888888889,-0.056666666666666664,0.06293956346030244,0.22916094377806945,0.22491292658650183
1592265029.704446,3.7365491183879094,8.943350125944585,0.9978589420654912,-0.6622222222222223,-0.4688888888888889,-0.056666666666666664,0.12509108867489585,0.3593147139220694,-0.013790628960578588
1592265029.714446,3.9100930176371103,8.677949504711284,0.4417980188451317,-0.6622222222222223,-0.4688888888888889,-0.056666666666666664,0.05581545764459886,0.27223135651894753,0.1914268078573499
1592265029.724446,4.034295330417783,9.094723392248937,0.5682635683911405,-0.6622222222222223,-0.4688888888888889,-0.056666666666666664,0.04722053645706463,0.3036124646459552,0.16368496382437575
1592265029.734446,3.697465898757199,8.900178842073355,0.9049105789633222,-0.6517139874035903,-0.46363477147957294,-0.07330470512950052,0.06594880531619753,0.16850012507010653,0.15540552651041434
1592265029.744446,3.8422980281221397,9.090783759048174,0.9015142690739661,-0.6488888888888888,-0.4622222222222222,-0.07777777777777778,0.1065454604213237,0.12116480742304984,0.13709716290554613
1592265029.754446,3.6379829759724167,9.020679075530653,0.7296638293287361,-0.6488888888888888,-0.4622222222222222,-0.07777777777777778,0.07796457675810133,0.115076535798103,0.02974726455245466
1592265029.764446,3.9267859471206084,9.128995291561028,0.7553813835566824,-0.6488888888888888,-0.4622222222222222,-0.07777777777777778,0.15051686914162343,0.14129099297337125,-0.05795404973718604
1592265029.774446,3.9239893627616977,9.05409294635565,0.7633678611979842,-0.6488888888888888,-0.4622222222222222,-0.07777777777777778,0.09785808813101948,0.046345956077221695,0.06580622860879262
1592265029.784446,3.400909656504797,8.520909656504797,0.8665745440256721,-0.6488888888888888,-0.467687583454308,-0.07231241654569202,0.07748791956140441,0.1438885420365361,0.10972238174174166
1592265029.794446,3.358286949905898,8.560860128939256,0.7151391502823049,-0.6488888888888888,-0.4688888888888889,-0.07111111111111111,0.16870661422665073,0.05114171839343973,0.022033052062345335
1592265029.804446,4.0642859717323585,9.054618077903354,0.6423754601858765,-0.6488888888888888,-0.4688888888888889,-0.07111111111111111,0.06947968359463697,0.14946021771631507,-0.03493918948698074
1592265029.814446,4.096502433812181,9.116479876528553,0.4429823103407337,-0.6488888888888888,-0.4688888888888889,-0.07111111111111111,0.053827312392605305,0.12931246582522155,0.053308769539332626
1592265029.824446,4.0106579694743205,8.90047419242538,0.6399466808362497,-0.6488888888888888,-0.4688888888888889,-0.07111111111111111,0.02263198552683593,0.09926560120717749,0.09793358723299983
1592265029.834446,3.5588701482004232,8.472580098800282,0.7205067043048694,-0.6618151807417862,-0.4605248176899553,-0.07111111111111111,0.00809832157071716,-0.02614498908511935,0.007846745353554244
1592265029.844446,3.7149986401958115,8.718405143944986,0.7207140914565446,-0.6677777777777778,-0.45666666666666667,-0.07111111111111111,-0.01682983350283675,0.05217954868226968,-0.01397711965881012
1592265029.854446,3.6480640093724204,9.05144234097505,0.46457384775141786,-0.6677777777777778,-0.45666666666666667,-0.07111111111111111,0.15996089328215846,-0.14045971896089288,0.17743942562290715
1592265029.864446,3.814298542361077,9.252390179593055,-0.045725088304064465,-0.6677777777777778,-0.45666666666666667,-0.07111111111111111,0.049081198718673336,-0.12408934118676562,0.12829911445858153
1592265029.874446,3.868424418108961,9.067622985761787,0.24787790945519647,-0.6677777777777778,-0.45666666666666667,-0.07111111111111111,-0.007463946154766227,-0.014390428664545922,0.04549003380412473
1592265029.884446,4.111512836185819,9.184248166259168,0.5077307457212713,-0.6594683849497419,-0.44231407905460474,-0.08017590328715023,-0.11184999453305922,0.2536071552752236,-0.014800560082191376
1592265029.894446,4.168104055026793,9.161070543069663,0.29198432376229705,-0.6555555555555556,-0.43555555555555553,-0.08444444444444445,-0.13267736506719502,0.2805288642166347,0.04053863257514023
1592265029.904446,4.165188524590164,8.76013606557377,0.3072327868852459,-0.6555555555555556,-0.43555555555555553,-0.08444444444444445,0.03306790928486551,0.24995457492370388,0.15888737175822026
1592265029.9144459,3.929137693188992,8.604402721597419,0.7942404545348267,-0.6555555555555556,-0.43555555555555553,-0.08444444444444445,-0.05462869030403647,0.19161384218044739,0.2304436075643407
1592265029.9244459,4.108961489088575,8.83124353566844,0.7125598752980011,-0.6555555555555556,-0.43555555555555553,-0.08444444444444445,-0.03052089717828825,0.2119936306038595,0.2848485442125617
1592265029.9344459,3.7567456183705286,8.952565486826598,0.7329673421282743,-0.6513096520464501,-0.4440473625737664,-0.08939799853840077,-0.005686644402794226,0.1461748499511495,0.19565833160890023
1592265029.9444458,3.5326066137961996,8.898339069280263,0.9680622474936407,-0.6488888888888888,-0.4488888888888889,-0.09222222222222222,-0.04642257848556555,0.11816702341473242,0.1520519849520535
1592265029.9544458,3.6133007866219264,8.92806700038506,0.8801675009626493,-0.6488888888888888,-0.4488888888888889,-0.09222222222222222,0.0635985428782228,0.05598558930338973,0.21074119857006907
1592265029.9644458,3.7723768432032623,8.984760324308947,1.0044407567208762,-0.6488888888888888,-0.4488888888888889,-0.09222222222222222,0.09924889558189912,-0.007878383225325383,0.15503740877935904
1592265029.9744458,3.9644091380345223,8.913071354517179,0.9877564160861421,-0.6488888888888888,-0.4488888888888889,-0.09222222222222222,0.07369553086052572,0.03499231740699344,0.12234056404216799
1592265029.9844458,4.010760391488687,8.85489241985973,0.5785794666561002,-0.6488888888888888,-0.45387693553997,-0.09649769078029172,0.10781542024001464,-0.03481430292550573,0.21325981688079632
1592265029.9944458,4.132789927104042,9.04229879979383,0.6977115087254252,-0.6488888888888888,-0.45666666666666667,-0.09888888888888889,0.07175206336260015,-0.07823548250314376,0.20850827600824204
1592265030.0044458,4.162908686322816,8.96523563538107,0.6709928739834168,-0.6488888888888888,-0.45666666666666667,-0.09888888888888889,0.06371132003868153,0.008180696275238132,0.06786017004175833
1592265030.0144458,4.164939195058392,9.157781102210212,0.5259270340700705,-0.6488888888888888,-0.45666666666666667,-0.09888888888888889,0.08793511102164824,0.12201665065790261,0.008748755560649593
1592265030.0244458,4.101130192279466,9.284369881109644,0.7383560839571407,-0.6488888888888888,-0.45666666666666667,-0.09888888888888889,0.07788083478468848,0.12792980982728253,0.004887812118287874
1592265030.0344458,3.9344387716795555,9.13451122456641,0.8695438846760267,-0.6555973921966113,-0.44873843548481285,-0.09522970526649481,0.110166005648216,0.0086200120022338,-0.08387230727997706
1592265030.0444458,4.0974637519518184,9.073419585099264,0.4559558331474459,-0.6611111111111111,-0.44222222222222224,-0.09222222222222222,0.1271420093637521,-0.013803644760259075,-0.2248432672515743
1592265030.0544457,4.144028776978417,8.889928057553956,0.6264748201438849,-0.6611111111111111,-0.44222222222222224,-0.09222222222222222,0.05337223130761437,-0.04251100970347699,-0.1974482193353297
1592265030.0644457,4.159247537503876,8.8062653533354,0.5856633833385008,-0.6611111111111111,-0.44222222222222224,-0.09222222222222222,0.13429313528729458,-0.04850243829460696,-0.05826463103712026
1592265030.0744457,4.255659102657802,8.759909089288579,0.700818196402788,-0.6611111111111111,-0.44222222222222224,-0.09222222222222222,0.20404981565844701,-0.12739664520370014,-0.01307509415958599
1592265030.0844457,4.206414052312649,8.481885403083531,0.7993391884636036,-0.6611111111111111,-0.4458071471793954,-0.09998955962943076,0.24221601745107055,-0.08783187557913812,-0.008644313093600817
1592265030.0944457,4.084583779072071,8.402668093030627,0.7638836720947739,-0.6611111111111111,-0.4488888888888889,-0.10666666666666667,0.25724874898267286,0.04941871009758233,0.026407535550810237
1592265030.1044457,4.015240537038569,8.668321616629449,0.4523243183635211,-0.6611111111111111,-0.4488888888888889,-0.10666666666666667,0.3332871318400654,0.22583646548178454,0.1998396099264123
1592265030.1144457,3.884660876260135,8.855558309072974,0.3721774174145273,-0.6611111111111111,-0.4488888888888889,-0.10666666666666667,0.34724576946304925,0.061252314981484535,0.09241858632561528
1592265030.1244457,3.946646625582444,9.106003006162632,0.5139969938373666,-0.6611111111111111,-0.4488888888888889,-0.10666666666666667,0.2970832464946086,-0.043687043213703924,0.0073599023494449745
1592265030.1344457,3.9992239377971037,8.88192725798725,0.37574455540406093,-0.6514490261348793,-0.4488888888888889,-0.11096092665610298,0.20313755767431,-0.15403236511271767,-0.11743018276777653
1592265030.1444457,4.012291509005601,8.748634781292568,0.24306190404116845,-0.6411111111111111,-0.4488888888888889,-0.11555555555555555,0.20681322822673123,-0.12976098345506462,-0.12113752612184647
1592265030.1544456,4.533481771266855,9.209228400199768,0.33348177126685535,-0.6411111111111111,-0.4488888888888889,-0.11555555555555555,0.09035554574289065,-0.11306995852760623,-0.12643713004665993
1592265030.1644456,4.418822805289814,9.23882245357344,0.22941122678671919,-0.6411111111111111,-0.4488888888888889,-0.11555555555555555,0.09130923525179861,0.013282568240834378,-0.11030239778743822
1592265030.1744456,4.156175956169003,8.762240016858076,0.11011189547992835,-0.6411111111111111,-0.4488888888888889,-0.11555555555555555,0.1724874364624984,0.0502078917411272,-0.13835577687492495
1592265030.1844456,4.078044929666177,8.849084610539576,0.38621415074532855,-0.6511671448900086,-0.44465476940303733,-0.10761658151958382,0.0910551700603167,-0.006403678250972794,-0.1180847796785818
1592265030.1944456,3.9049863373046234,8.885259591212154,0.3752595912121543,-0.6622222222222223,-0.44,-0.09888888888888889,0.04264374560044431,-0.041496280800931144,-0.1943802270408044
1592265030.2044456,4.044521365481022,8.950923848173788,0.36734304129863926,-0.6622222222222223,-0.44,-0.09888888888888889,-0.08354034713857018,0.06567301285587461,-0.18229659885647503
1592265030.2144456,3.87754312710267,9.07351244303405,0.4457197394478776,-0.6622222222222223,-0.44,-0.09888888888888889,-0.07625974549822262,0.023619293486928636,-0.19740898269044244
1592265030.2244456,3.715434110444623,8.972849854678127,0.354279883742502,-0.6622222222222223,-0.44,-0.09888888888888889,-0.06498298405660462,-0.0328196316820933,-0.2456241164284967
1592265030.2344456,3.9730633965756597,8.782188140411186,0.2782931182653533,-0.6622222222222223,-0.4427060517250244,-0.10468757115679836,-0.13513408165314064,-0.0685313880239211,-0.2011258465860351
1592265030.2444456,4.046977233504339,8.90625948603986,0.44222913071231,-0.6622222222222223,-0.4477777777777778,-0.11555555555555555,-0.19366500214167828,-0.009581098996831981,-0.08518643379468996
1592265030.2544456,4.128977899849954,8.841054144096029,0.39,-0.6622222222222223,-0.4477777777777778,-0.11555555555555555,-0.15149650767502534,0.05176395843165902,-0.06896629967217242
1592265030.2644455,4.328396081074575,8.923219873862596,0.5078614414327668,-0.6622222222222223,-0.4477777777777778,-0.11555555555555555,-0.2080199492424359,0.08107271165724537,-0.045190623185416584
1592265030.2744455,4.3820071984858355,9.022007198485834,0.5905709143938689,-0.6622222222222223,-0.4477777777777778,-0.11555555555555555,-0.25117427154566235,0.09354578808057702,-0.027768986358413378
1592265030.2844455,4.045690262306863,8.630853754940713,0.6555903701042041,-0.6605974368187807,-0.4502149558829401,-0.11718034095899708,-0.07303760786242817,0.14574925996534357,-0.06776030729132657
1592265030.2944455,4.42,8.91,0.7,-0.6577777777777778,-0.45444444444444443,-0.12,-0.12217304763960307,0.13744467859455345,-0.07744898555724837
1592265030.3044455,3.9012580814258255,9.085231521929058,0.8777808841516688,-0.6577777777777778,-0.45444444444444443,-0.12,0.051861446230766765,0.1675472624039594,-0.05768403905685478
1592265030.3144455,3.9810067694080367,8.454163906092468,0.4407849632723606,-0.6577777777777778,-0.45444444444444443,-0.12,0.16472008297017002,0.05495388038777281,-0.08128551110496275
1592265030.3244455,4.18,8.16,0.51,-0.6577777777777778,-0.45444444444444443,-0.12,0.23125612588924865,-0.022907446432425576,-0.07090400086226964
1592265030.3344455,4.020604001221747,9.059127978008553,0.7462866524129506,-0.6577777777777778,-0.4520879997285006,-0.1152871105681124,0.0731343899782522,0.17261480888457892,0.13453593533282782
1592265030.3444455,4.0456695864738235,8.713037278468121,0.5169627215318803,-0.6577777777777778,-0.4477777777777778,-0.10666666666666667,0.13120389991734566,0.17992934885375828,0.03020341334629309
1592265030.3544455,4.150398059876234,8.944800970061882,0.5196487706974411,-0.6577777777777778,-0.4477777777777778,-0.10666666666666667,0.005535888682604108,0.1493850703359894,0.09538000686193275
1592265030.3644454,3.9698447920455924,9.009689584091184,0.6598447920455923,-0.6577777777777778,-0.4477777777777778,-0.10666666666666667,-0.025759893314297396,0.16471077461656855,0.11468026013425586
1592265030.3744454,3.859087407064987,8.73,0.6072622211949613,-0.6577777777777778,-0.4477777777777778,-0.10666666666666667,0.029055287873605083,0.09806734298543252,-0.011404999525303865
1592265030.3844454,3.9379904099359355,8.929431670793539,0.8369736273238219,-0.6593328005519964,-0.4450564879228952,-0.11133173498932254,0.0535537762667504,0.19297659586172064,0.030860311535988935
1592265030.3944454,3.99,9.3,0.98,-0.6622222222222223,-0.44,-0.12,0.08617563181722002,0.1461713248545251,0.08617563181722002
1592265030.4044454,3.8192836064544484,8.909283606454448,0.7205446725685942,-0.6622222222222223,-0.44,-0.12,0.09492686577424173,0.04246103510205408,-0.20725784867432664
1592265030.4144454,3.9106463147782464,8.832702673853872,0.5246885840849655,-0.6622222222222223,-0.44,-0.12,0.2417491064578579,0.13292242030759396,-0.12736312467588298
1592265030.4244454,3.98,8.71,0.45,-0.6622222222222223,-0.44,-0.12,0.17016960206944715,0.17889624832941878,-0.03599741582238304
1592265030.4344454,3.8261845871979845,8.450407649146914,0.2810076720485515,-0.6503012837640114,-0.43625341934170514,-0.12715256307492653,0.20538958392981735,0.014992209397588128,0.04228983440695209
1592265030.4444454,4.256784605602722,9.111362905337174,0.5867846056027228,-0.6233333333333333,-0.42777777777777776,-0.14333333333333334,0.31776524503923326,0.030746969060927616,-0.00453088276733156
1592265030.4544454,3.915080423482024,8.724706746863347,0.24508042348202377,-0.6233333333333333,-0.42777777777777776,-0.14333333333333334,0.23206676014655114,-0.006982557971608715,0.11317240967259444
1592265030.4644454,3.96,8.91,0.29,-0.6233333333333333,-0.42777777777777776,-0.14333333333333334,0.18980455615438332,-0.022907446432425576,0.15053464798451094
1592265030.4744453,4.126111232800334,9.1019410979908,0.3944405503892948,-0.6233333333333333,-0.42777777777777776,-0.14333333333333334,0.24352886820320174,-0.058116655070188275,0.1223840717749294
1592265030.4844453,4.130084510993442,8.737352105761476,0.07146474033032926,-0.626363066085337,-0.43080751052978145,-0.14526134508460842,0.2781926041022633,-0.0044462916037816234,-0.013529369509133289
1592265030.4944453,4.1,8.79,0.44,-0.6355555555555555,-0.44,-0.1511111111111111,0.07308566242726255,0.025089107997418484,-0.05126904677733343
1592265030.5044453,4.144701240463572,9.338383903092422,0.4763761574748122,-0.6355555555555555,-0.44,-0.1511111111111111,0.029119102310459524,0.044279623659761645,-0.1641929979586508
1592265030.5144453,4.323765157109846,9.3115270267051,0.2782359387283513,-0.6355555555555555,-0.44,-0.1511111111111111,-0.024781221223446594,0.07782241001217546,-0.1644713060028911
1592265030.5244453,4.283921716221302,9.029430614549169,0.250298940803269,-0.6355555555555555,-0.44,-0.1511111111111111,0.020719567970666992,0.1836384502622933,-0.09971280722451904
1592265030.5344453,4.077872075000945,8.742573999168336,0.2109790949986769,-0.6408983648147448,-0.4354586121296891,-0.14363117814824616,0.1269472106397742,0.21952399402267392,-0.027878843910073014
1592265030.5444453,3.85,8.34,0.53,-0.6577777777777778,-0.4211111111111111,-0.12,0.15926129424448257,0.3065234498815041,-0.022907446432425576
1592265030.5544453,3.918912190915918,8.843942369204239,0.5096409200901177,-0.6577777777777778,-0.4211111111111111,-0.12,0.03276409301680125,0.2500996185720153,-0.07550349418141777
1592265030.5644453,3.95,9.36,0.92,-0.6577777777777778,-0.4211111111111111,-0.12,-0.011999138607461015,0.22907446432425577,0.062177354602297986
1592265030.5744452,3.856995831366997,9.14004168633003,0.4180987494100991,-0.6577777777777778,-0.4211111111111111,-0.12,0.04824172109344196,0.20503491846009816,-0.09316058664375781
1592265030.5844452,3.9743338002801685,8.589262757654593,0.5151747048228937,-0.6526376270206569,-0.4196119004736175,-0.12599684254997442,-0.028244462102384824,0.19579497880816654,-0.04206825914061928
1592265030.5944452,4.16,9.34,0.83,-0.6311111111111111,-0.41333333333333333,-0.1511111111111111,0.031634092692397225,0.33052172709642613,-0.09490227807719166
1592265030.6044452,3.9966003793010025,8.910257924681659,0.26806556488756433,-0.6311111111111111,-0.41333333333333333,-0.1511111111111111,0.16632033774820537,0.15129938213048433,-0.258046055114862
1592265030.6144452,4.3073007207336635,9.03378229533319,0.07891698393314657,-0.6311111111111111,-0.41333333333333333,-0.1511111111111111,0.034494601371751726,0.16530494028947837,-0.25963211810641557
1592265030.6244452,3.941121557729094,9.060690439239181,0.26189627170029234,-0.6311111111111111,-0.41333333333333333,-0.1511111111111111,-0.0035171782865378205,0.19411130427320059,-0.22426031276497888
1592265030.6344452,3.752073207320732,8.931489648964895,0.39621962196219623,-0.6318118478514517,-0.4122822282228223,-0.14515484881821517,0.04047856045902916,0.23658771270660794,-0.11599298233330828
1592265030.6444452,3.87,9.26,0.75,-0.6355555555555555,-0.4066666666666667,-0.11333333333333333,0.02945243112740431,0.2650718801466388,-0.25198191075668136
1592265030.6544452,3.835654239561791,8.980434576043821,0.3504345760438209,-0.6355555555555555,-0.4066666666666667,-0.11333333333333333,0.03960277892371733,0.3306793979031746,-0.16942813467545353
1592265030.6644452,4.04,8.96,0.33,-0.6355555555555555,-0.4066666666666667,-0.11333333333333333,0.1265363707695889,0.28907015736156083,-0.3239767424014474
1592265030.6744452,4.0165327841431795,8.909683030860585,0.6808032951409216,-0.6355555555555555,-0.4066666666666667,-0.11333333333333333,0.18885440121587863,0.33336058296177945,-0.16905106033519157
1592265030.6844451,4.0261232130701154,9.122995234853642,0.5538767869298843,-0.6348702821269193,-0.40769457680962107,-0.11778761061946902,0.18275017056301754,0.23582625390209716,-0.10815561218610709
1592265030.6944451,3.95,8.92,0.63,-0.6311111111111111,-0.41333333333333333,-0.14222222222222222,0.1679879405044542,0.3327033886614191,-0.09708393964218458
1592265030.7044451,4.001615892358467,8.890621350596598,0.6002259456714902,-0.6311111111111111,-0.41333333333333333,-0.14222222222222222,0.08686089730878829,0.19026800000168156,-0.11219778922157585
1592265030.714445,3.73,9.33,0.76,-0.6311111111111111,-0.41333333333333333,-0.14222222222222222,0.26289021858164585,0.20943951023931953,-0.15489797111449674
1592265030.724445,3.58765708685644,8.996214645486246,0.6305549604576429,-0.6311111111111111,-0.41333333333333333,-0.14222222222222222,0.14386717261639226,0.2242511112742819,-0.19799320806348272
1592265030.734445,3.839958914609842,8.76257151617354,0.4916737697378507,-0.6321451274975727,-0.4151428620096411,-0.14377324680191458,0.3357976155460629,0.34266792634931525,-0.14424793081375226
1592265030.744445,3.51,8.87,0.86,-0.6355555555555555,-0.4211111111111111,-0.14888888888888888,0.1265363707695889,0.5050546522958591,-0.1810779098944117
1592265030.754445,3.872908896406164,8.929115852777056,0.22202474918321913,-0.6355555555555555,-0.4211111111111111,-0.14888888888888888,0.18519239227862896,0.2580176707772394,-0.26842829711066685
1592265030.764445,4.096167132516305,8.781277622494565,0.23004419599130416,-0.6355555555555555,-0.4211111111111111,-0.14888888888888888,0.19037166620213145,0.17394653101257385,-0.16163053315180115
1592265030.774445,4.19,8.75,0.18,-0.6355555555555555,-0.4211111111111111,-0.14888888888888888,0.16580627893946132,0.2203478180642841,-0.10362892433716332
1592265030.784445,4.063777549974373,8.803880850057169,0.19329889997240074,-0.6353428222213461,-0.4207388277762445,-0.14920798889020312,0.1605072575677851,0.19821792672063956,-0.05646777175722703
1592265030.794445,3.94,9.08,0.06,-0.6311111111111111,-0.41333333333333333,-0.15555555555555556,0.358883327441334,0.19198621771937624,-0.07308566242726255
1592265030.804445,3.690699530640927,9.14327358065286,0.16537217257564107,-0.6311111111111111,-0.41333333333333333,-0.15555555555555556,0.10416605241120475,0.16099489108510143,-0.06546749184855225
1592265030.814445,3.61,9.29,0.07,-0.6311111111111111,-0.41333333333333333,-0.15555555555555556,0.21380283336930533,0.18980455615438332,-0.20071286397934787
1592265030.824445,3.5825142510612493,8.931285627653123,0.03389205579138872,-0.6311111111111111,-0.41333333333333333,-0.15555555555555556,0.1173363476097055,0.2821269433572656,-0.11024283842421975
1592265030.834445,3.430489272252827,8.550636053928676,0.00017613801101768627,-0.6311415547179536,-0.41332680970329566,-0.15557512644566862,0.15712019488530443,0.3283037730314937,-0.18317524476836863
1592265030.844445,3.93,9.2,0.18,-0.6622222222222223,-0.4066666666666667,-0.17555555555555555,0.19853120241435498,0.2912518189265538,-0.09708393964218458
1592265030.854445,3.505944128084509,8.864700008252868,-0.1257146983576793,-0.6622222222222223,-0.4066666666666667,-0.17555555555555555,0.164107150426724,0.10622253949303712,-0.2778102125772473
1592265030.864445,4.1,9.24,-0.12,-0.6622222222222223,-0.4066666666666667,-0.17555555555555555,-0.00545415391248228,0.009817477042468103,-0.14398966328953217
1592265030.874445,4.162058344271941,9.346885438826778,0.18279228714977597,-0.6622222222222223,-0.4066666666666667,-0.17555555555555555,0.08412740483284978,0.293569482546061,-0.19546630514336072
1592265030.884445,3.438372599356579,9.352607480583629,-0.16641243947616413,-0.6603801312117044,-0.40582935257097674,-0.17103405943882985,0.13724900752187996,0.10619437769632933,-0.03659754467389785
1592265030.894445,3.88,9.48,0.53,-0.65,-0.4011111111111111,-0.14555555555555555,0.09926560120717749,-0.020725784867432664,-0.10144726277217041
1592265030.904445,3.3761494080827323,9.678448224248196,-0.09950197305755884,-0.65,-0.4011111111111111,-0.14555555555555555,-0.009165561299275229,0.14901748924263408,-0.2247111411942699
1592265030.914445,3.5135976653884184,9.482891975978584,-0.05377227889925959,-0.65,-0.4011111111111111,-0.14555555555555555,0.0707889273306236,0.1422381462701297,-0.20394686694028075
1592265030.924445,3.77,8.88,-0.13,-0.65,-0.4011111111111111,-0.14555555555555555,0.016362461737446838,0.044724062082354694,-0.15707963267948966
1592265030.934445,3.613096884232327,8.903202266012853,-0.4532549569031158,-0.6490667925562696,-0.40321082785950446,-0.14683871579068483,0.09881635155466578,0.26585628957540686,-0.16631609523274574
1592265030.944445,3.81,8.76,-0.14,-0.6411111111111111,-0.4211111111111111,-0.15777777777777777,-0.11890055529211369,0.32834006553143325,-0.0032724923474893677
1592265030.954445,3.6263310772701636,9.0976717428088,-0.15668415115623238,-0.6411111111111111,-0.4211111111111111,-0.15777777777777777,0.022116917119154443,0.09977354812992374,-0.035235495438263695
1592265030.9644449,4.09,9.3,-0.3,-0.6411111111111111,-0.4211111111111111,-0.15777777777777777,-0.1461713248545251,0.05563236990731925,-0.10144726277217041
1592265030.9744449,3.5925369835828973,9.34655105538517,0.09034683384448855,-0.6411111111111111,-0.4211111111111111,-0.15777777777777777,-0.10481155965872428,0.09440488049415725,-0.17144748583025188
1592265030.9844449,3.8243947046459827,9.248930576904979,0.20891896979013083,-0.6423332043653905,-0.4211111111111111,-0.15824781364480833,-0.2546429602324561,0.22520972652227988,-0.11105705866462529
1592265030.9944448,2.79,8.48,0.63,-0.6555555555555556,-0.4211111111111111,-0.16333333333333333,-0.14180800172453928,-0.13526301702956053,0.10362892433716332
1592265031.0044448,4.062152310132342,9.42847429864018,0.569331270637789,-0.6555555555555556,-0.4211111111111111,-0.16333333333333333,-0.14461308835466452,-0.11361620465814229,-0.1088847711637348
1592265031.0144448,3.32,9.13,0.65,-0.6555555555555556,-0.4211111111111111,-0.16333333333333333,0.062177354602297986,-0.014180800172453926,-0.1854412330243975
1592265031.0244448,3.6691201126685,8.789133302036529,-0.10544653834976414,-0.6555555555555556,-0.4211111111111111,-0.16333333333333333,0.10785115371292911,-0.2115563798746611,-0.021713441146972857
1592265031.0344448,3.9692672608667574,8.743471872376153,0.2573248078537751,-0.6551096901978514,-0.4211111111111111,-0.16511679476414992,0.06200354593857528,0.005954655228690691,-0.28194851116979636
1592265031.0444448,3.68,9.35,0.22,-0.6488888888888888,-0.4211111111111111,-0.19,-0.062177354602297986,0.2868884957965679,-0.3043417883165112
1592265031.0544448,3.1721990960325877,9.029114446738463,0.26212934546063277,-0.6488888888888888,-0.4211111111111111,-0.19,-0.13989769352310694,0.017760497640151973,-0.18426682930153124
1592265031.0644448,3.9,9.18,0.2,-0.6488888888888888,-0.4211111111111111,-0.19,-0.15926129424448257,0.3043417883165112,-0.20943951023931953
1592265031.0744448,3.4531023542102925,9.030918628508577,0.07045138227890942,-0.6488888888888888,-0.4211111111111111,-0.19,-0.13102451980928356,0.10341706638837463,-0.20692688696473993
1592265031.0844448,3.5595634240751317,9.119636186729275,0.8866529179093429,-0.6488888888888888,-0.4211111111111111,-0.19,-0.1852189921441173,-0.022391530103203716,-0.08015053203861097
1592265031.0944448,3.62,8.83,0.68,-0.6555555555555556,-0.4066666666666667,-0.17555555555555555,-0.1854412330243975,0.13308135546456762,-0.20507618710933373
1592265031.1044447,3.4420342675775997,9.047796815320888,0.5728812738716444,-0.6555555555555556,-0.4066666666666667,-0.17555555555555555,-0.23558242097986953,0.09697303156865085,-0.2248589012626074
1592265031.1144447,3.68,9.18,0.52,-0.6555555555555556,-0.4066666666666667,-0.17555555555555555,-0.20289452554434081,0.11235557059713495,-0.1287180323345818
1592265031.1244447,3.511693156579678,8.89288832593004,0.5992032204330927,-0.6555555555555556,-0.4066666666666667,-0.17555555555555555,-0.2158541221825313,0.30242965462392857,-0.22159514157494686
1592265031.1344447,3.2064183653187874,8.917598330425564,0.8943821912060246,-0.6555555555555556,-0.4066666666666667,-0.17555555555555555,0.053957976816675995,0.13876369226108085,-0.1944313784804767
1592265031.1444447,3.5019873464830664,9.02368766282099,0.59510094901377,-0.6344444444444445,-0.42777777777777776,-0.19666666666666666,-0.060605454047840866,0.2595805803403722,-0.21849306066289567
1592265031.1544447,3.20156613805115,8.75882780273169,0.6587402603355028,-0.6344444444444445,-0.42777777777777776,-0.19666666666666666,-0.04102499680259565,0.41397930638476965,-0.20098769654014095
1592265031.1644447,3.434191500908426,9.14880229348057,0.86628748731743,-0.6344444444444445,-0.42777777777777776,-0.19666666666666666,-0.08767799827328095,0.32384609288746824,-0.16805321378409396
1592265031.1744447,3.758645447185649,9.394329967190762,0.6409638246197111,-0.6344444444444445,-0.42777777777777776,-0.19666666666666666,0.0017961593914863471,0.34112694115801523,-0.3024146028064916
1592265031.1844447,3.338661425710512,8.625848566193701,0.34608142656269975,-0.6344444444444445,-0.42777777777777776,-0.19666666666666666,0.11974065163103875,0.16079858525456733,-0.19421758926442284
1592265031.1944447,3.82,8.9,0.66,-0.6555555555555556,-0.4211111111111111,-0.18777777777777777,0.04908738521234052,0.15271630954950383,-0.284706834231575
1592265031.2044446,3.627082666391284,9.088759745959623,0.43671606340682606,-0.6555555555555556,-0.4211111111111111,-0.18777777777777777,-0.006744935605179719,0.04655431696319439,-0.3453466508207275
1592265031.2144446,3.25,8.99,0.32,-0.6555555555555556,-0.4211111111111111,-0.18777777777777777,0.13526301702956053,0.2159844949342983,-0.47560222116845474
1592265031.2244446,3.2538528288788613,9.019571907902348,0.4687157237070461,-0.6555555555555556,-0.4211111111111111,-0.18777777777777777,0.013397163897026354,0.1120651619854811,-0.5596064144096189
1592265031.2344446,3.399437695244707,9.003395811639477,0.4201874349184311,-0.6555555555555556,-0.4211111111111111,-0.18777777777777777,-0.0986510228784298,0.1835289661493547,-0.47755537999924547
1592265031.2444446,2.2,6.69,0.3,-0.6555555555555556,-0.41333333333333333,-0.20222222222222222,0.5159629601208237,-0.49632800603588745,-0.15053464798451094
1592265031.2544446,4.745190291704649,11.886833409298086,1.43227096627165,-0.6555555555555556,-0.41333333333333333,-0.20222222222222222,-0.3655087323182037,0.08639340022320607,-0.588631357400315
1592265031.2644446,2.97,9.74,0.46,-0.6555555555555556,-0.41333333333333333,-0.20222222222222222,0.04908738521234052,0.16144295580947549,-0.7341291166201148
1592265031.2744446,2.948887532968547,10.417009014683305,-0.16886312640239343,-0.6555555555555556,-0.41333333333333333,-0.20222222222222222,0.16960329587098386,0.08092239894679187,-0.45074100117492194
1592265031.2844446,2.8745878439554384,8.881482108412392,1.2428309648466715,-0.6555555555555556,-0.41333333333333333,-0.20222222222222222,0.1317807148484579,0.02148691448282257,-0.3931065919977397
1592265031.2944446,2.97,9.55,0.49,-0.6555555555555556,-0.42777777777777776,-0.2222222222222222,-0.01854412330243975,0.15707963267948966,-0.40142572795869574
1592265031.3044446,2.908177106745287,8.68565509400037,0.5460797482746768,-0.6555555555555556,-0.42777777777777776,-0.2222222222222222,-0.09345612472113235,0.04595781220505765,-0.41066163433384123
1592265031.3144445,3.41,9.67,0.99,-0.6555555555555556,-0.42777777777777776,-0.2222222222222222,0.2476185876266955,0.26070855701665296,-0.605411084285533
1592265031.3244445,3.1251876507657497,9.53957720141369,0.39316865194382633,-0.6555555555555556,-0.42777777777777776,-0.2222222222222222,0.28460319133451895,0.033244688218031705,-0.49332446302862315
1592265031.3344445,3.3291104587018716,9.916050077603455,0.9108188567047516,-0.6555555555555556,-0.42777777777777776,-0.2222222222222222,0.19476952212016274,0.0965560360452923,-0.37525735491832635
1592265031.3444445,2.63,9.23,0.78,-0.64,-0.45444444444444443,-0.21666666666666667,0.15707963267948966,0.08835729338221293,-0.509417975425845
1592265031.3544445,2.6739984811087907,9.652385418644391,0.709602430225935,-0.64,-0.45444444444444443,-0.21666666666666667,0.25786891759026054,0.07683851796383913,-0.21664910020884376
1592265031.3644445,2.847670697097613,9.62388328444349,0.3536882020462188,-0.64,-0.45444444444444443,-0.21666666666666667,0.16051099802282234,-0.01651069463908679,-0.42838939162362394
1592265031.3744445,2.41,9.74,0.97,-0.64,-0.45444444444444443,-0.21666666666666667,0.15271630954950383,-0.03599741582238304,-0.4166973589136462
1592265031.3844445,2.309802212836833,9.2590506216168,0.682766343465588,-0.64,-0.45444444444444443,-0.21666666666666667,0.1512589918084957,-0.08846085449867622,-0.5310968015827854
1592265031.3944445,2.44,9.09,0.65,-0.6322222222222222,-0.4722222222222222,-0.21444444444444444,-0.011999138607461015,0.15707963267948966,-0.5443245604657315
1592265031.4044445,2.3125627247383944,9.829136196517313,0.4036212678275625,-0.6322222222222222,-0.4722222222222222,-0.21444444444444444,-0.004585138463843229,-0.029197120928907194,-0.4451623085448436
1592265031.4144444,2.4363035168195717,9.33,0.06326070336391437,-0.6322222222222222,-0.4722222222222222,-0.21444444444444444,0.08974480845436773,-0.12115967168044327,-0.3900957448169119
1592265031.4244444,2.62,9.33,0.1,-0.6322222222222222,-0.4722222222222222,-0.21444444444444444,0.031634092692397225,-0.03599741582238304,-0.5574145298556891
1592265031.4344444,2.1486676809389262,9.053933927407085,0.5443990436861552,-0.6322222222222222,-0.4722222222222222,-0.21444444444444444,0.25712287460968136,-0.09696018096614391,-0.48910685324882447
1592265031.4444444,2.381329083816954,9.52916135477119,0.3943354580915232,-0.6322222222222222,-0.4922222222222222,-0.24333333333333335,0.03237726072906901,-0.16082084705429758,-0.5579550157005413
1592265031.4544444,2.1199676992440724,9.200237096520938,0.523803862632063,-0.6322222222222222,-0.4922222222222222,-0.24333333333333335,0.058189011435564625,-0.07431990316503619,-0.5758375829553115
1592265031.4644444,2.468073618806218,9.557751284179359,0.30741369641775645,-0.6322222222222222,-0.4922222222222222,-0.24333333333333335,0.1474756189453031,-0.11742378265249612,-0.6097049168383157
1592265031.4744444,2.165490223759441,9.274551422319474,0.21422460647984753,-0.6322222222222222,-0.4922222222222222,-0.24333333333333335,0.16301017326884817,-0.04196814937203401,-0.5952708315925938
1592265031.4844444,2.257222392638037,9.54337346625767,0.2942461656441718,-0.6322222222222222,-0.4922222222222222,-0.24333333333333335,-0.005969537996144886,-0.1392672192585297,-0.6045280467287821
1592265031.4944444,2.26,9.37,0.12,-0.5933333333333334,-0.5044444444444445,-0.20777777777777778,0.001090830782496456,-0.1265363707695889,-0.7134033317526822
1592265031.5044444,2.0283958240240483,9.385972701791445,0.7030036153877401,-0.5933333333333334,-0.5044444444444445,-0.20777777777777778,0.030710805931861974,-0.04551702697867732,-0.6681021932889467
1592265031.5144444,2.1762982060629317,9.916673541826555,-0.12308998465080584,-0.5933333333333334,-0.5044444444444445,-0.20777777777777778,0.051540498719946225,-0.16036727254767802,-0.5666257398089022
1592265031.5244443,2.03,9.39,0.15,-0.5933333333333334,-0.5044444444444445,-0.20777777777777778,-0.11017390903214205,-0.031634092692397225,-0.5857761302005968
1592265031.5344443,2.0857183626647267,9.606682521473937,0.6081287596877536,-0.5933333333333334,-0.5044444444444445,-0.20777777777777778,-0.1061219553558097,0.053456934510582116,-0.4209966806964146
1592265031.5444443,1.9,9.48,0.1,-0.62,-0.5244444444444445,-0.21444444444444444,0.016362461737446838,-0.03381575425739013,-0.6032294227205401
1592265031.5544443,2.1969393511988717,9.899208495810173,0.056332448353107106,-0.62,-0.5244444444444445,-0.21444444444444444,-0.040798229701774644,0.07669491585843807,-0.6346678030121119
1592265031.5644443,1.2969054475356387,8.935404459887193,0.5208853137866204,-0.62,-0.5244444444444445,-0.21444444444444444,0.10866737408438427,-0.09586624029941634,-0.421293339305174
1592265031.5744443,1.68,9.79,0.57,-0.62,-0.5244444444444445,-0.21444444444444444,0.025089107997418484,0.09272061651219875,-0.5552328682906961
1592265031.5844443,1.615669471344658,9.632097793300524,0.3945531036672488,-0.62,-0.5244444444444445,-0.21444444444444444,0.011054363815114982,-0.06995482741904639,-0.5220598365870696
1592265031.5944443,1.88,9.8,0.16,-0.5877777777777777,-0.5366666666666666,-0.20777777777777778,0.014180800172453926,0.15707963267948966,-0.40142572795869574
1592265031.6044443,1.543491980015777,9.73590323428872,0.6727741256902446,-0.5877777777777777,-0.5366666666666666,-0.20777777777777778,0.03690438582876059,0.018116166550537383,-0.34811270007274553
1592265031.6144443,1.588867822465042,9.799303275363103,-0.13181348551645788,-0.5877777777777777,-0.5366666666666666,-0.20777777777777778,0.00577715760184401,-0.05745302734890788,-0.37489428516388723
1592265031.6244442,1.481806645240571,9.544270252386804,0.4206382928443143,-0.5877777777777777,-0.5366666666666666,-0.20777777777777778,0.06339155990329874,0.03231082229118011,-0.35700623544093124
1592265031.6344442,1.3993616151563084,9.261431034176338,0.5106383848436917,-0.5877777777777777,-0.5366666666666666,-0.20777777777777778,0.08515023110725142,-0.02535924211018984,-0.5510195593536644
1592265031.6444442,1.66,9.62,0.91,-0.5933333333333334,-0.5488888888888889,-0.21444444444444444,0.08617563181722002,0.08617563181722002,-0.48432886742842646
1592265031.6544442,1.6803829284106944,9.864595140928335,0.4208097181433312,-0.5933333333333334,-0.5488888888888889,-0.21444444444444444,0.10396309241546574,0.13879686942036362,-0.5073043373678272
1592265031.6644442,1.4094687049322179,9.76718315546582,1.070287856936833,-0.5933333333333334,-0.5488888888888889,-0.21444444444444444,0.18727579204562056,0.06548967942081822,-0.6394942761446312
1592265031.6744442,1.4575120274914088,9.795945017182131,0.3954776632302406,-0.5933333333333334,-0.5488888888888889,-0.21444444444444444,0.06825376937352397,-0.07662580191519949,-0.6718213121510441
1592265031.6844442,1.1735480731802257,9.694229272090308,0.3583514986376022,-0.5933333333333334,-0.5488888888888889,-0.21444444444444444,-0.03721732895516324,-0.0038705597500375277,-0.8076606226914496
1592265031.6944442,1.1372549318884266,9.971515244018773,-0.08577555614912047,-0.561915221972077,-0.5608061035431585,-0.22202812649716147,0.14091750553036483,0.14816634600937134,-0.6746700355738025
1592265031.7044442,0.9722099053802604,9.965409556989588,0.571160378478958,-0.5611111111111111,-0.5611111111111111,-0.2222222222222222,0.09126214479176366,0.004905953035447969,-0.6681785300162222
1592265031.7144442,1.4664195346134545,10.108378542563587,0.18011753519452733,-0.5611111111111111,-0.5611111111111111,-0.2222222222222222,-0.02620952815192372,-0.000530620705243845,-0.6291476669863796
1592265031.7244442,0.7331809531522047,9.745714459246061,0.2853638093695591,-0.5611111111111111,-0.5611111111111111,-0.2222222222222222,-0.06617019189985152,-0.05219225789673017,-0.6554099317818594
1592265031.7344441,0.3630304671631686,9.616839733049618,0.4976185317728987,-0.5611111111111111,-0.5611111111111111,-0.2222222222222222,0.015521575642418614,-0.07819508469270654,-0.7210200716710631
1592265031.7444441,0.010105841318205522,9.240125085194244,0.8799005733071403,-0.5611111111111111,-0.5688863943123655,-0.2144469390209678,-0.12647584437729548,-0.19849306728857474,-0.6523472460607971
1592265031.7544441,0.35561412597677333,9.712945646073479,0.9072853257350084,-0.5611111111111111,-0.5688888888888889,-0.21444444444444444,-0.11165453415849394,-0.16281479454772707,-0.6116397878625545
1592265031.764444,0.7707666870789958,10.07357256582976,0.730815676668708,-0.5611111111111111,-0.5688888888888889,-0.21444444444444444,0.0510804058630793,-0.09980894582351713,-0.5847891053602927
1592265031.774444,0.18173413051774578,9.743585294491794,0.4427006742144765,-0.5611111111111111,-0.5688888888888889,-0.21444444444444444,0.014566788584181714,-0.13021144780937932,-0.5472960717717205
1592265031.784444,-0.03455817457754819,9.644930219208552,0.4750697807914469,-0.5611111111111111,-0.5688888888888889,-0.21444444444444444,0.0264792881379071,-0.12775404052048023,-0.5653496946911564
1592265031.794444,0.053874235614823573,9.801028512488028,0.7262856406100346,-0.5661396809024452,-0.5729117447219562,-0.20036444902870895,-0.007446308442543591,-0.06610062439480799,-0.5373482423286502
1592265031.804444,0.09009185208646767,9.692751603452372,0.6830271597117745,-0.5666666666666667,-0.5733333333333334,-0.1988888888888889,0.10562107899449946,-0.09214034877945577,-0.5882082794739784
1592265031.814444,0.27774545069826495,9.923279993652137,0.43670545916208203,-0.5666666666666667,-0.5733333333333334,-0.1988888888888889,0.09867139733589325,-0.13222852360094584,-0.5638476559243523
1592265031.824444,0.04055689240288757,9.862708834651082,0.3289240288759024,-0.5666666666666667,-0.5733333333333334,-0.1988888888888889,0.0834637417453691,-0.1600262632359892,-0.43448270047377535
1592265031.834444,0.016177530298067472,9.918384648979147,0.35823670706409,-0.5666666666666667,-0.5733333333333334,-0.1988888888888889,0.04366419712619835,-0.16185992257107829,-0.4603803141846467
1592265031.844444,0.07977232301672002,9.834774101743152,0.48545357524012805,-0.533964978852919,-0.5980805565437369,-0.18739910668405865,0.0653997874795127,-0.04038673883227896,-0.4945926110663662
1592265031.854444,0.0025321153297173937,9.773759634598916,0.47501284613188693,-0.5255555555555556,-0.6044444444444445,-0.18444444444444444,0.15091673458745786,0.032164093831937315,-0.39014654389566295
1592265031.864444,-0.07351199238029266,9.746183002857391,0.374732011429561,-0.5255555555555556,-0.6044444444444445,-0.18444444444444444,0.0722438790138671,0.0814796001036907,-0.32588319328218207
1592265031.874444,-0.13608561749307052,9.763042808746535,0.265509701262704,-0.5255555555555556,-0.6044444444444445,-0.18444444444444444,0.07087174962878652,0.06590909107657289,-0.4295309981874827
1592265031.884444,-0.15,9.787186993318485,0.23427100222717148,-0.5255555555555556,-0.6044444444444445,-0.18444444444444444,0.07494923870786638,0.0740623859932951,-0.40969948265708644
1592265031.894444,-0.22972416018066702,9.698532887042788,0.2879812074041215,-0.5150867264409225,-0.5947809098770909,-0.19088680082268017,0.09996592891042158,0.10040636113183361,-0.3971622631130293
1592265031.904444,-0.23503341390587232,9.626711218541162,0.31,-0.5111111111111111,-0.5911111111111111,-0.19333333333333333,0.09746455939765825,0.18842135852630099,-0.34896301792214257
1592265031.914444,-0.19182325886990803,9.795613009198423,0.11911629434954008,-0.5111111111111111,-0.5911111111111111,-0.19333333333333333,0.05825523740510114,0.12095457102112592,-0.4803233253277588
1592265031.924444,-0.40014937681125273,9.827985062318875,0.11870650048300074,-0.5111111111111111,-0.5911111111111111,-0.19333333333333333,0.08532903836304775,0.1917610505896858,-0.5102808633624077
1592265031.934444,-0.4242911417716457,9.875708858228354,0.15114177164567089,-0.5111111111111111,-0.5911111111111111,-0.19333333333333333,0.08954257122106231,0.1545777672375312,-0.4789240092081746
1592265031.944444,-0.5380530973451327,9.911681415929204,0.17663716814159292,-0.5074139626352016,-0.61976401179941,-0.18593903638151424,0.012848635146042328,0.15062152831232037,-0.3964445891642872
1592265031.954444,-0.5274973767051416,9.946430819967022,0.25286163993404287,-0.5066666666666667,-0.6255555555555555,-0.18444444444444444,-0.04745400060937888,0.17204025176990576,-0.3674141605005802
1592265031.964444,-0.8446431924882629,11.077781690140846,0.5543794992175274,-0.5066666666666667,-0.6255555555555555,-0.18444444444444444,-0.2108208024578751,0.315848516690465,0.17320515026574634
1592265031.974444,-5.0883781488819695,10.641811491650156,-0.2914944806113783,-0.5066666666666667,-0.6255555555555555,-0.18444444444444444,0.15156403655763379,-0.013274913527720145,0.00037204955927211403
1592265031.984444,-2.68234693877551,10.493647959183674,-0.41647959183673466,-0.5066666666666667,-0.6255555555555555,-0.18444444444444444,-0.016006272094182677,-0.12785260281071345,0.0536399340903104
1592265031.994444,-0.6633733974358974,9.38895032051282,0.905897435897436,-0.4950578703703704,-0.6353783831908831,-0.18444444444444444,-0.03564866463470989,-0.0041282001488227305,0.022465170490163375
1592265032.004444,-0.4575485974161871,9.573622167666116,0.586428542681209,-0.4922222222222222,-0.6377777777777778,-0.18444444444444444,-0.02753725416215195,0.003007851628010618,0.013631236050616658
