time,acc_x,acc_y,acc_z,mag_x,mag_y,mag_z,gyr_x,gyr_y,gyr_z
1592265204.0142798,-0.31844601741111384,9.829689203482223,0.8593784069644456,-0.4866666666666667,-0.6253138249306177,-0.13360959690469087,-0.07807112564229435,0.1279602816860622,0.11848955233436079
1592265204.0242798,-0.22351240796291247,9.816216058280416,0.86,-0.4866666666666667,-0.6255555555555555,-0.13333333333333333,-0.007458097049316714,0.1475866978741919,0.049926766941892506
1592265204.0342798,-0.3713059221113615,9.819109805814827,0.7871215534813861,-0.4866666666666667,-0.6255555555555555,-0.13333333333333333,0.05887578045570441,0.16900434060594352,-0.11381559979300777
1592265204.0442798,-0.42658268611479444,9.746834627770411,0.972059102102671,-0.4866666666666667,-0.6255555555555555,-0.13333333333333333,-0.12837150397272415,0.06541761175333548,-0.06967100459798542
1592265204.0542798,-0.409825453907552,9.719825453907553,1.0505236382773442,-0.4866666666666667,-0.6255555555555555,-0.13333333333333333,-0.08528524752970909,0.0350924884001524,0.03247185379506708
1592265204.0642798,-0.32,9.69,1.15,-0.49333333333333335,-0.6311111111111111,-0.13666666666666666,0.06872233929727672,-0.038179077387375956,-0.09708393964218458
1592265204.0742798,-0.43712226992719805,9.653399290647751,1.2012409930931491,-0.49333333333333335,-0.6311111111111111,-0.13666666666666666,0.03997620939297624,0.08878299635661784,-0.04438270148430035
1592265204.0842798,-0.42275010292301357,9.706791546589818,1.0577919582818718,-0.49333333333333335,-0.6311111111111111,-0.13666666666666666,-0.041324178902437086,0.06760890450103564,0.008217532016624531
1592265204.0942798,-0.3827473501793415,9.732351589892396,1.0350989400717365,-0.49333333333333335,-0.6311111111111111,-0.13666666666666666,0.020294077363941947,-0.03641909997446889,-0.001560697360633809
1592265204.1042798,-0.29894943962859527,9.74,1.0429182837038917,-0.49333333333333335,-0.6311111111111111,-0.13666666666666666,0.007313246714293099,-0.003264025560377748,0.01850167067360443
1592265204.1142797,-0.01666614979066522,9.826904946503333,1.0326190106993332,-0.47691795454937025,-0.6311111111111111,-0.13473544563325926,0.09796722671711039,0.08500699328779406,-0.04420477994523822
1592265204.1242797,0.06541974843359873,9.849083949686719,1.0209160503132804,-0.47444444444444445,-0.6311111111111111,-0.13444444444444445,0.037246626991728995,0.15118402298724407,-0.08734133613107264
1592265204.1342797,0.10722117618290744,9.924442352365814,0.8711152952683702,-0.47444444444444445,-0.6311111111111111,-0.13444444444444445,0.07411463634254761,0.14489903125717782,-0.18899881644422634
1592265204.1442797,0.32599192686691203,9.967027187462898,0.8538288020895168,-0.47444444444444445,-0.6311111111111111,-0.13444444444444445,-0.01140988536510569,0.17091659387206373,-0.1418225064197357
1592265204.1542797,0.37653388515261255,9.964318118508496,0.8821023518643798,-0.47444444444444445,-0.6311111111111111,-0.13444444444444445,-0.07074286576478757,0.21143529344024503,-0.19273637278930827
1592265204.1642797,0.31092989928744874,10.03581545320648,0.8141845467935194,-0.4860983948798925,-0.618397710636077,-0.15033619503823717,-0.23742346019947475,0.25903485845049146,-0.12036981807450892
1592265204.1742797,0.10630587063968994,9.829735092273229,0.8494246701987697,-0.4866666666666667,-0.6177777777777778,-0.1511111111111111,-0.19598043564272566,0.34600308397112045,-0.18836358742523837
1592265204.1842797,0.11281804346198948,9.808642748434421,0.57989645966917,-0.4866666666666667,-0.6177777777777778,-0.1511111111111111,-0.24137172324786324,0.27096817963663755,-0.10998067786136975
1592265204.1942797,0.2773745091545631,9.886565974357762,0.6231319487155226,-0.4866666666666667,-0.6177777777777778,-0.1511111111111111,-0.35284572330358266,0.23511255873463022,-0.027160277595465993
1592265204.2042797,0.3220162679595788,9.960081339797894,0.6620162679595788,-0.4866666666666667,-0.6177777777777778,-0.1511111111111111,-0.32871340099610885,0.2445793451881208,-0.13542716374702182
1592265204.2142797,0.181495270064083,10.0,0.6625747635032042,-0.4775913776150273,-0.6128276201132472,-0.1511111111111111,-0.4581703990743495,0.26494139321751503,-0.21922436554950672
1592265204.2242796,-0.0854673469387755,9.964088775510206,0.677955612244898,-0.47444444444444445,-0.6111111111111112,-0.1511111111111111,-0.3894068041296441,0.36442989586985386,-0.1733401351315521
1592265204.2342796,-0.1504811507936508,10.067949735449735,0.6327719907407408,-0.47444444444444445,-0.6111111111111112,-0.1511111111111111,-0.5113998858182826,0.33035173569224247,0.00202068827243701
1592265204.2442796,-0.2734657624373703,10.094133559390658,0.791065084265398,-0.47444444444444445,-0.6111111111111112,-0.1511111111111111,-0.6062059239125887,0.3256346572366694,-0.1972245959289694
1592265204.2542796,-0.20577698343246167,10.066838670443927,0.9105397428101036,-0.47327468032545084,-0.6111111111111112,-0.15391854499669572,-0.5890453866697026,0.3150184719667792,-0.24515030813387706
1592265204.2642796,0.04306536539060529,9.998407024517585,1.1780452677949007,-0.4698185365917972,-0.6111111111111112,-0.16221328995746462,-0.5245772243245336,0.27565896232446546,-0.253972267191637
1592265204.2742796,0.2286112185686654,10.114426047711154,1.3211667311411992,-0.4688888888888889,-0.6111111111111112,-0.16444444444444445,-0.5978056517157327,0.2598964894120742,-0.4599106027795421
1592265204.2842796,0.35254389455359364,10.27619621984581,1.3484130813230542,-0.4688888888888889,-0.6111111111111112,-0.16444444444444445,-0.5290833403863638,0.31359038394865973,-0.6321677988243801
1592265204.2942796,0.24266846489867042,10.215112309932447,1.4773315351013296,-0.4688888888888889,-0.6111111111111112,-0.16444444444444445,-0.5004878643451531,0.3424963634775885,-0.8202490781293365
1592265204.3042796,0.09292320867827575,10.142815443905224,1.5254153582643448,-0.4688888888888889,-0.6111111111111112,-0.16444444444444445,-0.49850966760088034,0.40886512850152645,-0.9266908775863507
1592265204.3142796,-0.03668687401159726,9.948037502824008,1.5966868740115974,-0.4562918057752006,-0.6273073608287103,-0.17614173590715498,-0.5091100882526545,0.43445853860678,-1.0264916048436596
1592265204.3242795,-0.09899658981392245,9.888223737860478,1.6916609830232041,-0.4533333333333333,-0.6311111111111111,-0.17888888888888888,-0.4284598772475818,0.4681941708995867,-1.106667398940465
1592265204.3342795,-0.22955110781648957,9.975833127419488,1.776282019602998,-0.4533333333333333,-0.6311111111111111,-0.17888888888888888,-0.43436727222401844,0.5056140388745448,-1.3351066175275843
1592265204.3442795,-0.20828252876289882,9.916565057525798,1.9134959079587237,-0.4533333333333333,-0.6311111111111111,-0.17888888888888888,-0.45706474816873366,0.5745862325149959,-1.385368394375936
1592265204.3542795,-0.30064595066304406,9.85596739658492,2.009194091080843,-0.4533333333333333,-0.6311111111111111,-0.17888888888888888,-0.43207434963325536,0.6311866990803565,-1.533005459315342
1592265204.3642795,-0.5438511672816304,9.557900272423188,2.145602606986448,-0.42800272806341977,-0.6270255296159637,-0.18951140077627196,-0.5474562931736435,0.5531960665258133,-1.6252104976301394
1592265204.3742795,-0.7778215518718935,9.359307068876864,2.255519698342352,-0.41888888888888887,-0.6255555555555555,-0.19333333333333333,-0.2860383951098732,0.5836969785776529,-1.80143119649549
1592265204.3842795,-0.8838179907863897,9.26618200921361,2.250315202456963,-0.41888888888888887,-0.6255555555555555,-0.19333333333333333,-0.19360998894317158,0.653050493681845,-1.8170623300956354
1592265204.3942795,-1.5641655537154762,9.12722955286073,2.2143073882151825,-0.41888888888888887,-0.6255555555555555,-0.19333333333333333,-0.14043151185257235,0.58026909264395,-1.8920729730965749
1592265204.4042795,-1.8082934850235535,8.959435605723936,2.21,-0.41888888888888887,-0.6255555555555555,-0.19333333333333333,-0.06759602330756369,0.49242463324206404,-1.8677514717173933
1592265204.4142795,-2.110300195866811,8.781781188791621,2.1161374265499457,-0.3789103853823844,-0.6507593947226997,-0.2211444662074234,0.05900310112249718,0.4513230496856013,-1.796381806992669
1592265204.4242795,-2.2204752918151955,8.66893059341581,2.0242276508003076,-0.36777777777777776,-0.6577777777777778,-0.2288888888888889,0.11989314497142664,0.3368354620700579,-1.754783804976919
1592265204.4342794,-2.5995566646313946,8.786686665427805,1.7164050014600865,-0.36777777777777776,-0.6577777777777778,-0.2288888888888889,0.19089865922651908,0.35894804927623486,-1.6287828919103133
1592265204.4442794,-2.8488505611340815,8.852420555227406,1.5314672179562905,-0.36777777777777776,-0.6577777777777778,-0.2288888888888889,0.15659433218015337,0.24704553098289614,-1.6675520507249701
1592265204.4542794,-2.7984649953976937,8.861441875575288,1.5114418755752883,-0.36777777777777776,-0.6577777777777778,-0.2288888888888889,0.12870279413316948,0.26936426885842235,-1.60029937473862
1592265204.4642794,-2.6139502156848877,9.03118025599321,1.5006583692808146,-0.32408001948628495,-0.6749703384170537,-0.2195762518759478,0.05560521677561436,0.28459297621340335,-1.5684846079002035
1592265204.4742794,-2.447828574043566,9.163787753981328,1.723534687900421,-0.3,-0.6844444444444444,-0.21444444444444444,-0.07161993968171702,0.3265769251672664,-1.6845757630255909
1592265204.4842794,-2.514069268340816,9.232034634170407,1.646462578321575,-0.3,-0.6844444444444444,-0.21444444444444444,-0.1455432723984723,0.37691542922990173,-1.6934813959483717
1592265204.4942794,-2.409061809116139,8.90136342255045,1.9386365774495509,-0.3,-0.6844444444444444,-0.21444444444444444,-0.1673528582995077,0.5131916526676396,-1.7942879993228695
1592265204.5042794,-2.7380639282720414,8.76871450960382,2.0487145096038195,-0.3,-0.6844444444444444,-0.21444444444444444,-0.1338534491262683,0.5014014804009556,-1.824593850386227
1592265204.5142794,-3.03,8.315927092164225,2.272956279520407,-0.26279170535437946,-0.6998130878850268,-0.22253320415001412,-0.018458251919537635,0.5725010749530304,-2.0812660284965623
1592265204.5242794,-3.3980718954248363,8.408073397941552,2.1696179851250843,-0.24888888888888888,-0.7055555555555556,-0.22555555555555556,0.025256776826280913,0.59353810704759,-2.1388679890305533
1592265204.5342793,-3.6614337371657824,8.149551033335973,1.9520999287354501,-0.24888888888888888,-0.7055555555555556,-0.22555555555555556,0.07556906090994656,0.5034930485800452,-2.1669152096416213
1592265204.5442793,-4.245490897958223,8.1281178908697,1.7030193344794293,-0.24888888888888888,-0.7055555555555556,-0.22555555555555556,0.055906111584032685,0.41953773707720193,-2.1480767545862776
1592265204.5542793,-4.625535097813579,8.027441503644036,1.4954682448353334,-0.24888888888888888,-0.7055555555555556,-0.22555555555555556,0.09715507168400445,0.4198676960851102,-1.9878877213553299
1592265204.5642793,-4.856285802279027,8.006285802279027,1.3329688943640283,-0.19358450535537075,-0.7127977962563734,-0.21567977278171305,0.146978949492998,0.4844061360086464,-1.9264031304845557
1592265204.5742793,-5.251119642735081,8.127374512975917,0.9994112419968557,-0.15555555555555556,-0.7177777777777777,-0.2088888888888889,0.0706565762128187,0.3211201869207146,-1.7921970976742472
1592265204.5842793,-5.201424948407469,8.021267560108406,1.0585750515925307,-0.15555555555555556,-0.7177777777777777,-0.2088888888888889,0.1016217132456535,0.1581171139468522,-1.8729248832181913
1592265204.5942793,-5.191061851984268,7.906044333214158,1.0334072220235966,-0.15555555555555556,-0.7177777777777777,-0.2088888888888889,0.034004124392515545,0.20405282637523622,-1.8905179321439645
1592265204.6042793,-5.241021743347382,7.916788050857919,1.1213858959211385,-0.15555555555555556,-0.7177777777777777,-0.2088888888888889,0.0014251955110370848,0.15364053505562872,-1.781398976930427
1592265204.6142793,-5.195809856422197,7.7866069072565,1.4442413659293754,-0.1192459793903333,-0.7333390247057302,-0.2134275859095417,-0.1024874674927396,0.08472305327115295,-1.6927843099338757
1592265204.6242793,-5.215650725205802,7.656869854958839,1.5269753038024305,-0.09333333333333334,-0.7444444444444445,-0.21666666666666667,-0.14527099392055948,0.10525815772187117,-1.7265281356302353
1592265204.6342793,-5.463458795127839,7.658075277076703,1.5023011083068145,-0.09333333333333334,-0.7444444444444445,-0.21666666666666667,-0.12571474644268713,0.07311008133208305,-1.763687839500339
1592265204.6442792,-5.720160533955289,7.509553135002357,1.7249371014564674,-0.09333333333333334,-0.7444444444444445,-0.21666666666666667,-0.08326043438970523,0.004029683672480584,-1.7008725724219687
1592265204.6542792,-5.768367393932416,7.41293880605607,1.7716734787864832,-0.09333333333333334,-0.7444444444444445,-0.21666666666666667,-0.019657246694906063,0.002266247890709493,-1.6725330167201684
1592265204.6642792,-5.788674610236373,7.153659716043173,1.7958358156988665,-0.04618308896540163,-0.7444444444444445,-0.20053631990921633,0.08764841584403445,0.08827799936541109,-1.8012707799469336
1592265204.6742792,-6.040465171946062,7.050084576717466,1.7295348280539375,-0.008888888888888889,-0.7444444444444445,-0.18777777777777777,0.08232312699589706,0.11089861999603391,-1.9109094966609
1592265204.6842792,-6.646020035196967,7.059814539055097,1.387453634763774,-0.008888888888888889,-0.7444444444444445,-0.18777777777777777,-0.06741251541197234,-0.022337148817426065,-1.710409819752862
1592265204.6942792,-6.760058564562381,6.958084332969829,1.4139601760975806,-0.008888888888888889,-0.7444444444444445,-0.18777777777777777,-0.115440816657391,-0.06435646080619455,-1.712791574806669
1592265204.7042792,-6.724906450768332,6.625430688981532,1.5009737578796851,-0.008888888888888889,-0.7444444444444445,-0.18777777777777777,-0.0618382838050239,-0.018633976844026574,-1.7586152954328598
1592265204.7142792,-6.951524797551965,6.397801619584282,1.558386386535806,0.015625463878626546,-0.7366716008840127,-0.20392137594175136,-0.11773140386083107,0.0009535661111310795,-1.7270935671304826
1592265204.7242792,-7.002171802960446,6.2530639812343285,1.6691919437029847,0.03666666666666667,-0.73,-0.21777777777777776,-0.0837698571577079,-0.05205873661825742,-1.7443210077694982
1592265204.7342792,-7.28089712073691,6.37683224548614,1.6428433782600096,0.03666666666666667,-0.73,-0.21777777777777776,0.1120288237653064,-0.07916843643550406,-1.4666216942549672
1592265204.7442791,-7.2735552703353115,6.371166372533291,1.628222364832344,0.03666666666666667,-0.73,-0.21777777777777776,0.11828837398661513,-0.04198482200412036,-1.3634779250240285
1592265204.7542791,-7.194069004131753,6.133302892226899,1.718959918137236,0.03666666666666667,-0.73,-0.21777777777777776,0.10829664136025301,0.026470495629652764,-1.4001529797429906
1592265204.7642791,-7.777345772882331,6.214687846779828,1.642265422711767,0.07679709013193045,-0.726406230734454,-0.20639750843688207,0.20020149922224156,0.05713221179617037,-1.351155614196953
1592265204.774279,-8.160066659381489,6.153028084362365,1.622645612501366,0.1111111111111111,-0.7233333333333334,-0.19666666666666666,0.2576213068324244,0.0014973145512990824,-1.2541013656206768
1592265204.784279,-8.5182305060141,5.797896878888428,1.421769493985898,0.1111111111111111,-0.7233333333333334,-0.19666666666666666,0.4610519196004471,-0.1518945952269052,-0.9676275874748967
1592265204.794279,-8.770827851528177,5.679586074235912,1.5472765917024864,0.1111111111111111,-0.7233333333333334,-0.19666666666666666,0.5256770505795937,-0.1854412330243975,-0.7512022024527776
1592265204.804279,-8.72261698624316,5.570629946353641,1.625961119668561,0.1111111111111111,-0.7233333333333334,-0.19666666666666666,0.4975456668275667,-0.2266937219408288,-0.5699421944310649
1592265204.814279,-8.49771944990177,5.540438506876228,1.6369296660117878,0.1452046278105217,-0.7181676489849378,-0.18995127701375245,0.4997822320775923,-0.1764276704085111,-0.44865677206337734
1592265204.824279,-8.27230110426765,5.623707132184117,1.7090877947447065,0.18444444444444444,-0.7122222222222222,-0.18222222222222223,0.5620681422226655,-0.048125240578863374,-0.45776736248901584
1592265204.834279,-7.852006698220267,5.905568656757729,1.334949763348003,0.18444444444444444,-0.7122222222222222,-0.18222222222222223,0.540928006459041,-0.030667323569101908,-0.383025684052145
1592265204.844279,-7.853074332548893,6.06066217641808,1.2033851334902215,0.18444444444444444,-0.7122222222222222,-0.18222222222222223,0.4934292004650197,-0.08062786810578537,-0.32387503303123816
1592265204.854279,-7.7316909281471995,5.822206047901867,1.2261030239509336,0.18444444444444444,-0.7122222222222222,-0.18222222222222223,0.340261036613391,-0.11074437106008321,-0.2801187477075637
1592265204.864279,-7.714918553170161,5.752992648901512,1.2638518085372985,0.18736789834693102,-0.7097860106368168,-0.17929876831973565,0.1926746503116209,0.021136201862200353,-0.31926432790668474
1592265204.874279,-7.677073152808906,5.715365764044531,1.3530080464415624,0.19111111111111112,-0.7066666666666667,-0.17555555555555555,0.1683161476278647,0.08576770751607556,-0.32121870439955547
1592265204.884279,-7.662199320614001,5.786799223558859,1.6382032028197073,0.19111111111111112,-0.7066666666666667,-0.17555555555555555,0.05859909084935058,0.04908738521234052,-0.30045987057284973
1592265204.894279,-7.5207903837840435,5.514337143955041,1.9049574907536386,0.19111111111111112,-0.7066666666666667,-0.17555555555555555,0.15916362823849892,-0.05311293800564526,-0.42638442249640757
1592265204.904279,-7.442503817690591,5.353353694349818,1.977063608598614,0.19111111111111112,-0.7066666666666667,-0.17555555555555555,0.2480771260920031,-0.11929524946781964,-0.4709235847707574
1592265204.914279,-7.4342733903223275,5.579667477060623,1.7530295663085247,0.19922550736761388,-0.7066666666666667,-0.16784687911187793,0.28042478231509177,0.021404185628564887,-0.4910773723517448
1592265204.924279,-7.334673823902185,5.427583687467383,1.8438798180869305,0.21333333333333335,-0.7066666666666667,-0.15444444444444444,0.2434458122133569,-0.09761483827396993,-0.44569379300851053
1592265204.934279,-7.608861833105335,5.558363885088919,1.3415649794801643,0.21333333333333335,-0.7066666666666667,-0.15444444444444444,0.2553103622756394,0.06445049075958506,-0.5162157463514049
1592265204.944279,-7.7902078175102485,5.763925396760969,1.1362966270243944,0.21333333333333335,-0.7066666666666667,-0.15444444444444444,0.15687250898746066,0.13973968702820694,-0.6302415311865784
1592265204.954279,-8.135193882911453,5.408397960970484,1.325844893670837,0.21333333333333335,-0.7066666666666667,-0.15444444444444444,-0.002508017285024193,0.13523740011117086,-0.4953233219574039
1592265204.964279,-8.298863360569534,5.352007928161152,1.2882574225386296,0.21800924053249918,-0.7100673264478782,-0.16252101142482178,0.19107250022710473,0.04839658160701879,-0.5026245732361063
1592265204.974279,-8.337831107903284,5.16669866474197,1.3403774810537712,0.22555555555555556,-0.7155555555555555,-0.17555555555555555,0.3384981368694683,0.2747360661365251,-0.6661893726298043
1592265204.984279,-8.187286243386243,5.103053174603175,1.3789380952380952,0.22555555555555556,-0.7155555555555555,-0.17555555555555555,0.038508952696230905,-0.11244725232718765,-0.5778797273695252
1592265204.994279,-8.221821382466848,5.280712357704495,1.400369674920784,0.22555555555555556,-0.7155555555555555,-0.17555555555555555,0.061141571025114694,-0.049634272796288986,-0.6657234907785236
1592265205.004279,-8.339325075432745,5.426842941083056,1.2891726218834365,0.22555555555555556,-0.7155555555555555,-0.17555555555555555,0.04036108541283655,-0.08903011961045118,-0.6490853711508116
1592265205.014279,-8.560880426504188,5.396737242955065,1.2948591012947448,0.22901277820089702,-0.7155555555555555,-0.1673839383938394,0.13859183712042633,-0.1475579178293816,-0.5700193163233479
1592265205.0242789,-7.98,4.78,1.51,0.23777777777777778,-0.7155555555555555,-0.14666666666666667,0.1636246173744684,-0.11235557059713495,-0.3392483733563978
1592265205.0342789,-8.46125764370159,4.869749286587852,1.6345006114961271,0.23777777777777778,-0.7155555555555555,-0.14666666666666667,0.26103585072065516,-0.02369655333154501,-0.4218246638146589
1592265205.0442789,-8.03,4.91,1.6,0.23777777777777778,-0.7155555555555555,-0.14666666666666667,0.2585268954516601,-0.12217304763960307,-0.39924406639370286
1592265205.0542789,-8.294304958886535,4.957404700347958,1.5208856404175495,0.23777777777777778,-0.7155555555555555,-0.14666666666666667,0.34222705408088167,-0.1362948352725922,-0.38230867623232523
1592265205.0642788,-8.492799377916018,4.97846034214619,1.4252566096423016,0.24924485916709868,-0.7144634525660963,-0.15212718161396233,0.25362070163676154,-0.14174183935981555,-0.3234253893620829
1592265205.0742788,-8.424598750098056,5.229465000130743,1.3389300002614857,0.28444444444444444,-0.7111111111111111,-0.1688888888888889,0.3069971424998897,-0.14643148926545388,-0.28279583378875106
1592265205.0842788,-8.414206557244828,5.208893011251361,1.2951292495059887,0.28444444444444444,-0.7111111111111111,-0.1688888888888889,0.39911535038492824,0.03652886425095665,-0.46290688995851004
1592265205.0942788,-8.702486716526908,5.164455944196822,1.2315021026919493,0.28444444444444444,-0.7111111111111111,-0.1688888888888889,0.2123784986072997,-0.17123235929399463,-0.09490227807719166
1592265205.1042788,-8.822807695084098,5.1412307803363895,1.4092115426261458,0.28444444444444444,-0.7111111111111111,-0.1688888888888889,0.25552919749695324,-0.021594283973441805,-0.08078022039833063
1592265205.1142788,-8.817232072865728,5.128571055283885,1.3731251633133001,0.2839087353432794,-0.7097718383581985,-0.16701390703481114,0.28837882416415794,0.08989640353626127,-0.07272513326423953
1592265205.1242788,-8.84,5.25,1.32,0.2822222222222222,-0.7055555555555556,-0.16111111111111112,0.23125612588924865,0.00545415391248228,-0.1265363707695889
1592265205.1342788,-8.498396595225552,5.041298694097097,1.6296653450522638,0.2822222222222222,-0.7055555555555556,-0.16111111111111112,0.08906398792469808,-0.20524945823121582,-0.021426490985736873
1592265205.1442788,-8.86,5.36,1.17,0.2822222222222222,-0.7055555555555556,-0.16111111111111112,0.20071286397934787,-0.10362892433716332,0.09490227807719166
1592265205.1542788,-8.432474879047264,5.214175660588016,1.5123706736136955,0.2822222222222222,-0.7055555555555556,-0.16111111111111112,0.1480773354700148,-0.25867304323048357,-0.027259402512947343
1592265205.1642787,-8.012484298391346,4.956309412861137,1.7774484379431907,0.2822222222222222,-0.7080164422293358,-0.1539521680601141,0.23466020392657522,-0.2633436742726233,-0.07409529639678253
1592265205.1742787,-8.3,5.14,1.45,0.2822222222222222,-0.7177777777777777,-0.12555555555555556,0.1832595714594046,-0.14398966328953217,0.10362892433716332
1592265205.1842787,-8.222909479172444,4.996867824061235,1.4193319097010373,0.2822222222222222,-0.7177777777777777,-0.12555555555555556,0.12382732407421548,-0.1581547928661313,-0.07063363770560063
1592265205.1942787,-8.28,4.87,1.21,0.2822222222222222,-0.7177777777777777,-0.12555555555555556,0.020725784867432664,-0.12217304763960307,-0.17235126363444003
1592265205.2042787,-8.600425565326633,4.8346969221105525,1.485800879396985,0.2822222222222222,-0.7177777777777777,-0.12555555555555556,-0.03173481638902221,-0.2547578078720009,0.06259686537276499
1592265205.2142787,-8.234004132081628,4.729608539635362,1.5460027547210844,0.28453373123749,-0.7168887358488286,-0.12413308846923694,0.03442860275239521,-0.3250226177814393,0.09441603221967085
1592265205.2242787,-8.36,4.99,1.63,0.2966666666666667,-0.7122222222222222,-0.11666666666666667,0.09490227807719166,-0.284706834231575,-0.09708393964218458
1592265205.2342787,-8.156973798472825,4.911365174427309,1.5321386435095072,0.2966666666666667,-0.7122222222222222,-0.11666666666666667,0.15985696395999704,-0.2059696916826054,-0.05040781472429251
1592265205.2442787,-8.056669052732044,4.894333094726796,1.3809949892627058,0.2966666666666667,-0.7122222222222222,-0.11666666666666667,0.1732226789195267,-0.23878028152284625,-0.14002274561927963
1592265205.2542787,-8.01934088130548,4.91934088130548,1.5547991636988607,0.2966666666666667,-0.7122222222222222,-0.11666666666666667,0.18320340543495459,-0.3049012452138719,-0.2169753440084396
1592265205.2642787,-8.075746534500116,4.974315031363742,1.6513904592271353,0.3012792878838724,-0.7147671166868874,-0.11841628161112402,0.13930955742630377,-0.32415080395393975,-0.18181837897394182
1592265205.2742786,-8.17,5.06,1.54,0.3288888888888889,-0.73,-0.1288888888888889,0.12435470920459597,-0.37742745074377376,-0.06872233929727672
1592265205.2842786,-8.286369597615499,4.806847242921013,1.491210134128167,0.3288888888888889,-0.73,-0.1288888888888889,0.13404018109126867,-0.13963333058035818,-0.12749519639628995
1592265205.2942786,-8.632248134328357,4.856691542288557,1.4126616915422885,0.3288888888888889,-0.73,-0.1288888888888889,0.13147461870564794,-0.21273167553002556,-0.16100336728518586
1592265205.3042786,-8.65,4.62,1.46,0.3288888888888889,-0.73,-0.1288888888888889,0.11017390903214205,-0.19853120241435498,-0.19198621771937624
1592265205.3142786,-8.444374556353024,4.722556589636406,1.4824994084706995,0.3284785428223397,-0.73,-0.1288888888888889,0.24245578937672005,-0.1930211691270615,-0.042864685564386926
1592265205.3242786,-8.75,4.88,1.89,0.3233333333333333,-0.73,-0.1288888888888889,0.20507618710933373,-0.26070855701665296,-0.04690572364734761
1592265205.3342786,-8.493567707003116,4.9036931092608675,1.5996266026459622,0.3233333333333333,-0.73,-0.1288888888888889,0.2536926267338078,-0.4434838100839924,-0.14725769803562197
1592265205.3442786,-8.101647548445833,4.952823253999219,1.5537643386656261,0.3233333333333333,-0.73,-0.1288888888888889,0.14052479657072467,-0.39935937752128947,-0.18020518852081235
1592265205.3542786,-8.32,4.83,1.39,0.3233333333333333,-0.73,-0.1288888888888889,0.19634954084936207,-0.31525009614147576,-0.15489797111449674
1592265205.3642786,-8.288591448931115,4.942957244655582,1.5322529691211402,0.3233333333333333,-0.731173792557403,-0.12951491158617048,0.1500274505363549,-0.1831364967274127,-0.10508859065858703
1592265205.3742785,-8.27,4.85,1.43,0.3233333333333333,-0.7466666666666667,-0.13777777777777778,0.11453723216212788,-0.15271630954950383,-0.12435470920459597
1592265205.3842785,-8.422823754884636,4.95990019165194,1.4558471264653905,0.3233333333333333,-0.7466666666666667,-0.13777777777777778,0.13412518850993832,-0.2676122829598366,-0.14317446568283043
1592265205.3942785,-8.315315330266964,4.867318507278676,1.4259936459765754,0.3233333333333333,-0.7466666666666667,-0.13777777777777778,0.1949130053139226,-0.24826719460650082,-0.2828367388488746
1592265205.4042785,-8.407489023213687,4.965665203095158,1.5436915473823072,0.3233333333333333,-0.7466666666666667,-0.13777777777777778,0.07043114787230248,-0.280558803542152,-0.12709573592541668
1592265205.4142785,-8.28337358629356,4.940723020810985,1.7808437796916665,0.32193442377308495,-0.745709518020181,-0.136305241398569,0.062072306932619385,-0.25139047432236733,-0.0818123086872342
1592265205.4242785,-8.292409955388589,4.915104954214604,1.4912749471706974,0.3022222222222222,-0.7322222222222222,-0.11555555555555555,-0.03927754065574196,-0.24587054346362008,-0.06534949768926092
1592265205.4342785,-8.554584766468203,5.164031121759138,1.7866003273477715,0.3022222222222222,-0.7322222222222222,-0.11555555555555555,-0.052709014826433885,-0.17297217061208991,-0.024088867118603984
1592265205.4442785,-8.366984757178306,5.034909606522509,1.6699276852180078,0.3022222222222222,-0.7322222222222222,-0.11555555555555555,-0.06037193492010162,-0.19147827184348565,-0.004804218294183787
1592265205.4542785,-8.057470265858209,4.952035914179104,1.6657486007462687,0.3022222222222222,-0.7322222222222222,-0.11555555555555555,-0.13987290912781472,-0.2275247748608059,0.08224668218562801
1592265205.4642785,-8.515588882455123,4.91434858135495,1.8835008685581933,0.30256758669497524,-0.7322222222222222,-0.11580672971755773,-0.11536947225420509,-0.24915977298239403,0.07869229262862418
1592265205.4742785,-8.02,4.72,1.66,0.31444444444444447,-0.7322222222222222,-0.12444444444444444,-0.14398966328953217,-0.3021601267515183,-0.10362892433716332
1592265205.4842784,-8.233947576768648,4.8562794774642315,1.8927947746423117,0.31444444444444447,-0.7322222222222222,-0.12444444444444444,-0.08252492969042366,-0.2207317648374707,0.08230393204984833
1592265205.4942784,-8.461342458541722,4.877516012985874,1.7848310959024305,0.31444444444444447,-0.7322222222222222,-0.12444444444444444,-0.028902565123592586,-0.09280828879409458,-0.20772099951722395
1592265205.5042784,-8.426572547912327,4.948180390357534,1.916643136978082,0.31444444444444447,-0.7322222222222222,-0.12444444444444444,-0.1258194170113688,-0.1359585838361808,0.04358104405792572
1592265205.5142784,-8.367358204214167,4.851957081848021,1.9018395510535417,0.31444444444444447,-0.7322222222222222,-0.12444444444444444,-0.13227869989849675,-0.23042559606042667,0.12512949050791575
1592265205.5242784,-8.296148957250912,4.877131533795703,2.0657369324085932,0.2877777777777778,-0.7466666666666667,-0.12444444444444444,-0.16320282033353836,-0.25630028894855167,0.058450193461485625
1592265205.5342784,-8.351309146089116,4.883263668551985,2.034345426955442,0.2877777777777778,-0.7466666666666667,-0.12444444444444444,-0.0951590724943982,-0.255987216472308,0.16430782244519046
1592265205.5442784,-8.237277332897532,4.792817453832326,2.0593430299068474,0.2877777777777778,-0.7466666666666667,-0.12444444444444444,-0.1248060874594221,-0.2835291862255002,0.19887508418906252
1592265205.5542784,-8.196784244562023,4.685442609516684,1.9629875474319918,0.2877777777777778,-0.7466666666666667,-0.12444444444444444,0.01559524816801424,-0.20859460366455282,0.008221214200007806
1592265205.5642784,-8.443362727807173,4.87224449076301,1.8733226444337556,0.2877777777777778,-0.7466666666666667,-0.12444444444444444,-0.2069207644145653,-0.146648754007864,0.03430367721335046
1592265205.5742784,-8.24583144648092,4.747220964320614,1.821050361083967,0.30666666666666664,-0.7388888888888889,-0.1111111111111111,-0.22094693393414727,-0.19490421671130304,0.08075129850457861
1592265205.5842783,-8.473935326698996,4.872083151387005,1.7299076095699937,0.30666666666666664,-0.7388888888888889,-0.1111111111111111,-0.24541173048043788,-0.3215073748756646,0.1580646420206743
1592265205.5942783,-8.509752158504387,4.783126798753657,1.836997121994149,0.30666666666666664,-0.7388888888888889,-0.1111111111111111,-0.26651730941888097,-0.3843675868983872,0.2393089390199903
1592265205.6042783,-8.388574355243255,4.693304486013518,2.0141903923107853,0.30666666666666664,-0.7388888888888889,-0.1111111111111111,-0.26814886296963125,-0.3916576869855028,0.2003312851936884
1592265205.6142783,-8.26008481877884,4.653151505868387,2.279200061268644,0.30666666666666664,-0.7388888888888889,-0.1111111111111111,-0.29968493983055067,-0.35924560798955785,0.27654347094091025
1592265205.6242783,-8.07,5.07,2.47,0.3022222222222222,-0.7466666666666667,-0.12555555555555556,-0.37960911230876665,-0.23125612588924865,0.33052172709642613
1592265205.6342783,-8.071743798056,5.068256201944002,2.4734339184680114,0.3022222222222222,-0.7466666666666667,-0.12555555555555556,-0.4774963389162714,-0.2793031626953609,0.18147591358191764
1592265205.6442783,-8.062596069298225,4.997683405023883,2.2925262007176976,0.3022222222222222,-0.7466666666666667,-0.12555555555555556,-0.2550702951116497,-0.2741312532559496,0.22236823607626655
1592265205.6542783,-8.050373897012761,4.8807427824810725,2.2625922213670777,0.3022222222222222,-0.7466666666666667,-0.12555555555555556,-0.1849567230514521,-0.18798477371368694,0.13986941515806225
1592265205.6642783,-8.335644251937499,5.045899303753289,2.2325637629539474,0.3022222222222222,-0.7466666666666667,-0.12555555555555556,-0.20952369814241997,-0.04795301569517013,0.19391676035819155
1592265205.6742783,-8.131167878190281,5.104156022839322,2.3163640532917515,0.3022222222222222,-0.7588888888888888,-0.11888888888888889,-0.21380283336930533,-0.26262199462602415,0.20222818049595803
1592265205.6842782,-8.245682771151696,5.06886437756243,2.2838620480805067,0.3022222222222222,-0.7588888888888888,-0.11888888888888889,-0.22577638339593395,-0.14775715618778168,0.2775168749996664
1592265205.6942782,-8.201635285257014,5.0196281302956125,2.4278808134061385,0.3022222222222222,-0.7588888888888888,-0.11888888888888889,-0.2805179906251687,-0.21935423984731428,0.3205581144671107
1592265205.7042782,-8.385824240918732,5.069874457799094,2.547087879540634,0.3022222222222222,-0.7588888888888888,-0.11888888888888889,-0.23120045147692664,-0.2452169172926802,0.39222988251438545
1592265205.7142782,-8.273619322416065,4.989728087440048,2.6031903387919666,0.3022222222222222,-0.7588888888888888,-0.11888888888888889,-0.2652966413552005,-0.1744017536993422,0.3712476118200631
1592265205.7242782,-8.49,4.98,2.63,0.28,-0.7388888888888889,-0.1288888888888889,-0.25416357232167425,-0.21380283336930533,0.6348635154129374
1592265205.7342782,-8.190580038518183,4.914779653336354,2.7978191911181605,0.28,-0.7388888888888889,-0.1288888888888889,-0.11362348991608973,-0.4075507916160714,0.6194045388744066
1592265205.7442782,-8.207637603078615,4.875825618471688,2.6076376030786146,0.28,-0.7388888888888889,-0.1288888888888889,-0.1819567393035007,-0.18874932279643278,0.6805583269386533
1592265205.7542782,-8.224067429631921,5.08394099907207,2.664894641200124,0.28,-0.7388888888888889,-0.1288888888888889,-0.08464571043479428,-0.3269831275411514,0.6613325471250602
1592265205.7642782,-8.094333436436747,5.197458243117847,2.8676040055675847,0.28,-0.7388888888888889,-0.1288888888888889,-0.08995262918404989,-0.20934642859931918,0.734744923156429
1592265205.7742782,-8.33,5.25,2.87,0.2677777777777778,-0.7588888888888888,-0.13777777777777778,-0.11017390903214205,-0.3108867730114899,0.8617563181722002
1592265205.7842782,-8.083455394004668,5.062626099443547,2.998203195117573,0.2677777777777778,-0.7588888888888888,-0.13777777777777778,-0.08650732583006313,-0.3582199394156478,1.0306496619324905
1592265205.7942781,-8.150172849147468,5.240865807627229,2.6085716516985555,0.2677777777777778,-0.7588888888888888,-0.13777777777777778,-0.07616446593530357,-0.37147741819131397,1.0109641081592176
1592265205.8042781,-7.732745718577867,5.251372859288933,2.933338607911868,0.2677777777777778,-0.7588888888888888,-0.13777777777777778,0.03574217125150426,-0.302714882756878,1.112623538612795
1592265205.8142781,-7.749548122183275,5.259774061091637,3.076159038557837,0.2677777777777778,-0.7588888888888888,-0.13777777777777778,0.07423218730419233,-0.2660577246114608,1.0457242249974084
1592265205.824278,-7.69,5.51,2.95,0.24888888888888888,-0.7511111111111111,-0.15222222222222223,0.19198621771937624,-0.15489797111449674,1.048288381979094
1592265205.834278,-7.3516907647304635,5.623978269954033,2.773083159214375,0.24888888888888888,-0.7511111111111111,-0.15222222222222223,-0.020552200094355082,-0.17768015206466992,1.2765590138746603
1592265205.844278,-7.448026825419595,5.961808922679673,3.0509044613398366,0.24888888888888888,-0.7511111111111111,-0.15222222222222223,0.0182761491645793,-0.2484078790435528,1.367612623903539
1592265205.854278,-7.05,5.64,2.89,0.24888888888888888,-0.7511111111111111,-0.15222222222222223,0.13744467859455345,-0.10799224746714915,1.1126473981463851
1592265205.864278,-7.458226190117732,5.632710246605041,3.1597208756135013,0.24888888888888888,-0.7511111111111111,-0.15222222222222223,0.04122684105419204,-0.1644506480073612,1.25498618260692
1592265205.874278,-7.45,5.77,3.3,0.17333333333333334,-0.7644444444444445,-0.1288888888888889,0.15707963267948966,-0.17671458676442586,1.3897184169004848
1592265205.884278,-7.1489766315267955,6.230078720651785,2.811456332058022,0.17333333333333334,-0.7644444444444445,-0.1288888888888889,0.154541606837228,-0.03007499522624728,1.5429974511348459
1592265205.894278,-6.917305292624487,6.269113704837141,3.121293620857353,0.17333333333333334,-0.7644444444444445,-0.1288888888888889,0.06852897968807184,-0.17555978583284557,1.4175443707583837
1592265205.904278,-7.0769908501922,6.362980996553031,2.7459971846745233,0.17333333333333334,-0.7644444444444445,-0.1288888888888889,0.10374422627889116,-0.10439611436125004,1.481247488146001
1592265205.914278,-6.978588186461172,6.158606233419357,2.715719441988053,0.17333333333333334,-0.7644444444444445,-0.1288888888888889,0.17062571111638114,-0.1432038895138677,1.5712484986063269
1592265205.924278,-6.99,5.93,2.91,0.14,-0.7711111111111111,-0.11,0.11890055529211369,-0.15053464798451094,1.5391622341024993
1592265205.934278,-6.611889914094814,5.8354724785237035,3.1746770601336305,0.14,-0.7711111111111111,-0.11,0.19004889114352666,-0.11238264180331846,1.6226841935802452
1592265205.944278,-6.588841703447453,6.433519026601456,2.9823607300489083,0.14,-0.7711111111111111,-0.11,0.22021761583584967,-0.1819835479810178,1.7157572107446215
1592265205.954278,-6.28,6.61,2.85,0.14,-0.7711111111111111,-0.11,0.25198191075668136,-0.05781403147231216,1.5675238344474072
1592265205.964278,-6.381776859504132,6.616785123966943,2.8635702479338843,0.14,-0.7711111111111111,-0.11,0.2667847549290713,-0.08445915098261403,1.4602032141975803
1592265205.974278,-6.15,6.79,2.91,0.07444444444444444,-0.7911111111111111,-0.10111111111111111,0.20289452554434081,-0.044724062082354694,1.4977106643676341
1592265205.984278,-6.296896512808938,7.142551630741452,2.78268968889892,0.07444444444444444,-0.7911111111111111,-0.10111111111111111,0.04586007229123373,-0.08959104872609958,1.6162877004975311
1592265205.994278,-5.898869268151855,6.6368551219746905,2.664938170620218,0.07444444444444444,-0.7911111111111111,-0.10111111111111111,0.13055664092385433,-0.23161555471081127,1.5797079886208742
1592265206.004278,-6.12,6.6,2.84,0.07444444444444444,-0.7911111111111111,-0.10111111111111111,0.1265363707695889,-0.10799224746714915,1.543525557232485
1592265206.014278,-5.759885193621868,6.746713439635536,2.9000191343963553,0.07444444444444444,-0.7911111111111111,-0.10111111111111111,0.09380101110042076,-0.05561567199648013,1.4453194782249807
1592265206.024278,-5.84,7.0,3.02,0.035555555555555556,-0.7833333333333333,-0.10222222222222223,-0.044724062082354694,-0.20071286397934787,1.3406310316881442
1592265206.034278,-5.6664437799474,7.269012141081529,2.8551215909500307,0.035555555555555556,-0.7833333333333333,-0.10222222222222223,0.04425655756138421,-0.09185359526626308,1.2933009148563683
1592265206.044278,-5.47,7.12,2.91,0.035555555555555556,-0.7833333333333333,-0.10222222222222223,0.2476185876266955,0.05563236990731925,1.22500296874352
1592265206.054278,-5.334587595123149,7.354714835119876,3.0093024302430242,0.035555555555555556,-0.7833333333333333,-0.10222222222222223,-0.03008000916780465,-0.17381363382714365,1.3293861292407434
1592265206.064278,-5.165755608833791,7.38771221955831,2.8117700719256185,0.035555555555555556,-0.7833333333333333,-0.10222222222222223,0.03086175311491829,-0.06140376053646232,1.2152814069040583
1592265206.0742779,-5.13,7.57,3.03,-0.04888888888888889,-0.7833333333333333,-0.09333333333333334,0.03599741582238304,0.0839939702522271,1.27736284630335
1592265206.0842779,-5.321550403473559,7.918273460861016,2.855863269569492,-0.04888888888888889,-0.7833333333333333,-0.09333333333333334,0.04359556405905848,0.053601377305525374,1.1548427059869586
1592265206.0942779,-4.5814730359520635,7.880499571999239,2.4169854479741297,-0.04888888888888889,-0.7833333333333333,-0.09333333333333334,0.10640629425724459,0.1598644726220495,1.0721213071339437
1592265206.1042778,-5.156947229457309,7.8981571341920285,2.750639740250473,-0.04888888888888889,-0.7833333333333333,-0.09333333333333334,0.19510322182423978,0.08224471779250896,1.115998004361947
1592265206.1142778,-4.670577835658472,8.070257073536233,2.9751179220037822,-0.04888888888888889,-0.7833333333333333,-0.09333333333333334,0.07675049500749018,-0.046718943152638914,1.2327182797743277
1592265206.1242778,-4.815304142809026,8.180283597170764,3.1639272482317278,-0.06333333333333334,-0.7777777777777778,-0.07444444444444444,0.09034459675120024,0.1427443746892649,1.220926590322571
1592265206.1342778,-4.240807005725834,7.954251936679016,3.0226574604243854,-0.06333333333333334,-0.7777777777777778,-0.07444444444444444,0.13657502670429778,0.012271827932745255,1.3544811657426303
1592265206.1442778,-4.468108933813877,7.823542019715016,2.794554025347877,-0.06333333333333334,-0.7777777777777778,-0.07444444444444444,0.1293499784107389,0.04822902997837763,1.187736036990294
1592265206.1542778,-4.01,7.96,2.97,-0.06333333333333334,-0.7777777777777778,-0.07444444444444444,0.3217950808364545,0.1832595714594046,1.1388273369263
1592265206.1642778,-4.356246365574724,8.130085933966532,2.6602006202752473,-0.06333333333333334,-0.7777777777777778,-0.07444444444444444,0.21908822109268847,0.23560693868364666,1.2190049500165947
1592265206.1742778,-4.07,8.42,2.71,-0.10444444444444445,-0.7833333333333333,-0.08888888888888889,0.11235557059713495,0.17016960206944715,1.1410089984912928
1592265206.1842778,-4.078234029142412,8.485872233139299,2.8005743205665343,-0.10444444444444445,-0.7833333333333333,-0.08888888888888889,0.24888094387538034,0.24112686844432468,1.2002897526778995
1592265206.1942778,-3.97,8.13,2.31,-0.10444444444444445,-0.7833333333333333,-0.08888888888888889,0.3327033886614191,0.2585268954516601,1.1584622910112363
1592265206.2042778,-3.8117822265625,8.3936962890625,2.264794921875,-0.10444444444444445,-0.7833333333333333,-0.08888888888888889,0.3146226553886531,0.3094816892203642,1.226675966540308
1592265206.2142777,-3.716851514119085,8.5806798003888,2.6886762731226326,-0.10444444444444445,-0.7833333333333333,-0.08888888888888889,0.23418125846955593,0.25006562776893204,1.2215450895985163
1592265206.2242777,-3.582114667604643,8.590528666901161,2.408106225817798,-0.15028874037597217,-0.7516789385234689,-0.09543807402196429,0.22865156116264213,0.3178641380120597,1.2461852296510285
1592265206.2342777,-3.644621829183151,8.870027926460322,2.586685284306881,-0.1511111111111111,-0.7511111111111111,-0.09555555555555556,0.1484008810919944,0.20447733446425365,1.1183684421595572
1592265206.2442777,-2.996320783938276,8.345374651536057,2.5721287979049925,-0.1511111111111111,-0.7511111111111111,-0.09555555555555556,0.2285469412240222,0.15713123619692254,1.0210620590177097
1592265206.2542777,-3.9850245205534067,9.066506518878832,2.4625927993301704,-0.1511111111111111,-0.7511111111111111,-0.09555555555555556,-0.05328278450949597,0.20729238157338575,0.8935580302512144
1592265206.2642777,-3.8523168103448278,9.088526785714285,2.77042025862069,-0.1511111111111111,-0.7511111111111111,-0.09555555555555556,0.07863116670084058,0.14144075312211934,0.8612740420011211
1592265206.2742777,-2.93,8.8,1.99,-0.17,-0.75,-0.03888888888888889,0.038179077387375956,0.3065234498815041,0.4385139745635753
1592265206.2842777,-3.6421677365442324,9.080321343107837,2.209711322976412,-0.17,-0.75,-0.03888888888888889,0.12330249483450074,0.25115190649356856,0.5451248566090034
1592265206.2942777,-2.659338158423804,8.960279051065541,2.2895327704061117,-0.17,-0.75,-0.03888888888888889,0.1630130152662605,0.21887969229220042,0.6593006688968446
1592265206.3042777,-2.7496644568267783,8.95748322284134,2.260067108634644,-0.17,-0.75,-0.03888888888888889,0.1456661717537196,0.1887796091198841,0.7138352806890464
1592265206.3142776,-3.0314012551480682,8.981036477740734,2.1939027260247106,-0.17,-0.75,-0.03888888888888889,0.12891762933792936,0.18654532748771663,0.6742534385012213
1592265206.3242776,-3.07,8.97,2.24,-0.22555555555555556,-0.75,-0.06,0.26725354171163174,0.10799224746714915,0.8017606251348951
1592265206.3342776,-2.7002734462433784,8.79693650675222,2.4681291501902556,-0.22555555555555556,-0.75,-0.06,0.35563830322703066,0.0891139488910445,0.6215586841811691
1592265206.3442776,-3.344698566068767,9.355067584930874,1.580509328262322,-0.22555555555555556,-0.75,-0.06,0.3400075314807635,0.13171895227571803,0.6650898494093133
1592265206.3542776,-2.2027160938588275,8.938055815740807,2.0662185075773953,-0.22555555555555556,-0.75,-0.06,0.37511652532497686,-0.06526978402575109,0.711029948890134
1592265206.3642776,-2.722460184102864,9.155654222676798,1.9627226402688487,-0.22555555555555556,-0.75,-0.06,0.2765456858699519,0.015551391435806153,0.7803951287392045
1592265206.3742776,-2.5076956904133683,9.231178540017591,2.0888038698328937,-0.23705755887813937,-0.7301329033519007,-0.02653962669793805,0.2531993815244808,0.04510973840123207,0.7609556868401377
1592265206.3842776,-2.3208951377134945,9.285340821664873,1.9339775350053856,-0.23777777777777778,-0.7288888888888889,-0.024444444444444446,0.193041507123477,-0.047336332413695455,0.6758767135065986
1592265206.3942776,-2.6372156904376443,9.228954855489796,1.8690050160566896,-0.23777777777777778,-0.7288888888888889,-0.024444444444444446,0.11963841999535656,0.0845266039403921,0.6294038898314115
1592265206.4042776,-2.302779852094525,9.118794594464385,2.486432924626021,-0.23777777777777778,-0.7288888888888889,-0.024444444444444446,0.23497138312207672,0.04742632055585385,0.6724777194032732
1592265206.4142776,-2.27,9.185975899015785,2.340563265083563,-0.23777777777777778,-0.7288888888888889,-0.024444444444444446,0.24181106390157864,0.11972146649714245,0.6959983368741897
1592265206.4242775,-2.186926176135439,8.919243854794075,2.193843398990721,-0.25623862752545806,-0.7288888888888889,-0.016239622334364316,0.24484929269576144,0.14063566494673663,0.5234382052360862
1592265206.4342775,-2.4561638331907294,9.35568803243927,2.167510137271679,-0.2577777777777778,-0.7288888888888889,-0.015555555555555555,0.271426950476003,0.2008287604383639,0.49010652504233576
1592265206.4442775,-2.2896531592418974,9.290027034022605,1.9781576601190647,-0.2577777777777778,-0.7288888888888889,-0.015555555555555555,0.19401211802253904,0.08537765730444843,0.6595782003167119
1592265206.4542775,-2.1748921039725353,9.489668955370279,1.6071799901912702,-0.2577777777777778,-0.7288888888888889,-0.015555555555555555,0.13735052154809962,0.18061327696915508,0.6955231226243856
1592265206.4642775,-1.8496507945484364,9.249282361590227,1.7730382288073292,-0.2577777777777778,-0.7288888888888889,-0.015555555555555555,0.18968188935514146,0.18530866528410542,0.6614975403428244
1592265206.4742775,-2.0249764473484273,9.664741680595654,2.0285602492022488,-0.2863119417852741,-0.7117683904843911,0.0006138040486923652,0.1642152837615564,0.257639196886752,0.607452766121637
1592265206.4842775,-1.8412335763577528,9.522848844009513,1.9254625911341572,-0.2911111111111111,-0.7088888888888889,0.0033333333333333335,0.19650009412512476,0.3248320891478145,0.7169096494985171
1592265206.4942775,-1.5129945435296033,9.541675760783994,1.9770054564703967,-0.2911111111111111,-0.7088888888888889,0.0033333333333333335,0.14997846849766755,0.25518431063024044,0.6329947677355748
1592265206.5042775,-1.3688402479732953,9.493457319980925,2.06923414401526,-0.2911111111111111,-0.7088888888888889,0.0033333333333333335,0.11166216218842359,0.28565326128244484,0.6910246027295697
1592265206.5142775,-1.369572766324568,9.447378722792386,1.9429906357280229,-0.2911111111111111,-0.7088888888888889,0.0033333333333333335,0.12720776587205324,0.29485685222524327,0.64631844441115
1592265206.5242774,-1.362367394695788,9.67685647425897,2.063958658346334,-0.29698864621251514,-0.6981134078696482,0.0033333333333333335,0.1970706633830327,0.38120728151096944,0.5431003539225827
1592265206.5342774,-1.310005547410548,9.332264135990807,1.6733795617545666,-0.29777777777777775,-0.6966666666666667,0.0033333333333333335,0.19295718981185953,0.395122881158219,0.7170190616975012
1592265206.5442774,-1.4268107338562372,9.302355485118728,1.7526598259374664,-0.29777777777777775,-0.6966666666666667,0.0033333333333333335,0.3174018996274055,0.5113984832000933,0.9035504793304284
1592265206.5542774,-1.5271593708546523,9.519503505779799,1.6888914155770323,-0.29777777777777775,-0.6966666666666667,0.0033333333333333335,0.39799075825758845,0.4971366719485511,0.935743874611976
1592265206.5642774,-1.445444719294472,9.070919911091991,1.6284815730981574,-0.29777777777777775,-0.6966666666666667,0.0033333333333333335,0.40246970940881144,0.5104117835091453,1.0138720529119891
1592265206.5742774,-1.5693796408061744,9.296942463147884,1.9999557408829876,-0.32290825885690366,-0.6802018687182738,0.026730677786312593,0.2103772440646325,0.37788019798723493,1.0348954904888144
1592265206.5842774,-1.6398713540191756,9.523459686880537,1.8993636473967392,-0.33,-0.6755555555555556,0.03333333333333333,0.22427611510689383,0.32406094099900407,1.0234511195771976
1592265206.5942774,-1.402034150179201,10.044067426207057,1.3908476354206125,-0.33,-0.6755555555555556,0.03333333333333333,0.34679172615295917,0.3585042590561231,0.9184148998760078
1592265206.6042774,-1.3218000141901,9.994200269611902,1.2744001135208003,-0.33,-0.6755555555555556,0.03333333333333333,0.13229633808451927,0.37485308700128256,0.8958774988570901
1592265206.6142774,-1.21141551869553,9.441207478211977,0.7954997188642114,-0.33,-0.6755555555555556,0.03333333333333333,0.20507342706518344,0.41472822074822313,0.8275686479655627
1592265206.6242774,-1.3427784267128529,9.560151045233011,0.8643601723929593,-0.336066021311923,-0.6712226831898963,0.006469524666245976,0.09413715433101236,0.33264943368494565,0.8408279385193286
1592265206.6342773,-1.3408309455587393,9.566282886168274,1.3357723365459755,-0.3377777777777778,-0.67,-0.0011111111111111111,0.06383107566354554,0.24524456022691488,0.8949455337800971
1592265206.6442773,-1.2291331237437508,9.93932665051796,1.239148585270319,-0.3377777777777778,-0.67,-0.0011111111111111111,0.08897362992133104,0.28017381194594493,0.7628773960415578
1592265206.6542773,-1.1640575768942234,9.883259096024005,1.0487434358589647,-0.3377777777777778,-0.67,-0.0011111111111111111,0.06548125027407715,0.20545737436655173,0.7922415819641387
1592265206.6642773,-1.027103474804462,10.024827541992563,1.2465319729635667,-0.3377777777777778,-0.67,-0.0011111111111111111,0.06802807434813267,0.15155132872883684,0.748725844357796
1592265206.6742773,-1.0222602394699112,10.476606347115125,1.28034874258922,-0.3577196540129078,-0.6542126813138553,0.02963261475138098,-0.01772765926575584,0.08387105259750166,0.6578945980695967
1592265206.6842773,-0.8760211681693454,10.727212857702861,1.2087730301842414,-0.36444444444444446,-0.6488888888888888,0.04,0.005413958658246822,0.09719768365948919,0.6289915874218588
1592265206.6942773,0.2603072559678563,10.245333648467659,1.221128180887103,-0.36444444444444446,-0.6488888888888888,0.04,0.0778661361613796,0.20856361428602213,0.30172793672511206
1592265206.7042773,-0.05228378698224856,9.527656568047338,1.6373682840236687,-0.36444444444444446,-0.6488888888888888,0.04,0.12461250672798597,0.21435529720560972,-0.01765795561137168
1592265206.7142773,-0.7898342893562779,9.581361194573432,1.5472138759901666,-0.36444444444444446,-0.6488888888888888,0.04,0.08915254805538503,0.12188859536235004,-0.1329106245062583
1592265206.7242773,-1.343771963774286,9.768482080656398,1.4512052016409938,-0.3778943158655211,-0.6243626527681021,0.04395584453561077,0.07923126407392422,0.05781403147231216,-0.011865560598489006
1592265206.7342772,-1.20658175842235,9.885947000821693,1.2638681183237468,-0.38333333333333336,-0.6144444444444445,0.04555555555555556,0.04153716902798645,0.11744828037400369,0.04202342679257506
1592265206.7442772,-0.4109976762199845,9.756082106893881,1.0997505809450039,-0.38333333333333336,-0.6144444444444445,0.04555555555555556,0.08892594490554377,0.0672173138985295,-0.008290482937024578
1592265206.7542772,-0.34154870061271925,9.79616522290302,1.0696091274033384,-0.38333333333333336,-0.6144444444444445,0.04555555555555556,0.15380875364606694,0.03708985991894616,-0.005368878740387689
1592265206.7642772,-0.39,9.78244846693757,1.1694737717029922,-0.38333333333333336,-0.6144444444444445,0.04555555555555556,0.025735526985132456,0.016477266942446188,-0.05049027338603212
1592265206.7742772,-0.3772471047858239,9.691741314357472,1.3656467141063207,-0.3890012867618561,-0.6236548687657939,0.04555555555555556,-0.004509893528136244,0.05853759914916274,-0.052978578150153326
1592265206.7842772,-0.39249633967789166,9.667500406702457,1.4324979664877175,-0.39222222222222225,-0.6288888888888889,0.04555555555555556,0.028908524124256166,0.09163031810197292,-0.040904645955517016
1592265206.7942772,-0.48423220684144047,9.696348310262161,1.367013120923878,-0.39222222222222225,-0.6288888888888889,0.04555555555555556,0.01959409678782159,0.023659186956212358,0.01850734329925606
1592265206.8042772,-0.5189184137049833,9.707387724196678,1.3441429653116275,-0.39222222222222225,-0.6288888888888889,0.04555555555555556,-0.03990677246231758,0.06423899432406038,0.09315254028093417
1592265206.8142772,-0.4936477664924564,9.705193176215364,1.4011590572921804,-0.39222222222222225,-0.6288888888888889,0.04555555555555556,-0.1061712775282155,0.07845060077411989,0.06624073960449434
1592265206.8242772,-0.4297319459757442,9.740268054024256,1.399731945975744,-0.3881864816856548,-0.6127459267426192,0.06371638797010903,-0.152490506374847,-0.03411627392858782,0.08446181278187553
1592265206.8342772,-0.44846863468634685,9.75230627306273,1.346660516605166,-0.38555555555555554,-0.6022222222222222,0.07555555555555556,-0.15148258395970618,-0.04695402611742125,0.077497288027322
1592265206.8442771,-0.6010837553564472,9.724130892091937,1.1678324892871057,-0.38555555555555554,-0.6022222222222222,0.07555555555555556,-0.16444985827030328,0.03595288171018764,-0.0028487383715230866
1592265206.8542771,-0.6422990080302314,9.781495040151158,1.1407475200755786,-0.38555555555555554,-0.6022222222222222,0.07555555555555556,-0.19786655308684334,0.029941681872789474,-0.08559401856934903
1592265206.8642771,-0.7262928725873321,9.753879510424312,1.2413790640931543,-0.38555555555555554,-0.6022222222222222,0.07555555555555556,-0.17645132979075243,0.030336417144871633,-0.012864710052793188
1592265206.874277,-0.8,9.737206625201882,1.426214906704237,-0.37703213711632666,-0.598288336788732,0.07555555555555556,-0.15243142882557775,0.009532596318542015,-0.037852776505563276
1592265206.884277,-0.7792478421701603,9.721578298397041,1.5461159062885326,-0.3711111111111111,-0.5955555555555555,0.07555555555555556,-0.1642809989057363,-0.009806716689496498,-0.10249370709865899
1592265206.894277,-0.6047530339972057,9.603336986001151,1.6071350299975344,-0.3711111111111111,-0.5955555555555555,0.07555555555555556,-0.2220098087170886,-0.05750270705809832,0.05106070027935887
1592265206.904277,-0.5735362644722993,9.583049229738782,1.690852310783657,-0.3711111111111111,-0.5955555555555555,0.07555555555555556,-0.1705957681860803,-0.03219307692889706,-0.06137814961697837
1592265206.914277,-0.6002440635666312,9.58731750284435,1.7446339046500532,-0.3711111111111111,-0.5955555555555555,0.07555555555555556,-0.1465438095170695,-0.021151515940250488,-0.08920827510910928
1592265206.924277,-0.7835265700483092,9.580115021854153,1.6382079595123074,-0.37535004984280346,-0.5870776780921708,0.07555555555555556,-0.1282387393061557,-0.04491326990614175,-0.042479665827777215
1592265206.934277,-0.8803736799350121,9.514261575954508,1.638336311941511,-0.37777777777777777,-0.5822222222222222,0.07555555555555556,-0.11360750051550295,-0.07282655688639987,-0.08706460130625368
1592265206.944277,-0.92687082900786,9.53687082900786,1.7762583419842801,-0.37777777777777777,-0.5822222222222222,0.07555555555555556,-0.05567205805087145,-0.11552056523515244,-0.09053895494720585
1592265206.954277,-0.8624956708820906,9.47249567088209,1.8987579367161673,-0.37777777777777777,-0.5822222222222222,0.07555555555555556,0.02645784104412338,-0.1370419922034708,-0.030536335818454996
1592265206.964277,-0.8467340759569377,9.448653184808611,1.9575085974880382,-0.37777777777777777,-0.5822222222222222,0.07555555555555556,0.06300016689147248,-0.14857313427368588,-0.005417537358853325
1592265206.974277,-0.9588067852457516,9.468669493852396,2.0872016963114377,-0.37395517859745825,-0.5822222222222222,0.07555555555555556,0.19378202664098312,-0.07549196650932082,-0.005214535227612574
1592265206.984277,-0.9989997566317839,9.494400097347286,2.0735994159162816,-0.3711111111111111,-0.5822222222222222,0.07555555555555556,0.23607739087852053,-0.09099636585940865,-0.0027718092480032777
1592265206.994277,-0.9480053865652724,9.539986533586818,1.8540565589353613,-0.3711111111111111,-0.5822222222222222,0.07555555555555556,0.2938289757776276,-0.07282254616199785,-0.171045792194171
1592265207.004277,-0.94,9.56,1.6999165061014772,-0.3711111111111111,-0.5822222222222222,0.07555555555555556,0.3003105485461293,-0.19522578197002724,0.011416941831446537
1592265207.014277,-0.8725963342473662,9.617774570645114,1.5974108818011257,-0.3711111111111111,-0.5822222222222222,0.07555555555555556,0.3051478286695754,-0.13498531093916888,0.06929034585857666
1592265207.024277,-0.809917721756772,9.670082278243228,1.525041139121614,-0.37441701836336844,-0.5822222222222222,0.07114767921921245,0.314401594788175,-0.06196195066523516,-0.02577605639792214
1592265207.034277,-0.8588256160609834,9.650864560926827,1.533703158609759,-0.37777777777777777,-0.5822222222222222,0.06666666666666667,0.33453292499476267,-0.08785903247458106,-0.05683167040987603
1592265207.044277,-1.0354544973964528,9.597272751301773,1.5743181878254435,-0.37777777777777777,-0.5822222222222222,0.06666666666666667,0.4489512988336518,-0.0700611032042594,-0.011899953824552237
1592265207.054277,-1.1745268339536559,9.549256813543042,1.6130404610397406,-0.37777777777777777,-0.5822222222222222,0.06666666666666667,0.3764472353627537,-0.030985540160890144,-0.0847825011653325
1592265207.064277,-1.24,9.562522284996861,1.5888935521477894,-0.37777777777777777,-0.5822222222222222,0.06666666666666667,0.3222389651301193,-0.05877958937344686,-0.060849712488237784
1592265207.074277,-1.2355455684078684,9.595545568407868,1.5032734104472114,-0.36936385143708506,-0.5822222222222222,0.08052489828663115,0.30390490950315746,-0.10239945927338738,-0.05383583035733577
1592265207.084277,-1.2366008378216637,9.60452184320766,1.4277546379413524,-0.35888888888888887,-0.5822222222222222,0.09777777777777778,0.3390181956580685,-0.08465617177572465,-0.1379776254831412
1592265207.094277,-1.2531334344805558,9.710746626207778,1.0694003034416673,-0.35888888888888887,-0.5822222222222222,0.09777777777777778,0.3544372534334937,-0.09083398360330386,-0.12738156210413837
1592265207.104277,-1.177642293753997,9.72,1.011635045832445,-0.35888888888888887,-0.5822222222222222,0.09777777777777778,0.31707504604150394,-0.15703824110428513,-0.05373254311281999
1592265207.114277,-1.133709740948341,9.723870928647175,1.0175806695955159,-0.35888888888888887,-0.5822222222222222,0.09777777777777778,0.3105525336022069,-0.16587667644186146,-0.017611736476049585
1592265207.1242769,-0.9166118091420643,9.771577507130194,0.9984224928698066,-0.36385154637409317,-0.5795153181393835,0.09777777777777778,0.2593573579679112,-0.14118552270790308,0.08864011226272837
1592265207.1342769,-0.7776044959606604,9.731996253366116,1.035608242594544,-0.3711111111111111,-0.5755555555555556,0.09777777777777778,0.3168261237560415,-0.15983972447676528,-0.0320736945602526
1592265207.1442769,-0.72,9.794659359855743,0.8615896540065368,-0.3711111111111111,-0.5755555555555556,0.09777777777777778,0.28071595242420533,0.00495871290566827,0.008751418310312349
1592265207.1542768,-0.7241641337386018,9.814164133738602,0.7750091185410335,-0.3711111111111111,-0.5755555555555556,0.09777777777777778,0.29916879686711617,0.025090434235451917,0.009089372362114847
1592265207.1642768,-0.7963102509239448,9.871275821824547,0.594965570900603,-0.3711111111111111,-0.5755555555555556,0.09777777777777778,0.1527313320780782,0.02733085967670881,-0.03354095656308724
1592265207.1742768,-0.857850545151592,9.879289672909046,0.5807103270909552,-0.3596074264578629,-0.5735721616498232,0.11523164414822329,0.17452889489046006,0.0623363542425619,-0.05106480494320716
1592265207.1842768,-0.8914901717726227,9.860331149282805,0.599668850717195,-0.3388888888888889,-0.57,0.14666666666666667,0.1909710129774938,0.04658061859919079,0.09207040641588511
1592265207.1942768,-0.9924115593622918,9.852073991434844,0.5831028898405729,-0.3388888888888889,-0.57,0.14666666666666667,0.0329072716587457,0.020501314056826453,0.03923485178059795
1592265207.2042768,-0.9850728352062387,9.785010405029462,0.6648439245580601,-0.3388888888888889,-0.57,0.14666666666666667,0.048112325719436744,-0.06475801492758368,-0.08108188623516631
1592265207.2142768,-0.9157753050969131,9.783422469490308,0.7708022254127782,-0.3388888888888889,-0.57,0.14666666666666667,0.011777526897879895,-0.15766302746266256,-0.07571622474320026
1592265207.2242768,-0.8289644970414201,9.780650887573964,0.8627218934911243,-0.34278435239973704,-0.5712984878369494,0.14173241288625904,0.04398823540067069,-0.20836158869685262,0.07623551699447124
1592265207.2342768,-0.7401500351644917,9.746182699070095,0.9829788231616785,-0.35555555555555557,-0.5755555555555556,0.12555555555555556,0.03651491474248432,-0.2421822491110673,-0.019726417820938296
1592265207.2442768,-0.47596517491333123,9.680772139930665,1.1303860699653325,-0.35555555555555557,-0.5755555555555556,0.12555555555555556,0.06707741254450335,-0.27089431407038783,-0.059022952508129625
1592265207.2542768,-0.4186864406779661,9.66,1.1095621468926555,-0.35555555555555557,-0.5755555555555556,0.12555555555555556,0.014570602697837554,-0.20356319865112538,-0.058746167946055604
1592265207.2642767,-0.3707374494684167,9.6831150606379,1.0845899595747335,-0.35555555555555557,-0.5755555555555556,0.12555555555555556,0.06119400813443393,-0.20808030862605378,-0.03537189712887805
1592265207.2742767,-0.3372351758045292,9.725529648390943,1.0517055274135876,-0.35893478512779764,-0.5773987716858694,0.1280131770626407,0.083390779184105,-0.18655749810627725,-0.11913966208423943
1592265207.2842767,-0.3299097284103677,9.740270814768897,1.03,-0.36777777777777776,-0.5822222222222222,0.13444444444444445,0.08266900663740992,-0.17165211933027363,-0.22133798018133144
1592265207.2942767,-0.340104916582717,9.749895083417282,1.0179370500503697,-0.36777777777777776,-0.5822222222222222,0.13444444444444445,0.18548701151960634,-0.05805809410543369,-0.07123962048580881
1592265207.3042767,-0.3741581656748843,9.678418343251158,1.128903135921413,-0.36777777777777776,-0.5822222222222222,0.13444444444444445,0.14546169754681293,-0.04046650430593764,-0.028934835166709975
1592265207.3142767,-0.3669807215695178,9.613490360784759,1.3230192784304824,-0.36777777777777776,-0.5822222222222222,0.13444444444444445,0.09256179112100946,-0.07922887831822968,0.026397188636080454
1592265207.3242767,-0.3349112090934833,9.602544395453258,1.3525443954532586,-0.36268898687126105,-0.5822222222222222,0.13670612929178522,0.15576301082405786,-0.04349763310421034,0.10200236374882206
1592265207.3342767,-0.35595589824890106,9.5945903293219,1.3634243712618002,-0.3477777777777778,-0.5822222222222222,0.14333333333333334,0.21485585413476782,-0.019356134686974478,0.10151219224009159
1592265207.3442767,-0.4464558598490844,9.535591525513166,1.2036008653896892,-0.3477777777777778,-0.5822222222222222,0.14333333333333334,0.2512294499153439,0.014167330993882656,0.019329710264579567
1592265207.3542767,0.26,9.81,0.9,-0.3477777777777778,-0.5822222222222222,0.14333333333333334,0.17671458676442586,0.02945243112740431,-0.04690572364734761
1592265207.3642766,-0.17418399034752852,9.886856221690369,0.5867822457819886,-0.3477777777777778,-0.5822222222222222,0.14333333333333334,0.23911333533114415,0.02860165777090338,-0.010827116373048229
1592265207.3742766,-0.679857137650789,9.76812857611429,0.5977714202412624,-0.3493444448493831,-0.5808793647322749,0.14333333333333334,0.21983044965423237,-0.16935148892126406,0.09786933462520145
1592265207.3842766,-0.6,9.84,0.47,-0.35555555555555557,-0.5755555555555556,0.14333333333333334,0.17453292519943295,-0.3217950808364545,0.04908738521234052
1592265207.3942766,-0.37440826139219757,9.9148027537974,0.302006884493498,-0.35555555555555557,-0.5755555555555556,0.14333333333333334,0.2984648197624034,-0.11874430936837234,-0.11574503133117495
1592265207.4042766,-0.3,9.89,0.24,-0.35555555555555557,-0.5755555555555556,0.14333333333333334,0.17671458676442586,-0.15053464798451094,-0.044724062082354694
1592265207.4142766,-0.37,9.912744025680656,0.28451194863868745,-0.35555555555555557,-0.5755555555555556,0.14333333333333334,0.15916895427097913,-0.16157549998492565,-0.023586508372403156
1592265207.4242766,-0.40712813758909205,9.91587465137899,0.28031337155252556,-0.35555555555555557,-0.578534974004063,0.14333333333333334,0.1810008807451829,-0.11395611209117676,-0.0653957617544978
1592265207.4342766,-0.55,9.9,0.32,-0.35555555555555557,-0.59,0.14333333333333334,0.08835729338221293,-0.04036073895236887,-0.08617563181722002
1592265207.4442766,-0.6722138142006118,9.824382547093865,0.4036596361294478,-0.35555555555555557,-0.59,0.14333333333333334,0.024392563981417693,-0.10143900821625713,-0.06519694140691265
1592265207.4542766,-0.7581057237125233,9.78,0.4450308420599627,-0.35555555555555557,-0.59,0.14333333333333334,-0.0013618563047004238,-0.17000044583994223,0.1032329485381234
1592265207.4642766,-0.73,9.78,0.49,-0.35555555555555557,-0.59,0.14333333333333334,0.001090830782496456,-0.12217304763960307,0.022907446432425576
1592265207.4742765,-0.5355592136806777,9.784125938948378,0.5841259389483778,-0.35475328964892655,-0.5885100776019746,0.14700083462078029,-0.05798934543025981,-0.18762289458939044,0.056082440028478404
1592265207.4842765,-0.3508778960551033,9.813044458359425,0.6130444583594239,-0.3477777777777778,-0.5755555555555556,0.17888888888888888,0.024708512560970758,-0.18231177133805704,0.006884460523971056
1592265207.4942765,-0.2242952721886187,9.807852363905692,0.5725167263300827,-0.3477777777777778,-0.5755555555555556,0.17888888888888888,0.05406569937427522,-0.1359474625137513,-0.016486774165344706
1592265207.5042765,-0.1914656233082337,9.824267188345884,0.5470687533835327,-0.3477777777777778,-0.5755555555555556,0.17888888888888888,-0.014569937774054673,0.00043157579902992904,0.0241779080923389
1592265207.5142765,-0.18,9.83,0.57,-0.3477777777777778,-0.5755555555555556,0.17888888888888888,-0.13526301702956053,0.10799224746714915,-0.07963064712224129
1592265207.5242765,-0.4000456682337139,9.787767629281396,0.6566971121558093,-0.3500101484963809,-0.5755555555555556,0.17975703305723453,-0.030436449869546175,0.03453633260370545,-0.0371552055931402
1592265207.5342765,-0.48366990521327013,9.77,0.7210097156398104,-0.36777777777777776,-0.5755555555555556,0.18666666666666668,-0.005992124771376027,0.02611004289280901,0.028190014213765397
1592265207.5442765,-0.4934415745825142,9.756233701669943,0.719350552504915,-0.36777777777777776,-0.5755555555555556,0.18666666666666668,0.07512563652840465,-0.024303122181074235,-0.027412457026262202
1592265207.5542765,-0.5060334360698608,9.73,0.7041337442794434,-0.36777777777777776,-0.5755555555555556,0.18666666666666668,0.05666849104844085,-0.07462822980166983,-0.005064564213008434
1592265207.5642765,-0.522188022689259,9.73218802268926,0.7534359319322231,-0.36777777777777776,-0.5755555555555556,0.18666666666666668,0.04479486176771416,0.021740342375449417,0.0388542327062493
1592265207.5742764,-0.5298134681114101,9.73981346811141,0.7305595956657698,-0.36777777777777776,-0.5755555555555556,0.18666666666666668,0.0830579865126681,-0.09637626009810409,-0.05763538621580852
1592265207.5842764,-0.53,9.71,0.71,-0.3411111111111111,-0.5822222222222222,0.18666666666666668,-0.011999138607461015,0.022907446432425576,0.044724062082354694
1592265207.5942764,-0.48400583682273823,9.806397665270906,0.4848128410100241,-0.3411111111111111,-0.5822222222222222,0.18666666666666668,0.02518350548424282,-0.050395108754153296,0.03467695830874059
1592265207.6042764,-0.45,9.82,0.41,-0.3411111111111111,-0.5822222222222222,0.18666666666666668,-0.016362461737446838,-0.05781403147231216,0.10144726277217041
