time,acc_x,acc_y,acc_z,mag_x,mag_y,mag_z,gyr_x,gyr_y,gyr_z
1592265246.2142396,-0.4641556633216498,9.739383252508762,0.998149757526288,-0.33555555555555555,-0.5555555555555556,0.16666666666666666,-0.032814564656256456,0.03357071407801194,0.060831820305359684
1592265246.2242396,-0.4935625399985778,9.72,0.9578126999928891,-0.33555555555555555,-0.5555555555555556,0.16666666666666666,0.09054539304398088,0.09257703919737253,0.04341534438611063
1592265246.2342396,-0.5027925426418088,9.725585085283619,0.9844149147163824,-0.33555555555555555,-0.5555555555555556,0.16666666666666666,0.03493557578261855,0.04615715670814932,0.07556328918671305
1592265246.2442396,-0.5180439093484419,9.74402195467422,0.9673186968838526,-0.33361905886056026,-0.5555555555555556,0.16696458923512747,0.05610702035545369,0.08583524935067048,0.047514642077066946
1592265246.2542396,-0.6546576469734008,9.765767117651329,0.9415342353026599,-0.3211111111111111,-0.5555555555555556,0.1688888888888889,0.040498132359250094,0.047587146366718173,0.1438119283903922
1592265246.2642395,-0.7975483380404085,9.763935476862915,0.8670323701933522,-0.3211111111111111,-0.5555555555555556,0.1688888888888889,-0.011633237515092015,0.041782397406463216,0.14926098514711633
1592265246.2742395,-0.7696035558104524,9.776704423256147,0.7800566348842212,-0.3211111111111111,-0.5555555555555556,0.1688888888888889,0.026490007175685136,-0.07015295499266636,0.06642212446923523
1592265246.2842395,-0.6247469037081117,9.795253096291887,0.8131327407297207,-0.3211111111111111,-0.5555555555555556,0.1688888888888889,-0.014712117163102702,-0.145968226744019,0.07134691378124586
1592265246.2942395,-0.6152089959109496,9.808263668029683,0.8578134938664244,-0.3211111111111111,-0.5572918875258721,0.1676348713547714,-0.08189998980760524,-0.02764255733706054,-0.13482461142770533
1592265246.3042395,-0.67,9.79,0.94,-0.3211111111111111,-0.5755555555555556,0.15444444444444444,-0.1287180323345818,-0.07744898555724837,0.09926560120717749
1592265246.3142395,-0.6849145591250855,9.73,1.0052563226247437,-0.3211111111111111,-0.5755555555555556,0.15444444444444444,-0.01406895832872565,-0.07763538863012884,0.05008501445839674
1592265246.3242395,-0.6435243980396335,9.726862466557758,0.9788252006534555,-0.3211111111111111,-0.5755555555555556,0.15444444444444444,-0.03518476148135424,-0.09024355227916137,0.09631658485350322
1592265246.3342395,-0.48810187464495364,9.732268509751941,1.005277788297671,-0.3211111111111111,-0.5755555555555556,0.15444444444444444,-0.045138168795619014,-0.13761137059256037,0.15662512329607645
1592265246.3442395,-0.3934988788862488,9.772799103108998,0.9586004484455004,-0.320644593926278,-0.5738449925445006,0.15483320876513876,-0.06928869078349371,0.022907446432425576,0.13043428104036495
1592265246.3542395,-0.45014551971326167,9.803236320191159,0.9501455197132616,-0.31444444444444447,-0.5511111111111111,0.16,-0.1043349798744695,0.05094396095847331,-0.003756315549035348
1592265246.3642395,-0.5091078168965754,9.799776954224143,0.9308921831034246,-0.31444444444444447,-0.5511111111111111,0.16,-0.05807625209003396,0.06315057539513677,0.03656243287857422
1592265246.3742394,-0.6770808053691275,9.789856644295302,0.9337315436241611,-0.31444444444444447,-0.5511111111111111,0.16,-0.010746249904150185,-0.051394148229758255,0.07720873922866847
1592265246.3842394,-0.85,9.73,1.1,-0.31444444444444447,-0.5511111111111111,0.16,-0.09490227807719166,-0.10362892433716332,0.1287180323345818
1592265246.3942394,-0.8736492653954361,9.710947796186309,1.2117536730228196,-0.31750220555034564,-0.5551097217880587,0.16329297349866279,-0.07340264782751535,0.03892693924175896,-0.003017430945392666
1592265246.4042394,-0.85,9.64,1.33,-0.3288888888888889,-0.57,0.17555555555555555,0.022907446432425576,0.001090830782496456,0.014180800172453926
1592265246.4142394,-0.5726934866939749,9.641547893551799,1.3076781596723002,-0.3288888888888889,-0.57,0.17555555555555555,0.05602732741088598,0.023839459733717074,-0.10310524388907606
1592265246.4242394,-0.58,9.7,1.22,-0.3288888888888889,-0.57,0.17555555555555555,0.1636246173744684,0.07963064712224129,-0.23780111058422737
1592265246.4342394,-0.5661226215644821,9.69,1.3349272123225613,-0.3288888888888889,-0.57,0.17555555555555555,-0.09757667492406366,-0.07437041136094517,0.06339232462938661
1592265246.4442394,-0.682995250250412,9.687503958124656,1.4009984167501373,-0.32850061570827993,-0.5696671944166208,0.17511181477771673,0.03839689813233793,-0.021818342707615714,0.1315056091789665
1592265246.4542394,-0.7285118761309237,9.668720309672691,1.3941517212945784,-0.3211111111111111,-0.5633333333333334,0.16666666666666666,0.04442214038978989,-0.001090830782496456,0.08599876127256045
1592265246.4642394,-0.697446321551602,9.75276839224199,1.2968021801708274,-0.3211111111111111,-0.5633333333333334,0.16666666666666666,0.03348785127572328,0.03317243125685927,0.13409942472986064
1592265246.4742393,-0.7595695451391381,9.772607613715214,1.2397540257937931,-0.3211111111111111,-0.5633333333333334,0.16666666666666666,0.007515073171351472,0.10570725283040011,0.09674582986407677
1592265246.4842393,-0.9679930650815424,9.72802773967383,1.3720416095107453,-0.3211111111111111,-0.5633333333333334,0.16666666666666666,0.06960559467481253,0.022469601154921474,0.1578347432886046
1592265246.4942393,-0.9600020957171163,9.759991617131535,1.4199874256973022,-0.3211111111111111,-0.5633333333333334,0.16666666666666666,0.0818091081853956,0.020726242081981035,0.27376812163914377
1592265246.5042393,-1.0,9.92,1.46,-0.3288888888888889,-0.5633333333333334,0.15222222222222223,-0.011999138607461015,-0.10144726277217041,0.3523383427463553
1592265246.5142393,-1.1138500364697301,9.925332166301969,1.4642249452954048,-0.3288888888888889,-0.5633333333333334,0.15222222222222223,0.09641117313857575,-0.005405842282202787,0.36146631289158676
1592265246.5242393,-1.2332267851597027,10.02258749611792,1.2706392890417832,-0.3288888888888889,-0.5633333333333334,0.15222222222222223,0.1858497179981339,0.00545415391248228,0.5731908580027512
1592265246.5342393,-1.2313394507105078,10.063504588032881,1.2018532148091505,-0.3288888888888889,-0.5633333333333334,0.15222222222222223,0.1259659315408527,-0.029736642837206922,0.7010819417269039
1592265246.5442393,-1.2046122474988847,10.043459185624164,1.1149898043713757,-0.3288888888888889,-0.5633333333333334,0.15222222222222223,0.23529664151563967,-0.13833848141216198,0.8381097648953035
1592265246.5542393,-0.8469956084431223,10.391458280209662,0.5310307408981442,-0.33555555555555555,-0.5555555555555556,0.15444444444444444,0.13824483751108083,-0.15596132637452148,0.8771739186351752
1592265246.5642393,-0.7892348927875243,10.22417641325536,0.6063230994152047,-0.33555555555555555,-0.5555555555555556,0.15444444444444444,0.07634539651998587,-0.2581675379424166,1.0437488354551525
1592265246.5742393,-0.6467831496025169,10.117392463433966,0.5463037682830175,-0.33555555555555555,-0.5555555555555556,0.15444444444444444,0.05920884451984468,-0.2701653580406128,1.1532588576258929
1592265246.5842392,-0.55,9.91,0.65,-0.33555555555555555,-0.5555555555555556,0.15444444444444444,-0.020725784867432664,-0.3108867730114899,1.2686362000433782
1592265246.5942392,-0.29281891587381076,9.84332342263395,0.8500297320981471,-0.33555555555555555,-0.5555555555555556,0.15444444444444444,-0.0789120753173469,-0.39504908598368726,1.2956512634665527
1592265246.6042392,-0.17,9.79,0.97,-0.36,-0.5555555555555556,0.16,-0.04036073895236887,-0.3196134192714616,1.3569934934255912
1592265246.6142392,-0.06357931251970987,9.717608153435968,0.9785072102290645,-0.36,-0.5555555555555556,0.16,0.16472933333420828,-0.4281904078289212,1.4266419802995896
1592265246.6242392,0.03,9.59,0.97,-0.36,-0.5555555555555556,0.16,0.0839939702522271,-0.3817907738737596,1.36353847812057
1592265246.6342392,0.663983286908078,9.524289693593314,0.8997214484679666,-0.36,-0.5555555555555556,0.16,0.0023366263836762527,-0.4248588393643021,1.4509720596423958
1592265246.6442392,0.8417724355092648,9.481958943926365,0.8235260990674579,-0.36,-0.5555555555555556,0.16,0.011571763340248222,-0.4691874967558476,1.3309152792069603
1592265246.6542392,1.08,9.37,0.81,-0.39444444444444443,-0.5511111111111111,0.14555555555555555,-0.0272707695624114,-0.2476185876266955,1.3144510929082294
1592265246.6642392,1.613101155830184,9.50901878568867,0.644224711042454,-0.39444444444444443,-0.5511111111111111,0.14555555555555555,-0.02616275678833387,-0.2866073550831844,1.256498973591144
1592265246.6742392,1.51,9.32,0.67,-0.39444444444444443,-0.5511111111111111,0.14555555555555555,-0.09926560120717749,-0.47123889803846897,1.249001245958442
1592265246.6842391,1.793729221874247,9.411045129687626,0.87,-0.39444444444444443,-0.5511111111111111,0.14555555555555555,0.0242133249601263,-0.24632825735755845,1.023424701831893
1592265246.6942391,1.7432076608046254,9.419465389865895,0.87,-0.39444444444444443,-0.5511111111111111,0.14555555555555555,0.10504202015208605,-0.14804791206733464,0.9637216883378317
1592265246.7042391,1.62,9.38,0.94,-0.42777777777777776,-0.5244444444444445,0.13777777777777778,0.042542400517361786,-0.1636246173744684,0.9250245035569946
1592265246.7142391,1.5783799372331704,9.463243518335267,1.1659413610789109,-0.42777777777777776,-0.5244444444444445,0.13777777777777778,0.05857970098533931,-0.12258490418826029,0.7703921697387075
1592265246.724239,1.73,9.49,0.72,-0.42777777777777776,-0.5244444444444445,0.13777777777777778,-0.025089107997418484,-0.03599741582238304,0.7995789635699021
1592265246.734239,1.7373508078443411,9.512905745097287,0.7449284261426872,-0.42777777777777776,-0.5244444444444445,0.13777777777777778,0.02001113727607537,-0.26185211456625823,0.6128165262819445
1592265246.744239,1.930510419465019,9.392180987834363,0.5678654488237326,-0.42777777777777776,-0.5244444444444445,0.13777777777777778,0.09200182445879797,-0.208298066783989,0.41089142808650303
1592265246.754239,1.95,9.44,0.96,-0.4311111111111111,-0.49777777777777776,0.15444444444444444,0.011999138607461015,-0.09490227807719166,0.5377795757707527
1592265246.764239,2.2081614481122407,10.105062241879265,0.8404783105357195,-0.4311111111111111,-0.49777777777777776,0.15444444444444444,0.06160013223281317,-0.19393687531385131,0.6353466747548696
1592265246.774239,2.2839720072609153,9.51077051686252,0.6176679086653292,-0.4311111111111111,-0.49777777777777776,0.15444444444444444,-0.06107349679698582,-0.06296210245671648,0.3269000063212932
1592265246.784239,1.95,9.27,0.54,-0.4311111111111111,-0.49777777777777776,0.15444444444444444,0.03381575425739013,-0.10362892433716332,0.33706671179140485
1592265246.794239,2.36217157040804,9.739875590265164,0.7955463736529846,-0.4311111111111111,-0.49777777777777776,0.15444444444444444,0.08057513567117361,0.04384297089092308,0.18689715994329253
1592265246.804239,1.86,9.56,0.47,-0.4577777777777778,-0.47555555555555556,0.14555555555555555,-0.07090400086226964,0.2868884957965679,0.18980455615438332
1592265246.814239,2.018394367623968,9.836598794509447,0.6019855138530112,-0.4577777777777778,-0.47555555555555556,0.14555555555555555,-0.006951028124070892,0.12833121643485748,0.011747523180044267
1592265246.824239,1.700199464268631,9.523461446474697,0.5330625179374342,-0.4577777777777778,-0.47555555555555556,0.14555555555555555,-0.06468220596288943,-0.029391930874256664,0.054658026244402025
1592265246.834239,1.693233104085586,9.781847488048907,0.9697821257841517,-0.4577777777777778,-0.47555555555555556,0.14555555555555555,-0.08995813228712946,0.2239492209675947,0.1945086730352584
1592265246.844239,2.0584668834746136,9.990552504842636,1.267932149775195,-0.4577777777777778,-0.47555555555555556,0.14555555555555555,0.010863547144031496,0.29631316830125054,0.2506110591703399
1592265246.854239,1.35,9.68,0.6,-0.4777777777777778,-0.47555555555555556,0.14555555555555555,0.03599741582238304,0.020725784867432664,0.20289452554434081
1592265246.864239,1.8015528690618083,9.181905329473864,1.2894749985810774,-0.4777777777777778,-0.47555555555555556,0.14555555555555555,-0.01320209235647663,0.031220024001022216,0.3049645010703763
1592265246.874239,1.8917436398750624,9.785023485372308,0.7231291576261891,-0.4777777777777778,-0.47555555555555556,0.14555555555555555,0.0345539331102743,0.017906702143730538,0.4709705663062018
1592265246.884239,1.938231477643412,9.44581992178348,0.8971382485987709,-0.4777777777777778,-0.47555555555555556,0.14555555555555555,-0.018228435651182193,0.06711590632088738,0.49824660766430806
1592265246.894239,2.1574444464469154,9.536528736460793,0.9954061311658586,-0.4777777777777778,-0.47555555555555556,0.14555555555555555,-0.10398334063912316,0.07041417189734665,0.48422897896435624
1592265246.904239,1.89,9.48,0.83,-0.49,-0.49,0.12444444444444444,0.08835729338221293,-0.09490227807719166,0.5006913291658732
1592265246.914239,1.9488215672335538,9.534768414720839,0.6747684147208399,-0.49,-0.49,0.12444444444444444,0.048928356674792776,-0.07017280363298974,0.5336473391203094
1592265246.924239,2.2322919809400665,9.703101070325408,0.87,-0.49,-0.49,0.12444444444444444,-0.03027848802770441,0.024635568124629928,0.447591145189639
1592265246.934239,1.79,9.55,0.87,-0.49,-0.49,0.12444444444444444,0.0643590161672909,-0.11453723216212788,0.41233403578366035
1592265246.944239,2.0437265579588217,9.55,1.3313210144705847,-0.49,-0.49,0.12444444444444444,-0.002737405592310005,0.03307489570899408,0.3041410556963039
1592265246.954239,1.92,9.39,1.35,-0.5022222222222222,-0.4633333333333333,0.11,0.14398966328953217,0.020725784867432664,0.45596726708351865
1592265246.964239,2.0367061165205227,8.97653235784604,0.7611275485502179,-0.5022222222222222,-0.4633333333333333,0.11,0.04375300028297058,-0.1612251886873148,0.3483218274018638
1592265246.9742389,2.791785168560787,9.404746681310286,1.1283974787508357,-0.5022222222222222,-0.4633333333333333,0.11,0.056309307967166634,0.01297279701648666,0.3889308660890335
1592265246.9842389,2.44,8.95,1.3,-0.5022222222222222,-0.4633333333333333,0.11,0.3108867730114899,-0.17889624832941878,0.5705044992456464
1592265246.9942389,3.033743743743744,9.128123123123123,0.4761805555555556,-0.5022222222222222,-0.4633333333333333,0.11,0.03886371292353741,-0.2914295975919944,0.5640277597197428
1592265247.0042388,2.77,9.35,1.69,-0.5155555555555555,-0.4777777777777778,0.10222222222222223,0.20725784867432664,-0.15271630954950383,0.2585268954516601
1592265247.0142388,2.832597159581614,9.805599030803187,0.9722085212551579,-0.5155555555555555,-0.4777777777777778,0.10222222222222223,0.004729663695290688,-0.09349422604084669,0.4889942075927849
1592265247.0242388,2.92,9.22,0.71,-0.5155555555555555,-0.4777777777777778,0.10222222222222223,0.21162117180431245,-0.053450708342326333,0.39269908169872414
1592265247.0342388,2.829783656605073,9.060948582577758,0.6312980603695627,-0.5155555555555555,-0.4777777777777778,0.10222222222222223,0.053189299565343365,-0.16755407454821164,0.47998188234700206
1592265247.0442388,2.7254837598990016,9.518263514288995,1.257097440605991,-0.5155555555555555,-0.4777777777777778,0.10222222222222223,-0.0728367732277213,0.04161419904583319,0.4878585118965686
1592265247.0542388,2.58,9.36,1.84,-0.5222222222222223,-0.46,0.08888888888888889,0.11453723216212788,0.042542400517361786,0.469057236473476
1592265247.0642388,2.6387270022704143,9.536181006811242,0.4109762780865891,-0.5222222222222223,-0.46,0.08888888888888889,0.03766376595375945,-0.09198616534728295,0.26085826549247826
1592265247.0742388,2.9625102792632205,9.222825430778373,1.2503562685680334,-0.5222222222222223,-0.46,0.08888888888888889,0.06686412882776631,0.16884829034443388,0.41556258378946626
1592265247.0842388,2.6420689444783405,9.340817368314012,0.3465389465121009,-0.5222222222222223,-0.46,0.08888888888888889,0.26339177445576994,-0.045395554173560775,0.4388176856356187
1592265247.0942388,2.8723843807199514,9.349347569656294,0.4147805572503559,-0.5222222222222223,-0.46,0.08888888888888889,-0.0045924042497754725,-0.07517157402973249,0.3736826422002431
1592265247.1042387,3.13,9.34,1.13,-0.5466666666666666,-0.46555555555555556,0.08888888888888889,-0.10581058590215622,0.16144295580947549,0.3567016658763411
1592265247.1142387,3.433442845301786,9.806022907090648,0.3669022681033833,-0.5466666666666666,-0.46555555555555556,0.08888888888888889,-0.041074205246700066,-0.03768787063911292,0.30526230779003827
1592265247.1242387,3.06,9.01,0.76,-0.5466666666666666,-0.46555555555555556,0.08888888888888889,0.042542400517361786,0.11453723216212788,0.23343778745424157
1592265247.1342387,3.6889062499999996,9.414296875000002,0.571328125,-0.5466666666666666,-0.46555555555555556,0.08888888888888889,0.05234283332885337,0.07141532779156486,0.20795666214436342
1592265247.1442387,3.0458714898944734,8.948648721159007,0.8409412448578072,-0.5466666666666666,-0.46555555555555556,0.08888888888888889,0.02075222156409305,-0.01424381901393959,0.21854026990037095
1592265247.1542387,3.84,9.73,0.6,-0.5611111111111111,-0.4388888888888889,0.08888888888888889,-0.07744898555724837,-0.05781403147231216,0.23343778745424157
1592265247.1642387,3.6606632653061224,9.194493720565148,0.5192268445839875,-0.5611111111111111,-0.4388888888888889,0.08888888888888889,0.0401920626068808,-0.05296865360877413,0.12405331796798785
1592265247.1742387,3.28,8.97,0.08,-0.5611111111111111,-0.4388888888888889,0.08888888888888889,-0.05563236990731925,0.05563236990731925,0.20071286397934787
1592265247.1842387,3.4541798176926473,9.2661056900775,0.6983383528088986,-0.5611111111111111,-0.4388888888888889,0.08888888888888889,-0.11738259962666649,0.09363251127307139,0.12566258478198744
1592265247.1942387,3.03745378772602,9.24925836302122,0.45158230826107415,-0.5611111111111111,-0.4388888888888889,0.08888888888888889,-0.06122407833670436,0.22610396622176487,0.05585082446881134
1592265247.2042387,2.82,9.49,0.57,-0.5666666666666667,-0.46,0.08,-0.05563236990731925,-0.022907446432425576,0.11671889372712078
1592265247.2142386,2.9006649127003112,8.844680698397513,0.3280052618990672,-0.5666666666666667,-0.46,0.08,-0.010658798655309588,-0.26341828399752076,0.04828085051754086
1592265247.2242386,3.56,9.809206550626092,0.9042954964445615,-0.5666666666666667,-0.46,0.08,0.03843126361180639,-0.0701795139250596,0.06533568932893137
1592265247.2342386,3.554880865858689,9.202045021508967,1.2839277927282013,-0.5666666666666667,-0.46,0.08,-0.08586628918611547,0.012946300875615433,0.02899256331908085
1592265247.2442386,3.41482095503742,9.53159775285313,0.023388595336777396,-0.5666666666666667,-0.46,0.08,-0.13709308177847018,-0.08052012771394398,0.016410544085870928
1592265247.2542386,3.67,9.11,1.34,-0.56,-0.45444444444444443,0.051111111111111114,-0.09708393964218458,0.17453292519943295,-0.042542400517361786
1592265247.2642386,3.4095844271232987,9.56797221436937,0.06486167763822137,-0.56,-0.45444444444444443,0.051111111111111114,-0.15879555121986513,0.09127122703907031,-0.11992680233699293
1592265247.2742386,3.23,9.37,0.08,-0.56,-0.45444444444444443,0.051111111111111114,-0.12217304763960307,-0.0272707695624114,-0.03381575425739013
1592265247.2842386,3.521465648854962,9.417264699814318,0.6471763977718177,-0.56,-0.45444444444444443,0.051111111111111114,-0.02850973007897825,0.05865887957577651,-0.25895143499944245
1592265247.2942386,2.963324606733899,9.203812689234411,0.8753957702551961,-0.56,-0.45444444444444443,0.051111111111111114,0.03693569866177217,0.2389897826325293,-0.21086853904186786
1592265247.3042386,3.21,9.11,0.74,-0.5844444444444444,-0.45444444444444443,0.044444444444444446,-0.07744898555724837,-0.07308566242726255,-0.05563236990731925
1592265247.3142385,3.1792113257990033,9.333217887957225,0.7476971685502491,-0.5844444444444444,-0.45444444444444443,0.044444444444444446,0.021627453476320835,0.07636862696235885,0.08626524192889427
1592265247.3242385,2.733335979198029,9.171743807308061,1.0576496510195703,-0.5844444444444444,-0.45444444444444443,0.044444444444444446,0.13462619398973935,0.31377795976370726,0.07783769572441195
1592265247.3342385,3.1456193548387095,9.318435483870967,0.5701629032258064,-0.5844444444444444,-0.45444444444444443,0.044444444444444446,0.07940130874724384,0.0966608028628452,-0.03427443100738503
1592265247.3442385,3.1856589374816555,9.146412008889262,0.6832114554069353,-0.5844444444444444,-0.45444444444444443,0.044444444444444446,0.02910211568595434,-0.04106136983526881,-0.012924485479895331
1592265247.3542385,3.54,9.49,0.51,-0.5988888888888889,-0.44,0.044444444444444446,-0.05126904677733343,-0.001090830782496456,-0.13962634015954636
1592265247.3642385,3.3576944489269,9.05111626593513,0.34795062126835563,-0.5988888888888889,-0.44,0.044444444444444446,0.017965263042920704,0.06667040861605013,-0.010732678260137102
1592265247.3742385,3.648269753598718,9.024285264573734,0.6094728557937212,-0.5988888888888889,-0.44,0.044444444444444446,0.12427251370191125,-0.006536524770471494,-0.09473788707182221
1592265247.3842385,3.40247764119737,9.066788908400376,0.87752235880263,-0.5988888888888889,-0.44,0.044444444444444446,-0.042814228402966115,0.04957562408913887,-0.2212622413693972
1592265247.3942385,3.2790907506644014,9.412274430357687,0.9777273123338996,-0.5988888888888889,-0.44,0.044444444444444446,-0.04125291715477405,0.05404562054270497,-0.3569500528882662
1592265247.4042385,2.82,9.44,1.33,-0.5911111111111111,-0.47444444444444445,0.022222222222222223,-0.00545415391248228,-0.19416787928436915,-0.3501566811813624
1592265247.4142385,3.0940687334775294,9.330372506608988,1.0764864215332852,-0.5911111111111111,-0.47444444444444445,0.022222222222222223,-0.033855601957207354,0.07041403144806971,-0.29335378509191223
1592265247.4242384,2.64240098400984,9.047097170971709,0.9506838868388684,-0.5911111111111111,-0.47444444444444445,0.022222222222222223,0.2579633666341342,-0.07528235142738948,-0.41054201414392816
1592265247.4342384,3.260021515658618,9.228006454697585,0.7802801816877839,-0.5911111111111111,-0.47444444444444445,0.022222222222222223,0.1394347471937562,0.03674970571990775,-0.3542061590216675
1592265247.4442384,2.8678001951219514,8.94672156097561,0.7314107317073171,-0.5911111111111111,-0.47444444444444445,0.022222222222222223,0.1965668981947446,-0.11102507631003539,-0.5202179025611612
1592265247.4542384,3.1038259877247634,9.485034389168183,0.23489868303364891,-0.5848918634576964,-0.46718865551546057,0.035697258804620866,0.21191400686371006,-0.03191212450890249,-0.26012978386329616
1592265247.4642384,3.0874120785835557,9.281570458404074,0.973680572398739,-0.5844444444444444,-0.4666666666666667,0.03666666666666667,0.12103155129929723,-0.10575436433017454,-0.3082597043103503
1592265247.4742384,3.1071172325432412,10.061534272901987,0.6868449711723255,-0.5844444444444444,-0.4666666666666667,0.03666666666666667,0.14776354646754122,-0.120394245745404,-0.5860717236797743
1592265247.4842384,3.154308294270329,9.718565838918375,0.6146809747026691,-0.5844444444444444,-0.4666666666666667,0.03666666666666667,0.1430497392875066,0.027478937246701418,-0.5570782329755469
1592265247.4942384,3.083511863941846,9.546799478809492,0.741021121931148,-0.5844444444444444,-0.4666666666666667,0.03666666666666667,0.20707307621288332,0.16983948025877937,-0.4812846102144851
1592265247.5042384,2.5203136855741652,8.98356158045711,0.4400286851115018,-0.5592212866146428,-0.4792782455815675,0.003035789560264436,0.03418568993036594,0.0009883792932548485,-0.581285323099269
1592265247.5142384,2.8610160556919237,8.885785682668704,0.4342698482958432,-0.5577777777777778,-0.48,0.0011111111111111111,0.13264767440018127,0.26803544057801976,-0.475104365841302
1592265247.5242383,2.707860072566651,9.25369748120103,0.6231151075353631,-0.5577777777777778,-0.48,0.0011111111111111111,0.1647297310020425,0.11893849947692842,-0.4847179172145274
1592265247.5342383,2.5704918163354704,9.442094699534067,0.36622954083867626,-0.5577777777777778,-0.48,0.0011111111111111111,0.15566095752936546,0.012611126344461127,-0.5714105347532139
1592265247.5442383,2.551117352740505,9.583814873777575,0.6719636115533318,-0.5577777777777778,-0.48,0.0011111111111111111,0.1871771846544727,-0.03398812387933204,-0.6574114367214161
1592265247.5542383,2.4158222820167854,9.638544429495804,0.4934640271638157,-0.5770499925256796,-0.5003428933450075,0.0011111111111111111,0.2963662631565634,-0.10731590303041388,-0.663463282924656
1592265247.5642383,2.8943560830860537,9.3798828442686,-0.004356083086053453,-0.5777777777777777,-0.5011111111111111,0.0011111111111111111,0.1297321848701847,-0.13072087389790732,-0.6456134315871892
1592265247.5742383,2.680160071464787,9.152117385740844,0.28179724281127017,-0.5777777777777777,-0.5011111111111111,0.0011111111111111111,0.0964375896804755,-0.13111902412861526,-0.6769497943840992
1592265247.5842383,2.667104753625479,9.266838029003832,0.3713142608764373,-0.5777777777777777,-0.5011111111111111,0.0011111111111111111,0.1266215441060655,-0.06435142987821202,-0.6943612289176949
1592265247.5942383,2.6870530139629922,9.116091497332274,0.13493245544329663,-0.5777777777777777,-0.5011111111111111,0.0011111111111111111,0.10360341506923344,-0.014180800172453926,-0.7777663105247
1592265247.6042383,2.427194305381727,9.209369837296622,0.3099924906132666,-0.5405217980809345,-0.5363532540675845,0.0011111111111111111,0.07410857226929693,0.060948224497815444,-0.7648098587049811
1592265247.6142383,2.413815330295192,9.64445990885577,0.3883536560331732,-0.5366666666666666,-0.54,0.0011111111111111111,0.09569094376179005,-0.09629621444477399,-0.7588020366443946
1592265247.6242383,2.3341741906519675,10.061729685239687,0.6760600089788995,-0.5366666666666666,-0.54,0.0011111111111111111,-0.029004280165931734,0.12380170310680022,-0.8255348268690809
1592265247.6342382,2.216824982808906,9.936639556114102,0.7629895904962891,-0.5366666666666666,-0.54,0.0011111111111111111,0.005004195590989663,0.15922084041516466,-0.7972759405169555
1592265247.6442382,2.0640782289288193,9.638156457857638,0.2835431351136702,-0.5366666666666666,-0.54,0.0011111111111111111,-0.111456525907739,0.07202082185501123,-0.9164896433901235
1592265247.6542382,2.3895783684692944,9.927653528872595,0.677442713107241,-0.5376708422446278,-0.5530542825134942,0.020190447092371933,-0.19890514440578824,0.059867712890504396,-0.8038113070183968
1592265247.6642382,2.341407956318253,9.83711193447738,0.9614801092043682,-0.5377777777777778,-0.5544444444444444,0.022222222222222223,-0.19875285718724137,0.08564680862586156,-0.7499042570255662
1592265247.6742382,1.650049702303909,9.49054724307533,-0.18990059539218218,-0.5377777777777778,-0.5544444444444444,0.022222222222222223,-0.2330904610596077,-0.08443899984405064,-0.7084674565919975
1592265247.6842382,1.8093926723832472,9.13520799376373,0.9076982495925165,-0.5377777777777778,-0.5544444444444444,0.022222222222222223,-0.19380548011291826,-0.01915760449370131,-0.6825115853152856
1592265247.6942382,1.3424671532846717,9.995149546021008,0.7776288054121417,-0.5377777777777778,-0.5544444444444444,0.022222222222222223,-0.19645666249074092,-0.17320691619411235,-0.8451051173912398
1592265247.7042382,1.2917946505608284,9.934849007765315,0.4608081679608858,-0.514039561563289,-0.5688569328603841,0.017135461604831752,-0.22786410333522172,-0.13396889077767735,-0.9208374953248413
1592265247.7142382,1.4931803474538305,9.618021056299467,0.6147705211807457,-0.5066666666666667,-0.5733333333333334,0.015555555555555555,-0.25001611846222527,-0.055986948284028,-1.1079913442309726
1592265247.7242382,1.4404661958419298,9.583953737501984,0.6186049833359785,-0.5066666666666667,-0.5733333333333334,0.015555555555555555,-0.29282401060267527,-0.033765289700478894,-0.9967677914583919
1592265247.7342381,1.3478305301256122,9.401110283159463,0.8895252288694911,-0.5066666666666667,-0.5733333333333334,0.015555555555555555,-0.18709698734924496,-0.06591757809646563,-1.1639005364909738
1592265247.7442381,1.2040472404366704,9.366179670889242,0.9538203291107576,-0.5066666666666667,-0.5733333333333334,0.015555555555555555,-0.2531568405015761,-0.07205620537190222,-1.2660862961155686
1592265247.7542381,0.893694777592227,9.697752391073326,1.4104140731744343,-0.49539475903716074,-0.5863393805981478,-0.006121189885802,-0.09733168259809993,-0.026160149152086143,-1.1558491907190385
1592265247.764238,0.8216575402693953,9.506356369159437,1.5441712298653023,-0.4922222222222222,-0.59,-0.012222222222222223,0.15283198060214237,-0.027831117986275043,-1.0796064611812826
1592265247.774238,0.622757706236277,9.952590321936754,1.354955943996122,-0.4922222222222222,-0.59,-0.012222222222222223,0.4166973589136462,-0.004353711600949023,-0.9298246380211672
1592265247.784238,0.48880943910826513,9.84088058816554,1.2106903830190916,-0.4922222222222222,-0.59,-0.012222222222222223,0.13948839850812295,-0.05613110193210205,-0.964317850424577
1592265247.794238,0.33146560884040516,10.043092016717432,1.2020464687964865,-0.4922222222222222,-0.59,-0.012222222222222223,0.2782905052887289,-0.04199455109837051,-0.8799202695223921
1592265247.804238,0.547123719464145,10.007335303388494,0.657177304964539,-0.48625037212153055,-0.6062093074161632,-0.012222222222222223,0.37715693502489933,-0.13095139876290582,-0.663254041254954
1592265247.814238,0.9610856250256916,10.21662761540675,0.28252928844493774,-0.48444444444444446,-0.6111111111111112,-0.012222222222222223,0.14074255057055818,-0.11135652797642459,-0.7063198594979139
1592265247.824238,0.44811031481955466,10.264877655490146,1.1545966214486818,-0.48444444444444446,-0.6111111111111112,-0.012222222222222223,0.0401824424236506,-0.041267019146887296,-0.7924331983072818
1592265247.834238,0.3550826659172872,10.357470376094797,0.7463833075734158,-0.48444444444444446,-0.6111111111111112,-0.012222222222222223,-0.14321850503788114,-0.03267592779692009,-0.703663256641528
1592265247.844238,0.3462777585168695,10.236212068682372,0.5331717241756838,-0.48444444444444446,-0.6111111111111112,-0.012222222222222223,-0.016646679257350222,0.07768646711968046,-0.6384004401262728
1592265247.854238,0.4079668445121951,10.153186737804878,0.5715933689024391,-0.4580525491192412,-0.6447007960704607,-0.029017064701897015,-0.057190378903752226,0.07149751424190767,-0.5472675171572433
1592265247.864238,0.3829970724566968,9.912567699438886,0.4107294462063918,-0.4477777777777778,-0.6577777777777778,-0.035555555555555556,-0.1914205771172303,-0.04606544597090638,-0.5979048698305207
1592265247.874238,0.20298422436459246,9.717951906222611,0.42071373794916744,-0.4477777777777778,-0.6577777777777778,-0.035555555555555556,-0.3648308528355797,-0.09575953866201178,-0.704436064570213
1592265247.884238,-0.07082725460302569,9.770981822446346,0.8524681599624722,-0.4477777777777778,-0.6577777777777778,-0.035555555555555556,-0.30866693812581014,-0.014823401460906625,-0.3552072520103897
1592265247.894238,-0.07065640429857682,9.945439115596862,0.9935038483880336,-0.4477777777777778,-0.6577777777777778,-0.035555555555555556,-0.3083629001194729,-0.01449140813887564,-0.32942349051388875
1592265247.904238,0.0,9.946714393070444,0.9572922517106357,-0.4253268555507214,-0.6608744567056477,-0.04174891341129525,-0.48556975593593665,0.0220333321400798,-0.38536644495433453
1592265247.914238,0.07924501922404753,9.88,0.9663206338110218,-0.41555555555555557,-0.6622222222222223,-0.044444444444444446,-0.5274785136033401,0.032457394778965094,-0.32916349471001816
1592265247.924238,0.06759487308368936,10.128263382759489,1.0606886152299573,-0.41555555555555557,-0.6622222222222223,-0.044444444444444446,-0.3785607743061865,-3.700984057226041e-05,-0.32904983202951904
1592265247.934238,0.27403505870679673,10.014228543079213,1.0481511493302464,-0.41555555555555557,-0.6622222222222223,-0.044444444444444446,-0.3062849715791293,0.12404064662938077,-0.19510808269736263
1592265247.944238,0.48409207069071014,10.023135010618004,1.0838282402908255,-0.41555555555555557,-0.6622222222222223,-0.044444444444444446,-0.09959744808381643,0.14426336236395837,-0.046844788205730986
1592265247.954238,0.40984837941768903,9.638024171397179,1.2308741988646767,-0.41555555555555557,-0.6581157704124194,-0.04855089625424729,0.13676009788446888,0.2527778716616606,-0.03705904326109613
1592265247.964238,0.22137054518685317,9.413702420646949,1.2972303295370893,-0.41555555555555557,-0.6555555555555556,-0.051111111111111114,0.2089401267450766,0.355731618634781,-0.04710298296175913
1592265247.974238,-0.26736345101405734,9.674818113531495,1.2222727760489323,-0.41555555555555557,-0.6555555555555556,-0.051111111111111114,0.21466066719155294,0.4145851106605988,0.05471009758890638
1592265247.984238,-0.35481568609000447,9.572225881578019,0.9648203909760286,-0.41555555555555557,-0.6555555555555556,-0.051111111111111114,0.1340118552411821,0.30693017946588785,0.03866468941607489
1592265247.994238,-0.2922191468577011,9.623479526212959,0.804301326929339,-0.41555555555555557,-0.6555555555555556,-0.051111111111111114,0.12603728727029503,0.22487548953932895,-0.006183387255518823
1592265248.004238,-0.11455074094916526,10.01167698368036,0.8084830863502782,-0.4055511091658156,-0.650938118760291,-0.07112000389059103,-0.027175143678771052,0.08058417768807011,-0.05598077005969791
1592265248.0142379,-0.031033949360905318,10.038913131971016,0.7812301554994708,-0.4011111111111111,-0.6488888888888888,-0.08,-0.07562131336773628,0.04204844946206216,-0.023798192402338415
1592265248.0242379,0.20281507240077154,9.818349316743188,0.5781797929854112,-0.4011111111111111,-0.6488888888888888,-0.08,0.015065046114699832,0.04477710854111936,0.04153113942301233
1592265248.0342379,0.44499952653756925,10.0119042658965,0.7264279626911605,-0.4011111111111111,-0.6488888888888888,-0.08,-0.0699686784120537,0.116225125075255,0.045139508453947014
1592265248.0442379,0.44683904845254196,9.999613334394144,0.8444514281167953,-0.4011111111111111,-0.6488888888888888,-0.08,-0.1352066052220482,0.1445527399159016,0.10321347307168391
1592265248.0542378,0.09869349400599398,9.805373688811189,1.0495017482517481,-0.4011111111111111,-0.6574365911865911,-0.07073998917748918,-0.15333187702029574,0.20379512840628827,0.08421358712648783
1592265248.0642378,-0.020145542753183747,9.444167778451586,1.1333818475843946,-0.4011111111111111,-0.6622222222222223,-0.06555555555555556,-0.12190575330474512,0.24977802243954053,0.07774803239517473
1592265248.0742378,-0.30821896185892456,9.59379806448274,1.3105594369404336,-0.4011111111111111,-0.6622222222222223,-0.06555555555555556,-0.06568107620430816,0.21411058392619506,0.14227046023358086
1592265248.0842378,0.04658557588805168,10.402899892357373,0.9115144121516565,-0.4011111111111111,-0.6622222222222223,-0.06555555555555556,-0.17509233965095647,0.074439879070745,0.15571453512615668
1592265248.0942378,0.3624946363546895,10.088680248007085,0.7197693140438933,-0.4011111111111111,-0.6622222222222223,-0.06555555555555556,-0.24050185344038524,0.09169825653701222,0.16203752890324366
1592265248.1042378,0.17293556234795082,9.724954151331794,1.2740371779676876,-0.4101223324253703,-0.6622222222222223,-0.07872580209178051,-0.07586761774580697,0.13446239854120337,0.15219590072756303
1592265248.1142378,0.09749523152469461,9.705340286514346,1.4167014325717302,-0.41555555555555557,-0.6622222222222223,-0.08666666666666667,0.04974207846514439,0.11618173449191067,0.1326472985747345
1592265248.1242378,0.3517592054665671,9.706782582233657,0.9234146678839186,-0.41555555555555557,-0.6622222222222223,-0.08666666666666667,0.10261507668815367,0.016582094526751877,0.11799030744602854
1592265248.1342378,0.34933957337404087,9.729805166110955,1.0180693367613387,-0.41555555555555557,-0.6622222222222223,-0.08666666666666667,0.06180417680356984,0.010190654841196255,0.15802362001394266
1592265248.1442378,0.3474434156378601,9.51275205761317,0.7968724279835391,-0.41555555555555557,-0.6622222222222223,-0.08666666666666667,0.01225837925638764,0.06401448422261352,0.21722458548435852
1592265248.1542377,0.37109143508372056,9.79228339323807,0.8536763975336781,-0.41555555555555557,-0.6547609167859891,-0.08169246304251127,0.1075186329098208,-0.05976019267726056,0.30710777000873424
1592265248.1642377,0.566705915935203,10.022274554580271,0.7955686386450678,-0.41555555555555557,-0.6488888888888888,-0.07777777777777778,0.00959497236919074,0.008037984565653133,0.37281601219852517
1592265248.1742377,0.5651555172743803,9.94546655182314,0.9573461575270361,-0.41555555555555557,-0.6488888888888888,-0.07777777777777778,0.04728259216345558,0.10495871690175704,0.49440409748094183
1592265248.1842377,0.38583126550868485,9.979202853598014,1.0014578163771712,-0.41555555555555557,-0.6488888888888888,-0.07777777777777778,0.07311543696475005,0.07327446006269463,0.5745497761797431
1592265248.1942377,0.3181886013652961,10.041914589617399,0.9819145896173995,-0.41555555555555557,-0.6488888888888888,-0.07777777777777778,0.06327788319775203,0.030395370262297657,0.5887337899774276
1592265248.2042377,0.3632251638839593,10.01611640288291,1.0536355075875556,-0.41230491873206737,-0.6521395257123771,-0.07777777777777778,0.18735227089375822,-0.09883363047899611,0.6997721149714603
1592265248.2142377,0.184240792990793,9.906335016335017,1.1219371844371846,-0.4088888888888889,-0.6555555555555556,-0.07777777777777778,0.18051819901510952,-0.04821928866297929,0.7212618814632925
1592265248.2242377,0.01700141915017948,9.627331441133094,1.192668558866906,-0.4088888888888889,-0.6555555555555556,-0.07777777777777778,0.08326468566029513,-0.031123903088584984,0.7004573616178702
1592265248.2342377,0.05910215580597746,9.598612199902009,1.1657141107300342,-0.4088888888888889,-0.6555555555555556,-0.07777777777777778,0.0980368800072954,-0.006095237461529072,0.7064087334389993
1592265248.2442377,0.3279378476138618,9.496021936136284,0.8759853759091439,-0.4088888888888889,-0.6555555555555556,-0.07777777777777778,0.3383685301465883,-0.004926494060982611,0.8248989996505974
1592265248.2542377,0.7352621601826721,9.455230278747146,0.7616780836672268,-0.4088888888888889,-0.6396564847127081,-0.09155697250824561,0.33142602962181483,-0.13148465666506234,0.8544109867353356
1592265248.2642376,1.0777589517677624,9.51724424865394,0.6824168831657819,-0.4088888888888889,-0.6222222222222222,-0.10666666666666667,0.3252750688393967,-0.10298935142609607,0.8448644796526608
1592265248.2742376,1.0655845963501394,9.75588720486648,0.5859972677595628,-0.4088888888888889,-0.6222222222222222,-0.10666666666666667,0.3045758631248493,-0.20752642315711886,0.7827483522157792
1592265248.2842376,1.1551625065623061,9.468757218536725,0.2448374934376939,-0.4088888888888889,-0.6222222222222222,-0.10666666666666667,0.3061313276339136,-0.20199350858482829,0.8212913013571224
1592265248.2942376,1.2356972417459098,9.280597720158289,0.19585671253912942,-0.4088888888888889,-0.6222222222222222,-0.10666666666666667,0.33477204348183104,-0.13495440682058538,0.7887836624895186
1592265248.3042376,1.2166199408499778,9.613745897986469,0.639870761252684,-0.42438943582402644,-0.6170553732438431,-0.0989163931990979,0.2745617499861475,0.10318040342756737,0.8468803967674047
1592265248.3142376,0.9776177864510733,9.463608865347087,0.48714664064678004,-0.4488888888888889,-0.6088888888888889,-0.08666666666666667,0.2731915294058123,0.139623451145765,0.8485761811415932
1592265248.3242376,1.068541028044486,9.568939021609708,0.5810875788513667,-0.4488888888888889,-0.6088888888888889,-0.08666666666666667,0.3343410856652522,-0.06072190949243199,0.8363865229136711
1592265248.3342376,1.2558846447669978,9.446461420932009,0.37880748663101604,-0.4488888888888889,-0.6088888888888889,-0.08666666666666667,0.37294254456476866,-0.14309183205571885,0.767030039683445
1592265248.3442376,1.5685658978134032,9.462508860897541,0.15630841376301874,-0.4488888888888889,-0.6088888888888889,-0.08666666666666667,0.33635132808340096,-0.156407135115451,0.6174845747375941
1592265248.3542376,1.9906018793862257,9.522916617104794,0.02708338289520637,-0.46445475331403724,-0.6033950543858954,-0.07796809537026024,0.26137016593302614,-0.10589635242377277,0.5966491452965452
1592265248.3642375,2.0439336404845063,9.552847217061753,0.0560663595154938,-0.4866666666666667,-0.5955555555555555,-0.06555555555555556,0.2816483010020465,-0.032656913738212806,0.6624766844124643
1592265248.3742375,2.1138345398138574,9.940665977249225,-0.12749741468459153,-0.4866666666666667,-0.5955555555555555,-0.06555555555555556,0.12641093086988509,-0.030000666660282588,0.7613425809046039
1592265248.3842375,2.0886604361370718,9.91051179350245,-0.20680462839341346,-0.4866666666666667,-0.5955555555555555,-0.06555555555555556,0.07418765881189404,0.05340604593378621,0.8405358485840894
1592265248.3942375,2.162097443318862,9.402466956102268,-0.17610033767486735,-0.4866666666666667,-0.5955555555555555,-0.06555555555555556,0.007284518501886848,0.0999519879282042,0.7919044191268739
1592265248.4042375,2.0192389556695507,9.840190261082613,0.07019026108261235,-0.4866666666666667,-0.5846104603186756,-0.06480072140128798,-0.11849461524017862,0.09729453070091398,0.6751235314555987
1592265248.4142375,1.938452790662876,9.843754301960198,0.09309441867424809,-0.4866666666666667,-0.5633333333333334,-0.06333333333333334,-0.19984663040719336,0.15505434039320865,0.6994570854982961
1592265248.4242375,1.7925528601868546,9.62639867781238,0.29520925531333664,-0.4866666666666667,-0.5633333333333334,-0.06333333333333334,-0.35308198264629514,0.12884008999958496,0.6941191742576915
1592265248.4342375,1.65,9.6,0.48,-0.4866666666666667,-0.5633333333333334,-0.06333333333333334,-0.39051742013373125,0.1265363707695889,0.7286749627076325
1592265248.4442375,2.0367138787938317,10.007563697082801,0.36709832040074647,-0.4866666666666667,-0.5633333333333334,-0.06333333333333334,-0.3757190218082014,0.19638926976146795,0.5930733499174546
1592265248.4542375,2.0709307236254366,9.320708194591083,0.08891253147080325,-0.4895442035066822,-0.5547007228132868,-0.05865733596830812,-0.24853781610059977,0.16131715545934594,0.6054011620043961
1592265248.4642375,2.24,9.74,0.4,-0.4955555555555556,-0.5366666666666666,-0.04888888888888889,-0.20943951023931953,0.17016960206944715,0.6828600698427815
1592265248.4742374,2.3318402031646808,9.174907208439148,0.5081863087098485,-0.4955555555555556,-0.5366666666666666,-0.04888888888888889,-0.2586607188021988,0.09496051376180963,0.5756823304663998
1592265248.4842374,2.382188667496887,9.19267338825558,0.32608128173196665,-0.4955555555555556,-0.5366666666666666,-0.04888888888888889,-0.18873081042150258,0.09856075147677858,0.6698945548509418
1592265248.4942374,2.32,8.92,0.35,-0.4955555555555556,-0.5366666666666666,-0.04888888888888889,-0.11671889372712078,0.07090400086226964,0.7450374244450794
1592265248.5042374,2.6197140776512975,9.394890958568089,0.28453719673450617,-0.5073890102589654,-0.5268054544138251,-0.057904854377201165,-0.13415659160209564,0.1663553944006283,0.5286868525366698
1592265248.5142374,2.5772150411280847,8.891316098707403,0.6996709753231491,-0.5422222222222223,-0.49777777777777776,-0.08444444444444445,-0.131328921254648,0.11291023342073439,0.5592198850151036
1592265248.5242374,2.7905876817157433,9.584917159909855,0.6576242601352188,-0.5422222222222223,-0.49777777777777776,-0.08444444444444445,-0.10784323380667586,0.1277707582220917,0.44418124826711514
1592265248.5342374,2.7594965762412618,9.280956505141603,0.591208217020972,-0.5422222222222223,-0.49777777777777776,-0.08444444444444445,-0.014477341244096734,0.09268766750423844,0.4804313329204514
1592265248.5442374,2.86,9.09,0.35,-0.5422222222222223,-0.49777777777777776,-0.08444444444444445,0.044724062082354694,0.09926560120717749,0.49632800603588745
1592265248.5542374,2.77786445636275,9.021322119291401,1.0486778807085975,-0.5422222222222223,-0.49777777777777776,-0.08444444444444445,0.01458017755670046,0.18605871451561076,0.3959752526970728
1592265248.5642374,3.0455341584713755,9.49,0.5596556108140448,-0.5422222222222223,-0.49777777777777776,-0.08444444444444445,0.1311117579626267,-0.01858935874116348,0.28973624817703286
1592265248.5742373,3.065831049409595,9.418034886401475,0.5171258420634718,-0.5422222222222223,-0.49777777777777776,-0.08444444444444445,0.026441379409812213,0.2631186054266582,0.23623447853139637
1592265248.5842373,2.900934201012292,9.305951554591468,0.7699076885996625,-0.5422222222222223,-0.49777777777777776,-0.08444444444444445,-0.016297048698477173,0.36015911832397174,0.19676473486520166
1592265248.5942373,2.715465470463889,9.412444448143278,0.6755375422360559,-0.5422222222222223,-0.49777777777777776,-0.08444444444444445,-0.06887957551253363,0.3809908300894884,0.1641742904900212
1592265248.6042373,3.0287183275467235,9.649036714190737,0.9564652434069587,-0.5432253987015013,-0.4955564584308028,-0.08537596546091782,-0.021853119036534044,0.30279236863077275,0.102788298886694
1592265248.6142373,3.0117238627294496,9.516520351157222,0.6910029263101889,-0.5577777777777778,-0.4633333333333333,-0.09888888888888889,-0.0183047151099525,0.26116343258237873,-0.07264108866860743
1592265248.6242373,3.38,9.55,0.97,-0.5577777777777778,-0.4633333333333333,-0.09888888888888889,-0.07308566242726255,0.15707963267948966,-0.11890055529211369
1592265248.6342373,3.254696467844935,9.520465301147354,0.5325808844961446,-0.5577777777777778,-0.4633333333333333,-0.09888888888888889,0.018420411605015737,0.19816798718308626,0.09479521543063593
1592265248.6442373,3.45,9.02,0.38,-0.5577777777777778,-0.4633333333333333,-0.09888888888888889,-0.07744898555724837,0.2454369260617026,0.15271630954950383
1592265248.6542373,3.118554631488385,9.162196730714081,1.1041611700602236,-0.5627103846031292,-0.4623057069113851,-0.102793869292292,0.048444211111734636,0.22318516684468068,0.12628391867854366
1592265248.6642373,2.98,9.26,0.77,-0.5844444444444444,-0.4577777777777778,-0.12,0.03599741582238304,0.18762289458939044,0.009817477042468103
1592265248.6742373,3.3980430711610485,9.309024879614768,0.8229320492241841,-0.5844444444444444,-0.4577777777777778,-0.12,0.08122691367661677,0.08391036323799884,0.0866011083503607
1592265248.6842372,3.401132857672754,9.333773428465449,0.735402675045275,-0.5844444444444444,-0.4577777777777778,-0.12,0.09441202186506752,0.17005007266381128,0.10575441517390043
1592265248.6942372,3.155023222033218,9.3670877850194,0.8167487242216318,-0.5844444444444444,-0.4577777777777778,-0.12,0.11466161618476456,0.12083015469926592,0.09075909757124553
1592265248.7042372,3.3251662525144954,9.203232753520293,0.4900993965211217,-0.5802666351122155,-0.4544703453897632,-0.11791109533388554,0.09833818206479944,0.20434509427392253,0.02028227586628986
1592265248.7142372,3.03,8.79,0.06,-0.5577777777777778,-0.43666666666666665,-0.10666666666666667,-0.053450708342326333,0.03599741582238304,0.08835729338221293
1592265248.7242372,3.57,9.14,0.9,-0.5577777777777778,-0.43666666666666665,-0.10666666666666667,0.09053895494720585,0.19198621771937624,-0.025089107997418484
1592265248.7342372,2.8690337353888755,9.278985541976196,0.7816713262507655,-0.5577777777777778,-0.43666666666666665,-0.10666666666666667,0.18056361587024403,0.12208036608817602,-0.10855716635629246
1592265248.7442372,3.158325312628585,9.235255559332343,1.3559530922947565,-0.5577777777777778,-0.43666666666666665,-0.10666666666666667,0.11264975944530452,0.016341795336769452,-0.08133543978548484
1592265248.7542372,3.239010285629717,9.304267056385969,1.3863585910907208,-0.5612034433427063,-0.4383794994491309,-0.10574437209149361,0.16254702443778585,0.15998445193135438,-0.07335352700856448
1592265248.7642372,2.86,8.89,0.17,-0.5866666666666667,-0.45111111111111113,-0.09888888888888889,0.23561944901923448,-0.1265363707695889,-0.20507618710933373
1592265248.7742372,3.7188733478762996,9.237746695752598,1.6847889131271654,-0.5866666666666667,-0.45111111111111113,-0.09888888888888889,0.15116411879535224,0.23674093448431358,-0.3625863851021763
1592265248.7842371,3.33169128224801,9.348166778555672,1.043489018893258,-0.5866666666666667,-0.45111111111111113,-0.09888888888888889,0.3082664566588297,0.24411128472091387,-0.22863968032770302
1592265248.7942371,2.81,9.63,0.18,-0.5866666666666667,-0.45111111111111113,-0.09888888888888889,0.3043417883165112,0.2159844949342983,-0.23125612588924865
1592265248.8042371,3.4381414651750273,8.589831589077347,0.32650948313885886,-0.5869619649723102,-0.45029904077059135,-0.10029155584069574,0.36088797340117984,0.0020898076557245952,-0.34270623564078195
1592265248.814237,2.85,9.29,0.98,-0.5911111111111111,-0.4388888888888889,-0.12,0.18980455615438332,0.3839724354387525,-0.17671458676442586
1592265248.824237,2.7291769291605465,9.278773019997741,0.7010275675064964,-0.5911111111111111,-0.4388888888888889,-0.12,0.22629383794139674,0.016271569442554614,-0.3243319926252127
1592265248.834237,3.1437207136204055,9.463632346970458,0.3543526545819302,-0.5911111111111111,-0.4388888888888889,-0.12,0.10280273158787837,0.12557230988959364,-0.4295482474578877
1592265248.844237,3.01,9.47,0.66,-0.5911111111111111,-0.4388888888888889,-0.12,0.15489797111449674,0.0818123086872342,-0.4941463444708945
1592265248.854237,3.160527918781726,9.654791878172588,0.453492385786802,-0.5911111111111111,-0.44326113931190075,-0.12276142131979695,-0.03570062125415051,0.31619806685194984,-0.4853023093145324
1592265248.864237,2.55,9.52,0.62,-0.5911111111111111,-0.46,-0.13333333333333333,-0.05126904677733343,0.20289452554434081,-0.32615840396644036
1592265248.874237,2.751019775008828,9.720332442112698,0.34170710790495884,-0.5911111111111111,-0.46,-0.13333333333333333,-0.005376728754283595,0.0790087970865453,-0.3695084033620707
1592265248.884237,2.4837979768993472,9.31314943683191,0.057290336466030545,-0.5911111111111111,-0.46,-0.13333333333333333,0.03170483743932145,-0.0931702838969627,-0.26055853745929264
1592265248.894237,2.23,8.76,-0.19,-0.5911111111111111,-0.46,-0.13333333333333333,0.0643590161672909,-0.0818123086872342,-0.3883357585687383
1592265248.904237,2.9747891863448004,9.39607281457607,0.5134993093468394,-0.5911111111111111,-0.46,-0.13085213444714858,0.021434900214628114,0.1253723898204967,-0.44812455753504893
1592265248.914237,2.13,9.57,0.0,-0.5911111111111111,-0.46,-0.11888888888888889,0.07744898555724837,0.025089107997418484,-0.32615840396644036
1592265248.924237,2.7641216986017607,9.621489901605386,0.6903500776799586,-0.5911111111111111,-0.46,-0.11888888888888889,-0.04315475710370366,-0.04193004393101991,-0.3693520265066203
1592265248.934237,2.3964436484277334,9.196356380421195,0.29355635157226656,-0.5911111111111111,-0.46,-0.11888888888888889,-0.06533878655061742,-0.01865835685587168,-0.4835490057636058
1592265248.944237,2.55,9.41,0.14,-0.5911111111111111,-0.46,-0.11888888888888889,-0.14180800172453928,0.05999569303730508,-0.2694352032766246
1592265248.954237,2.536060571297465,9.441090971664563,0.48430308592405646,-0.5871851936828419,-0.4619629587141346,-0.11763973334353052,-0.1082004776406118,-0.025214746876118316,-0.45773572189804645
1592265248.964237,2.5771838756896748,9.250038283977029,0.4927204143677514,-0.5666666666666667,-0.4722222222222222,-0.1111111111111111,-0.13341360377744377,0.03195590067011828,-0.4349823162492953
1592265248.974237,2.56539733320879,9.276401466501646,0.721213600168134,-0.5666666666666667,-0.4722222222222222,-0.1111111111111111,-0.078069711907758,-0.0044317691125785414,-0.2925936862399215
1592265248.984237,2.8503804919066638,9.677547561488332,0.4399792411183519,-0.5666666666666667,-0.4722222222222222,-0.1111111111111111,-0.06291991982857909,0.0177740121338111,-0.2968467122531115
1592265248.994237,2.79,9.67,0.84,-0.5666666666666667,-0.4722222222222222,-0.1111111111111111,-0.031634092692397225,0.1832595714594046,-0.3610649890063269
1592265249.004237,2.2557886138766454,9.35134759424221,0.7837672225133311,-0.5666666666666667,-0.4722222222222222,-0.1111111111111111,0.007214855597166475,0.01252866713421677,-0.42138309292959686
1592265249.014237,2.53,9.69,0.7,-0.5666666666666667,-0.4777777777777778,-0.11666666666666667,0.020725784867432664,0.13744467859455345,-0.3567016658763411
1592265249.024237,1.6401584932287567,9.13722338317909,0.558095095937254,-0.5666666666666667,-0.4777777777777778,-0.11666666666666667,0.06629798142715976,0.15264715383240576,-0.4333457392794034
1592265249.034237,1.6193380840786264,9.580437371466832,0.6494444975847721,-0.5666666666666667,-0.4777777777777778,-0.11666666666666667,-0.025808589910537652,0.18179739180753085,-0.5453419092473123
1592265249.044237,1.76,9.7,0.98,-0.5666666666666667,-0.4777777777777778,-0.11666666666666667,-0.011999138607461015,0.1679879405044542,-0.6305001922829515
1592265249.054237,1.7507567143697313,9.598323858067046,0.46237600470495976,-0.5666666666666667,-0.4777777777777778,-0.11666666666666667,0.03438201967829792,0.03791904009439112,-0.5105141523697925
1592265249.0642369,2.39,9.47,0.46,-0.5722222222222222,-0.4922222222222222,-0.13111111111111112,-0.11453723216212788,-0.031634092692397225,-0.4777838827334477
1592265249.0742369,2.387791037571402,9.602208962428598,0.32911260693502103,-0.5722222222222222,-0.4922222222222222,-0.13111111111111112,-0.14735895520416686,-0.11215103068372309,-0.49801472898603266
1592265249.0842369,2.376962391513983,9.455905255544842,0.4877278206364513,-0.5722222222222222,-0.4922222222222222,-0.13111111111111112,-0.11038731529540045,0.023933321765723232,-0.4604816708028352
1592265249.0942369,2.08,9.3,0.51,-0.5722222222222222,-0.4922222222222222,-0.13111111111111112,-0.05126904677733343,0.07090400086226964,-0.5552328682906961
1592265249.1042368,1.297121016491578,9.603941252420917,0.7586792065262046,-0.5722222222222222,-0.4922222222222222,-0.13111111111111112,-0.001034429472596854,-0.023537079670635133,-0.4035243240303916
1592265249.1142368,1.6,9.48,0.62,-0.54,-0.48444444444444446,-0.13777777777777778,-0.025089107997418484,-0.10799224746714915,-0.3610649890063269
1592265249.1242368,1.5854484722065623,9.957464764911489,0.6797034614950952,-0.54,-0.48444444444444446,-0.13777777777777778,-0.03959577987561425,0.047354496769191554,-0.3357809975525023
1592265249.1342368,1.47,9.62,0.36,-0.54,-0.48444444444444446,-0.13777777777777778,0.001090830782496456,-0.12217304763960307,-0.25634523388666713
1592265249.1442368,0.8885597959383891,8.42455822623369,0.11737251054645345,-0.54,-0.48444444444444446,-0.13777777777777778,0.31171348426379886,-0.3979973965269848,-0.2813744762174783
1592265249.1542368,3.316340625919749,10.169268517610124,-0.3105752967722947,-0.54,-0.48444444444444446,-0.13777777777777778,-0.240389332155372,-0.0685311629890405,-0.5381247290563123
1592265249.1642368,1.52,8.91,1.2,-0.56,-0.5044444444444445,-0.13777777777777778,0.2694352032766246,-0.0818123086872342,-0.46687557490848314
1592265249.1742368,1.94,9.32997515086972,0.5553248136315229,-0.56,-0.5044444444444445,-0.13777777777777778,0.21984596620268831,0.12269929507780422,-0.603829244119932
1592265249.1842368,1.8241592920353982,9.704867256637169,0.39952802359882006,-0.56,-0.5044444444444445,-0.13777777777777778,0.10816600812276807,0.08164176582153418,-0.4807024181898615
1592265249.1942368,1.3505101599654128,10.337516933275689,0.4850956549935149,-0.56,-0.5044444444444445,-0.13777777777777778,-0.02443608723499014,0.2105094723395309,-0.5181585341406733
1592265249.2042367,0.9878383052313013,9.733063842052168,0.417094682230869,-0.56,-0.5044444444444445,-0.13777777777777778,0.02831239584355011,0.22534498320537033,-0.508268193563447
1592265249.2142367,1.1,9.94,0.69,-0.56,-0.5255555555555556,-0.13777777777777778,-0.031634092692397225,0.1636246173744684,-0.41887902047863906
1592265249.2242367,0.9103953652677689,9.331581461071075,0.6242936272431822,-0.56,-0.5255555555555556,-0.13777777777777778,-0.11459272164661265,0.04766993715866842,-0.5031317566935135
1592265249.2342367,1.0261186821594224,9.819885717018122,0.8278824176349638,-0.56,-0.5255555555555556,-0.13777777777777778,-0.053964957884937756,0.01941702786635111,-0.5927320346538363
1592265249.2442367,0.9,9.41,0.82,-0.56,-0.5255555555555556,-0.13777777777777778,0.05781403147231216,-0.009817477042468103,-0.5617778529856748
1592265249.2542367,1.255737231440276,9.765737231440276,0.6906410067489905,-0.56,-0.5255555555555556,-0.13777777777777778,-0.17236965257692888,-0.05567782788752761,-0.5723610108729963
1592265249.2642367,1.23,9.53,1.09,-0.54,-0.5288888888888889,-0.13777777777777778,-0.06872233929727672,0.053450708342326333,-0.5006913291658732
1592265249.2742367,0.9968123499710289,9.478982700107606,0.6925119333388516,-0.54,-0.5288888888888889,-0.13777777777777778,0.2081067240817027,-0.10700197308573209,-0.4254075718318072
1592265249.2842367,0.8,10.21,0.73,-0.54,-0.5288888888888889,-0.13777777777777778,0.09053895494720585,0.00545415391248228,-0.5879577917655897
1592265249.2942367,0.6321017991211303,9.229069501645418,0.7772358957179735,-0.54,-0.5288888888888889,-0.13777777777777778,0.11069394901718425,-0.09634836454657246,-0.48958777795711433
1592265249.3042367,0.9048507300924192,9.658855695903206,1.1656964943740515,-0.54,-0.5288888888888889,-0.13777777777777778,0.12241454928189419,0.06774003915936665,-0.657282520206041
1592265249.3142366,0.9,9.85,0.83,-0.5188888888888888,-0.5555555555555556,-0.16666666666666666,0.17889624832941878,0.0839939702522271,-0.559596191420682
1592265249.3242366,0.6990022638175694,10.136850532825354,0.7464137816796422,-0.5188888888888888,-0.5555555555555556,-0.16666666666666666,0.10980879301405948,0.13818292125929085,-0.5254368835890352
1592265249.3342366,0.25,9.6,0.6,-0.5188888888888888,-0.5555555555555556,-0.16666666666666666,0.09490227807719166,-0.009817477042468103,-0.46687557490848314
1592265249.3442366,0.7282044809088041,9.690842537077943,0.6369106973808772,-0.5188888888888888,-0.5555555555555556,-0.16666666666666666,0.16699004891768954,0.0878058541542043,-0.6015816452021399
1592265249.3542366,0.38077508677816346,9.715658922372988,0.5459172846323761,-0.5188888888888888,-0.5555555555555556,-0.16666666666666666,0.009078933141941081,0.07156356796012733,-0.4887879910766052
1592265249.3642366,0.52,10.16,0.73,-0.5133333333333333,-0.5633333333333334,-0.14555555555555555,-0.05999569303730508,0.05563236990731925,-0.3883357585687383
1592265249.3742366,0.30080281189310426,10.094425449273777,0.49561968325173006,-0.5133333333333333,-0.5633333333333334,-0.14555555555555555,-0.08674594663919648,0.030853602208288186,-0.5129581105458115
1592265249.3842366,0.35,9.14,0.84,-0.5133333333333333,-0.5633333333333334,-0.14555555555555555,0.011999138607461015,0.11671889372712078,-0.4625122517784973
1592265249.3942366,0.5164159050074213,9.99815014451996,0.41474025466760406,-0.5133333333333333,-0.5633333333333334,-0.14555555555555555,-0.11876182609018382,0.03511459362828389,-0.23218939506586775
1592265249.4042366,0.00855206624482463,9.736026872900554,1.0864311381923288,-0.5133333333333333,-0.5633333333333334,-0.14555555555555555,-0.09910399191266889,-0.08998071477408388,-0.3644330068055137
1592265249.4142365,0.7,9.98,0.43,-0.5066666666666667,-0.57,-0.14555555555555555,-0.11453723216212788,-0.07526732399225547,-0.33488505022641196
1592265249.4242365,-0.09351660336203982,9.643922379752548,0.8967744725659057,-0.5066666666666667,-0.57,-0.14555555555555555,-0.07787685081472039,-0.13738630349758485,-0.2798944782053007
1592265249.4342365,0.1386630198504646,9.721860831760743,0.7793901535962545,-0.5066666666666667,-0.57,-0.14555555555555555,-0.009455855811321606,-0.08368352527832025,-0.3131383719870893
1592265249.4442365,0.06089182479470843,9.59927015155987,0.5860807972083818,-0.5066666666666667,-0.57,-0.14555555555555555,-0.05891075188126226,0.03178154166850037,-0.25475904953777845
1592265249.4542365,0.1555532022013507,9.766747973125467,0.9865712400826374,-0.5066666666666667,-0.57,-0.14555555555555555,-0.06844240213252503,-0.02381975146386573,-0.3357780766735119
1592265249.4642365,-0.01,9.57,0.73,-0.4922222222222222,-0.5822222222222222,-0.15222222222222223,-0.13744467859455345,-0.08617563181722002,-0.29779680362153244
1592265249.4742365,0.10280959938440822,9.52299283412687,0.8699389217525129,-0.4922222222222222,-0.5822222222222222,-0.15222222222222223,-0.10559738259815653,-0.11589273092412197,-0.23626572153448355
1592265249.4842365,0.5576886703234349,10.008988793266502,0.855521798751655,-0.4922222222222222,-0.5822222222222222,-0.15222222222222223,-0.07287374270578124,0.01822896460747789,-0.34029546361952806
1592265249.4942365,0.39929275023300864,9.938679800434949,0.5507543997514575,-0.4922222222222222,-0.5822222222222222,-0.15222222222222223,-0.20703154499474735,-0.002974182951680289,-0.2633531124716944
1592265249.5042365,0.2843153200899139,9.72405526416784,0.6733969919040919,-0.4922222222222222,-0.5822222222222222,-0.15222222222222223,-0.17024140843430308,0.04552190615072351,-0.3386056645271486
1592265249.5142365,0.17747158622961623,9.573874155822764,0.861937077911382,-0.48444444444444446,-0.5733333333333334,-0.14555555555555555,-0.19978536134399183,-0.13457700287578497,-0.3222040300805596
1592265249.5242364,0.4383959676474036,9.709708357754074,0.9301458211229634,-0.48444444444444446,-0.5733333333333334,-0.14555555555555555,-0.08945730499347311,-0.03273410430365739,-0.18190750901723868
1592265249.5342364,0.3302320947133982,9.6900421990388,0.9399789004806001,-0.48444444444444446,-0.5733333333333334,-0.14555555555555555,-0.016518970573195943,0.040204230116619756,-0.09073459099189224
1592265249.5442364,0.416602368088286,9.940184618921714,0.9784899413725715,-0.48444444444444446,-0.5733333333333334,-0.14555555555555555,0.008829145981964132,0.12328311436209664,-0.2836746141293567
1592265249.5542364,0.27238582692344765,9.988845835020145,0.9100774969637384,-0.48444444444444446,-0.5733333333333334,-0.14555555555555555,0.01151244634693824,0.07483980698324975,-0.23955525514021458
1592265249.5642364,-0.34408344561419535,10.699501244604809,1.4030930142273172,-0.4711111111111111,-0.5866666666666667,-0.14555555555555555,-0.15292284721918523,-0.4098561068799242,0.05318460830764578
1592265249.5742364,1.0427402893753606,9.421970962160536,1.6761894731562978,-0.4711111111111111,-0.5866666666666667,-0.14555555555555555,0.027514434664607502,0.05767786567990846,-0.0448602278747584
1592265249.5842364,-1.1051106242111028,10.000658029483912,0.5450922860749244,-0.4711111111111111,-0.5866666666666667,-0.14555555555555555,0.09973654789381199,0.013169127297844457,-0.08526325054876219
1592265249.5942364,-0.11,9.65,1.0,-0.4711111111111111,-0.5866666666666667,-0.14555555555555555,0.06872233929727672,-0.044724062082354694,-0.06872233929727672
1592265249.6042364,-0.324989102005231,9.610911072362684,1.032574106364429,-0.4711111111111111,-0.5866666666666667,-0.14555555555555555,0.023240306740946723,0.007864538060901864,0.04924668264570421
1592265249.6142364,-0.32,9.8,0.89,-0.46555555555555556,-0.5811111111111111,-0.15222222222222223,0.02945243112740431,-0.001090830782496456,-0.07526732399225547
1592265249.6242363,-0.30278654515818326,9.756966362895458,0.9330336371045417,-0.46555555555555556,-0.5811111111111111,-0.15222222222222223,0.04447400425905737,0.021441528914983125,-0.09404429040682177
1592265249.6342363,-0.3850105138163917,9.768891225292531,0.7699789723672167,-0.46555555555555556,-0.5811111111111111,-0.15222222222222223,0.09636283581095309,0.029210534011052277,-0.041444688458128404
1592265249.6442363,-0.2956690743204714,9.788866185135905,0.7505669074320471,-0.46555555555555556,-0.5811111111111111,-0.15222222222222223,0.07662780416320215,0.06649609901754579,0.0029805536016701342
1592265249.6542363,-0.31945201399746853,9.767910989501898,0.7352739930012657,-0.46555555555555556,-0.5811111111111111,-0.15222222222222223,0.060810100428525624,0.0574778320810424,0.011879586607473316
1592265249.6642363,-0.2755639392454679,9.778145353584843,0.8116540911317981,-0.47059593155134555,-0.5982483894967972,-0.15222222222222223,-0.029479724166090973,-0.04353749188086205,-0.03926167750154785
1592265249.6742363,-0.32596813053123735,9.845296152286442,0.8106719782447939,-0.4711111111111111,-0.6,-0.15222222222222223,0.049328444737853916,-0.03717023910972543,-0.1576698173835235
1592265249.6842363,-0.38569140986406664,9.812872393423955,0.800718098355989,-0.4711111111111111,-0.6,-0.15222222222222223,0.07588233797410279,-0.013722450948921147,-0.053418956168812634
1592265249.6942363,-0.40846591852712993,9.726903366627916,0.9384943889534745,-0.4711111111111111,-0.6,-0.15222222222222223,0.03313396237302546,-0.020056415550047002,-0.12227535265474479
1592265249.7042363,-0.3050891647243753,9.685029721574791,1.0269346125354581,-0.4711111111111111,-0.6,-0.15222222222222223,0.061495622317502927,0.021998470052698824,-0.11422230298668005
1592265249.7142363,-0.3,9.73,0.99,-0.44555555555555554,-0.5933333333333334,-0.14555555555555555,0.04036073895236887,-0.04036073895236887,0.03381575425739013
1592265249.7242362,-0.32232775999051344,9.782098106644533,0.8858037867109372,-0.44555555555555554,-0.5933333333333334,-0.14555555555555555,0.061469105800634416,0.024588082119217425,-0.037627948921354785
1592265249.7342362,-0.3210067437379576,9.72805394990366,0.778053949903661,-0.44555555555555554,-0.5933333333333334,-0.14555555555555555,0.09226662913451236,-0.033537266629874184,-0.05040520968368017
1592265249.7442362,-0.40100789342688503,9.729000877047433,0.8060035081897268,-0.44555555555555554,-0.5933333333333334,-0.14555555555555555,0.09882965157831339,-0.036651340265679205,-0.11879826485725094
1592265249.7542362,-0.3898163239830947,9.743455784011271,0.81,-0.44555555555555554,-0.5933333333333334,-0.14555555555555555,0.117613080459824,0.019778921105662296,-0.1265363707695889
1592265249.7642362,-0.39821649166151946,9.75910824583076,0.7826752625077208,-0.45263974675725754,-0.5994054972205065,-0.15871191064443071,-0.011567842712065374,-0.18657981713098873,0.14967205619371965
1592265249.7742362,-0.371703515076513,9.816592969846974,0.7422713534353507,-0.4533333333333333,-0.6,-0.16,-0.01274243728102389,0.0714472485586575,0.027525648941324532
1592265249.7842362,-0.43286301307664365,9.757136986923356,0.6861174173628769,-0.4533333333333333,-0.6,-0.16,0.17706616968803424,-0.06642156004104227,0.04401406120753238
1592265249.7942362,-0.44,9.793502299865262,0.6712995400269479,-0.4533333333333333,-0.6,-0.16,0.16056828417242097,-0.0023736960320690226,0.0488038695594443
1592265249.8042362,-0.3816413650391566,9.774062828906292,0.6959371710937082,-0.4533333333333333,-0.6,-0.16,0.10892174107466873,-0.06374449102125672,0.07879510308422938
1592265249.8142362,-0.35,9.828268345102856,0.6758658274485724,-0.4685040766895234,-0.5943109712414287,-0.14767377102309556,0.07654704902139853,0.0676502639718941,-0.020525001000651383
1592265249.8242362,-0.19401800327332241,9.79412294213921,0.651649176855685,-0.4711111111111111,-0.5933333333333334,-0.14555555555555555,0.09528496676222267,-0.04904485257857609,-0.06037838172233608
1592265249.8342361,-0.2785020807662799,9.798954734615117,0.5873168576941854,-0.4711111111111111,-0.5933333333333334,-0.14555555555555555,0.005263798069983075,-0.15888154625812725,-0.15888154625812725
1592265249.8442361,-0.33300891257408005,9.765592869940736,0.648814260118528,-0.4711111111111111,-0.5933333333333334,-0.14555555555555555,-0.0017009182518818492,-0.05288098767568368,-0.002212306257577845
1592265249.8542361,-0.3209994170950135,9.785334110539983,0.698001165809973,-0.4711111111111111,-0.5933333333333334,-0.14555555555555555,-0.012144921832168558,-0.08977709019635516,0.016798539710164408
1592265249.864236,-0.32708203991130824,9.791458980044345,0.7541640798226165,-0.46636610002463663,-0.605670362158167,-0.14555555555555555,0.14450000762458043,-0.003849592623994133,-0.04017498328918545
1592265249.874236,-0.34777468577524234,9.772225314224757,0.7688873428876212,-0.46555555555555556,-0.6077777777777778,-0.14555555555555555,0.06280242831491539,-0.0010877952161057608,-0.11985787174619271
1592265249.884236,-0.40127102072741494,9.735819319515057,0.7101838091513492,-0.46555555555555556,-0.6077777777777778,-0.14555555555555555,0.030444715992514502,-0.09275730460265426,-0.08677202658997327
1592265249.894236,-0.528192505510654,9.73844232182219,0.7844232182218956,-0.46555555555555556,-0.6077777777777778,-0.14555555555555555,0.05121454531281487,0.0006756578616050751,-0.033584924525311526
1592265249.904236,-0.5688756070227867,9.733708130992405,0.7748325239696178,-0.46555555555555556,-0.6077777777777778,-0.14555555555555555,0.04053296824289378,0.012489747595927856,0.13345460947904905
1592265249.914236,-0.5255641564377603,9.761106196321279,0.7366703527590401,-0.4595071284930845,-0.6077777777777778,-0.13950712849308447,0.08083490757916077,0.02460161371429021,0.012275455063552848
1592265249.924236,-0.4239588374823298,9.787208232503533,0.73,-0.4577777777777778,-0.6077777777777778,-0.13777777777777778,-0.013971086340632016,-0.06252679053592948,0.17710641500055174
1592265249.934236,-0.3266812771062102,9.773336255421242,0.6133537879486942,-0.4577777777777778,-0.6077777777777778,-0.13777777777777778,-0.0025503718313290326,-0.013828346173661701,0.13745806610900135
1592265249.944236,-0.35170511341791616,9.786682045367165,0.59,-0.4577777777777778,-0.6077777777777778,-0.13777777777777778,-0.07133639091869172,-0.064781340887773,0.037555655642592806
1592265249.954236,-0.4047733703291287,9.802792391522608,0.5772076084773917,-0.4577777777777778,-0.6077777777777778,-0.13777777777777778,-0.04570806189885759,-0.011863613620592017,-0.014160051269086676
