time,acc_x,acc_y,acc_z,mag_x,mag_y,mag_z,gyr_x,gyr_y,gyr_z
1592265292.1641958,-0.424254472693032,9.74,0.5770178907721281,-0.3333333333333333,-0.5366666666666666,0.19111111111111112,0.008199668168672396,-0.002066723745255291,-0.0061503032183551215
1592265292.1741958,-0.43336557653922925,9.74,0.6134623061569169,-0.3333333333333333,-0.5366666666666666,0.19111111111111112,-0.018354195142244602,-0.03199284588387694,0.06352544257532333
1592265292.1841958,-0.4544235470517292,9.747211773525864,0.6279803774568924,-0.33653856601149534,-0.5396047966216485,0.18790587843294906,0.019152419955751444,-0.06542755316900489,-0.0744271293512831
1592265292.1941957,-0.5,9.79619615375606,0.563803846243939,-0.3466666666666667,-0.5488888888888889,0.17777777777777778,0.0037030908424093793,-0.05164866948318594,0.04306432105244582
1592265292.2041957,-0.5251708209252702,9.825804863179123,0.5006340422538514,-0.3466666666666667,-0.5488888888888889,0.17777777777777778,-0.017139372052065626,-0.15231174016627064,0.05323784709131372
1592265292.2141957,-0.5947821100917432,9.823864678899083,0.4986467889908257,-0.3466666666666667,-0.5488888888888889,0.17777777777777778,-0.031486480269995176,-0.07571016125946159,0.05533714506251517
1592265292.2241957,-0.66953469776297,9.824418657782008,0.5851160399809615,-0.3466666666666667,-0.5488888888888889,0.17777777777777778,-0.0533998271349562,-0.10981823900870492,0.030974879923277708
1592265292.2341957,-0.7213014464063348,9.806095660780995,0.6591101248443437,-0.34840192854177976,-0.5488888888888889,0.17864540871533433,-0.06631498139872982,-0.2276535874836177,-0.05972632028364667
1592265292.2441957,-0.6959706467892032,9.76979119403676,0.7472234825686375,-0.36,-0.5488888888888889,0.18444444444444444,0.06859921112246649,-0.12306135833145594,0.08233189140357863
1592265292.2541957,-0.5540544722235866,9.74339604106292,0.7504703079719044,-0.36,-0.5488888888888889,0.18444444444444444,-0.011999138607461015,-0.22706830333532588,0.16570045886993773
1592265292.2641957,-0.3847813683282328,9.72619534208206,0.6538046579179418,-0.36,-0.5488888888888889,0.18444444444444444,0.0137323368298497,-0.20915021007899462,-0.048874300056114484
1592265292.2741957,-0.36,9.72,0.66,-0.36,-0.5488888888888889,0.18444444444444444,0.05563236990731925,-0.11453723216212788,-0.05563236990731925
1592265292.2841957,-0.30685882143492965,9.75685882143493,0.6166487448816094,-0.3618732023816588,-0.545945285146282,0.1914020532906059,0.008481524911624308,-0.1862517531158747,-0.021684985757748933
1592265292.2941957,-0.36,9.81,0.48,-0.36777777777777776,-0.5366666666666666,0.21333333333333335,0.14180800172453928,-0.05126904677733343,0.05781403147231216
1592265292.3041956,-0.44975146739992594,9.87361376976363,0.2766347628364444,-0.36777777777777776,-0.5366666666666666,0.21333333333333335,0.01197825759940942,-0.12530998648178512,0.11339840967051835
1592265292.3141956,-0.52,9.88,0.2,-0.36777777777777776,-0.5366666666666666,0.21333333333333335,-0.038179077387375956,-0.1636246173744684,0.07090400086226964
1592265292.3241956,-0.594725526574266,9.947307868601985,0.22741765797227984,-0.36777777777777776,-0.5366666666666666,0.21333333333333335,0.08489268243636137,-0.2083367032943524,0.13523332662279916
1592265292.3341956,-0.6911377811377811,9.997651357651357,0.25704592704592705,-0.36281953281953283,-0.5395372295372295,0.20811412811412813,-0.03710645804300472,-0.20444765196558567,0.1846043315395338
1592265292.3441956,-0.76,9.99,0.28,-0.3466666666666667,-0.5488888888888889,0.19111111111111112,-0.11890055529211369,-0.1810779098944117,0.07526732399225547
1592265292.3541956,-0.7649500775494378,9.964019968980224,0.3620599069406747,-0.3466666666666667,-0.5488888888888889,0.19111111111111112,-0.002330122830854202,-0.25549745026911524,0.27889728265914987
1592265292.3641956,-0.7387680222028836,9.953061598889855,0.33836959333913497,-0.3466666666666667,-0.5488888888888889,0.19111111111111112,-0.1133872121937712,-0.1727978892726953,0.33550352205751155
1592265292.3741956,-0.5719820614339595,9.941321374289307,0.3916741410691836,-0.3466666666666667,-0.5488888888888889,0.19111111111111112,-0.26893560674914124,-0.2120297855980748,0.2673402874541536
1592265292.3841956,-0.47955922087349273,9.877796104367464,0.4335262330120579,-0.3466666666666667,-0.5483501588453801,0.1897887737315894,-0.31344098955881794,-0.2617784483527459,0.3373251115984938
1592265292.3941956,-0.47,9.83,0.51,-0.3466666666666667,-0.5366666666666666,0.16111111111111112,-0.22689280275926282,-0.37960911230876665,0.29561514205653955
1592265292.4041955,-0.40579486614520216,9.851307700782197,0.5513077007821968,-0.3466666666666667,-0.5366666666666666,0.16111111111111112,-0.1541512020848137,-0.08941171106268267,0.3595154492784973
1592265292.4141955,-0.42,9.83,0.53,-0.3466666666666667,-0.5366666666666666,0.16111111111111112,-0.07744898555724837,-0.2203478180642841,0.3610649890063269
1592265292.4241955,-0.429068814526172,9.86,0.6087213272807617,-0.3466666666666667,-0.5366666666666666,0.16111111111111112,-0.12805852953152186,-0.2531606898531805,0.432933222405376
1592265292.4341955,-0.32804872389791184,9.85916373881339,0.6530662910175672,-0.34651180348396127,-0.536821529849372,0.16176153647847386,-0.13763478758541742,-0.16684012764329637,0.45158094864767706
1592265292.4441955,-0.2571616938931641,9.81580846946582,0.7798681427478511,-0.3411111111111111,-0.5422222222222223,0.18444444444444444,-0.21910937339569042,-0.2090867488873093,0.232746648145175
1592265292.4541955,-0.2223407164342357,9.777234071643424,0.8051066447908121,-0.3411111111111111,-0.5422222222222223,0.18444444444444444,-0.17887342947383744,-0.19876356696988265,0.3149477835907347
1592265292.4641955,-0.15,9.77,0.74,-0.3411111111111111,-0.5422222222222223,0.18444444444444444,-0.0818123086872342,-0.1308996938995747,0.4625122517784973
1592265292.4741955,0.007871836272515675,9.685903877204387,0.828032040931871,-0.3411111111111111,-0.5422222222222223,0.18444444444444444,-0.10092061537054323,-0.1299711072979218,0.4483040487400275
1592265292.4841955,0.043821943705363395,9.711273981235122,0.8276438874107267,-0.3411111111111111,-0.5415144548693772,0.1871339603852557,-0.023630746216086226,-0.14732493836375535,0.36094106568014006
1592265292.4941955,0.07,9.72,0.88,-0.3411111111111111,-0.5366666666666666,0.20555555555555555,-0.08835729338221293,-0.17016960206944715,0.46469391334349025
1592265292.5041955,0.06335215778826703,9.748863789615644,0.8734086311530681,-0.3411111111111111,-0.5366666666666666,0.20555555555555555,-0.07213109354797409,-0.10137949959898261,0.4355640238871073
1592265292.5141954,0.04,9.78,0.78,-0.3411111111111111,-0.5366666666666666,0.20555555555555555,-0.053450708342326333,-0.1854412330243975,0.48651052899341934
1592265292.5241954,0.04359180018299687,9.774612299725504,0.882571300640489,-0.3411111111111111,-0.5366666666666666,0.20555555555555555,0.02962159728492503,-0.14042793631168476,0.43448898374863093
1592265292.5341954,0.05992251834835595,9.750116222477466,0.9397288142192458,-0.3411111111111111,-0.5366666666666666,0.20555555555555555,0.040310027329953674,-0.06471822349273189,0.4558658438386882
1592265292.5441954,0.18829823471196117,9.717712720661005,0.9531381619830146,-0.38,-0.5222222222222223,0.19111111111111112,-0.00793723816556128,0.01668778534166302,0.3606418021971999
1592265292.5541954,0.27049033372934445,9.705446592504591,0.9163397775137704,-0.38,-0.5222222222222223,0.19111111111111112,0.04701269787248064,0.0671061802440003,0.43635139870835277
1592265292.5641954,0.35263282507813243,9.686841793730466,0.8731582062695331,-0.38,-0.5222222222222223,0.19111111111111112,0.058043272262761986,-0.0018957562528839102,0.4827222448674178
1592265292.5741954,0.4002648440837249,9.672400683468602,0.9027979495941905,-0.38,-0.5222222222222223,0.19111111111111112,0.06014014307684967,-0.01953383905725499,0.5122678349156989
1592265292.5841954,0.4506137281292059,9.6523465679677,0.9723465679676985,-0.38,-0.5222222222222223,0.19032892178854494,0.09924787337178227,-0.0021028956545205914,0.5334339804761621
1592265292.5941954,0.38,9.67,0.99,-0.38,-0.5222222222222223,0.18444444444444444,0.148352986419518,-0.042542400517361786,0.48432886742842646
1592265292.6041954,0.3287478817548484,9.68093485219356,0.9959433251741668,-0.38,-0.5222222222222223,0.18444444444444444,0.1802584004193296,-0.02924847801744028,0.49397699971846215
1592265292.6141953,0.39308166883347123,9.74067604302092,0.9079323956979081,-0.38,-0.5222222222222223,0.18444444444444444,0.2180794934036767,-0.0004271270987366467,0.4656046880722301
1592265292.6241953,0.5231397438777803,9.82,0.9,-0.38,-0.5222222222222223,0.18444444444444444,0.2864192988670938,0.06922915530675834,0.44233978598524604
1592265292.6341953,0.5388452033250956,9.82,0.9,-0.38,-0.5222222222222223,0.18444444444444444,0.2949852981762843,0.02811235862264344,0.5596939765211573
1592265292.6441953,0.5969238392925211,9.74538410713832,0.8507616070747884,-0.4066666666666667,-0.51,0.17555555555555555,0.25030484609478576,0.08835729338221293,0.5938284189996198
1592265292.6541953,0.62,9.73,0.62,-0.4066666666666667,-0.51,0.17555555555555555,0.284706834231575,0.08835729338221293,0.5006913291658732
1592265292.6641953,0.6461300039412196,9.691034007094196,0.49528799054107314,-0.4066666666666667,-0.51,0.17555555555555555,0.4276652107081862,0.0749418128640965,0.586352960486572
1592265292.6741953,0.7105437144926984,9.786434971594158,0.377673771304381,-0.4066666666666667,-0.51,0.17555555555555555,0.2431235013549493,-0.0018685993276096493,0.5567159522897146
1592265292.6841953,0.7907398359797593,9.85,0.3295376025126505,-0.4067180441652611,-0.5101130304969077,0.17563775955330657,0.19156252389249837,0.011918435021389038,0.48756976356061404
1592265292.6941953,0.87,9.85,0.28,-0.4122222222222222,-0.5222222222222223,0.18444444444444444,0.1461713248545251,0.0032724923474893677,0.6010477611555471
1592265292.7041953,0.8584650238473768,9.802325119236885,0.2877201907790143,-0.4122222222222222,-0.5222222222222223,0.18444444444444444,0.192138829975115,0.06707759539565568,0.5349083842866492
1592265292.7141953,0.8785845010008578,9.779056334000572,0.2509665427509294,-0.4122222222222222,-0.5222222222222223,0.18444444444444444,0.21452339931370537,-0.021976013570963057,0.5919633273898497
1592265292.7241952,0.97,9.84,0.35,-0.4122222222222222,-0.5222222222222223,0.18444444444444444,0.1679879405044542,-0.04690572364734761,0.6326818538479445
1592265292.7341952,0.9779846910578092,9.808061235768763,0.40589283740466453,-0.4122222222222222,-0.5222222222222223,0.18444444444444444,0.12356721185208352,-0.038195776852765116,0.6126489762204048
1592265292.7441952,1.0246366248011587,9.799147890500723,0.4208521094992759,-0.4311111111111111,-0.5222222222222223,0.20555555555555555,0.09518390142838393,0.054557984851143104,0.7675566222424376
1592265292.7541952,1.0815036219619525,9.831503621961952,0.3477137634554194,-0.4311111111111111,-0.5222222222222223,0.20555555555555555,0.1806633188705856,0.1246546858235453,0.6980463307899757
1592265292.7641952,1.0486556434219987,9.792473040977713,0.18752695902228614,-0.4311111111111111,-0.5222222222222223,0.20555555555555555,0.2771188553304709,0.03479601196991391,0.6950638862606174
1592265292.7741952,1.116636493568366,9.808103858980468,0.16715578847070034,-0.4311111111111111,-0.5222222222222223,0.20555555555555555,0.06872233929727672,-0.14964337843139924,0.8240106628298943
1592265292.7841952,1.1684426446455984,9.793302101529829,0.14495315229474354,-0.4311111111111111,-0.5222222222222223,0.20555555555555555,0.06872233929727672,-0.07456348955215969,0.7933328587717104
1592265292.7941952,1.41,9.79,0.14,-0.42444444444444446,-0.4888888888888889,0.1988888888888889,0.06872233929727672,-0.062177354602297986,0.8661196413021861
1592265292.8041952,1.5051471033438832,9.693995046098802,0.1748528966561167,-0.42444444444444446,-0.4888888888888889,0.1988888888888889,0.04048370696902239,-0.1408776357977589,0.798579007832916
1592265292.8141952,1.587123487493424,9.625827155770242,0.1408642211487876,-0.42444444444444446,-0.4888888888888889,0.1988888888888889,0.003978149106016654,-0.1822778028869999,0.7728657390155036
1592265292.8241951,1.69,9.61,0.22,-0.42444444444444446,-0.4888888888888889,0.1988888888888889,-0.05126904677733343,-0.11235557059713495,0.803942286699888
1592265292.8341951,1.754042675719092,9.585983996605341,0.34808535143818387,-0.42444444444444446,-0.4888888888888889,0.1988888888888889,0.016844182238794803,-0.12021478932976515,0.7690124256659762
1592265292.8441951,1.81,9.54,0.41,-0.4577777777777778,-0.48333333333333334,0.17,0.02945243112740431,-0.17453292519943295,0.5988660995905543
1592265292.854195,1.8913677961268245,9.52712259870894,0.3638838047338812,-0.4577777777777778,-0.48333333333333334,0.17,0.026713377741111394,-0.24686408667325643,0.5555312751145599
1592265292.864195,2.066973356426012,9.547939215639754,0.17377185698355835,-0.4577777777777778,-0.48333333333333334,0.17,0.028241256727298693,-0.06891807236823976,0.5790304175275156
1592265292.874195,2.160719828739631,9.447295691731336,0.18171206850414773,-0.4577777777777778,-0.48333333333333334,0.17,0.16772692340900108,-0.16000832505490936,0.5390698911014853
1592265292.884195,2.272956917313353,9.649322451164036,0.13681723307465882,-0.4577777777777778,-0.48333333333333334,0.17,0.036316929703710504,-0.14041925767026978,0.581512870434871
1592265292.894195,2.2,9.52,0.08,-0.48333333333333334,-0.4688888888888889,0.18222222222222223,0.0272707695624114,-0.15271630954950383,0.4941463444708945
1592265292.904195,2.4478467493960028,9.69647649901164,-0.027063749176367228,-0.48333333333333334,-0.4688888888888889,0.18222222222222223,-0.009134180448644275,-0.150321117798941,0.38210741547993504
1592265292.914195,2.3384788498620908,9.515436549586273,0.1291269008274549,-0.48333333333333334,-0.4688888888888889,0.18222222222222223,0.02907146974597056,-0.14261311147096042,0.49512329687567275
1592265292.924195,2.33,9.49,0.18,-0.48333333333333334,-0.4688888888888889,0.18222222222222223,0.05126904677733343,-0.15926129424448257,0.42760566673861067
1592265292.934195,2.33,9.49,0.3555459083345939,-0.48333333333333334,-0.4688888888888889,0.18222222222222223,0.01963142303384781,-0.09515347771163013,0.39430290490336267
1592265292.944195,2.29,9.35,0.48,-0.52,-0.4622222222222222,0.17333333333333334,0.1265363707695889,-0.1265363707695889,0.4625122517784973
1592265292.954195,2.4889458681797403,9.506626778175168,0.32021082636405196,-0.52,-0.4622222222222222,0.17333333333333334,0.11162275712446101,-0.05838586182361735,0.5211970822560852
1592265292.964195,2.45454704595186,9.370608315098467,0.3142407002188184,-0.52,-0.4622222222222222,0.17333333333333334,0.17003641091482283,0.017155880013380802,0.42092414917545085
1592265292.974195,2.5577816682366743,9.51366190924764,0.20316904537617975,-0.52,-0.4622222222222222,0.17333333333333334,0.11006256336653807,0.024013651951614347,0.1420730947570664
1592265292.984195,2.5055979951300147,9.36456570037147,0.27771714981426515,-0.52,-0.4622222222222222,0.17333333333333334,0.2100853848968619,0.0500358494229181,0.3022722479397802
1592265292.994195,2.5521639575971733,9.555013427561837,0.0964113074204947,-0.5066666666666667,-0.44555555555555554,0.17333333333333334,0.1787291160936271,0.17370158108929573,0.2955550114551016
1592265293.004195,2.453856584693174,9.491285528231058,0.15878878418754308,-0.5066666666666667,-0.44555555555555554,0.17333333333333334,0.2249539101686936,0.04502073329034231,0.21203375370680114
1592265293.014195,2.51,9.51,-0.15,-0.5066666666666667,-0.44555555555555554,0.17333333333333334,0.10144726277217041,-0.014180800172453926,0.2498002491916884
1592265293.024195,2.6545176043843397,9.490730986082088,-0.27524859046642747,-0.5066666666666667,-0.44555555555555554,0.17333333333333334,0.18237131186271258,-0.08985004088049339,0.23823967075018235
1592265293.034195,2.667906089169028,9.553248713352223,0.028337477592089266,-0.5066666666666667,-0.44555555555555554,0.17333333333333334,0.09316223487270633,0.01421953087854616,0.10240108525884875
1592265293.044195,2.466543958323729,9.515287215895993,-0.06717232953759625,-0.5188888888888888,-0.45111111111111113,0.1688888888888889,0.07124672419373031,0.04580900898667347,0.16008383023998818
1592265293.054195,2.3601927066525286,9.370262781798901,0.019842330920658346,-0.5188888888888888,-0.45111111111111113,0.1688888888888889,0.081793198655546,0.01206029070886324,0.18539536894834582
1592265293.064195,2.54203867521877,9.532718233625026,-0.09966022079687165,-0.5188888888888888,-0.45111111111111113,0.1688888888888889,-0.02298157475523048,0.10576610890847328,0.11403315956705454
1592265293.074195,2.8388792585267484,9.929047369747735,-0.049271518042386525,-0.5188888888888888,-0.45111111111111113,0.1688888888888889,-0.033302287752128,0.09931450277910722,0.04083141658219249
1592265293.084195,2.676224380974541,9.79079072382836,0.056454152366548396,-0.5188888888888888,-0.45111111111111113,0.1688888888888889,0.0412178701378707,0.10641166067339282,0.10914156131469131
1592265293.094195,2.53,9.66,-0.19,-0.54,-0.44555555555555554,0.16,-0.038179077387375956,0.20071286397934787,0.03381575425739013
1592265293.1041949,2.246354908983495,9.126079828674815,0.143700107078241,-0.54,-0.44555555555555554,0.16,0.02916283716343615,0.04873854330386648,-0.017145694591873088
1592265293.1141949,2.8664240943376185,10.044583554658452,-0.3172128970572613,-0.54,-0.44555555555555554,0.16,-0.14083856106683462,0.08147960124257815,-0.10539756976396251
1592265293.1241949,2.4236779205968304,9.46482216256029,0.2255047637149849,-0.54,-0.44555555555555554,0.16,-0.021715408821407448,0.10561444421758465,-0.010602043780754411
1592265293.1341949,2.612829744084983,9.86976320618059,0.06930854659584743,-0.54,-0.44555555555555554,0.16,-0.12326878742397923,0.1627789206557932,-0.07993235058540593
1592265293.1441948,2.37,9.1,-0.07,-0.5244444444444445,-0.45111111111111113,0.14555555555555555,-0.05781403147231216,0.10799224746714915,-0.22689280275926282
1592265293.1541948,2.217297198686504,9.663091579843515,-0.02228037458953258,-0.5244444444444445,-0.45111111111111113,0.14555555555555555,-0.22334586699197478,0.018459304984815864,-0.30705601870274724
1592265293.1641948,2.8132653400455925,9.971807085866262,0.4854174582066869,-0.5244444444444445,-0.45111111111111113,0.14555555555555555,-0.343824619858157,0.29496430110286825,-0.09150876650915178
1592265293.1741948,2.3059923764724966,9.427234646499462,0.22970012773463638,-0.5244444444444445,-0.45111111111111113,0.14555555555555555,-0.05049959759903105,0.07300051211578039,-0.019689472401248805
1592265293.1841948,2.6631639666673426,9.588812270635225,0.8930187952393505,-0.5244444444444445,-0.45111111111111113,0.14555555555555555,-0.08203975954522964,0.16854864977632322,0.10090526445186349
1592265293.1941948,2.52,9.55,0.98,-0.5433333333333333,-0.4577777777777778,0.17555555555555555,-0.07090400086226964,0.3239767424014474,0.12435470920459597
1592265293.2041948,2.0211862281801523,9.554365416144277,0.25489319124312854,-0.5433333333333333,-0.4577777777777778,0.17555555555555555,-0.10561648977005998,0.22569779653242583,0.1029172385194771
1592265293.2141948,2.1059660058015486,9.181037566226356,0.5678085968403135,-0.5433333333333333,-0.4577777777777778,0.17555555555555555,-0.09006086494251664,0.2881676389149011,0.0604708541457835
1592265293.2241948,2.32767548988342,9.218372842918395,0.11116225505828993,-0.5433333333333333,-0.4577777777777778,0.17555555555555555,0.014356285511475716,0.16847172343467376,0.2394766476934601
1592265293.2341948,2.253363807094008,9.166354664965805,0.14831809645299598,-0.5433333333333333,-0.4577777777777778,0.17555555555555555,0.15945631875506286,0.04444767267339536,0.1535514883425091
1592265293.2441947,2.74,9.41,0.36,-0.5166666666666667,-0.4633333333333333,0.13111111111111112,0.016362461737446838,0.2399827721492203,0.07744898555724837
1592265293.2541947,2.5109916443323352,9.393036418098692,0.1649188081349519,-0.5166666666666667,-0.4633333333333333,0.13111111111111112,0.03486685905679394,0.31307514156064137,0.07004722662950953
1592265293.2641947,2.6910938989513826,9.809649666348903,0.017352240228789322,-0.5166666666666667,-0.4633333333333333,0.13111111111111112,0.11046273481845129,0.1888832252932853,0.1977434957244207
1592265293.2741947,2.33,9.39,-0.09,-0.5166666666666667,-0.4633333333333333,0.13111111111111112,0.12217304763960307,0.2399827721492203,0.16580627893946132
1592265293.2841947,2.5407231960081886,9.33581403531218,-0.15020662743091096,-0.5166666666666667,-0.4633333333333333,0.13111111111111112,0.05584105270255056,0.20583164604301507,0.053501614244055584
1592265293.2941947,2.58,9.17,-0.3,-0.5433333333333333,-0.4633333333333333,0.13777777777777778,0.001090830782496456,0.30870511144649704,-0.05781403147231216
1592265293.3041947,2.7887803393441377,9.863150726622537,-0.07451723350833139,-0.5433333333333333,-0.4633333333333333,0.13777777777777778,0.001090830782496456,0.4189332175798314,0.06607871591722064
1592265293.3141947,2.34,9.51,-0.13,-0.5433333333333333,-0.4633333333333333,0.13777777777777778,-0.025089107997418484,0.13308135546456762,0.10362892433716332
1592265293.3241947,2.70435852083419,9.851586113282053,-0.30458845789971617,-0.5433333333333333,-0.4633333333333333,0.13777777777777778,-0.0648344570364996,0.10741248421016109,0.04235484456857996
1592265293.3341947,2.6871382110495206,9.782850948066027,0.11239747182392773,-0.5433333333333333,-0.4633333333333333,0.13777777777777778,-0.1474983546728682,0.1419393548063482,0.12516342203798558
1592265293.3441947,2.76,10.19,-0.14,-0.5422222222222223,-0.4633333333333333,0.11666666666666667,0.10581058590215622,0.05999569303730508,-0.014180800172453926
1592265293.3541946,2.4438526565116185,9.411791154490137,0.15993465920692612,-0.5422222222222223,-0.4633333333333333,0.11666666666666667,0.020921169512837554,-0.01428254630334877,0.07778273424930796
1592265293.3641946,2.9108661956980177,9.829869780683255,0.013653521720792927,-0.5422222222222223,-0.4633333333333333,0.11666666666666667,-0.11047157563537917,-0.014470645551185587,-0.14853166689406544
1592265293.3741946,2.7724641097064495,9.377720877080208,-0.11786443825441041,-0.5422222222222223,-0.4633333333333333,0.11666666666666667,-0.2014072060930261,0.04161058592135739,-0.1419871968391555
1592265293.3841946,2.6716335392330746,9.277098342609014,-0.07081676961653721,-0.5422222222222223,-0.4633333333333333,0.11666666666666667,-0.1462633559880615,-0.09396852399198515,0.0036446863989570144
1592265293.3941946,2.81,9.6,0.19,-0.5822222222222222,-0.4711111111111111,0.10222222222222223,-0.23125612588924865,-0.36324665057131983,0.1265363707695889
1592265293.4041946,2.9616635050342914,9.888160659565154,-0.08299430906172478,-0.5822222222222222,-0.4711111111111111,0.10222222222222223,-0.2982590099376968,0.03463467322255115,0.077731800907139
1592265293.4141946,2.5716222342147868,9.37961305990286,0.6400458715596331,-0.5822222222222222,-0.4711111111111111,0.10222222222222223,-0.05348697125446977,0.043973078364475185,0.0039621940985810275
1592265293.4241946,2.643733679344741,9.270686886708296,0.36274754683318466,-0.5822222222222222,-0.4711111111111111,0.10222222222222223,-0.1669904376333627,-0.018450353078658527,0.09783277449530538
1592265293.4341946,3.0110172291715838,9.577913421445992,0.48136672960427973,-0.5822222222222222,-0.4711111111111111,0.10222222222222223,-0.291962540965177,-0.02080203403352881,0.07132109710258341
1592265293.4441946,3.0752632526001364,9.362807427933927,0.5240936409112175,-0.557115037807448,-0.4637881823234686,0.09071476269878401,-0.2018867623091061,0.024974242381497928,0.04870463068218827
1592265293.4541945,2.888304002553973,9.40988307594078,0.12865477473163334,-0.5555555555555556,-0.4633333333333333,0.09,-0.09583039185322449,0.012024647480063393,0.11235879185408475
1592265293.4641945,2.7597624148003894,9.29766017526777,0.6716991236611489,-0.5555555555555556,-0.4633333333333333,0.09,-0.2708268356926196,0.14519595006624225,0.058338628671411485
1592265293.4741945,2.612097152690864,9.279193523153943,-0.08177174593241554,-0.5555555555555556,-0.4633333333333333,0.09,-0.20977408060056552,0.19040270413508578,-0.02966336148522121
1592265293.4841945,2.752469807517348,9.619591844015911,0.11028738605348129,-0.5555555555555556,-0.4633333333333333,0.09,-0.19466490909057577,0.13377465191494464,0.019946166898759034
1592265293.4941945,2.58394130979363,9.307718398345859,0.8693256193089188,-0.5555555555555556,-0.4720762477854211,0.09,-0.18554871557555366,0.20133602855257654,0.13163034102395949
1592265293.5041945,2.58,8.969456418803743,0.36660252282283423,-0.5555555555555556,-0.4722222222222222,0.09,-0.17009795160629138,0.21056616625339386,0.16990523086802234
1592265293.5141945,3.080213304892681,9.975943207572323,0.4774123450206639,-0.5555555555555556,-0.4722222222222222,0.09,-0.17354549138885422,0.20785030896067386,0.23702977789920393
1592265293.5241945,2.4934986120417344,9.112186273571359,0.51,-0.5555555555555556,-0.4722222222222222,0.09,-0.05076367480573557,0.1016011715089752,0.18178918961972668
1592265293.5341945,2.8011705747695355,9.206070655200149,0.41519272412299696,-0.5555555555555556,-0.4722222222222222,0.09,-0.04528543871100071,0.06514229786386046,0.14962873809195076
1592265293.5441945,2.8439734016072826,9.626622573074462,0.5410596685868715,-0.5622516574607465,-0.4789183241274131,0.08426048408126496,-0.1968335916755755,0.12085107182357784,0.11671889372712078
1592265293.5541945,2.8345208719303088,9.664956442902755,0.5998257716110214,-0.5633333333333334,-0.48,0.08333333333333333,-0.08355981366699053,0.14283231371557678,0.13456080734415907
1592265293.5641944,2.708922291548497,9.299971639251275,0.09251276233692562,-0.5633333333333334,-0.48,0.08333333333333333,0.07109085899971374,0.0689481777746512,0.007578273070911273
1592265293.5741944,2.917730915624483,9.24832454667959,0.36881273788978464,-0.5633333333333334,-0.48,0.08333333333333333,0.08405297450363616,0.14266931422139736,-5.750851426671033e-06
1592265293.5841944,3.0749149201991943,9.432033292861039,0.6420332928610393,-0.5633333333333334,-0.48,0.08333333333333333,0.03570177493987569,0.1250389330000678,0.09499441391903268
1592265293.5941944,2.681388550548112,9.320694275274056,0.3679611803072571,-0.5920992844638281,-0.47424680977390105,0.07675825878922024,0.026911088138235124,0.08901510921851624,0.1629668015381651
1592265293.6041944,2.9086204999401986,9.163965554359526,0.3482758043296256,-0.6022222222222222,-0.4722222222222222,0.07444444444444444,-0.04325704406409095,0.11197940945467667,0.1344731203796925
1592265293.6141944,2.8370066320129053,9.690197167951245,0.13962179602079225,-0.6022222222222222,-0.4722222222222222,0.07444444444444444,0.009777981108059733,0.24150414772165352,0.04639442726874422
1592265293.6241944,2.7061856703170855,9.68927850547563,0.4787109011523871,-0.6022222222222222,-0.4722222222222222,0.07444444444444444,0.03068195485099121,0.09982807668904026,0.10781035124547882
1592265293.6341944,2.930021451618622,9.591855476367764,0.3167207389284828,-0.6022222222222222,-0.4722222222222222,0.07444444444444444,-0.08316667085066672,0.023361678844212915,-0.01624824611142439
1592265293.6441944,2.777017798764984,9.117123138394478,0.6610960770069017,-0.6022222222222222,-0.4722222222222222,0.06426998829559671,-0.20576127480382567,0.14583918213624408,-0.06859703045784174
1592265293.6541944,2.801968824727659,8.846062350544681,0.5017575945443273,-0.6022222222222222,-0.4722222222222222,0.06222222222222222,0.05539567382928218,0.13774803601701727,-0.0862387185678152
1592265293.6641943,3.156365297231461,9.039068253150326,0.19669742821005293,-0.6022222222222222,-0.4722222222222222,0.06222222222222222,0.007220219527035138,0.04690270874988345,-0.12956634272106343
1592265293.6741943,3.3616836375580688,9.155841818779034,0.20213434376613015,-0.6022222222222222,-0.4722222222222222,0.06222222222222222,-0.1024267633987882,0.057715702631189,-0.11228229743936932
1592265293.6841943,3.2263307013469578,9.295899460502339,0.49956875915538257,-0.6022222222222222,-0.4722222222222222,0.06222222222222222,-0.09692695416960978,0.17135868517973926,-0.15674617495770468
1592265293.6941943,2.95491958067064,9.217756157104905,0.5710415021181877,-0.5869978379327127,-0.4722222222222222,0.05799322658624734,-0.24342334971673105,0.10857416225845792,-0.22031640978225775
1592265293.7041943,2.981685849552867,9.281389794844818,0.3097944239873751,-0.5822222222222222,-0.4722222222222222,0.056666666666666664,-0.20513809075205636,0.09950421828902564,-0.10083816489789141
1592265293.7141943,2.9369326410711847,9.214458259325044,0.3517789315480257,-0.5822222222222222,-0.4722222222222222,0.056666666666666664,-0.20641457492554058,0.0534954206301729,-0.19467178676839986
1592265293.7241943,2.786867301165357,9.506190159732277,0.6462653976692854,-0.5822222222222222,-0.4722222222222222,0.056666666666666664,-0.25646274939521746,0.11388101976298337,-0.19966306912570192
1592265293.7341943,2.8603034879539733,9.613882775979864,0.8253793599424667,-0.5822222222222222,-0.4722222222222222,0.056666666666666664,-0.22335774222558033,0.025458445021797727,-0.1928002026312197
1592265293.7441943,2.844943329397875,8.680942542306179,0.3412447855175128,-0.5933417289780926,-0.4722222222222222,0.027014648651012288,-0.12484448836230956,-0.09785786712533476,-0.43215032277789467
1592265293.7541943,2.8518177970585126,8.904538144111735,1.0208951433710718,-0.5955555555555555,-0.4722222222222222,0.021111111111111112,-0.2339314371481086,0.04392801299687399,-0.4323664950230689
1592265293.7641943,2.7587573155390253,9.083135973308538,1.7753508723951212,-0.5955555555555555,-0.4722222222222222,0.021111111111111112,-0.1663142255492509,0.13161336082539823,-0.4585731373048343
1592265293.7741942,2.6649480445871907,9.243287360665029,0.6209333081428301,-0.5955555555555555,-0.4722222222222222,0.021111111111111112,-0.1416872333817199,0.04657350765993323,-0.5439018712658638
1592265293.7841942,2.9006414816411583,8.99045286340447,0.8268301358051303,-0.5955555555555555,-0.4722222222222222,0.021111111111111112,-0.162175663013239,0.0787991404501055,-0.4775739583572732
1592265293.7941942,3.0093291030942537,9.227083273919863,0.8259746185655211,-0.5955555555555555,-0.4842867214854952,0.010655211749607872,-0.14392495694338667,0.11649086607459835,-0.48780395596787385
1592265293.8041942,2.9186894104363255,9.471034760867813,0.8007589321719493,-0.5955555555555555,-0.4888888888888889,0.006666666666666667,-0.16950018264658917,0.16133025686340094,-0.514428283762257
1592265293.8141942,2.7246510999729883,9.556860349950478,0.9370929499684865,-0.5955555555555555,-0.4888888888888889,0.006666666666666667,-0.18195302339770203,0.2028056718949607,-0.5269220133977187
1592265293.8241942,2.806517891130567,9.48978421202893,0.7671800057099353,-0.5955555555555555,-0.4888888888888889,0.006666666666666667,-0.18951887226463932,0.041101705589004195,-0.6878573319603015
1592265293.8341942,2.734944410184125,9.45623610254603,0.7656458461809532,-0.5955555555555555,-0.4888888888888889,0.006666666666666667,-0.24625014324500288,0.006750273455226196,-0.6992747907450174
1592265293.8441942,2.4117717073170732,9.277685073170732,1.0851180487804877,-0.5914566937669377,-0.4979063848238482,0.0017480325203252031,-0.22964050439898182,-0.0631874319801351,-0.7016034586629916
1592265293.8541942,2.353274737737454,9.49359228806351,1.4155287779982988,-0.59,-0.5011111111111111,0.0,-0.2402555571648602,-0.11053885950658089,-0.7360611891741992
1592265293.8641942,2.3148506034124012,10.106383687057845,1.3754873075322513,-0.59,-0.5011111111111111,0.0,-0.3082317371893238,-0.10444103264756122,-0.8372152130547774
1592265293.8741941,2.234741318876478,9.654611394120671,1.37086227041174,-0.59,-0.5011111111111111,0.0,-0.2255620575185513,-0.0011377328865249114,-0.6327614854636971
1592265293.8841941,2.36173551482791,9.682760300165958,1.2669256439858574,-0.59,-0.5011111111111111,0.0,-0.27612802352375165,0.0272707695624114,-0.6931787670615204
1592265293.8941941,2.301164104173204,9.485293379353624,1.2414527769061814,-0.5798385803437577,-0.5300320747481087,-0.003126590663459192,-0.30637147973169915,0.13393670096988883,-0.7146406562831888
1592265293.904194,2.356950043133872,9.569215355658379,1.2129985883460122,-0.5755555555555556,-0.5422222222222223,-0.0044444444444444444,-0.2895867856335,0.06734209744606524,-0.6364414174102518
1592265293.914194,2.145944021605696,9.407176528357477,0.923479008102136,-0.5755555555555556,-0.5422222222222223,-0.0044444444444444444,-0.32642301010764,0.014684033916699174,-0.5431231200310939
1592265293.924194,2.1473353635325467,9.259630757518082,1.149657403882756,-0.5755555555555556,-0.5422222222222223,-0.0044444444444444444,-0.3569549611855618,0.15276821432598348,-0.6007629077422268
1592265293.934194,2.197802014638742,9.216757554895283,0.9991736720052178,-0.5755555555555556,-0.5422222222222223,-0.0044444444444444444,-0.29508116936083206,0.028162568588792902,-0.5234660877608889
1592265293.944194,1.8226542233470422,9.35616102499209,1.0511372983233154,-0.5495945375935886,-0.532295950648529,-0.013607156666315158,-0.250410282762001,-0.020756843004232625,-0.48710503349533196
1592265293.954194,1.816009165328424,9.421998354941051,1.4500164505894795,-0.5377777777777778,-0.5277777777777778,-0.017777777777777778,-0.21881857849798772,0.06392573447188937,-0.47625489952157124
1592265293.964194,1.5977145619903825,9.428707662554881,1.501213412084466,-0.5377777777777778,-0.5277777777777778,-0.017777777777777778,-0.10584322758221995,0.11979624869466587,-0.4806420680622766
1592265293.974194,1.9743825903825902,9.655643149643149,1.3612734292734294,-0.5377777777777778,-0.5277777777777778,-0.017777777777777778,-0.0595190304882858,-0.07005711695676667,-0.4154648107448289
1592265293.984194,2.0425865596952937,9.626398022650378,1.2384608683320164,-0.5377777777777778,-0.5277777777777778,-0.017777777777777778,-0.09040184693904912,-0.0663762763021294,-0.4637446326564554
1592265293.994194,1.4861779053084647,9.303432169615814,1.3754334449226844,-0.5471708379828897,-0.5465638981880014,-0.03891216323927946,-0.14054139989869077,-0.057215004869483575,-0.2997759841785326
1592265294.004194,1.3,9.340651088476132,1.49109766327142,-0.5511111111111111,-0.5544444444444444,-0.04777777777777778,-0.1294384991605686,-0.010828178493667934,-0.292409576654603
1592265294.014194,1.434637237190061,10.091425915743722,1.779078888801613,-0.5511111111111111,-0.5544444444444444,-0.04777777777777778,-0.10081960594300951,0.038965019352467406,-0.31210215837316235
1592265294.024194,1.2341506969675382,9.68636484528983,1.2143886395478616,-0.5511111111111111,-0.5544444444444444,-0.04777777777777778,-0.07375832975313626,-0.09146576349050665,-0.1820955627195917
1592265294.034194,1.4178652178247433,9.258147143854053,1.3521965905692355,-0.5511111111111111,-0.5544444444444444,-0.04777777777777778,-0.10395553197071429,-0.02031481211364833,-0.22561597287693763
1592265294.044194,1.6553141604875266,9.706911530725586,1.2359878118339287,-0.5342350041194267,-0.5663983535635543,-0.05691900239827351,-0.061396996836187975,-0.03941278273695331,-0.2911675939926706
1592265294.054194,1.4970649997671928,9.442020999208456,0.844734599804442,-0.5244444444444445,-0.5733333333333334,-0.06222222222222222,-0.02458069359443904,-0.20725134747117163,-0.3535530265280191
1592265294.064194,1.454021620596463,9.166391351761416,1.3175416054241147,-0.5244444444444445,-0.5733333333333334,-0.06222222222222222,-0.019848403359003952,-0.23778931837814854,-0.41602375500149247
1592265294.074194,1.3336927423796183,9.861982376744965,1.7880916121926107,-0.5244444444444445,-0.5733333333333334,-0.06222222222222222,0.017835813335250156,-0.13019684291841443,-0.41036054703519154
1592265294.084194,1.3210519853450837,9.588721061491237,1.6744471729874244,-0.5244444444444445,-0.5733333333333334,-0.06222222222222222,0.007827518267135031,-0.07285615482783206,-0.4605020512278756
1592265294.094194,1.3345118934348241,9.964735490009515,1.7075328258801141,-0.5286924622053071,-0.5768733481340522,-0.04381414525848398,-0.045362992082073825,-0.03516564437700468,-0.40019395062980256
1592265294.104194,1.3025437915969131,10.184702952104855,1.5930692907598711,-0.5311111111111111,-0.5788888888888889,-0.03333333333333333,-0.025799432986976012,-0.06305425944267976,-0.3797121334838887
1592265294.114194,1.3714467722891897,9.489077953815315,1.4372338614459488,-0.5311111111111111,-0.5788888888888889,-0.03333333333333333,0.056366679126783906,-0.1706373363152931,-0.5574635916317325
1592265294.124194,1.5134729093761312,9.467665017497284,1.719980290414706,-0.5311111111111111,-0.5788888888888889,-0.03333333333333333,0.01552203806953577,-0.09877580015231213,-0.5802806000993895
1592265294.134194,1.6074530954042467,9.216275944571827,1.1897260492473334,-0.5311111111111111,-0.5788888888888889,-0.03333333333333333,0.035621067784095364,0.013605229524901612,-0.5670532502796477
1592265294.144194,1.4868382944489138,9.666838294448914,1.2983558838586997,-0.5207768757567631,-0.5788888888888889,-0.04079694775591799,0.06333815237055099,-0.01345161174621114,-0.6083081323514142
1592265294.1541939,1.4554986577727163,9.83647482307004,1.6107984218661027,-0.5111111111111111,-0.5788888888888889,-0.04777777777777778,0.025345466098014947,-0.03396824695239706,-0.6259916084362207
1592265294.1641939,1.2061906262307995,9.783648943153473,1.4579348824996718,-0.5111111111111111,-0.5788888888888889,-0.04777777777777778,0.034889428478544454,0.05180674314807798,-0.578348599387696
1592265294.1741939,0.6307460913367866,9.604750748467424,1.4295014969348476,-0.5111111111111111,-0.5788888888888889,-0.04777777777777778,0.08781205942458818,0.076234624396256,-0.6025336506936111
1592265294.1841938,0.5765444321097746,9.364028826730241,1.3220224207901874,-0.5111111111111111,-0.5788888888888889,-0.04777777777777778,0.09939066688498287,-0.03374972752018685,-0.5821597072391427
1592265294.1941938,0.9812223520249221,9.391614485981307,0.9048477414330218,-0.5040077881619938,-0.590135816891658,-0.055473044305988234,0.037950631594997994,0.061300399715045695,-0.5945027764605685
1592265294.2041938,0.9877507970638393,9.642674797953585,1.106443612367465,-0.49777777777777776,-0.6,-0.06222222222222222,0.0005072803935506614,0.17129027763275037,-0.5716649678500254
1592265294.2141938,1.0456204616885227,9.88141215996532,1.338930313211228,-0.49777777777777776,-0.6,-0.06222222222222222,0.04843692992185655,0.1969439590973725,-0.568907916421585
1592265294.2241938,1.1954976954799061,10.038845314142476,0.9979081426376648,-0.49777777777777776,-0.6,-0.06222222222222222,0.04718903798982182,0.23702667100548405,-0.5507308869582291
1592265294.2341938,1.1114958496656675,9.663882868342172,1.8170146414572286,-0.49777777777777776,-0.6,-0.06222222222222222,0.08482580103512113,0.24546956043892854,-0.3010852673212673
1592265294.2441938,0.656766953778964,9.845223826276841,1.6291544340652675,-0.48158653133298285,-0.6066998261150875,-0.053847439578362785,0.16247410386930958,0.19334304023701984,-0.2814289161820254
1592265294.2541938,0.06881676756839604,9.85588627481033,1.4482366464863208,-0.46555555555555556,-0.6133333333333333,-0.04555555555555556,0.1510479211092353,0.12961726344250687,-0.29946293499757176
1592265294.2641938,0.25290083253100754,9.62678116327802,1.4510559551452682,-0.46555555555555556,-0.6133333333333333,-0.04555555555555556,0.1654149093405988,0.006633822813868123,-0.39905672175146917
1592265294.2741938,0.011766875252801637,9.382580837041091,1.1227935473125699,-0.46555555555555556,-0.6133333333333333,-0.04555555555555556,0.15729557196213667,0.014558226740753508,-0.46316315818108195
1592265294.2841938,-0.00909669120274423,9.082646323161581,1.1738358464946759,-0.46555555555555556,-0.6133333333333333,-0.04555555555555556,0.0930835381664482,0.09185114026460536,-0.5429450606067265
1592265294.2941937,0.19501309528200966,9.410617507100962,1.2633158729573206,-0.4683661842520524,-0.6273864768158176,-0.057734946573708604,0.10257463028971821,0.08789454838982261,-0.49659152924938005
1592265294.3041937,0.5522376794435401,10.10473730945686,0.9307902915495042,-0.4722222222222222,-0.6466666666666666,-0.07444444444444444,0.1934213939301789,0.018486651679150017,-0.39010091230202476
1592265294.3141937,0.8092343250966549,10.104292318036645,0.9998994228721914,-0.4722222222222222,-0.6466666666666666,-0.07444444444444444,0.19440579371373362,0.04874993484252134,-0.35274330152651046
1592265294.3241937,0.6829838306384397,9.882319553258876,0.7599066511085181,-0.4722222222222222,-0.6466666666666666,-0.07444444444444444,0.22992636334342492,0.10244526656442442,-0.4154196922203287
1592265294.3341937,0.23795027419449272,9.393835405241896,0.9126086532269082,-0.4722222222222222,-0.6466666666666666,-0.07444444444444444,0.09295608575138599,0.1632350425550916,-0.3328202823954736
1592265294.3441937,0.24173663366336634,9.78139207920792,0.6497782178217821,-0.47586754675467546,-0.6407430143014301,-0.06578679867986799,0.1417179271826975,0.14809097102562332,-0.29742052100309513
1592265294.3541937,0.31258971800273494,10.171803599807813,0.7159478138744133,-0.4811111111111111,-0.6322222222222222,-0.05333333333333334,0.05960349871228288,0.07475281083683469,-0.16526588289375843
1592265294.3641937,-0.18120034082436895,9.465776440515496,1.0841186494834383,-0.4811111111111111,-0.6322222222222222,-0.05333333333333334,0.15992329805731298,0.032216744345844844,-0.35436205517418723
1592265294.3741937,0.17509283252109833,9.961994056816831,0.7477125876619517,-0.4811111111111111,-0.6322222222222222,-0.05333333333333334,0.20503780770702554,0.0754848418480401,-0.2774932959076044
1592265294.3841937,0.43121223995440294,10.140349458535196,1.0424827229980052,-0.4811111111111111,-0.6322222222222222,-0.05333333333333334,0.15710504602131614,0.11267086701239488,-0.11591913119684324
1592265294.3941936,0.3696898154874328,9.896435420601483,1.2679187854133371,-0.46328821411852067,-0.6417277672849371,-0.05333333333333334,0.13223846958388952,0.12689382665073384,0.050582424030687204
1592265294.4041936,0.0028157793948678685,9.899320566832632,1.216407889697434,-0.4311111111111111,-0.6588888888888889,-0.05333333333333334,0.12010790568596146,0.1564441851037803,0.172139238884491
1592265294.4141936,-0.07592874699511118,9.72188504443184,1.2168781568214353,-0.4311111111111111,-0.6588888888888889,-0.05333333333333334,0.14780732058768822,0.12725280761444707,-0.08586644082158168
1592265294.4241936,-0.2344417004339799,9.675776008823458,1.0893188193828376,-0.4311111111111111,-0.6588888888888889,-0.05333333333333334,0.21125845951880495,0.11163626620745895,-0.1273449147264809
1592265294.4341936,-0.0846618173285622,9.956930544963924,1.077864726931425,-0.4311111111111111,-0.6588888888888889,-0.05333333333333334,0.25453810347495354,0.11674800899702376,-0.08425402400362415
1592265294.4441936,0.37677119768423595,9.873558075021107,0.7964732842841635,-0.438901084174272,-0.65703413339766,-0.057784746512282395,0.01463049980031219,0.1655156450957109,0.047616980577775275
1592265294.4541936,0.4434327502150846,10.110074562661314,0.5749627186693433,-0.45444444444444443,-0.6533333333333333,-0.06666666666666667,0.11774168444790431,0.23933615694204505,0.02804877247496336
1592265294.4641936,0.029924995261433482,9.702388237524032,0.811716173404457,-0.45444444444444443,-0.6533333333333333,-0.06666666666666667,0.04923400685822913,0.08374981744704675,0.010224614989069365
1592265294.4741936,0.12872583163204035,9.686593010688123,0.87,-0.45444444444444443,-0.6533333333333333,-0.06666666666666667,0.033661699135471575,0.07221242140455073,-0.010334138097609934
1592265294.4841936,0.2151241587375261,9.990183337201207,0.8978486887909027,-0.45444444444444443,-0.6533333333333333,-0.06666666666666667,0.1696860822749314,0.200941713138637,0.02771049410852333
1592265294.4941936,-0.09173570980992829,9.430067186520922,1.0962037875095731,-0.45253328382340424,-0.6514221727122932,-0.07080751467892037,0.1452258571659295,0.25779153591315684,-0.1110961748267007
1592265294.5041935,-0.2555602282967858,9.727845275781593,1.2765944959216213,-0.4477777777777778,-0.6466666666666666,-0.0811111111111111,0.09689109017672069,0.22481937483754555,-0.007447780317056875
1592265294.5141935,-0.05626304904471144,9.94037423675399,1.02065491431948,-0.4477777777777778,-0.6466666666666666,-0.0811111111111111,0.09291393441579363,0.23869862346312895,0.005127570735528449
1592265294.5241935,-0.13912292374593066,9.869424708314522,0.8226029513105053,-0.4477777777777778,-0.6466666666666666,-0.0811111111111111,0.16091691631847,0.16291339871110938,0.03480199405998085
1592265294.5341935,-0.1843791806775861,9.793780236468164,0.8116977618686047,-0.4477777777777778,-0.6466666666666666,-0.0811111111111111,0.1372858677999726,0.12989756682427117,0.04625841140081574
1592265294.5441935,0.06527741696047504,9.881948413434776,0.9458322508814251,-0.4454875981938517,-0.6466666666666666,-0.07685792045524834,0.05216592060013641,0.15325004542021947,0.07694002565383233
1592265294.5541935,0.025317732263842378,10.258114243438984,0.8313558134101705,-0.44,-0.6466666666666666,-0.06666666666666667,0.0434297783192431,0.19383504889687433,0.08656852118479623
1592265294.5641935,-0.13535759290214736,9.7720514337148,0.6530363893532211,-0.44,-0.6466666666666666,-0.06666666666666667,-0.013497828172179815,0.07591436043299819,0.1332425184540351
1592265294.5741935,-0.08659899815449512,9.635610334827314,0.7466860005272871,-0.44,-0.6466666666666666,-0.06666666666666667,0.0456501035059346,-0.009348129339585367,0.2084913243469149
1592265294.5841935,-0.01127192397783322,9.787145740892385,0.9958839100378969,-0.44,-0.6466666666666666,-0.06666666666666667,-0.030145057052448528,-0.03045640842202931,0.20526462240913806
1592265294.5941935,-0.104466481264637,9.918932962529274,1.3550376902810304,-0.4357816565833984,-0.6493961829950559,-0.06666666666666667,-0.010196521579594362,-0.030724561434714106,0.179071919665549
1592265294.6041934,-0.12,9.95,0.99,-0.4211111111111111,-0.6588888888888889,-0.06666666666666667,0.0643590161672909,-0.07308566242726255,0.3883357585687383
1592265294.6141934,0.15400016815672207,10.33751716599871,0.8250343319974216,-0.4211111111111111,-0.6588888888888889,-0.06666666666666667,-0.09268289096679362,-0.0024449149454496485,0.46217363902249464
1592265294.6241934,0.08673076457925162,10.051130783929565,0.9106230800861088,-0.4211111111111111,-0.6588888888888889,-0.06666666666666667,-0.1531920820060255,-0.007899295055493472,0.5588745644971088
1592265294.6341934,0.22,9.63,0.82,-0.4211111111111111,-0.6588888888888889,-0.06666666666666667,-0.0839939702522271,0.04908738521234052,0.5705044992456464
1592265294.6441934,0.2867351416035102,9.967385321100917,0.6400957319505385,-0.42248459867925364,-0.6549973407791517,-0.06849798342419004,-0.06544462558186157,0.009575553661906464,0.689069799205525
1592265294.6541934,0.12,10.15,1.18,-0.42777777777777776,-0.64,-0.07555555555555556,-0.03599741582238304,0.09272061651219875,0.7886706557449377
1592265294.6641934,0.27697891550813114,9.918818550248808,0.590919817370338,-0.42777777777777776,-0.64,-0.07555555555555556,-0.1361366105936888,-0.15822754279293294,0.7990468946692725
1592265294.6741934,0.45,9.71,0.4,-0.42777777777777776,-0.64,-0.07555555555555556,-0.25198191075668136,-0.2454369260617026,0.7821256710499589
1592265294.6841934,0.48887332679725487,9.583630924988496,0.9170143460253306,-0.42777777777777776,-0.64,-0.07555555555555556,-0.16883259828637487,-0.07178366719928593,0.7238630542703647
1592265294.6941934,1.0979198993499686,10.014559656112393,0.5007202767875865,-0.43370669369306397,-0.6385688823652758,-0.08639116050418211,-0.2120749793682615,-0.06418449239143752,0.7757990126250353
1592265294.7041934,1.0,9.68,0.77,-0.46,-0.6322222222222222,-0.13444444444444445,-0.23343778745424157,-0.07308566242726255,0.9315694882519734
1592265294.7141933,0.7025449569976544,9.52562744331509,0.9396774824081314,-0.46,-0.6322222222222222,-0.13444444444444445,-0.2114569928163292,-0.12168029745618841,0.8392478053586274
1592265294.7241933,0.8543070127001656,9.754456101601326,0.9397018221976808,-0.46,-0.6322222222222222,-0.13444444444444445,-0.24357390032439638,-0.0732434745007104,0.9174471146868647
1592265294.7341933,0.86,9.8,0.86,-0.46,-0.6322222222222222,-0.13444444444444445,-0.2454369260617026,-0.15707963267948966,0.8497571795647392
1592265294.7441933,1.2088678629690048,9.822858075040783,0.9291125611745514,-0.4631718325176727,-0.6272140656153707,-0.12593057821279682,-0.06290534623870794,-0.030755199831915988,0.736920611315877
1592265294.7541933,0.75,9.33,1.32,-0.4811111111111111,-0.5988888888888889,-0.07777777777777778,-0.1287180323345818,-0.19853120241435498,0.7712173632249943
1592265294.7641933,1.4094969884421291,9.653816267838732,0.9984909653263877,-0.4811111111111111,-0.5988888888888889,-0.07777777777777778,-0.10709822673141597,-0.11774171406037484,0.7966291213171216
1592265294.7741933,1.6704046685162153,9.697878599445135,1.0720202334258109,-0.4811111111111111,-0.5988888888888889,-0.07777777777777778,-0.1741731065312948,-0.1574284157257729,0.8148285232811429
1592265294.7841933,1.9168753961211813,9.498277348206363,0.9340714919508176,-0.4811111111111111,-0.5988888888888889,-0.07777777777777778,-0.16979211848011827,-0.11665058717286128,0.7421870776647039
1592265294.7941933,1.692317296085532,9.331018106570097,0.6943535092257286,-0.4858067866107183,-0.5970934835508038,-0.07929696691000364,-0.01440291656975895,-0.19149292669609314,0.6159432915644512
1592265294.8041933,1.92,9.62,1.5,-0.5188888888888888,-0.5844444444444444,-0.09,-0.07744898555724837,-0.1265363707695889,0.5748678223756323
1592265294.8141932,2.080268541347371,9.268802558805891,1.0925181581928434,-0.5188888888888888,-0.5844444444444444,-0.09,-0.2141946950837345,-0.047369619299636026,0.720108230335946
1592265294.8241932,1.87,9.58,1.0,-0.5188888888888888,-0.5844444444444444,-0.09,-0.11235557059713495,0.042542400517361786,0.6632251157578453
1592265294.8341932,2.0639406609310926,9.365029347913483,1.0209061670820938,-0.5188888888888888,-0.5844444444444444,-0.09,-0.08907124068216639,-0.17407035049919284,0.7422214549103981
1592265294.8441932,1.554669673653489,9.715990979039534,2.193675093810408,-0.5188888888888888,-0.5828144807051678,-0.0910090251719331,-0.10697348271406144,-0.09130096121341552,0.6065424754666813
1592265294.8541932,1.75,9.13,1.71,-0.5188888888888888,-0.5611111111111111,-0.10444444444444445,-0.0643590161672909,-0.10144726277217041,0.7668540400950085
1592265294.8641932,1.6073321056569028,9.58480405133222,1.4746734188870345,-0.5188888888888888,-0.5611111111111111,-0.10444444444444445,0.07250361817248283,0.007769085532791986,0.7580113867402534
1592265294.8741932,1.701858751960458,9.682462810702914,1.753203982700442,-0.5188888888888888,-0.5611111111111111,-0.10444444444444445,0.0650058107513138,0.10825962828368474,0.7373729656518241
1592265294.8841932,1.9829157973039169,9.540837854019632,1.2841600595097702,-0.5188888888888888,-0.5611111111111111,-0.10444444444444445,0.04695005590332656,0.01127161462094924,0.6962011497969625
1592265294.8941932,1.9154818924092667,9.900813376567566,0.774540375825292,-0.519954812412913,-0.5605020119545259,-0.10398762007700556,-0.040776411236326776,-0.014330295597112972,0.7818078441180584
1592265294.9041932,1.99,9.64,1.38,-0.5344444444444445,-0.5522222222222222,-0.09777777777777778,0.042542400517361786,-0.016362461737446838,0.6588617926278594
1592265294.9141932,2.0728091535098057,9.891416751760794,0.8326290157882335,-0.5344444444444445,-0.5522222222222222,-0.09777777777777778,-0.022294584208174824,0.015227818360486749,0.828514126184705
1592265294.9241931,2.0,9.44,0.92,-0.5344444444444445,-0.5522222222222222,-0.09777777777777778,-0.038179077387375956,-0.12217304763960307,0.8475755179997462
1592265294.9341931,2.569767837704107,9.544496981692232,0.88,-0.5344444444444445,-0.5522222222222222,-0.09777777777777778,-0.05446556419115421,0.07901097319608169,0.8835391671849432
1592265294.9441931,2.420342008906482,9.220741019297378,0.88,-0.5344444444444445,-0.5522222222222222,-0.09777777777777778,-0.005566076065405823,-0.08579841270921847,0.8618060613512774
1592265294.954193,2.58,9.39,1.19,-0.54,-0.5066666666666667,-0.12,-0.04690572364734761,-0.07526732399225547,0.755945732270044
1592265294.964193,2.35,9.168440748440748,0.9545567460952076,-0.54,-0.5066666666666667,-0.12,0.008282905671388549,0.025759690682196412,0.822669872400045
1592265294.974193,2.3294986646980913,9.584274268840785,1.1438521831643398,-0.54,-0.5066666666666667,-0.12,-0.07498524320932273,0.11028901504432115,0.774495587188728
1592265294.984193,2.29680679801366,9.233949911260106,1.0440339900683029,-0.54,-0.5066666666666667,-0.12,-0.018195799000296962,0.04252405736693455,0.6871316772206311
1592265294.994193,2.371999067782937,9.564795898244922,1.4199953389146842,-0.54,-0.5066666666666667,-0.12,-0.026398003247307386,0.032681412270522035,0.6379184517385685
1592265295.004193,2.61,9.25,1.09,-0.5733333333333334,-0.4866666666666667,-0.11333333333333333,0.09053895494720585,-0.11890055529211369,0.581412807070611
1592265295.014193,3.0928048104147816,9.085467468402463,1.145684345719373,-0.5733333333333334,-0.4866666666666667,-0.11333333333333333,0.20140310682656928,-0.08425996751884247,0.6216568498316769
1592265295.024193,3.0259523070680068,9.158231208077723,1.2961394505048576,-0.5733333333333334,-0.4866666666666667,-0.11333333333333333,0.17077806968278053,0.042390283614028426,0.6890461659245039
1592265295.034193,3.22,9.38,1.31,-0.5733333333333334,-0.4866666666666667,-0.11333333333333333,0.23125612588924865,0.0272707695624114,0.469057236473476
1592265295.044193,3.049889121404254,9.455604834931444,1.59351813099291,-0.5733333333333334,-0.4866666666666667,-0.11333333333333333,0.34980974268437137,0.04788878987460665,0.48864435577006154
1592265295.054193,3.3,8.96,1.15,-0.5955555555555555,-0.4533333333333333,-0.09777777777777778,0.23125612588924865,0.26070855701665296,0.3436116964863836
1592265295.064193,3.04645133628698,9.34646477061598,1.1383355723881663,-0.5955555555555555,-0.4533333333333333,-0.09777777777777778,0.3868172011412716,0.019681443400262837,0.2677996898318606
1592265295.074193,3.3138715290023746,9.113140532787849,1.0614939691048884,-0.5955555555555555,-0.4533333333333333,-0.09777777777777778,0.2888704115259566,0.02975474291018124,0.23275611760078901
1592265295.084193,3.4232135223006592,8.980850532593271,1.002911030877836,-0.5955555555555555,-0.4533333333333333,-0.09777777777777778,0.38733576667017877,0.14919847775728312,0.18160779685263143
1592265295.094193,3.3252704280505108,8.837702933304593,0.867297515762246,-0.5955555555555555,-0.4533333333333333,-0.09777777777777778,0.5073245663054706,0.20015262554761254,0.11175130391427661
1592265295.104193,2.94,9.13,0.67,-0.6088888888888889,-0.43333333333333335,-0.10444444444444445,0.40578905108868163,-0.02945243112740431,0.222529479629277
1592265295.114193,3.304010821235335,9.548502705308834,1.0276857556115069,-0.6088888888888889,-0.43333333333333335,-0.10444444444444445,0.2650718801466388,0.17319461660240432,0.13783468259318105
1592265295.124193,3.1426426897901014,9.57820898045941,0.23490785246733173,-0.6088888888888889,-0.43333333333333335,-0.10444444444444445,0.21073527524626123,0.1545895949043004,0.15135828437640578
1592265295.134193,3.35,9.83,0.62,-0.6088888888888889,-0.43333333333333335,-0.10444444444444445,0.05563236990731925,0.2159844949342983,0.2159844949342983
1592265295.144193,3.2953493699885454,9.183300878197784,1.120964108438335,-0.6088888888888889,-0.43333333333333335,-0.10444444444444445,0.02979938112428081,-0.045326122371052185,0.06198013872772293
1592265295.154193,3.41,9.23,0.9,-0.6288888888888889,-0.43333333333333335,-0.10444444444444445,0.13308135546456762,0.04690572364734761,0.01854412330243975
1592265295.164193,3.3779682007031,9.226842175348885,0.8553733887290935,-0.6288888888888889,-0.43333333333333335,-0.10444444444444445,0.08284840618981631,0.09104236167457078,-0.042432933957533114
1592265295.174193,3.25,8.86,0.48,-0.6288888888888889,-0.43333333333333335,-0.10444444444444445,0.038179077387375956,-0.16580627893946132,0.04690572364734761
1592265295.184193,3.570448094119505,8.962729031366589,0.6431771254860933,-0.6288888888888889,-0.43333333333333335,-0.10444444444444445,0.05930255178128816,-0.045905998197383224,-0.17984268006678164
1592265295.194193,3.371740658125901,9.600248721846068,1.0819893799719693,-0.6288888888888889,-0.43333333333333335,-0.10444444444444445,-0.03643143120468427,0.07511620670941214,-0.12294418074493012
1592265295.2041929,3.7011477280667022,8.889340661899993,0.449340661899993,-0.6222222222222222,-0.41333333333333333,-0.07555555555555556,0.0587143981241899,0.07184166261135269,-0.07290452207094517
1592265295.2141929,3.432589296628609,9.058627729017433,0.5260384323888223,-0.6222222222222222,-0.41333333333333333,-0.07555555555555556,-0.012605958733733522,0.11610615314431175,-0.07219746060316543
1592265295.2241929,3.7197277995527447,9.356349099478201,0.447429966095174,-0.6222222222222222,-0.41333333333333333,-0.07555555555555556,-0.05055246692913516,0.2304884498243408,-0.18442376780562633
1592265295.2341928,3.44,9.03,0.09,-0.6222222222222222,-0.41333333333333333,-0.07555555555555556,0.18762289458939044,0.0643590161672909,-0.13526301702956053
1592265295.2441928,3.4918908974096894,9.159727243524223,0.18513331191776422,-0.6222222222222222,-0.41333333333333333,-0.07555555555555556,-0.08219040262051838,-0.009226428526320593,-0.1824331738844397
1592265295.2541928,3.22,9.27,1.1,-0.6233333333333333,-0.41333333333333333,-0.09,0.05781403147231216,0.17671458676442586,-0.07963064712224129
1592265295.2641928,3.1340119760479044,9.242990489609017,0.2720147939415287,-0.6233333333333333,-0.41333333333333333,-0.09,0.08268451223646524,0.19165270552522093,-0.11431898915950091
1592265295.2741928,3.489014644261091,8.98303339237116,0.6085260702406152,-0.6233333333333333,-0.41333333333333333,-0.09,0.08180297850040391,0.004900751315841462,-0.09179146184593821
1592265295.2841928,3.682291449728104,8.953006479231748,0.4493950788692198,-0.6233333333333333,-0.41333333333333333,-0.09,0.11832362953578814,-0.09232865112978836,-0.012103135433190169
1592265295.2941928,3.512442438967951,9.365496933934976,0.6354201858922442,-0.6233333333333333,-0.41333333333333333,-0.09,0.01862721138124844,0.07883157118862494,-0.09680097740518852
1592265295.3041928,3.66,9.02,0.35,-0.6311111111111111,-0.4211111111111111,-0.09555555555555556,-0.00545415391248228,0.26725354171163174,-0.07963064712224129
1592265295.3141928,3.8113831859338805,9.166052853232259,0.482369972625816,-0.6311111111111111,-0.4211111111111111,-0.09555555555555556,-0.018945863255816525,0.1348603582884116,0.037346770514270905
1592265295.3241928,3.594142939040703,9.117124976113129,0.22632142174660808,-0.6311111111111111,-0.4211111111111111,-0.09555555555555556,-0.044147483075210575,0.26231363957450177,0.04171849287971278
1592265295.3341928,3.79,9.06,0.21,-0.6311111111111111,-0.4211111111111111,-0.09555555555555556,-0.05126904677733343,0.2694352032766246,0.1832595714594046
1592265295.3441927,3.437367316341829,8.89543808095952,0.22567256371814093,-0.6311111111111111,-0.4211111111111111,-0.09555555555555556,-0.058107492755087524,0.2916601527043254,0.06957040707924277
1592265295.3541927,2.96,9.2,0.3,-0.6177777777777778,-0.4088888888888889,-0.09555555555555556,-0.0272707695624114,0.05999569303730508,-0.07526732399225547
1592265295.3641927,3.1990416428978894,8.811557330290931,1.0071648602395893,-0.6177777777777778,-0.4088888888888889,-0.09555555555555556,-0.15004243626234626,0.0056719467099002815,-0.19586604083909412
1592265295.3741927,3.53,9.13,-0.01,-0.6177777777777778,-0.4088888888888889,-0.09555555555555556,-0.20943951023931953,0.11235557059713495,-0.27598018797160334
1592265295.3841927,3.2467278617710584,9.398476357605677,0.6832721382289416,-0.6177777777777778,-0.4088888888888889,-0.09555555555555556,-0.04109463482439402,0.00410050224529532,-0.1250490578328867
1592265295.3941927,3.699676025917926,8.694789031163221,0.23032397408207345,-0.6177777777777778,-0.4088888888888889,-0.09555555555555556,-0.09050361485706017,-0.01883938134129968,-0.2662175722119328
1592265295.4041927,4.01,8.86,0.95,-0.6233333333333333,-0.4088888888888889,-0.10222222222222223,-0.04908738521234052,0.044724062082354694,-0.37306412761378793
1592265295.4141927,3.5651799472295513,9.403846965699207,0.3808717678100264,-0.6233333333333333,-0.4088888888888889,-0.10222222222222223,-0.1290984127995283,0.08778119657634356,-0.20921835077407674
1592265295.4241927,3.24,8.83,0.4,-0.6233333333333333,-0.4088888888888889,-0.10222222222222223,-0.13744467859455345,0.0272707695624114,-0.34797501961636945
1592265295.4341927,3.491089480542212,9.297188976837356,0.45562204632528835,-0.6233333333333333,-0.4088888888888889,-0.10222222222222223,-0.18305709982463642,0.11957691747355542,-0.4512004857022732
1592265295.4441926,2.8874639724615414,9.20746086077131,0.6350782784573796,-0.6233333333333333,-0.4088888888888889,-0.10222222222222223,-0.246233023145348,0.07152762368033816,-0.2990443886904185
1592265295.4541926,3.12,9.32,1.0,-0.64,-0.4088888888888889,-0.11888888888888889,-0.29561514205653955,0.25198191075668136,-0.2868884957965679
1592265295.4641926,2.7802583732057418,9.089937799043062,1.3879784688995214,-0.64,-0.4088888888888889,-0.11888888888888889,-0.20406599429616537,0.09614368526196096,-0.11304138478287676
1592265295.4741926,3.3337424978565307,9.608490997427836,0.669944269791369,-0.64,-0.4088888888888889,-0.11888888888888889,-0.2620308658946063,0.1782381335017966,-0.2771684421949487
1592265295.4841926,2.76,8.92,0.82,-0.64,-0.4088888888888889,-0.11888888888888889,-0.15707963267948966,0.222529479629277,-0.18762289458939044
1592265295.4941926,3.0405015982296533,9.34075239734448,0.7218244406196214,-0.64,-0.4088888888888889,-0.11888888888888889,-0.12877650322481643,0.13150049570749014,-0.1631445123583217
1592265295.5041926,2.81,8.67,1.11,-0.6255555555555555,-0.41555555555555557,-0.12444444444444444,-0.12217304763960307,0.00545415391248228,-0.37742745074377376
1592265295.5141926,3.379258880416589,9.536518272270783,0.8375802027152687,-0.6255555555555555,-0.41555555555555557,-0.12444444444444444,-0.17320770375014705,-0.008605380851707325,-0.25491774071184176
1592265295.5241926,2.8014765675155147,9.163445324202868,0.7695078108281618,-0.6255555555555555,-0.41555555555555557,-0.12444444444444444,-0.07673841656475551,0.0860253011893733,-0.27658151048299023
1592265295.5341926,2.950217013888889,9.506907552083334,0.7199457465277778,-0.6255555555555555,-0.41555555555555557,-0.12444444444444444,-0.22430870796288016,0.07099869103436135,-0.33716140196349653
1592265295.5441926,2.9805577256944447,9.074552408854167,0.7123605685763889,-0.6255555555555555,-0.41555555555555557,-0.12444444444444444,-0.16804451788227903,0.08423732399450279,-0.350400034923638
1592265295.5541925,2.92097895064537,9.020576402691635,0.9802653320242343,-0.64,-0.4088888888888889,-0.11,-0.18221764115883618,0.01882556229404915,-0.2944754107921151
1592265295.5641925,2.646628755897691,9.336005959771542,1.282691581822697,-0.64,-0.4088888888888889,-0.11,-0.08643201903739209,-0.041967594726336835,-0.38961829060397196
1592265295.5741925,2.8525994788365376,9.012231143038242,0.8566723008662581,-0.64,-0.4088888888888889,-0.11,-0.20071148113871934,-0.07623531243224808,-0.2576392654170827
1592265295.5841925,3.2136823368162477,9.523521600598087,1.192226810729988,-0.64,-0.4088888888888889,-0.11,-0.12400161004334892,0.023543510349067362,-0.3249393623639431
1592265295.5941925,2.4372228056747183,9.247281190480429,1.229556595881023,-0.64,-0.4088888888888889,-0.11,-0.2095146154114781,0.07077926569527204,-0.26793069211852366
1592265295.6041925,2.64,9.54,1.41,-0.6322222222222222,-0.4222222222222222,-0.15222222222222223,-0.08617563181722002,0.12108221685710661,-0.5355979142057599
1592265295.6141925,2.435973194880464,9.238040328423086,1.246778555904371,-0.6322222222222222,-0.4222222222222222,-0.15222222222222223,-0.1128826781546755,-0.055184288970099624,-0.28900285302325424
1592265295.6241925,2.874068988774871,9.370419135713254,1.0855489714313244,-0.6322222222222222,-0.4222222222222222,-0.15222222222222223,-0.18051428508628553,0.07160074097472992,-0.23967607616971223
1592265295.6341925,2.75,9.17,1.62,-0.6322222222222222,-0.4222222222222222,-0.15222222222222223,-0.07744898555724837,0.08617563181722002,-0.18762289458939044
1592265295.6441925,2.7981566856572764,9.428842185407861,1.3611578145921395,-0.6322222222222222,-0.4222222222222222,-0.15222222222222223,-0.12669660596158835,0.12885690283431467,-0.3557214389028709
1592265295.6541924,2.4749352269455906,9.024268304385375,1.48866615487957,-0.6233333333333333,-0.44222222222222224,-0.13777777777777778,-0.030644693157212837,0.006051541041904338,-0.4787724448589536
1592265295.6641924,2.8294974226804124,9.340594485508655,1.3892073526551254,-0.6233333333333333,-0.44222222222222224,-0.13777777777777778,0.04176422080625388,0.2081409792074132,-0.3912523676386665
1592265295.6741924,2.31,9.37,1.35,-0.6233333333333333,-0.44222222222222224,-0.13777777777777778,0.0032724923474893677,0.03599741582238304,-0.42760566673861067
1592265295.6841924,2.4164410081577987,9.653842688420795,1.0572872275660539,-0.6233333333333333,-0.44222222222222224,-0.13777777777777778,0.0013373402105146493,-0.0317329089717321,-0.5233956975188593
1592265295.6941924,2.4968584599624384,9.333421546866997,1.1017158955096464,-0.6233333333333333,-0.44222222222222224,-0.13777777777777778,-0.05239209776221539,-0.05008490777868011,-0.39621816102863205
1592265295.7041924,2.4,9.46,1.52,-0.6044444444444445,-0.4222222222222222,-0.15222222222222223,-0.020725784867432664,0.17889624832941878,-0.5792311455056182
1592265295.7141924,1.9845009074410163,9.409122560094819,1.52,-0.6044444444444445,-0.4222222222222222,-0.15222222222222223,-0.020725784867432664,0.01702510537846036,-0.4876583274933617
1592265295.7241924,2.39261200459506,9.663104537622056,1.0711492437296573,-0.6044444444444445,-0.4222222222222222,-0.15222222222222223,-0.2229023315638839,0.059992455840841605,-0.34237921225218737
1592265295.7341924,1.95,9.25,1.14,-0.6044444444444445,-0.4222222222222222,-0.15222222222222223,-0.11453723216212788,-0.07090400086226964,-0.39924406639370286
1592265295.7441924,1.9675914166849136,9.379003722356034,1.1634552222465513,-0.6044444444444445,-0.4222222222222222,-0.15222222222222223,-0.07743799842871875,-0.01973264398860186,-0.39668549855001944
1592265295.7541924,1.86,8.95,1.75,-0.5988888888888889,-0.4488888888888889,-0.16,-0.011999138607461015,-0.02945243112740431,-0.3665191429188092
1592265295.7641923,2.0941657773034508,9.556076129491284,1.515834222696549,-0.5988888888888889,-0.4488888888888889,-0.16,-0.06609130667353927,-0.053493394712327974,-0.37553450426315554
1592265295.7741923,1.5410251751121011,9.310807713724687,1.3201397966061956,-0.5988888888888889,-0.4488888888888889,-0.16,-0.10360859174498643,0.005345713420872172,-0.45367038749618993
1592265295.7841923,1.8184974831417988,9.359731693418178,1.1011805489600153,-0.5988888888888889,-0.4488888888888889,-0.16,-0.00381101817210866,-0.13667786464862816,-0.4364259696637336
1592265295.7941923,1.8903502588576535,9.36,1.4869264237170947,-0.5988888888888889,-0.4488888888888889,-0.16,-0.04010780174838016,0.038290443338863056,-0.5092355295211787
1592265295.8041923,1.9921620320657607,9.46824304809864,1.2350683156218758,-0.5988888888888889,-0.4609158942331823,-0.16,-0.02414574354538801,-0.10509894271495272,-0.41303077481421036
1592265295.8141923,2.0186657483494037,9.629325986795232,1.040674013204769,-0.5988888888888889,-0.4622222222222222,-0.16,-0.07977318621323295,-0.08290539335939193,-0.41960523927156507
1592265295.8241923,1.845108126225886,9.280500037242097,1.2729053802418253,-0.5988888888888889,-0.4622222222222222,-0.16,-0.02888048772385489,-0.06691215115415539,-0.3956236901074602
1592265295.8341923,2.074510837025506,9.953989941324393,1.2897712848760627,-0.5988888888888889,-0.4622222222222222,-0.16,-0.04006135155523297,0.1125274701672182,-0.5664877183340731
1592265295.8441923,1.9448167799187068,9.616443885941234,1.1860129076297745,-0.5988888888888889,-0.4622222222222222,-0.16,-0.1418826665514401,0.12068902497401184,-0.4996092984083062
1592265295.8541923,1.8689315686347001,9.39764945099634,1.01170949018448,-0.6108499389995934,-0.4622222222222222,-0.17304841830258666,-0.11712459292753169,0.10193676345751707,-0.4512309910504114
1592265295.8641922,1.6638432554634515,8.8627430293896,1.2099095704596836,-0.6111111111111112,-0.4622222222222222,-0.17333333333333334,-0.19154232275136712,0.029212399033591976,-0.487721375822822
1592265295.8741922,0.7904811691641502,9.604131673408922,1.709386074867529,-0.6111111111111112,-0.4622222222222222,-0.17333333333333334,-0.06519704345096652,0.1362168957506798,-0.7082659358074379
1592265295.8841922,2.799036927692198,9.970864741315683,0.9067679340968072,-0.6111111111111112,-0.4622222222222222,-0.17333333333333334,0.47365500472318756,0.059503973811453184,-0.5108697587145945
1592265295.8941922,1.9482701883524571,9.742067547088114,1.2679432777657502,-0.6111111111111112,-0.4622222222222222,-0.17333333333333334,0.4839181822734662,-0.03154860216560275,-0.5658728964514658
1592265295.9041922,1.65,9.54,1.99,-0.5777777777777777,-0.4622222222222222,-0.18222222222222223,0.6937683776677459,0.00545415391248228,-0.5901394533305827
1592265295.9141922,1.5734587336497279,9.597405949762704,1.8305390284369332,-0.5777777777777777,-0.4622222222222222,-0.18222222222222223,0.4906006919668129,-0.011244559980745097,-0.5762238584195598
1592265295.9241922,1.484156692669464,8.88733842124532,1.4741088174828916,-0.5777777777777777,-0.4622222222222222,-0.18222222222222223,0.4452559963094124,-0.1257410955633801,-0.8433629371224207
1592265295.9341922,1.452758104334453,9.119660852321017,0.9936982476020884,-0.5777777777777777,-0.4622222222222222,-0.18222222222222223,0.5957279910263795,-0.13823464686611409,-0.7888102047393717
1592265295.9441922,1.841469374926335,9.788601343653008,0.8000734687463168,-0.5777777777777777,-0.4622222222222222,-0.18222222222222223,0.5778277610399901,-0.08488444610963924,-0.7690998152360284
1592265295.9541922,1.1500276576129354,9.845306361250975,0.3472143819587264,-0.5837109267270248,-0.47903281091175565,-0.18222222222222223,0.3239615027968695,-0.001507096326827606,-0.6185496347499821
1592265295.9641922,1.073040758676352,10.064501614205003,0.45520379338175954,-0.5844444444444444,-0.4811111111111111,-0.18222222222222223,0.3489762684520386,0.11574229643455888,-0.8187215471018835
1592265295.9741921,1.1351410573920533,9.693448368687413,0.8740438247011952,-0.5844444444444444,-0.4811111111111111,-0.18222222222222223,0.4520621469127789,-0.003932429114093916,-0.6676363616787493
1592265295.9841921,0.7789986415680186,9.862617504366389,0.8558497962352027,-0.5844444444444444,-0.4811111111111111,-0.18222222222222223,0.4065124329924167,0.07882199709524022,-0.6746680640299809
1592265295.9941921,0.48873164218958615,9.71520694259012,0.6341522029372497,-0.5844444444444444,-0.4811111111111111,-0.18222222222222223,0.32963770268390896,0.06018647919552543,-0.702326083512805
1592265296.004192,0.57778739184178,10.120815822002472,1.1914215080346107,-0.5653165773932153,-0.5042658975415465,-0.17014146408460376,0.27489609903572304,0.23141388510006708,-0.7165369420598784
1592265296.014192,0.7259560266980762,9.90190812720848,0.6111189634864547,-0.5633333333333334,-0.5066666666666667,-0.1688888888888889,0.23454061009457466,0.08833159654399159,-0.6773198315222576
1592265296.024192,0.8886857718571589,9.974800179111162,0.7695432665397962,-0.5633333333333334,-0.5066666666666667,-0.1688888888888889,0.2192507595453153,0.13364246230947652,-0.533104499479711
1592265296.034192,0.9173270691723311,9.854056377449021,0.8731027588964414,-0.5633333333333334,-0.5066666666666667,-0.1688888888888889,0.21152739786659286,0.2027802521876778,-0.649529323114434
1592265296.044192,0.6835888173394064,9.709198602167426,0.5327037851421391,-0.5633333333333334,-0.5066666666666667,-0.1688888888888889,0.1808848258215558,0.20285803316854817,-0.585271361833559
1592265296.054192,0.31294210334935957,9.89801381762353,0.8888210577350408,-0.5562990496455811,-0.53078421073896,-0.13472236811980662,0.02275566180897934,0.29453184761858703,-0.7141964108174078
1592265296.064192,0.23152292806058056,9.80304585612116,1.0829024362259532,-0.5555555555555556,-0.5333333333333333,-0.13111111111111112,0.009955400573539863,0.19634315781843223,-0.7732862161910707
1592265296.074192,0.137442173751039,9.614884347502077,0.9106067815070653,-0.5555555555555556,-0.5333333333333333,-0.13111111111111112,-0.012141022584960193,0.2255372135983038,-0.7083101096683732
1592265296.084192,0.1727752052609051,9.867345032880657,0.8920814039456788,-0.5555555555555556,-0.5333333333333333,-0.13111111111111112,-0.028027589393996744,0.2592837152832454,-0.7155002277986803
1592265296.094192,0.09566368306975997,9.817168058119933,0.92,-0.5555555555555556,-0.5333333333333333,-0.13111111111111112,0.0038324001923382353,0.12895932511945526,-0.6923300125938445
1592265296.104192,0.25886549140919085,9.844155268159964,0.5987670977600537,-0.5399972668430795,-0.5534675893141847,-0.13111111111111112,-0.07977855224641565,0.1267448121031903,-0.599432391639654
1592265296.114192,0.14586470078057243,9.828449262792715,0.7310657415437988,-0.5366666666666666,-0.5577777777777778,-0.13111111111111112,-0.10989545862806195,0.10275319441044171,-0.5978615891901871
1592265296.124192,0.09541595551395696,9.959752243572098,0.8620530749325552,-0.5366666666666666,-0.5577777777777778,-0.13111111111111112,0.006948513408715107,0.1639625028549686,-0.6227195773220982
1592265296.134192,-0.0652036477415559,9.78210253255957,1.018856737892119,-0.5366666666666666,-0.5577777777777778,-0.13111111111111112,0.12231208167028737,0.20251610560182365,-0.516471837508834
1592265296.144192,-0.2661453130655085,9.878853601158163,0.9619795512124503,-0.5366666666666666,-0.5577777777777778,-0.13111111111111112,0.11516225885532703,0.23665332998617716,-0.48295399820710727
1592265296.154192,-0.3584173939908859,10.020504363945316,0.8410782420637986,-0.5198318786848949,-0.5624541077727144,-0.14888116509187027,-0.032263972272990674,0.1584436134887764,-0.435546901354616
1592265296.164192,-0.5009857287686189,9.88415269437729,0.7959689620213678,-0.5166666666666667,-0.5633333333333334,-0.15222222222222223,-0.06523845222979174,0.1332625509388496,-0.40427177292938915
1592265296.174192,-0.6743331265508685,9.916553970223326,0.7437779156327543,-0.5166666666666667,-0.5633333333333334,-0.15222222222222223,-0.06777699773204872,0.04248251309536989,-0.41323065537845427
1592265296.184192,-0.44776051962722396,10.167356678904266,1.1381248234961876,-0.5166666666666667,-0.5633333333333334,-0.15222222222222223,-0.0792073764373641,0.1007171670493473,-0.2934889307996092
1592265296.194192,-0.594454086890492,10.33545424960677,1.0757276129522158,-0.5166666666666667,-0.5633333333333334,-0.15222222222222223,-0.11670889479007887,0.12835108909473567,-0.19540762914695153
1592265296.204192,-0.9851082126988677,10.096682313315178,1.1504797907410063,-0.5056283741818356,-0.5726734269743443,-0.16326051470705333,-0.08826219551443976,-0.09147656598384499,-0.01517207720681299
1592265296.214192,-0.7352101849627672,9.82831291536552,1.1399095203779326,-0.5022222222222222,-0.5755555555555556,-0.16666666666666666,0.020086912118728165,-0.06077911898843022,0.0029241671684841763
1592265296.224192,-0.2427609839328878,9.65511218541163,0.9419024598322195,-0.5022222222222222,-0.5755555555555556,-0.16666666666666666,0.0778597881181072,-0.0007736786732900347,-0.0723939085114465
1592265296.234192,-0.4001045902178767,9.710501092909018,0.7722962841093379,-0.5022222222222222,-0.5755555555555556,-0.16666666666666666,0.08120201569485998,0.019919666892880904,0.022037643035547422
1592265296.244192,-0.3924638495016145,9.779420188122982,0.7281159623754037,-0.5022222222222222,-0.5755555555555556,-0.16666666666666666,0.05247059925795496,-0.02369781252374443,-0.028282425907935983
1592265296.2541919,-0.36,9.82,0.9178304289815227,-0.49714964712013193,-0.5865461349434179,-0.16159409156457635,0.039412409049597724,-0.025135770309628137,-0.1800604245043582
1592265296.2641919,-0.45402239059142824,9.812164800784048,0.9251536054883335,-0.4955555555555556,-0.59,-0.16,0.051089277009114704,0.03795514642723891,-0.1428188160457014
1592265296.2741919,-0.44781657821193244,9.621349896161833,0.8532333410250493,-0.4955555555555556,-0.59,-0.16,0.02394007608017918,0.049610943714207906,-0.0013526100334301516
1592265296.2841918,-0.4595030416247545,9.674581836470757,0.8393454519327489,-0.4955555555555556,-0.59,-0.16,0.036317397031944205,-0.02036614563402158,-0.04822530650944215
1592265296.2941918,-0.30924812305438565,9.750597326496978,0.8352986632484892,-0.4955555555555556,-0.59,-0.16,0.07554481568297952,-0.03599741582238304,-0.03467739272349098
1592265296.3041918,-0.2878121396372786,9.731574588531293,0.8115745885312926,-0.49176550069306124,-0.5849465935166742,-0.15178821446459564,0.10700628006944661,0.0024516533332573226,-0.05998242787630607
1592265296.3141918,-0.18675677839453458,9.749489485482494,1.0348348099914604,-0.4888888888888889,-0.5811111111111111,-0.14555555555555555,0.17915175168600428,0.012680500298726815,-0.027008716330557403
1592265296.3241918,-0.08310725425897784,9.722485803407181,0.9358753899064225,-0.4888888888888889,-0.5811111111111111,-0.14555555555555555,0.1365016417291608,-0.003617635639143848,-0.01670760502910132
1592265296.3341918,0.020733538990593714,9.737981187417821,0.6920188125821787,-0.4888888888888889,-0.5811111111111111,-0.14555555555555555,0.05291042328701279,0.04688520230360893,-0.03735838913253628
1592265296.3441918,0.028579518293804007,9.81710240853098,0.652869277440706,-0.4888888888888889,-0.5811111111111111,-0.14555555555555555,0.1247670548726991,0.05346306266779091,-0.05406433324803073
1592265296.3541918,-0.007998044304035501,9.839001466771974,0.5420068449358757,-0.4974438468706775,-0.5811111111111111,-0.1502218962728948,0.10919733466129149,-0.06806026749435344,0.001304410272273307
1592265296.3641918,-0.0025138702888846363,9.781913143294434,0.5655729864166826,-0.5011111111111111,-0.5811111111111111,-0.15222222222222223,0.10463001774899333,-0.06208260863419901,-0.02395591282830508
1592265296.3741918,-0.07741147013234767,9.791435078097056,0.5396003338500059,-0.5011111111111111,-0.5811111111111111,-0.15222222222222223,0.06666153143004173,0.0621258500130684,0.04187466172669328
1592265296.3841918,-0.1879253396337862,9.804255404607206,0.46069155345540463,-0.5011111111111111,-0.5811111111111111,-0.15222222222222223,0.08343676383716336,0.023917273525627614,0.05415878831676953
1592265296.3941917,-0.23469659109562807,9.814494318492713,0.4451011363014573,-0.5011111111111111,-0.5811111111111111,-0.15222222222222223,0.04613619124533039,0.033913681722169305,-0.002787072947716473
1592265296.4041917,-0.20707759050946367,9.807808192882097,0.6170549391484624,-0.49813038822982386,-0.5811111111111111,-0.15222222222222223,-0.039135433656777005,0.05238973751867044,-0.05068131232800893
1592265296.4141917,-0.046913176265270515,9.859644415357767,0.6034707678883072,-0.4955555555555556,-0.5811111111111111,-0.15222222222222223,-0.05600787840967078,-0.06652830356110367,-0.09775738011218131
1592265296.4241917,-0.06658386717217937,9.876683226565564,0.5000496796966923,-0.4955555555555556,-0.5811111111111111,-0.15222222222222223,-0.04474031972507983,0.06633203798397787,-0.039718419453824746
1592265296.4341917,-0.02994638454726059,9.844525958017185,0.48,-0.4955555555555556,-0.5811111111111111,-0.15222222222222223,-0.028453323185064633,0.013679392423415843,0.04456401055654739
1592265296.4441917,-0.09053127570544689,9.801276778369871,0.5948928865205108,-0.4955555555555556,-0.5811111111111111,-0.15222222222222223,-0.07773875150399535,-0.018405160488260984,0.08248531472524594
1592265296.4541917,-0.06981681540629406,9.855119774542038,0.7099859088774072,-0.49833724753405356,-0.5883435102552059,-0.15611659099211941,-0.12815955156759207,0.04037303577659617,0.10746758296678448
1592265296.4641917,-0.1560296540362438,9.78668863261944,0.7418121911037892,-0.5011111111111111,-0.5955555555555555,-0.16,-0.17591308671666073,0.009558696757987893,0.07124185290034102
1592265296.4741917,-0.06794179764789576,9.785020786554323,0.7665020786554323,-0.5011111111111111,-0.5955555555555555,-0.16,-0.03545371012122989,0.09946346449066137,-0.030350491320317072
1592265296.4841917,-0.1359614437486808,9.75238607847276,0.8130270409718802,-0.5011111111111111,-0.5955555555555555,-0.16,-0.031032689047027343,0.03169554290322665,-0.09990578858261293
1592265296.4941916,-0.22018984761719887,9.71,0.929145685722605,-0.5011111111111111,-0.5955555555555555,-0.16,-0.13423611361059617,-0.062032390464921094,-0.030280797626700856
1592265296.5041916,-0.22874116544064618,9.675510601471226,1.065985864705034,-0.4940854928922865,-0.5955555555555555,-0.16,-0.045612437000235956,-0.043589097730769785,-0.048154876725370846
1592265296.5141916,-0.3053997479982116,9.65191033613787,1.1,-0.4888888888888889,-0.5955555555555555,-0.16,0.057397260779491505,-0.014376416374233154,-0.08256706267700933
1592265296.5241916,-0.54,9.684963189489183,1.0313512289047457,-0.4888888888888889,-0.5955555555555555,-0.16,0.005255731187746832,-0.010342815414557232,0.006960239226632442
1592265296.5341916,-0.43450577758151177,9.721098844483699,1.0110988444836977,-0.4888888888888889,-0.5955555555555555,-0.16,0.004063566117283906,-0.0929601598583906,-0.05126904677733343
1592265296.5441916,-0.4121121830444805,9.725577563391104,1.022211218304448,-0.4888888888888889,-0.5955555555555555,-0.16,0.0192569397294207,-0.09179183179489002,-0.05416352476930729
1592265296.5541916,-0.49512339168951697,9.69462982493145,1.050493566758068,-0.49230448334856686,-0.5915706953525979,-0.16,0.0708092060336705,-0.009507323088701978,-0.0800075255912835
1592265296.5641916,-0.4619917405727439,9.686334709904543,1.07,-0.4955555555555556,-0.5877777777777777,-0.16,0.12330309250005671,-0.011338333391715413,0.0073671510413014785
1592265296.5741916,-0.4817446690024828,9.684036475856788,0.9745836137086108,-0.4955555555555556,-0.5877777777777777,-0.16,0.07690656952669174,-0.03227598119146003,0.05092820803410078
1592265296.5841916,-0.4984152154419746,9.691584784558025,0.9042076077209873,-0.4955555555555556,-0.5877777777777777,-0.16,0.12818816420353057,-0.04644069582827684,0.003713324099366151
1592265296.5941916,-0.502803285072038,9.687196714927962,0.9256065701440759,-0.4955555555555556,-0.5877777777777777,-0.16,0.13565580724229565,-0.0037290742856902967,-0.06992704526040194
1592265296.6041915,-0.49674224295274794,9.697134049888462,0.9057319002230785,-0.4878029698731382,-0.5907926722098289,-0.1569851055679488,0.11623314109434738,0.017172123198395336,-0.08360931469258304
1592265296.6141915,-0.4514687645843056,9.746093739582639,0.8126875125008334,-0.47555555555555556,-0.5955555555555555,-0.15222222222222223,0.19550416335647997,-0.02928879560099475,0.002522532548229186
1592265296.6241915,-0.39505508392197525,9.79,0.6740635733264209,-0.47555555555555556,-0.5955555555555555,-0.15222222222222223,0.1353591566098985,-0.023433457180436476,0.12671801095464655
1592265296.6341915,-0.39367994694206265,9.796320053057938,0.5583997347103131,-0.47555555555555556,-0.5955555555555555,-0.15222222222222223,0.09642031517353047,-0.015472702657764053,0.052035816740414714
1592265296.6441915,-0.39,9.804806691179149,0.5303866176417052,-0.47555555555555556,-0.5955555555555555,-0.15222222222222223,0.029922017716032243,-0.06343120043310883,0.02088312119421016
1592265296.6541915,-0.4092881282807219,9.81,0.5392881282807219,-0.48198493164912953,-0.5955555555555555,-0.14900753417543525,-0.005687113387855435,-0.058901175690720224,0.05738325253670632
1592265296.6641915,-0.4255311792059139,9.816703231191129,0.555531179205914,-0.4888888888888889,-0.5955555555555555,-0.14555555555555555,0.026926885385838054,-0.05676286962849002,0.04061644102920064
1592265296.6741915,-0.36184466946885746,9.850701184562476,0.4704423003439052,-0.4888888888888889,-0.5955555555555555,-0.14555555555555555,0.07819739467836889,-0.050117046939685536,-0.04488172610355427
1592265296.6841915,-0.3572331613575046,9.849361953897855,0.43659511525536043,-0.4888888888888889,-0.5955555555555555,-0.14555555555555555,0.0029485527285476043,-0.01561834031758888,-0.1346593864772736
1592265296.6941915,-0.35810132047637894,9.84,0.4719620048213579,-0.4888888888888889,-0.5955555555555555,-0.14555555555555555,-0.00858860963700759,-0.06263302852683955,-0.12310511864391084
1592265296.7041914,-0.31667711475923677,9.833322885240763,0.4866614426203816,-0.4911145938086345,-0.5929588998158524,-0.1574259817941987,0.030909151590931685,-0.028686460462360952,-0.03736181976786033
