time,acc_x,acc_y,acc_z,mag_x,mag_y,mag_z,gyr_x,gyr_y,gyr_z
1592271994.3263056,-0.29,9.703888708922722,0.9683338732318324,-0.30666666666666664,-0.5511111111111111,0.24333333333333335,0.036845800501797914,-0.09175118546261377,0.05211813818223097
1592271994.3363056,-0.28096617264396423,9.725056378926727,0.9409661726439642,-0.3126892182373571,-0.5487690077225092,0.24768295391216538,0.006645071103464378,-0.044353376251337784,0.05507381123308247
1592271994.3463056,-0.2711990241335598,9.7320024396661,0.9311990241335597,-0.32666666666666666,-0.5433333333333333,0.2577777777777778,0.004313515768800791,0.11187022930181578,0.052234406842208675
1592271994.3563056,-0.2904858822481518,9.689028235503697,0.9295141177518482,-0.32666666666666666,-0.5433333333333333,0.2577777777777778,0.058851860723513366,0.06712979145295467,0.02157380936815673
1592271994.3663056,-0.31965616045845274,9.689656160458453,0.9396561604584527,-0.32666666666666666,-0.5433333333333333,0.2577777777777778,0.09801692814813068,0.013636947576023031,0.06069269952583432
1592271994.3763056,-0.35480182844850766,9.706299542887873,0.9711013713363807,-0.32666666666666666,-0.5433333333333333,0.2577777777777778,0.14850679971942152,0.04742952187573754,0.1045804901410286
1592271994.3863056,-0.352299403858259,9.712591180064427,0.9723723479098012,-0.3249878426580763,-0.5433333333333333,0.25414032575916534,0.17461249481625518,0.05786973020408773,0.10144346604933727
1592271994.3963056,-0.28553345561087157,9.765533455610871,0.9044665443891284,-0.32,-0.5433333333333333,0.24333333333333335,0.2253318449824664,0.041184610980682046,0.05973203424046862
1592271994.4063056,-0.31985224491663045,9.775036938770842,0.8552585713958967,-0.32,-0.5433333333333333,0.24333333333333335,0.22159176585032989,-0.005381624805537854,0.08918073701674813
1592271994.4163055,-0.35413137546995815,9.77,0.8388418339599442,-0.32,-0.5433333333333333,0.24333333333333335,0.19454688823468963,0.003226296279024418,0.06462866089075968
1592271994.4263055,-0.40822987321992965,9.783901772079973,0.8634754430199936,-0.32,-0.5433333333333333,0.24333333333333335,0.15464014859690361,0.017932484848487674,0.10503115265668515
1592271994.4363055,-0.5315363393395982,9.821203552030347,0.856555737563583,-0.3170123861252407,-0.5433333333333333,0.2495575289057486,0.09467600522067933,0.008500373403459322,0.16933711357158882
1592271994.4463055,-0.71,9.86,0.81,-0.30666666666666664,-0.5433333333333333,0.27111111111111114,0.10144726277217041,0.015271630954950384,0.22689280275926282
1592271994.4563055,-1.1129309850266766,10.053584992255178,0.6594590098101084,-0.30666666666666664,-0.5433333333333333,0.27111111111111114,0.207023111352019,0.002848388153066872,0.24888645703484064
1592271994.4663055,-1.3112033688618197,10.15560168443091,0.5656016844309097,-0.30666666666666664,-0.5433333333333333,0.27111111111111114,0.08783222466334474,-0.15808754558155988,0.3669643561390634
1592271994.4763055,-1.3044377892730739,10.185805426989745,0.5681459297576913,-0.30666666666666664,-0.5433333333333333,0.27111111111111114,0.09466350106953386,-0.1935346054377742,0.45753218704083815
1592271994.4863055,-1.2041247148288974,10.18706235741445,0.5631072243346008,-0.30848711449091676,-0.5433333333333333,0.268926573722011,0.10683994857744128,-0.14549998694405028,0.5307226057077461
1592271994.4963055,-1.11,10.14,0.59,-0.31222222222222223,-0.5433333333333333,0.2644444444444444,0.07090400086226964,-0.05235987755982988,0.6348635154129374
1592271994.5063055,-0.9731725190839695,10.072971825121444,0.5516866065232477,-0.31222222222222223,-0.5433333333333333,0.2644444444444444,0.07563528445495904,-0.1877896153191177,0.7726016358149349
1592271994.5163054,-0.8693574911559423,10.05,0.4949196863944928,-0.31222222222222223,-0.5433333333333333,0.2644444444444444,0.03886690882542587,-0.2670608028947225,0.8497767350453509
1592271994.5263054,-0.83,10.05,0.49,-0.31222222222222223,-0.5433333333333333,0.2644444444444444,0.014180800172453926,-0.2552544031041707,0.9512044423369095
1592271994.5363054,-0.7648175913898683,10.004817591389868,0.5577736129151977,-0.3142376033483846,-0.5470761839962063,0.25897412424486094,0.05896101301729972,-0.13885387246012848,1.1214454574885733
1592271994.5463054,-0.75,9.99,0.58,-0.32,-0.5577777777777778,0.24333333333333335,-0.025089107997418484,-0.16471544815696484,1.1715522604011936
1592271994.5563054,-0.4971469412759999,9.973595787508387,0.4835511537676128,-0.32,-0.5577777777777778,0.24333333333333335,-0.023941602002003737,-0.10551397183162763,1.417942322890369
1592271994.5663054,-0.2324562285933271,9.876228114296664,0.34517544489952334,-0.32,-0.5577777777777778,0.24333333333333335,-0.040016332078883964,-0.13689922401271878,1.4566706219172674
1592271994.5763054,-0.16,9.84,0.34,-0.32,-0.5577777777777778,0.24333333333333335,0.014180800172453926,-0.16907877128695067,1.3962634015954636
1592271994.5863054,0.16815683136627327,9.893910382076415,0.2839663932786557,-0.32491627214331753,-0.5519676379720388,0.2462384032362028,0.0179831495525614,-0.0030231221898104413,1.4877532275604344
1592271994.5963054,0.28,9.83,0.26,-0.34444444444444444,-0.5288888888888889,0.2577777777777778,-0.07090400086226964,-0.13635384781205698,1.543525557232485
1592271994.6063054,0.5244054030701881,9.804831082054088,0.05923648512427637,-0.34444444444444444,-0.5288888888888889,0.2577777777777778,-0.13693132428488516,-0.3168214818517988,1.5443705811533632
1592271994.6163054,0.7956010564888403,9.716879788702231,0.22398467615285775,-0.34444444444444444,-0.5288888888888889,0.2577777777777778,-0.13637448290633397,-0.3085739812624878,1.681302240218104
1592271994.6263053,0.93,9.69,0.31,-0.34444444444444444,-0.5288888888888889,0.2577777777777778,-0.09708393964218458,-0.2792526803190927,1.7311484518218756
1592271994.6363053,1.022965687265085,9.556119710625227,0.5021452532029261,-0.35273406170993366,-0.5242621257639647,0.2552716144184438,-0.17509044231843432,-0.2561009509231699,1.809437372232138
1592271994.6463053,1.18,9.49,0.56,-0.39222222222222225,-0.5022222222222222,0.24333333333333335,-0.19853120241435498,-0.27052603405912107,1.93295214658372
1592271994.6563053,1.4572013487475914,9.481399325626205,0.4870183044315992,-0.39222222222222225,-0.5022222222222222,0.24333333333333335,-0.23259943460574778,-0.37478786093844096,1.8083144834406009
1592271994.6663053,1.6,9.41,0.5,-0.39222222222222225,-0.5022222222222222,0.24333333333333335,-0.29561514205653955,-0.3981532356112064,1.878410607458897
1592271994.6763053,2.10550498038032,9.116872924841534,1.0062541503169333,-0.39222222222222225,-0.5022222222222222,0.24333333333333335,-0.16097033929719193,-0.3106735457205921,1.8992216042208394
1592271994.6863053,2.3135488721804514,9.02560902255639,1.1717744360902256,-0.39643776106934003,-0.49815204678362573,0.2414436090225564,-0.06450336670692954,-0.23251099137587994,1.7844449675423153
1592271994.6963053,2.4974679678530425,8.926076004592423,1.28139196326062,-0.42444444444444446,-0.4711111111111111,0.2288888888888889,0.09121476907677041,-0.0801705019065156,1.8053533742609833
1592271994.7063053,2.5705945705604822,8.9391216066003,1.2190946817182522,-0.42444444444444446,-0.4711111111111111,0.2288888888888889,0.1312431939073623,-0.040415195613471705,1.7542563451132542
1592271994.7163053,2.6559796125439488,8.981993204181316,1.0080181221831568,-0.42444444444444446,-0.4711111111111111,0.2288888888888889,0.15375277768510837,-0.20704413037075486,1.903450294868232
1592271994.7263052,2.748379180826328,9.005904489357896,0.9334297978894652,-0.42444444444444446,-0.4711111111111111,0.2288888888888889,0.3093902413652619,-0.16466491602091288,2.011856613743083
1592271994.7363052,2.8762959139101776,9.02,0.8437862843982051,-0.42836529934214884,-0.4676383539160015,0.22821674233499673,0.339046346800008,-0.09118986683890161,1.9424241339577135
1592271994.7463052,3.2,9.02,0.61,-0.4633333333333333,-0.43666666666666665,0.2222222222222222,0.3567016658763411,-0.08726646259971647,1.8031432834666417
1592271994.7563052,3.3403670938404297,8.925521289789168,0.4885903265812319,-0.4633333333333333,-0.43666666666666665,0.2222222222222222,0.210576788136573,-0.21385568387269874,1.9066873403572298
1592271994.7663052,3.4461867258537984,8.913813274146202,0.40992768669005514,-0.4633333333333333,-0.43666666666666665,0.2222222222222222,0.22910601695804458,-0.194074627193419,1.7805413664980325
1592271994.7763052,3.59306777498139,8.85885753783985,0.5017842331005636,-0.4633333333333333,-0.43666666666666665,0.2222222222222222,0.22336261512447605,-0.07102862415148258,1.850407487571418
1592271994.7863052,3.8739734207172765,8.82594320043692,0.6050416894229018,-0.4657373627040476,-0.43521423225519346,0.22282322956490078,0.26939882239197993,-0.07388147442030392,1.8459807027734585
1592271994.7963052,4.17,8.74,0.5,-0.5166666666666667,-0.40444444444444444,0.23555555555555555,0.3610649890063269,-0.06763150851478027,1.8522306686789822
1592271994.8063052,4.210713728549142,8.48638065522621,0.5433814352574102,-0.5166666666666667,-0.40444444444444444,0.23555555555555555,0.40961759485298954,-0.039560909829477554,1.6778534548938993
1592271994.8163052,4.33,8.55,0.44,-0.5166666666666667,-0.40444444444444444,0.23555555555555555,0.3567016658763411,-0.015271630954950384,1.7038776822594641
1592271994.8263052,4.464745359913581,8.679490719827163,0.197229892958853,-0.5166666666666667,-0.40444444444444444,0.23555555555555555,0.38491010213867866,0.013965333508807323,1.5979180886367488
1592271994.8363051,4.440031817735441,8.630063635470883,0.09013787685357949,-0.5166666666666667,-0.40444444444444444,0.23555555555555555,0.440623906747054,0.02834308953677514,1.53052235725565
1592271994.8463051,4.52,8.77,0.02,-0.5611111111111111,-0.36,0.2311111111111111,0.27598018797160334,0.002181661564992912,1.5653421728824144
1592271994.8563051,4.5651574074074075,8.613166666666666,-0.29678703703703707,-0.5611111111111111,-0.36,0.2311111111111111,0.2639517585375753,-0.08008414991977916,1.5303113543367433
1592271994.866305,4.8314681440443215,8.81623555258382,-0.34369185213487435,-0.5611111111111111,-0.36,0.2311111111111111,0.20576429929651557,-0.12919202118065845,1.5815966872809877
1592271994.876305,4.982245338449547,8.853878529887885,-0.3008165957191678,-0.5611111111111111,-0.36,0.2311111111111111,0.1945241863832984,-0.08566281904873542,1.3600656611321078
1592271994.886305,4.938473890769646,8.558447826477726,-0.24328260283411726,-0.5628357483580828,-0.3517217412145361,0.22886908269004796,0.14825576296830836,-0.2768319961248066,1.3250511288625182
1592271994.896305,5.42,8.55,-0.37,-0.5722222222222222,-0.30666666666666664,0.21666666666666667,0.08835729338221293,-0.02617993877991494,1.186823891356144
1592271994.906305,5.590923174201707,8.30752450205501,-0.28486721466961745,-0.5722222222222222,-0.30666666666666664,0.21666666666666667,0.07506436669996991,-0.06741182492058165,1.1664993652985232
1592271994.916305,5.86014643600603,8.314960878616036,-0.5669628885220013,-0.5722222222222222,-0.30666666666666664,0.21666666666666667,-0.11074810055665907,-0.13740529248561686,1.1124992499990531
1592271994.926305,5.7,8.12,-0.56,-0.5722222222222222,-0.30666666666666664,0.21666666666666667,-0.15707963267948966,-0.23234695667174513,0.8595746566072073
1592271994.936305,6.086913016535664,8.160816020351588,-0.34293304197514757,-0.5756915589474867,-0.3026191071538581,0.21753400084798277,-0.13373803837064763,-0.09090340720042309,0.8680871640432709
1592271994.946305,6.2,8.3,-0.63,-0.5988888888888889,-0.27555555555555555,0.22333333333333333,-0.15271630954950383,-0.12980886311707826,0.8083056098298738
1592271994.956305,5.822611416539947,7.892817581003626,-0.15329863141887945,-0.5988888888888889,-0.27555555555555555,0.22333333333333333,-0.25779974936185407,0.07927468207656699,0.8213056230025358
1592271994.966305,6.340139283683911,8.069059124502559,-0.015400795906765213,-0.5988888888888889,-0.27555555555555555,0.22333333333333333,-0.21454390374172336,-0.04780849619516978,0.6771854552462869
1592271994.976305,6.263920684047632,7.9119970623721345,-0.04417038241619892,-0.5988888888888889,-0.27555555555555555,0.22333333333333333,-0.14194733829041972,-0.11875320758897526,0.6475306112004897
1592271994.986305,6.4619414572732525,7.919331165084195,0.3812075748832817,-0.5988888888888889,-0.27555555555555555,0.22333333333333333,-0.3387538572979425,0.058052648917782945,0.6139294981992053
1592271994.996305,6.27,7.84,0.53,-0.6233333333333333,-0.25,0.2311111111111111,-0.20725784867432664,0.05235987755982988,0.5966844380255614
1592271995.006305,6.177908612604369,8.136838899691181,0.17567310991650462,-0.6233333333333333,-0.25,0.2311111111111111,-0.20047948882452005,0.047925749618101324,0.4226693860813552
1592271995.016305,5.945676935886761,7.918612108956822,0.3441296538598787,-0.6233333333333333,-0.25,0.2311111111111111,-0.212152327376006,0.11181582539801177,0.3668604184182885
1592271995.026305,6.031251324059035,8.061876986088553,0.234373278723254,-0.6233333333333333,-0.25,0.2311111111111111,-0.23214382689465007,0.350228858883728,0.3937887570217377
1592271995.036305,5.9572046465645085,7.950806969846763,0.3306339594661394,-0.6233333333333333,-0.25,0.2311111111111111,-0.15379460359661076,0.12648932431097654,0.458406673143832
1592271995.046305,6.08,7.98,0.25,-0.65,-0.22333333333333333,0.21666666666666667,-0.13308135546456762,0.04363323129985824,0.5006913291658732
1592271995.056305,6.084610294117646,7.787690716911765,0.2907752757352941,-0.65,-0.22333333333333333,0.21666666666666667,-0.2332713555517651,0.24753582284627726,0.5129378597729491
1592271995.066305,6.205353846153846,7.842205128205128,0.1702769230769231,-0.65,-0.22333333333333333,0.21666666666666667,-0.19634954084936207,0.23025591797175962,0.5959661679103175
1592271995.076305,6.1049838885006595,7.942958110101716,0.4370741128969641,-0.65,-0.22333333333333333,0.21666666666666667,-0.180800924929239,0.3211532363089478,0.36128948213382184
1592271995.086305,6.145692600357171,8.048800760928644,0.24981403835701532,-0.65,-0.22333333333333333,0.21666666666666667,-0.053798861143898785,0.2891806887825685,0.34530320837063216
1592271995.096305,5.8261462524562555,7.887707495087489,0.43073126228127634,-0.6488888888888888,-0.23222222222222222,0.2088888888888889,-0.15522462323498748,0.0690091072474427,0.32559045644314044
1592271995.106305,5.893243727598566,7.959956989247312,0.29672401433691753,-0.6488888888888888,-0.23222222222222222,0.2088888888888889,-0.04690572364734761,-0.027278980116688254,0.08473682992489495
1592271995.1163049,6.272004673007481,8.133179769181751,0.0545852115833943,-0.6488888888888888,-0.23222222222222222,0.2088888888888889,-0.053976004211813915,0.02882781201421536,0.0049288580429947115
1592271995.1263049,6.005848349910525,7.9379241749552625,0.2365568687835532,-0.6488888888888888,-0.23222222222222222,0.2088888888888889,-0.11457316343535381,0.144473861596832,-0.03533396971681085
1592271995.1363049,6.354951516917058,8.112475758458528,0.10564318115610305,-0.6488888888888888,-0.23222222222222222,0.2088888888888889,-0.15741456752959823,-0.11638268777701177,0.1198471162245634
1592271995.1463048,6.22,7.89,-0.03,-0.6555555555555556,-0.20555555555555555,0.17333333333333334,-0.1854412330243975,-0.12544553998709243,-0.009817477042468103
1592271995.1563048,6.067968846709305,7.790859810191871,-0.049295956261605114,-0.6555555555555556,-0.20555555555555555,0.17333333333333334,-0.14564256336835316,-0.024628987606493378,0.0854089895517828
1592271995.1663048,6.026296914095079,7.723544620517098,-0.17090075062552126,-0.6555555555555556,-0.20555555555555555,0.17333333333333334,-0.22426079821067046,-0.033255327433355256,0.05710894902324232
1592271995.1763048,5.976976860607409,7.784746912893537,0.10151852263878074,-0.6555555555555556,-0.20555555555555555,0.17333333333333334,-0.2525877593139862,-0.15178068764127736,0.22129387622207056
1592271995.1863048,6.3735899432639895,7.753640004449883,0.28815997330070087,-0.6555555555555556,-0.20555555555555555,0.17333333333333334,-0.2432563566623613,-0.20437586622316317,0.13646294302548057
1592271995.1963048,6.16,7.84,0.28,-0.6733333333333333,-0.20777777777777778,0.16,-0.22689280275926282,-0.10690141668465267,0.18980455615438332
1592271995.2063048,6.292461783017618,7.671999205192741,0.4036926745264274,-0.6733333333333333,-0.20777777777777778,0.16,-0.2745032241891086,-0.37445598087424126,0.043449369452242856
1592271995.2163048,6.33,7.55,0.46,-0.6733333333333333,-0.20777777777777778,0.16,-0.25198191075668136,-0.2127120025868089,0.15707963267948966
1592271995.2263048,6.34997585610237,7.49007243169289,0.4400241438976299,-0.6733333333333333,-0.20777777777777778,0.16,-0.21820697870474456,0.03678668902265944,0.09061928251277539
1592271995.2363048,6.340788351648351,7.186015604395605,0.5505397802197802,-0.6733333333333333,-0.20777777777777778,0.16,-0.23223384591060625,0.10139768391374836,0.18197893612075375
1592271995.2463048,6.57,7.16,0.73,-0.6733333333333333,-0.20777777777777778,0.14555555555555555,-0.14180800172453928,-0.27270769562411395,0.3239767424014474
1592271995.2563047,6.550263634217361,7.107100023609035,0.6855182183048713,-0.6733333333333333,-0.20777777777777778,0.14555555555555555,-0.1688140257031607,-0.1624356659038163,0.06236174938633846
1592271995.2663047,6.56,7.0,0.52,-0.6733333333333333,-0.20777777777777778,0.14555555555555555,-0.038179077387375956,0.08290313946973066,0.3108867730114899
1592271995.2763047,6.627628707046939,7.173902389549271,0.6359349263661812,-0.6733333333333333,-0.20777777777777778,0.14555555555555555,0.008191564309743868,-0.056208785621628815,0.27716266995903915
1592271995.2863047,6.547061513629842,7.373523134863701,0.6860769368723099,-0.6733333333333333,-0.20777777777777778,0.14555555555555555,0.07415301765489897,0.05150067225195247,0.35941534220334964
1592271995.2963047,6.34,7.28,0.61,-0.6733333333333333,-0.2222222222222222,0.13333333333333333,0.10362892433716332,0.11562806294462433,0.22907446432425577
1592271995.3063047,6.738703176861071,7.595253674727359,0.6841773352299667,-0.6733333333333333,-0.2222222222222222,0.13333333333333333,0.06721721005258033,0.09337645977071252,0.3170694405119979
1592271995.3163047,6.46,7.59,0.33,-0.6733333333333333,-0.2222222222222222,0.13333333333333333,-0.08835729338221293,0.056723200689815706,0.23561944901923448
1592271995.3263047,6.71071581535533,7.608571541878173,0.5157154187817259,-0.6733333333333333,-0.2222222222222222,0.13333333333333333,0.039270686840323116,-0.010129550855322217,0.23359360806332122
1592271995.3363047,6.865893385091065,7.519404409939289,0.448463968945361,-0.6733333333333333,-0.2222222222222222,0.13333333333333333,-0.0892668565429729,-0.0607308818174105,0.2561674128854716
1592271995.3463047,6.95,7.44,0.59,-0.6855555555555556,-0.2088888888888889,0.1111111111111111,0.009817477042468103,-0.17998707911191522,-0.03381575425739013
1592271995.3563046,7.086394050546173,7.303605949453827,0.5315454069087832,-0.6855555555555556,-0.2088888888888889,0.1111111111111111,0.03107216688320279,-0.04714526760732346,-0.02318840933702279
1592271995.3663046,6.817507637960665,7.469691139965629,0.03381038762650372,-0.6855555555555556,-0.2088888888888889,0.1111111111111111,-0.1837696291028337,0.03230927466327029,-0.09537864431732332
1592271995.3763046,7.058169781264453,7.223998732464329,0.33570288278720817,-0.6855555555555556,-0.2088888888888889,0.1111111111111111,-0.09716783389225583,0.00026909687962717267,0.0038764748939376613
1592271995.3863046,7.173119508059129,7.561663554923691,0.13454086089652456,-0.6855555555555556,-0.2088888888888889,0.1111111111111111,-0.0062595760825426144,0.0347515394971046,-0.14110652247500152
1592271995.3963046,7.018663625423302,7.422857182838432,0.2693087235173939,-0.6952995375941837,-0.19825909030129457,0.1111111111111111,-0.1292810171505684,-0.025496272928323162,-0.13718328951616957
1592271995.4063046,7.3326627118644065,7.605042372881356,0.22198305084745762,-0.6977777777777778,-0.19555555555555557,0.1111111111111111,-0.18295672725233186,0.039764294866888615,-0.3178797378735854
1592271995.4163046,6.977466546853939,7.392479928112364,0.11526811353558242,-0.6977777777777778,-0.19555555555555557,0.1111111111111111,-0.04352943499305548,0.057270075749923724,-0.3305831397337092
1592271995.4263046,7.160358466906553,7.4708186130193,0.06383627739614,-0.6977777777777778,-0.19555555555555557,0.1111111111111111,-0.08021662224490717,0.23042500822566847,-0.357438223462276
1592271995.4363046,6.995264374786795,7.221725732479248,0.37063336239244965,-0.6977777777777778,-0.19555555555555557,0.1111111111111111,-0.035091029421523125,0.041163801768895725,-0.33334102624348555
1592271995.4463046,7.199253866285987,7.455847014037593,0.4371187247204378,-0.6900922885769424,-0.20952917228434714,0.1111111111111111,-0.0936246071613811,-0.2613202579615176,-0.5255157880676669
1592271995.4563046,7.205697590440549,7.512992580920491,0.5210649333595956,-0.6855555555555556,-0.21777777777777776,0.1111111111111111,-0.003143577935533881,0.0042226631827188,-0.6759572760355086
1592271995.4663045,7.059692735060859,7.289487891768099,0.29938547012171846,-0.6855555555555556,-0.21777777777777776,0.1111111111111111,-0.12406443320710779,0.0567008557528826,-0.790040798239098
1592271995.4763045,7.327321571041054,7.165669607239736,0.48529029610886953,-0.6855555555555556,-0.21777777777777776,0.1111111111111111,-0.22331597983786083,0.02535206214556182,-0.7270313687371242
1592271995.4863045,7.401393408232716,7.254426367069134,0.3697538576290149,-0.6855555555555556,-0.21777777777777776,0.1111111111111111,-0.14558108323910218,0.023072868675466037,-0.9245263044438476
1592271995.4963045,7.313792064611243,7.309525991923595,0.49004583039548744,-0.6855555555555556,-0.21777777777777776,0.09946823209338432,-0.265835762352829,0.07190141776582146,-0.9521768626373754
1592271995.5063045,7.128495679682705,7.0998371027905,0.6146343075688181,-0.6855555555555556,-0.21777777777777776,0.09888888888888889,-0.05913514245824325,-0.09046823816811486,-0.9531910018194577
1592271995.5163045,7.245886526415052,7.359756842317968,0.2513323154987763,-0.6855555555555556,-0.21777777777777776,0.09888888888888889,-0.0628194750238497,-0.15408399322868274,-1.0720705944156605
1592271995.5263045,6.87309909146293,7.161827669324293,0.5472982279553943,-0.6855555555555556,-0.21777777777777776,0.09888888888888889,-0.11413849657029543,-0.06836830254316635,-1.1340739463695215
1592271995.5363045,6.935485424488432,7.143628643877892,0.599114068366324,-0.6855555555555556,-0.21777777777777776,0.09888888888888889,-0.01274447066964679,-0.0033413433616343163,-1.2353638563283351
1592271995.5463045,6.94,7.26,0.71,-0.6977777777777778,-0.2577777777777778,0.08333333333333333,-0.0839939702522271,0.061086523819801536,-1.3362677085581585
1592271995.5563045,6.932101242017004,7.331088821846961,0.4651385025271324,-0.6977777777777778,-0.2577777777777778,0.08333333333333333,-0.11415069948192187,0.050747073798191905,-1.4198449295661697
1592271995.5663044,6.693285274247405,7.444685890301038,0.494685890301038,-0.6977777777777778,-0.2577777777777778,0.08333333333333333,-0.27813533619036984,0.12339554161001609,-1.3511863647088744
1592271995.5763044,6.27089131108832,7.107490399980919,0.633198177785198,-0.6977777777777778,-0.2577777777777778,0.08333333333333333,0.028612850204582208,-0.04569097207354647,-1.5235546927262735
1592271995.5863044,6.298174318940887,7.114087159470444,0.6480290531568146,-0.6977777777777778,-0.2577777777777778,0.08333333333333333,-0.01483263861437064,-0.08431988947318547,-1.5273622464048682
1592271995.5963044,6.576952389739804,7.446275143015317,0.8378553853724549,-0.6714121096553279,-0.29622771045635043,0.08992475036394579,-0.11141980593620762,0.2772234009099126,-1.5562707712210484
1592271995.6063044,6.383302109635904,7.990919198501263,0.8329750753441394,-0.6711111111111111,-0.2966666666666667,0.09,-0.28707206314988204,0.37262409019012466,-1.6991474021259994
1592271995.6163044,5.992219318419402,8.10231915116036,0.5131669454317374,-0.6711111111111111,-0.2966666666666667,0.09,-0.39957595673370455,0.16042818441773016,-1.8335696054886634
1592271995.6263044,5.805777635722234,8.044640481094774,0.026404810947747215,-0.6711111111111111,-0.2966666666666667,0.09,-0.359075785972744,0.34990306567164065,-1.6711126761704067
1592271995.6363044,5.486599325378115,7.791763084400275,0.5936968191215408,-0.6711111111111111,-0.2966666666666667,0.09,-0.29284131973126865,0.11397587230730033,-1.5687032301969568
1592271995.6463044,4.641714220497603,8.095527657308072,1.0211009662938446,-0.6417303676650857,-0.3585760903565058,0.0585206320221157,-0.5699992129484663,0.29862503160437753,-1.6715674952541844
1592271995.6563044,4.587628153623654,8.107628153623654,0.8753519202956773,-0.64,-0.3622222222222222,0.056666666666666664,-0.5036103488678694,0.46209330825123285,-1.5469478350377348
1592271995.6663043,4.845677792636664,8.22398296989711,0.6560170301028903,-0.64,-0.3622222222222222,0.056666666666666664,-0.3559668041903843,0.23800006863994155,-1.624380973831321
1592271995.6763043,4.260041174790556,8.222030178979438,1.2779286462300077,-0.64,-0.3622222222222222,0.056666666666666664,-0.3641938321078254,0.07100725281443043,-1.4626739045004569
1592271995.6863043,4.477487691888455,8.466418021618676,1.2404808792805886,-0.64,-0.3622222222222222,0.056666666666666664,-0.42625255699514886,0.1231766238497436,-1.5899184942992555
1592271995.6963043,4.430012554927809,8.55428750784683,1.5585457208621052,-0.6285722257097022,-0.3955532305689242,0.04428657785217735,-0.3724464695059337,0.07246800431940831,-1.5636345970121788
1592271995.7063043,4.190704426573266,8.698251031177271,1.3671011821093626,-0.6266666666666667,-0.4011111111111111,0.042222222222222223,-0.277073658043271,0.07032016496151508,-1.525058274949058
1592271995.7163043,3.8612088867423324,8.07847790388795,1.549699347983579,-0.6266666666666667,-0.4011111111111111,0.042222222222222223,-0.303416650014621,0.26947039646487414,-1.2044059709250037
1592271995.7263043,4.5564634928172865,9.042090704024695,1.9219294788080257,-0.6266666666666667,-0.4011111111111111,0.042222222222222223,-0.41868851684797875,0.2479307234870746,-1.04109677279201
1592271995.7363043,3.68752969944707,8.841252030146535,1.7285590977937555,-0.6266666666666667,-0.4011111111111111,0.042222222222222223,-0.34123915595693227,0.2059574471610117,-0.9013835595667044
1592271995.7463043,3.5349928220627125,9.031103135625237,2.0342961843596523,-0.6146298954791588,-0.4322061033455064,0.03620383662846829,-0.31531026285633956,0.44278078368930707,-0.7336921249458574
1592271995.7563043,3.1774597254186174,8.993672724386954,2.0309324656773273,-0.6133333333333333,-0.43555555555555553,0.035555555555555556,-0.19016268383847093,0.3321741180159002,-0.651358857497272
1592271995.7663043,3.347986597624124,8.963761803228754,1.8633932378921718,-0.6133333333333333,-0.43555555555555553,0.035555555555555556,-0.06557976313497045,0.36070614123139666,-0.6300702394859518
1592271995.7763042,2.6527368245496996,8.857533832078529,1.4506940341179835,-0.6133333333333333,-0.43555555555555553,0.035555555555555556,0.19167909994188745,0.29948042863156066,-0.28976199752714876
1592271995.7863042,3.272980519249261,9.137192207699705,1.4804498023433883,-0.6133333333333333,-0.43555555555555553,0.035555555555555556,0.31653124637991614,0.3992629079809927,-0.11510667543324982
1592271995.7963042,3.0946684350132627,8.799499096605544,1.6233137277515088,-0.5859990090424874,-0.46666013147272517,-0.00026183489451855196,0.4761404448678875,0.22823096064571363,-0.12034002587492829
1592271995.8063042,3.3579209268113277,8.962602427363002,1.623525928650239,-0.5811111111111111,-0.4722222222222222,-0.006666666666666667,0.44421377602593715,0.2578147462342973,-0.013877541993531875
1592271995.8163042,3.262679233707928,9.285885223501856,1.2044017177435098,-0.5811111111111111,-0.4722222222222222,-0.006666666666666667,0.3662111880139824,0.36600245761523476,0.2754165976440025
1592271995.8263042,2.6841761078445434,9.344194751183135,1.3850093216692958,-0.5811111111111111,-0.4722222222222222,-0.006666666666666667,0.4474724595184644,0.20661849324509057,0.13061169454914073
1592271995.8363042,2.6625707445828986,9.42647535449021,1.3187631207415138,-0.5811111111111111,-0.4722222222222222,-0.006666666666666667,0.4022211351691356,0.08717914792656101,0.06589693289507795
1592271995.8463042,2.812226506211785,9.6747361451883,1.3919819293531175,-0.5694737616457444,-0.4722222222222222,-0.01203775103529748,0.07990585068219813,0.013769439247621862,0.15355441017173735
1592271995.8563042,3.0682918766377743,9.26031646845394,1.258262850231808,-0.5666666666666667,-0.4722222222222222,-0.013333333333333334,0.14230427366086149,0.01226084124751892,0.3664176897192438
1592271995.8663042,3.498965636286382,9.208138145315488,0.7039032292330571,-0.5666666666666667,-0.4722222222222222,-0.013333333333333334,0.22070589537739324,0.18616205154895824,0.5694332510425256
1592271995.8763041,3.568686306688548,9.178539006524437,0.8155493735740303,-0.5666666666666667,-0.4722222222222222,-0.013333333333333334,0.22501381257017614,0.23874863965643472,0.6225462924180735
1592271995.8863041,3.3733360549636564,9.057105048292343,0.9929831723588569,-0.5666666666666667,-0.4722222222222222,-0.013333333333333334,0.2794722367607673,0.14218242290082342,0.6731956762320419
1592271995.8963041,3.5919126585127934,9.108191265851278,0.9881912658512794,-0.5624231926831912,-0.4832552545792585,0.0036405626005686035,0.40170602735200706,-0.02902017500356821,0.5783149442327229
1592271995.9063041,3.5996393221355727,9.00004274145171,1.023991451709658,-0.5611111111111111,-0.4866666666666667,0.008888888888888889,0.4444428721669401,0.12847673428356465,0.5146660853415433
1592271995.916304,3.6349617688464404,8.645305435172661,0.7865649929610512,-0.5611111111111111,-0.4866666666666667,0.008888888888888889,0.3732765004160886,0.3865496048384568,0.738946152125695
1592271995.926304,3.772237522209659,8.724944677758035,0.7319613148118236,-0.5611111111111111,-0.4866666666666667,0.008888888888888889,0.2708364477452886,0.3287318378210279,0.865158358788601
1592271995.936304,3.8292500147634887,8.99284088895888,0.9477726816401253,-0.5611111111111111,-0.4866666666666667,0.008888888888888889,0.24404114107017455,0.2447700292989858,0.8896270543276655
1592271995.946304,3.580678318048105,9.073288112130127,0.8143055892022841,-0.5611111111111111,-0.46894918382649825,-0.014734421564669012,0.35941569967510334,0.28496192139535176,0.9421892232961315
1592271995.956304,3.782301641743266,8.873550098321672,0.832210637032972,-0.5611111111111111,-0.46,-0.02666666666666667,0.37868424823470603,0.15951381106988144,1.1112941234645557
1592271995.966304,3.786093483452747,8.772291595587399,0.8345831911747982,-0.5611111111111111,-0.46,-0.02666666666666667,0.423606077926182,0.19900299013934464,1.2688694266862868
1592271995.976304,3.9563169631145394,8.76745920562464,0.7652447662521643,-0.5611111111111111,-0.46,-0.02666666666666667,0.3612506288427836,0.18030747738676778,1.363566437134015
1592271995.986304,4.035727119396361,8.575277940523746,0.7557271193963604,-0.5611111111111111,-0.46,-0.02666666666666667,0.36706363839062256,0.10475099364699517,1.434411240455504
1592271995.996304,4.286604390839935,8.55682511528911,0.8797792755508258,-0.5712884351775211,-0.4615657421640631,-0.01648934260025664,0.4049963918988151,0.08478847823495353,1.5343062721681366
1592271996.006304,4.311497927325689,8.697737610635993,0.9346177689808418,-0.5755555555555556,-0.4622222222222222,-0.012222222222222223,0.3441649946037182,0.03638731541603707,1.5804571677557013
1592271996.016304,4.379726265822785,8.705616297468355,0.7947943037974683,-0.5755555555555556,-0.4622222222222222,-0.012222222222222223,0.3678342671509661,-0.04004695250259378,1.5162098254202572
1592271996.026304,4.636593419759891,8.700245141501522,0.7853677122522825,-0.5755555555555556,-0.4622222222222222,-0.012222222222222223,0.30598724869194843,-0.0568301638481866,1.3273750759698255
1592271996.036304,4.725104277993221,8.511447983144524,0.7703313078261932,-0.5755555555555556,-0.4622222222222222,-0.012222222222222223,0.26782372221591505,-0.08274518901107243,1.3435835927502242
1592271996.046304,5.29859296482412,8.315902238465052,0.3146596619460941,-0.5882462819146236,-0.4269702045581443,-0.012927262575503782,0.2358516679066915,-0.11930369924051006,1.2982690243837856
1592271996.056304,5.443827768241733,8.35955468471678,0.3194957411665641,-0.5955555555555555,-0.4066666666666667,-0.013333333333333334,0.24107199549574168,-0.034187937510089556,1.2768774359671287
1592271996.066304,5.366488852617131,8.294115443113107,0.3519379011017547,-0.5955555555555555,-0.4066666666666667,-0.013333333333333334,0.24640364889413352,-0.005414376242148269,1.3563545418339593
1592271996.076304,5.48299748174904,8.082015109505761,0.5759837712715895,-0.5955555555555555,-0.4066666666666667,-0.013333333333333334,0.2499089354831197,-0.039269908169872414,1.4094583946292984
1592271996.086304,5.493378502667238,7.982330614997854,0.7146793181678828,-0.5955555555555555,-0.4066666666666667,-0.013333333333333334,0.2475909974802868,0.003111867531488066,1.4421078577202242
1592271996.096304,5.43,8.008162549334893,0.7153405934804853,-0.6066704835225519,-0.38378299144049766,-0.013333333333333334,0.2809410682361317,-0.05480942331055502,1.299850687238898
1592271996.106304,5.510333431690764,7.849288875774565,0.7644777220419003,-0.6144444444444445,-0.36777777777777776,-0.013333333333333334,0.3767099937316213,-0.23551403530390028,1.2144691612476892
1592271996.116304,6.101859182725795,7.890525017413513,0.4348363129788716,-0.6144444444444445,-0.36777777777777776,-0.013333333333333334,0.4324561216671301,-0.06921216208189435,1.1142873483833278
1592271996.126304,6.019094441912347,7.9016189699426675,0.15680907717034087,-0.6144444444444445,-0.36777777777777776,-0.013333333333333334,0.4198556839019101,0.06390190188851261,1.043862623983394
1592271996.136304,5.973067832167833,7.867323776223776,0.0774020979020979,-0.6144444444444445,-0.36777777777777776,-0.013333333333333334,0.45419714622283114,0.04897631880539543,1.0074904716131248
1592271996.146304,6.069532959874935,7.84684829338197,0.16046704012506513,-0.6322914133518615,-0.33208383996294366,-0.014820580742284754,0.34662512362849374,-0.05623938966857949,0.9052367109485338
1592271996.156304,6.069107601026299,7.892986289288006,0.1773111770365619,-0.6411111111111111,-0.31444444444444447,-0.015555555555555555,0.2772832024839215,-0.049297032533190746,0.8900530214323893
1592271996.1663039,6.125595213745142,7.69526181223154,0.01915473511965636,-0.6411111111111111,-0.31444444444444447,-0.015555555555555555,0.2725051032022472,0.1260156658527038,0.925541359664103
1592271996.1763039,6.357019249094721,7.760264436821041,-0.08007933104631218,-0.6411111111111111,-0.31444444444444447,-0.015555555555555555,0.2876541770948211,0.01614611986913439,0.7669888087351369
1592271996.1863039,6.49,7.774616933433668,0.07784274644593138,-0.6411111111111111,-0.31444444444444447,-0.015555555555555555,0.2580745808226552,-0.11574462469961705,0.6844039473703685
1592271996.1963038,6.622364669062247,7.896513851860438,0.08763533093775355,-0.6457906701183622,-0.29372068312661803,-0.011544504977911724,0.17351922514341417,-0.15905759326029317,0.6156859718247765
1592271996.2063038,6.6901219713202575,7.986869952200428,-0.00662600955991429,-0.6488888888888888,-0.28,-0.008888888888888889,0.1215567021768706,-0.20782834580187917,0.580610191508873
1592271996.2163038,6.552531419746511,7.72279582490148,-0.048400521887314946,-0.6488888888888888,-0.28,-0.008888888888888889,0.059152155184891024,-0.2833081798088374,0.5429987229769516
1592271996.2263038,6.712434215226347,7.688771223775391,-0.05346986402495654,-0.6488888888888888,-0.28,-0.008888888888888889,-0.0012644576476931735,-0.037124587715653024,0.4798551182356113
1592271996.2363038,6.800475732820759,7.6889908697741465,-0.054593945218644885,-0.6488888888888888,-0.28,-0.008888888888888889,-0.03657192352907027,0.03851455634018601,0.4664048560028215
1592271996.2463038,6.65,7.319220809248555,-0.0008323699421965425,-0.6403023763648041,-0.26414797687861274,0.002339627488760437,-0.0240948756402853,-0.20668859894574987,0.431787394917522
1592271996.2563038,6.729828799620433,7.191373161473984,0.03167365174758817,-0.6344444444444445,-0.25333333333333335,0.01,0.012392479455807043,-0.24723477839320523,0.43944091332592755
1592271996.2663038,7.113162097553532,7.197816998118102,-0.14425359849448144,-0.6344444444444445,-0.25333333333333335,0.01,0.05512459902479001,-0.11923150517348247,0.3377776021233375
1592271996.2763038,7.084195255081276,7.360248258361064,-0.1297517416389361,-0.6344444444444445,-0.25333333333333335,0.01,0.005291669195125914,0.0228943630439017,0.22496612364047172
1592271996.2863038,6.985619844519613,7.407787668387633,-0.08110616580618361,-0.6344444444444445,-0.25333333333333335,0.01,-0.02027225923321688,0.030572392160457016,0.19198621771937624
1592271996.2963037,6.776309197651663,7.351671944493862,-0.0644479629959082,-0.6372835596671214,-0.239137757219949,0.004321769554646267,0.09778245170738967,0.001410841449697428,0.14413765609414556
1592271996.3063037,6.7146183666752,7.302809494203269,-0.03421424130490436,-0.6411111111111111,-0.22,-0.0033333333333333335,0.160391301263252,0.07072698970102409,0.1099710064479422
1592271996.3163037,7.0674558457870855,7.301091487016483,-0.07890851298351748,-0.6411111111111111,-0.22,-0.0033333333333333335,0.0327844548567074,0.25529553540226746,0.15226452536163898
1592271996.3263037,7.081087531261164,7.366540669286651,-0.12036251042038824,-0.6411111111111111,-0.22,-0.0033333333333333335,0.038297708645036524,0.20957791337325687,0.04012009884977312
1592271996.3363037,6.987801501935392,7.45,-0.1361950375483848,-0.6411111111111111,-0.22,-0.0033333333333333335,-0.029571143933169668,0.3017469571534817,0.04882050030103459
1592271996.3463037,6.810585587348808,7.4584702704818575,-0.13847027048185698,-0.6502088090360686,-0.21592172161984663,0.0029409410976718293,-0.11819593676262859,0.36568775112462637,-0.047417727088570255
1592271996.3563037,6.839304255319149,7.507906619385343,-0.19348794326241134,-0.6733333333333333,-0.20555555555555555,0.01888888888888889,-0.09505373077661487,0.1382315982476948,-0.16058014218487107
1592271996.3663037,6.92889763014763,7.6146882284382285,-0.16354118104118104,-0.6733333333333333,-0.20555555555555555,0.01888888888888889,-0.13688104031144532,0.1845010589408822,-0.17150580620977787
1592271996.3763037,7.067149246984369,7.73141419428517,-0.16570150603126266,-0.6733333333333333,-0.20555555555555555,0.01888888888888889,-0.2359023627343494,0.3185018520374123,-0.1994567904095717
1592271996.3863037,6.99918739048091,7.6937810857213655,-0.15342177460750128,-0.6733333333333333,-0.20555555555555555,0.01888888888888889,-0.2608737735592273,0.3469028787501067,-0.3050816811677431
1592271996.3963037,6.978151510998424,7.599630302199685,-0.01616768313575001,-0.6597795746819252,-0.20555555555555555,0.011755331703937201,-0.2314745088215493,0.3013919181616659,-0.38195010408775887
1592271996.4063036,6.847370219476935,7.614184255486924,0.18071021159153633,-0.6311111111111111,-0.20555555555555555,-0.0033333333333333335,-0.3468925897648566,0.357840723163665,-0.3847555570358697
1592271996.4163036,6.690597727911364,7.608675284011079,0.2060258520332383,-0.6311111111111111,-0.20555555555555555,-0.0033333333333333335,-0.34599956102013635,0.397515315702756,-0.471302304685053
1592271996.4263036,6.800693502789522,7.508439618723575,0.3682074504015411,-0.6311111111111111,-0.20555555555555555,-0.0033333333333333335,-0.23215141984363008,0.37253425419373465,-0.7230630966765632
1592271996.4363036,6.911892985692029,7.400029726196658,0.5779583833246782,-0.6311111111111111,-0.20555555555555555,-0.0033333333333333335,-0.3029569139516693,0.3868805817490461,-0.7045188321618838
1592271996.4463036,6.8744565886699505,7.327954125615764,0.6685144704433498,-0.6350641420361247,-0.20339935686918445,-0.007286364258347017,-0.3630271746118489,0.3268603240204482,-0.6682866646257651
1592271996.4563036,6.57,7.24,0.77,-0.6433333333333333,-0.1988888888888889,-0.015555555555555555,-0.32834006553143325,0.3534291735288517,-0.7199483164476609
1592271996.4663036,6.761639216559092,7.4560844647229025,0.5941266970843535,-0.6433333333333333,-0.1988888888888889,-0.015555555555555555,-0.2827391265119137,0.21935458665293467,-0.7138304503937031
1592271996.4763036,6.47,7.4,0.51,-0.6433333333333333,-0.1988888888888889,-0.015555555555555555,-0.40142572795869574,0.06763150851478027,-0.7199483164476609
1592271996.4863036,6.388196647440519,7.3972134102379234,0.7993258832011536,-0.6433333333333333,-0.1988888888888889,-0.015555555555555555,-0.31629924413271604,0.3460378512161268,-0.7658189502149702
1592271996.4963036,6.300123436895707,7.565978793347944,0.742557367538997,-0.6347971724463924,-0.1988888888888889,-0.015555555555555555,-0.2621629394660888,0.2916441987887248,-0.7524519307896483
1592271996.5063035,6.26,7.48,0.84,-0.6233333333333333,-0.1988888888888889,-0.015555555555555555,-0.14398966328953217,0.11344640137963141,-0.6217735460229799
1592271996.5163035,6.323490003507541,7.298810943528586,0.7813258505787444,-0.6233333333333333,-0.1988888888888889,-0.015555555555555555,-0.13977747244965022,0.4089383419237319,-0.7712835553419259
1592271996.5263035,6.62,7.31,0.91,-0.6233333333333333,-0.1988888888888889,-0.015555555555555555,-0.20507618710933373,0.46142142099600086,-0.8835729338221293
1592271996.5363035,5.979573974163317,7.528086752788943,0.7965956623605529,-0.6233333333333333,-0.1988888888888889,-0.015555555555555555,-0.12902010169749697,0.3994515031439715,-0.8390364487717796
1592271996.5463035,6.064552098699209,7.709065978275446,1.0164583612712887,-0.6262689046831463,-0.20434066425282732,-0.02645910628343242,-0.11549662785570478,0.33343326665381096,-0.9755083774464308
1592271996.5563035,6.27,7.79,1.39,-0.6311111111111111,-0.21333333333333335,-0.044444444444444446,-0.04690572364734761,0.41560652813114973,-0.9490227807719166
1592271996.5663035,5.973408647721068,7.818234315280414,1.1431827045578637,-0.6311111111111111,-0.21333333333333335,-0.044444444444444446,-0.20460577502024382,0.23016072882516875,-0.9101292646697106
1592271996.5763035,6.0298499166203445,7.6416675931072815,1.1571206225680934,-0.6311111111111111,-0.21333333333333335,-0.044444444444444446,-0.2203805611783779,0.2809874590121013,-0.8649469527344551
1592271996.5863035,6.12,7.7,1.12,-0.6311111111111111,-0.21333333333333335,-0.044444444444444446,-0.20071286397934787,0.24107360293171679,-0.9141161957320302
1592271996.5963035,5.821845932607772,7.767686047651731,0.8770523253913782,-0.6283685401255751,-0.22195284214501787,-0.0601162786475072,-0.05526580056700392,0.37274861130744763,-0.8707474277045371
1592271996.6063035,5.66,7.69,0.89,-0.6233333333333333,-0.23777777777777778,-0.08888888888888889,-0.01854412330243975,0.3621558197888234,-0.8552113334772213
1592271996.6163034,5.56198275862069,7.722231800766284,1.136197318007663,-0.6233333333333333,-0.23777777777777778,-0.08888888888888889,-0.07139090425752188,0.2738800252581763,-0.8991611564697009
1592271996.6263034,5.5883544814173565,7.699041576737899,1.2290415767378982,-0.6233333333333333,-0.23777777777777778,-0.08888888888888889,0.008625927519932783,0.33952240697943703,-0.8358465839956672
1592271996.6363034,5.629227272727273,7.672272727272728,1.2475454545454545,-0.6233333333333333,-0.23777777777777778,-0.08888888888888889,0.09955318386801747,0.42606858699963845,-0.8273108570540053
1592271996.6463034,5.7404059507317955,7.662250798048546,1.328579172438716,-0.6211562167479773,-0.24249486371271592,-0.08417180295395076,0.09436694776244246,0.35750071929901905,-0.7387118805025874
1592271996.6563034,5.7,7.77,1.47,-0.6166666666666667,-0.25222222222222224,-0.07444444444444444,0.07526732399225547,0.3141592653589793,-0.6806784082777886
1592271996.6663034,5.578898336970426,7.911101663029574,1.3722883587929866,-0.6166666666666667,-0.25222222222222224,-0.07444444444444444,0.12146128650520419,0.28545246920922096,-0.7659882323229028
1592271996.6763034,5.555907344357976,7.860424854085603,1.2195367217898831,-0.6166666666666667,-0.25222222222222224,-0.07444444444444444,0.061966828505753926,0.2999658909211824,-0.6770901267854831
1592271996.6863034,5.55,7.76,1.19,-0.6166666666666667,-0.25222222222222224,-0.07444444444444444,0.020725784867432664,0.2574360646691636,-0.6152285613280012
1592271996.6963034,5.745613860432256,8.150139375060213,1.0421233822537654,-0.6166666666666667,-0.26004349672258087,-0.07868096813213869,0.05661677646562018,0.24418467236113736,-0.562941793496906
1592271996.7063034,5.47,8.03,1.24,-0.6166666666666667,-0.2788888888888889,-0.08888888888888889,0.148352986419518,0.27270769562411395,-0.5552328682906961
1592271996.7163033,5.48231593763534,8.346923993070593,1.3480819618882633,-0.6166666666666667,-0.2788888888888889,-0.08888888888888889,0.1543111003741086,-0.0586862768205616,-0.8270405045075222
1592271996.7263033,5.24,8.32,1.2,-0.6166666666666667,-0.2788888888888889,-0.08888888888888889,0.13962634015954636,0.29888763440402893,-0.7690357016600015
1592271996.7363033,5.134623449034082,8.196129652897755,0.7429707868697975,-0.6166666666666667,-0.2788888888888889,-0.08888888888888889,0.11191513503343105,0.20149106817626866,-0.6356439896754884
1592271996.7463033,5.235656977793825,7.997408918577361,1.103479328398628,-0.6138638743455498,-0.2788888888888889,-0.08695592866742895,0.14181068005973368,0.29851278563865546,-0.6550657645244233
1592271996.7563033,5.4,8.6,1.14,-0.5844444444444444,-0.2788888888888889,-0.06666666666666667,0.23343778745424157,0.45487643630102215,-0.5923211148955756
1592271996.7663033,5.040224492691926,8.38540087980701,1.0621231729814105,-0.5844444444444444,-0.2788888888888889,-0.06666666666666667,0.21469775732076343,0.2391410352925353,-0.7137930711799803
1592271996.7763033,5.153725494866726,8.585965317643696,0.8655203544460588,-0.5844444444444444,-0.2788888888888889,-0.06666666666666667,0.01628513360308345,0.17062452847281884,-0.6547617125520522
1592271996.7863033,5.038954873108021,8.36343230966203,1.0647268358559727,-0.5844444444444444,-0.2788888888888889,-0.06666666666666667,0.0079830171373441,0.0916297857297023,-0.792860378044989
1592271996.7963033,5.165256238587949,8.559824305132887,0.9063396226415095,-0.5848543991343748,-0.2795721467054395,-0.06705709970469556,0.055709031255068646,0.09051819618733606,-0.769342347050999
1592271996.8063033,4.9,8.55,1.82,-0.6077777777777778,-0.31777777777777777,-0.08888888888888889,0.05999569303730508,0.028361600344907853,-0.7864889941799448
1592271996.8163033,4.714667841766117,8.66781604877626,1.1865096656745744,-0.6077777777777778,-0.31777777777777777,-0.08888888888888889,0.020893978384796234,0.086656950222419,-0.8810548852224093
1592271996.8263032,5.11,8.35,1.14,-0.6077777777777778,-0.31777777777777777,-0.08888888888888889,-0.001090830782496456,-0.12980886311707826,-0.9250245035569946
1592271996.8363032,4.624461453265298,8.628423321862268,1.0079613148214073,-0.6077777777777778,-0.31777777777777777,-0.08888888888888889,0.17947081036018192,0.06161129277580493,-1.014380333625594
1592271996.8463032,4.688997151216508,8.450028487834924,1.1765903141361256,-0.6076663501351675,-0.318268059405263,-0.08871060466071246,0.3502004387142913,-0.19082353555603393,-1.0082964745158949
1592271996.8563032,4.64,8.94,1.01,-0.6022222222222222,-0.3422222222222222,-0.08,0.3523383427463553,-0.08072147790473774,-0.9730210579868387
1592271996.8663032,4.596857901237812,8.538268113847204,1.0366970644661113,-0.6022222222222222,-0.3422222222222222,-0.08,0.3052074351144472,-0.02196809523928843,-1.0161325676654347
1592271996.8763032,4.456870535606917,8.97204911133024,1.085973207628851,-0.6022222222222222,-0.3422222222222222,-0.08,0.34534972187609536,0.023300921024789062,-1.1547695379959866
1592271996.8863032,4.45,9.24,0.66,-0.6022222222222222,-0.3422222222222222,-0.08,0.39706240482870997,-0.210530341021816,-1.2424562612634633
1592271996.8963032,4.14601108033241,8.75950138504155,1.3268144044321328,-0.6022222222222222,-0.3422222222222222,-0.08,0.1852659748931377,-0.08323854727265895,-1.0199630419372057
1592271996.9063032,4.34,8.5,1.15,-0.6022222222222222,-0.36444444444444446,-0.06555555555555556,0.3610649890063269,-0.20180369476184434,-1.1802789066611654
1592271996.9163032,4.260974133340806,8.918710590477257,1.0358164952498388,-0.6022222222222222,-0.36444444444444446,-0.06555555555555556,0.22919637764882472,-0.20176092727411316,-1.0662970098686764
1592271996.9263031,3.92,8.87,0.5,-0.6022222222222222,-0.36444444444444446,-0.06555555555555556,0.29561514205653955,0.019634954084936207,-1.162825614141222
1592271996.9363031,3.847770037585847,9.14757915658146,0.18751854694295217,-0.6022222222222222,-0.36444444444444446,-0.06555555555555556,0.12283984175568011,0.007809989493437884,-1.1327688545603547
1592271996.9463031,3.657934155892713,9.01551941279493,0.938608339728831,-0.6022222222222222,-0.36444444444444446,-0.06555555555555556,0.062516880164349,0.1437617387515125,-1.174184619235
1592271996.9563031,3.45,9.05,0.43,-0.5488888888888889,-0.4011111111111111,-0.09333333333333334,0.09272061651219875,0.10690141668465267,-1.048288381979094
1592271996.966303,3.5051852274673214,8.78685256007763,0.7485187510702666,-0.5488888888888889,-0.4011111111111111,-0.09333333333333334,0.10383078936352633,0.1957638707574526,-1.08335642168072
1592271996.976303,3.4359786689623837,9.394636631035224,0.7921802137886506,-0.5488888888888889,-0.4011111111111111,-0.09333333333333334,0.03368733375993145,0.2646823666654174,-1.0498110113588757
1592271996.986303,3.1539063816343726,9.427500702049986,0.45281135916877285,-0.5488888888888889,-0.4011111111111111,-0.09333333333333334,0.14404103051414321,0.13649001020543516,-1.300014375594003
1592271996.996303,3.1318218197135637,9.309716371805674,0.6442108958157822,-0.5488888888888889,-0.4011111111111111,-0.09333333333333334,0.10469318124423671,0.1686107034869915,-1.342574294192065
1592271997.006303,2.77,8.94,0.39,-0.5544444444444444,-0.43333333333333335,-0.07111111111111111,0.17889624832941878,0.24434609527920614,-1.1453723216212788
1592271997.016303,2.7925453295977163,9.551124385473384,0.32497118993497914,-0.5544444444444444,-0.43333333333333335,-0.07111111111111111,0.0026008215247099245,0.1402917256011717,-0.9224811730874282
1592271997.026303,2.430860112292438,9.447928562895711,0.2639732409509019,-0.5544444444444444,-0.43333333333333335,-0.07111111111111111,0.08999191067233783,0.03931082572640137,-0.9458613131319517
1592271997.036303,2.242551348719108,9.249122593436407,0.8275917842049426,-0.5544444444444444,-0.43333333333333335,-0.07111111111111111,-0.024786363990964837,0.22903917770613297,-0.8488041373346223
1592271997.046303,2.0601873076053496,9.168882415346355,0.8567700307831441,-0.5544444444444444,-0.43333333333333335,-0.07111111111111111,-0.015237805126932657,0.0444337063348442,-0.9793011084763953
1592271997.056303,2.19,9.58,0.93,-0.5277777777777778,-0.45444444444444443,-0.07777777777777778,0.011999138607461015,0.1407171709420428,-1.074468320759009
1592271997.066303,1.9938410723096323,8.993790910586043,0.6960753248177183,-0.5277777777777778,-0.45444444444444443,-0.07777777777777778,0.005466921434661055,0.04705086077300513,-0.9315877275693717
1592271997.076303,1.0712342459800088,7.749826645419866,0.5520850837799991,-0.5277777777777778,-0.45444444444444443,-0.07777777777777778,0.15193199015448852,0.03900579954350527,-1.1610988472904906
1592271997.086303,1.0,8.85,0.56,-0.5277777777777778,-0.45444444444444443,-0.07777777777777778,0.09926560120717749,-0.12762720155208535,-1.162825614141222
1592271997.096303,2.0476958539700343,8.772710961592374,1.4015917515496994,-0.5277777777777778,-0.45444444444444443,-0.07777777777777778,0.17701747638829818,-0.1632244456109117,-1.0251204858083938
1592271997.106303,1.9,10.21,0.2,-0.52,-0.4866666666666667,-0.07111111111111111,0.26070855701665296,-0.16907877128695067,-1.2577278922184139
1592271997.116303,1.7456704100731666,9.54237025693381,0.6428849753275481,-0.52,-0.4866666666666667,-0.07111111111111111,0.06348237948433519,-0.09468901202834216,-1.0899201791582003
1592271997.126303,1.68,9.73,0.99,-0.52,-0.4866666666666667,-0.07111111111111111,-0.04908738521234052,-0.008726646259971648,-1.0264717663291651
1592271997.136303,1.4893301038062283,9.627741176470588,0.7757743944636678,-0.52,-0.4866666666666667,-0.07111111111111111,-0.01908750046316013,-0.1476550056987594,-1.1842131445200292
1592271997.146303,1.1741874443895204,10.050695798319326,1.0162780029658922,-0.52,-0.4866666666666667,-0.07111111111111111,-0.19368510982505885,-0.38648282368601977,-1.1444085081888193
1592271997.156303,0.75,9.27,0.83,-0.4811111111111111,-0.5244444444444445,-0.07111111111111111,0.27379852640661045,-0.04799655442984406,-0.9642944117268671
1592271997.166303,1.1028712843123312,9.9225105959323,1.0113861470630068,-0.4811111111111111,-0.5244444444444445,-0.07111111111111111,0.2269383225646368,-0.2732446245349465,-0.9410907297239538
1592271997.176303,1.127498929845422,10.42892770511296,0.6714292508917955,-0.4811111111111111,-0.5244444444444445,-0.07111111111111111,0.045074917881005455,-0.2926542563525543,-0.8834171823829353
1592271997.186303,0.6669948300516995,10.062923770762293,0.9212928537381293,-0.4811111111111111,-0.5244444444444445,-0.07111111111111111,0.140648536555552,-0.2710863882285478,-0.8926451518182785
1592271997.196303,0.9899527004729953,10.362813221867782,0.47530341363253026,-0.4811111111111111,-0.5244444444444445,-0.07111111111111111,0.04754269155064565,-0.31134837525769654,-0.7215317069443965
1592271997.206303,0.51,9.93,0.67,-0.45444444444444443,-0.5377777777777778,-0.07111111111111111,0.1832595714594046,-0.08290313946973066,-0.6217735460229799
1592271997.2163029,0.42534945189471923,9.612766957876579,0.6468641144065439,-0.45444444444444443,-0.5377777777777778,-0.07111111111111111,0.3270925086301673,-0.05947989900390328,-0.4328945966017939
1592271997.2263029,0.71,9.76,0.48,-0.45444444444444443,-0.5377777777777778,-0.07111111111111111,0.26070855701665296,-0.20616701789183017,-0.48214720586343357
1592271997.2363029,0.61,9.694565266571148,0.5520107835004902,-0.45444444444444443,-0.5377777777777778,-0.07111111111111111,0.18294244414063382,-0.06393822249653752,-0.414506875117945
1592271997.2463028,0.61,9.757822939446497,0.4413098559686298,-0.45444444444444443,-0.5377777777777778,-0.07111111111111111,0.23900772029187003,-0.22437116656007508,-0.5050738596699419
1592271997.2563028,0.98,9.84,0.73,-0.47555555555555556,-0.5644444444444444,-0.042222222222222223,0.284706834231575,-0.2814343418840856,-0.3567016658763411
1592271997.2663028,0.5870110789980731,9.838945086705202,0.6078901734104046,-0.47555555555555556,-0.5644444444444444,-0.042222222222222223,0.0722657002711519,-0.05737528209688608,-0.43905098278116267
1592271997.2763028,0.4209034634069895,9.776386146372042,0.481567674868098,-0.47555555555555556,-0.5644444444444444,-0.042222222222222223,0.14979842410581612,-0.09223460618236999,-0.46846592105635404
1592271997.2863028,0.442270609031014,9.682329351688182,0.2271764243755245,-0.47555555555555556,-0.5644444444444444,-0.042222222222222223,0.19147803201443048,-0.04557361567211514,-0.4460496993489718
1592271997.2963028,0.37487064116985375,9.877040369953756,0.37695413073365824,-0.47555555555555556,-0.5644444444444444,-0.042222222222222223,0.14899867753136692,-0.08151768485009198,-0.4166409154760817
1592271997.3063028,0.26,9.6,0.37,-0.44222222222222224,-0.5822222222222222,-0.013333333333333334,0.05563236990731925,-0.0545415391248228,-0.20289452554434081
1592271997.3163028,0.33108683151236346,9.875461472110409,0.5121736630247269,-0.44222222222222224,-0.5822222222222222,-0.013333333333333334,0.10991296273799683,-0.07005027993358781,-0.3754292670418517
1592271997.3263028,0.4219807570161613,9.795149968242018,0.11158460561292903,-0.44222222222222224,-0.5822222222222222,-0.013333333333333334,0.07364743681598994,-0.30778590258578975,-0.31641747420158844
1592271997.3363028,0.5184283386023132,10.047561215072555,0.1907045378679286,-0.44222222222222224,-0.5822222222222222,-0.013333333333333334,0.10141179208322713,-0.10069340353463505,-0.4815205570254357
1592271997.3463027,0.279587055982092,9.67694543169635,0.29777131973216564,-0.44222222222222224,-0.5822222222222222,-0.013333333333333334,0.09602140401674976,-0.15190209016617007,-0.3862903678510021
1592271997.3563027,0.2608771713687323,9.88421091536282,0.3708771713687323,-0.42777777777777776,-0.6055555555555555,-0.03888888888888889,0.13551190437823413,-0.038733967162037516,-0.33771742050753745
1592271997.3663027,0.27,9.72,0.38,-0.42777777777777776,-0.6055555555555555,-0.03888888888888889,0.09272061651219875,-0.07853981633974483,-0.3217950808364545
1592271997.3763027,0.04653565996958295,9.826874249579765,0.3022732730328984,-0.42777777777777776,-0.6055555555555555,-0.03888888888888889,0.048207595653032564,-0.1898223684876603,-0.40976128872480677
1592271997.3863027,-0.04347070289192091,9.877346354270257,0.35816341143243563,-0.42777777777777776,-0.6055555555555555,-0.03888888888888889,0.06355817393324203,-0.12773867552798865,-0.4223521139123881
1592271997.3963027,0.18176916345121127,9.977452961533873,0.3331367596165321,-0.42777777777777776,-0.6055555555555555,-0.03888888888888889,-0.03654124740665561,-0.09952883860492659,-0.38049235589752184
1592271997.4063027,-0.06,9.83,0.37,-0.45111111111111113,-0.5866666666666667,-0.015555555555555555,0.09926560120717749,-0.22143864884678055,-0.37960911230876665
1592271997.4163027,-0.1411859732072498,9.935541765169425,0.16703506698187548,-0.45111111111111113,-0.5866666666666667,-0.015555555555555555,-0.017633808252271316,-0.2108114298050125,-0.35924027581204454
1592271997.4263027,0.09254447995570877,10.05353499257619,0.12935349925761885,-0.45111111111111113,-0.5866666666666667,-0.015555555555555555,-0.13757213480219696,-0.10325690483985873,-0.5116475119910812
1592271997.4363027,-0.17660174350113877,9.975330440587449,0.30374087017984763,-0.45111111111111113,-0.5866666666666667,-0.015555555555555555,-0.23171484366391898,-0.18610806363016652,-0.26210595639690043
1592271997.4463027,-0.7036480012565774,10.675313751668892,0.3778567501767062,-0.45111111111111113,-0.5866666666666667,-0.015555555555555555,-0.19757907068446684,-0.3073798886887465,0.01277684706921417
1592271997.4563026,0.23,9.49,0.93,-0.43666666666666665,-0.6,-0.024444444444444446,-0.06872233929727672,-0.17344209441693648,-0.15489797111449674
1592271997.4663026,0.36704585118197686,10.11527169601777,0.356120498175472,-0.43666666666666665,-0.6,-0.024444444444444446,-0.0649849934702085,-0.22015891725528922,-0.028762549450944447
1592271997.4763026,0.2490383882644313,9.809839731377405,0.09592993903600686,-0.43666666666666665,-0.6,-0.024444444444444446,-0.11246046616533177,0.03492040486214531,-0.1223828387759967
1592271997.4863026,0.18686516551538532,9.79966412487665,0.4585445411321432,-0.43666666666666665,-0.6,-0.024444444444444446,-0.1172151938434309,-0.09609860052412979,-0.13398067679686712
1592271997.4963026,-0.02384695433748993,9.777087826320983,0.360713914057594,-0.43666666666666665,-0.6,-0.024444444444444446,-0.0039313553144214725,0.04345395418551953,-0.047786451829142526
1592271997.5063026,-0.013477104400265987,9.797341037811561,0.5510226777647842,-0.42444444444444446,-0.6044444444444445,-0.04,-0.09218029121437278,-0.12415633313122046,-0.0691685666518372
1592271997.5163026,-0.17697507509573274,9.672313177867968,0.5991103162046273,-0.42444444444444446,-0.6044444444444445,-0.04,0.03581107087891468,-0.16612071414541307,-0.0901507571589335
1592271997.5263026,0.13584317937701396,9.80536136259015,0.6,-0.42444444444444446,-0.6044444444444445,-0.04,0.002741555529616302,0.025056133674240366,-0.13089835484076545
1592271997.5363026,0.21475148013750955,9.77524851986249,0.4746958556149733,-0.42444444444444446,-0.6044444444444445,-0.04,0.041867506262224796,-0.08501276995316354,-0.0015063766857693617
1592271997.5463026,0.22,9.817690437307203,0.49406459807657416,-0.42444444444444446,-0.6044444444444445,-0.04,0.0008289205499797947,-0.08846564409357903,0.07363473965292852
1592271997.5563025,0.0711774132010683,9.765588706600534,0.47279435330026703,-0.42444444444444446,-0.6044444444444445,-0.045167450930518466,-0.020725784867432664,0.09567114522239728,-0.06089299603885502
1592271997.5663025,0.13647664442326024,9.807797902764538,0.4317616777883699,-0.42444444444444446,-0.6044444444444445,-0.04555555555555556,-0.1197906898486599,0.006889807847958548,-0.05848662379845011
1592271997.5763025,-0.1726849121438842,9.790457192991006,0.3420573684595326,-0.42444444444444446,-0.6044444444444445,-0.04555555555555556,-0.01456754757634246,0.11303471796633627,-0.05141866283377313
1592271997.5863025,-0.3233808102941862,9.79,0.5598505757844188,-0.42444444444444446,-0.6044444444444445,-0.04555555555555556,-0.11209782755989817,0.0071878165794840715,-0.005390481007466405
1592271997.5963025,-0.2292832893247831,9.696477340087299,0.6922988629627633,-0.42444444444444446,-0.6044444444444445,-0.04555555555555556,-0.09003742085030118,-0.09277299190839448,0.09482115793493563
1592271997.6063025,-0.29,9.67,0.76,-0.4444444444444444,-0.6044444444444445,-0.04,0.042542400517361786,0.039269908169872414,0.09708393964218458
1592271997.6163025,-0.22187460716530483,9.704062696417347,0.7259373035826524,-0.4444444444444444,-0.6044444444444445,-0.04,-0.045147264659662,-0.0320708363809266,0.025743195091385562
