time,acc_x,acc_y,acc_z,mag_x,mag_y,mag_z,gyr_x,gyr_y,gyr_z
1592271600.1266816,-0.5573907517389596,9.73,0.9142030827536801,-0.3111111111111111,-0.5544444444444444,0.08333333333333333,0.02113521507955818,-0.014133131626023109,0.05515568444301107
1592271600.1366816,-0.57,9.741200433778113,0.7979956622188693,-0.3111111111111111,-0.5544444444444444,0.08333333333333333,0.04803980911832911,0.004800601800021415,0.11383924241488569
1592271600.1466815,-0.5866849825600841,9.75,0.7266849825600841,-0.3111111111111111,-0.5544444444444444,0.08333333333333333,0.06826816091136846,-0.002695778571947142,0.13673943556727267
1592271600.1566815,-0.6125755754498645,9.758383716966577,0.7316162830334236,-0.3111111111111111,-0.5544444444444444,0.08333333333333333,0.0713340002155593,-0.04045966698490479,0.1184217475287064
1592271600.1666815,-0.6411271754719176,9.784836233962556,0.697745649056165,-0.3111111111111111,-0.5544444444444444,0.07550309874198396,0.043105680012087075,-0.035755690190244896,0.05714775326499486
1592271600.1766815,-0.6092565000740047,9.81,0.6473141250185012,-0.3111111111111111,-0.5544444444444444,0.06222222222222222,-0.0454357472304988,-0.048595706785734,-0.02015300318022018
1592271600.1866815,-0.5734529360625938,9.81,0.6285426381095393,-0.3111111111111111,-0.5544444444444444,0.06222222222222222,-0.07133453978013791,-0.07433305281625656,-0.046269829562806876
1592271600.1966815,-0.5660754442325068,9.799569822306998,0.6169357996185122,-0.3111111111111111,-0.5544444444444444,0.06222222222222222,0.0013016378557125646,-0.03395652957823133,0.059486005338335673
1592271600.2066815,-0.6546899354952725,9.806172483873818,0.712560572589909,-0.3111111111111111,-0.5544444444444444,0.06222222222222222,0.015674362171299833,-0.0706069887589574,0.08059806182857722
1592271600.2166815,-0.7826449720559673,9.83979349161679,0.7834710055888066,-0.3172773836105716,-0.5566207759148423,0.06222222222222222,0.07153474482576634,-0.14313797734266093,0.016092142895948253
1592271600.2266815,-0.9400025766555011,9.885715021901571,0.77,-0.33,-0.5611111111111111,0.06222222222222222,-0.00420789168893441,-0.20351821879514206,0.10074768075268221
1592271600.2366815,-1.0198140908002873,9.910647889571532,0.7444450650283252,-0.33,-0.5611111111111111,0.06222222222222222,-0.06055002968884261,-0.21819627119256046,0.14562560483487674
1592271600.2466815,-1.2047283030585312,9.978741655022512,0.7362249650675361,-0.33,-0.5611111111111111,0.06222222222222222,-0.13777433270387332,-0.314248686047251,0.19825667412706624
1592271600.2566814,-1.26,10.009083044058745,0.8317906542056075,-0.33,-0.5611111111111111,0.06222222222222222,-0.032453162428146234,-0.3925754639192604,0.2450037977910558
1592271600.2666814,-1.2901374045801528,10.015694656488549,0.8872213740458015,-0.33,-0.5548922815945717,0.06222222222222222,-0.019270233563765633,-0.4570414439609387,0.35901655868194426
1592271600.2766814,-1.3308409027805324,10.010042045139027,0.9097477291658403,-0.33,-0.5466666666666666,0.06222222222222222,-0.04908738521234052,-0.4974463552975266,0.44277639660337104
1592271600.2866814,-1.4566999448588094,10.04443335171373,0.8060199669152857,-0.33,-0.5466666666666666,0.06222222222222222,-0.05121959738585247,-0.5684632397620992,0.5308201595880165
1592271600.2966814,-1.3732106733834466,10.066344208744933,0.7647003030422291,-0.33,-0.5466666666666666,0.06222222222222222,-0.058976728551392466,-0.6317955887185077,0.6559861533542177
1592271600.3066814,-1.1702747174711385,9.985504494085662,0.8463761235214153,-0.33,-0.5466666666666666,0.06222222222222222,-0.08533952076762985,-0.5389303406080508,0.7211186904328739
1592271600.3166814,-0.9133752642339814,9.934488339051184,0.8290664310219358,-0.3320247349959378,-0.5466666666666666,0.06465190421734761,-0.04631621309347741,-0.5675629568756585,0.652381410275719
1592271600.3266814,-0.71,9.89,0.81,-0.33555555555555555,-0.5466666666666666,0.06888888888888889,-0.20507618710933373,-0.6708609312353204,0.779944009484966
1592271600.3366814,-0.5766143727578156,9.90596862365469,0.6832287455156312,-0.33555555555555555,-0.5466666666666666,0.06888888888888889,-0.2536131875970965,-0.6913905206112368,1.0081330007265679
1592271600.3466814,-0.55,9.89,0.63,-0.33555555555555555,-0.5466666666666666,0.06888888888888889,-0.3436116964863836,-0.7395832705325971,1.1126473981463851
1592271600.3566813,-0.3359554580183695,9.823105746565878,0.710512070226774,-0.33555555555555555,-0.5466666666666666,0.06888888888888889,-0.2658053071345938,-0.7097863805260578,0.9750222000465757
1592271600.3666813,-0.14939423112526384,9.780302884437369,0.8265657051875439,-0.33555555555555555,-0.5451403134166862,0.07384953695132537,-0.24440151127630264,-0.5983156151704172,1.04247026775332
1592271600.3766813,-0.09924752475247525,9.7960900090009,0.8219549954995499,-0.33555555555555555,-0.5422222222222223,0.08333333333333333,-0.20199240554167855,-0.5300202440804621,1.0839820146834713
1592271600.3866813,0.07849122135316962,9.723062954657332,0.793828693321665,-0.33555555555555555,-0.5422222222222223,0.08333333333333333,-0.21078092841373663,-0.49819288337292733,1.1078936658261533
1592271600.3966813,0.26032150273289256,9.68,0.7665651478626154,-0.33555555555555555,-0.5422222222222223,0.08333333333333333,-0.160313357405547,-0.6334053946132875,1.1838227202866554
1592271600.4066813,0.34,9.68,0.79,-0.33555555555555555,-0.5422222222222223,0.08333333333333333,-0.11890055529211369,-0.7014041931452212,1.1715522604011936
1592271600.4166813,0.4884248447204969,9.651575155279502,0.8231606033717835,-0.34432929113674454,-0.5401750172532782,0.08128612836438923,-0.2000188362027008,-0.561953044087389,1.259220017093566
1592271600.4266813,0.6732446760715248,9.595241261568875,0.8504825231377482,-0.3688888888888889,-0.5344444444444445,0.07555555555555556,-0.14024345495931254,-0.6140778421810421,1.2184797438143526
1592271600.4366813,0.8908450704225351,9.585276995305165,0.7974929577464789,-0.3688888888888889,-0.5344444444444445,0.07555555555555556,-0.16805144426831786,-0.598891705946951,1.1896733666959611
1592271600.4466813,1.030500619815009,9.564874845046248,0.7752085915895871,-0.3688888888888889,-0.5344444444444445,0.07555555555555556,-0.1634243838228039,-0.5606324130527245,1.1537349068782239
1592271600.4566813,1.1502200149524726,9.538708747196411,0.8489287621488839,-0.3688888888888889,-0.5344444444444445,0.07555555555555556,-0.14619532476280175,-0.5681011297901173,1.0698201443487494
1592271600.4666812,1.2525899685110211,9.52258996851102,0.9455398110661268,-0.37406882591093116,-0.5226456990053482,0.07210226420752737,-0.16329511091003007,-0.5754090667989762,1.0781893148317352
1592271600.4766812,1.26,9.53,0.99,-0.3888888888888889,-0.4888888888888889,0.06222222222222222,-0.1810779098944117,-0.5301437602932776,1.294816138823293
1592271600.4866812,1.2506262499285754,9.46374950002857,1.1081252499857153,-0.3888888888888889,-0.4888888888888889,0.06222222222222222,-0.15438562158977698,-0.5647446808478569,1.2018231418460061
1592271600.4966812,1.31,9.44,1.12,-0.3888888888888889,-0.4888888888888889,0.06222222222222222,-0.10581058590215622,-0.6185010536754905,1.2173671532660448
1592271600.5066812,1.7207532992967922,9.27784934014064,1.3430376649648397,-0.3888888888888889,-0.4888888888888889,0.06222222222222222,-0.0983563688986537,-0.6510616327381094,1.3529906982230444
1592271600.5166812,1.90488927943761,9.237757469244288,1.35,-0.3954635813317711,-0.49024917008396796,0.060635227494629955,-0.023669686009087424,-0.6111119691676239,1.3023438297732943
1592271600.5266812,2.08,9.19,1.35,-0.4211111111111111,-0.4955555555555556,0.05444444444444444,0.0839939702522271,-0.5737769915931358,1.2380929381334775
1592271600.5366812,2.216273649648788,9.233726350351212,1.143915547541513,-0.4211111111111111,-0.4955555555555556,0.05444444444444444,0.05836348349818087,-0.4138980482157054,1.2704018093477059
1592271600.5466812,2.21,9.248908438919436,1.108908438919436,-0.4211111111111111,-0.4955555555555556,0.05444444444444444,0.19010027743273644,-0.3888447433933323,1.1168283858991006
1592271600.5566812,2.2501177100053504,9.256656857499554,1.1066274299982166,-0.4211111111111111,-0.4955555555555556,0.05444444444444444,0.21086613091491194,-0.32650061394439844,1.0750127634101267
1592271600.5666811,2.3335388329054756,9.265924748074639,1.0693835012835742,-0.42799217509397974,-0.4920167226500803,0.06112890659923113,0.16592940961440036,-0.2959574921442605,1.1803609937777912
1592271600.5766811,2.35,9.34,1.02,-0.46,-0.47555555555555556,0.09222222222222222,0.044724062082354694,-0.22143864884678055,1.0995574287564276
1592271600.5866811,2.3608550277269376,9.336267653727429,0.8384609500915126,-0.46,-0.47555555555555556,0.09222222222222222,0.20093021365912306,-0.2691180884847179,1.2011417642633069
1592271600.596681,2.675920845460184,9.378908583424781,0.8589858771887972,-0.46,-0.47555555555555556,0.09222222222222222,0.11640737277437341,-0.1764655729813802,1.2547163321734218
1592271600.606681,2.97,9.5,1.13,-0.46,-0.47555555555555556,0.09222222222222222,0.0818123086872342,-0.10035643198967394,1.1911872144861297
1592271600.616681,2.315721415450733,8.735721415450733,1.443520604443212,-0.46358599336868495,-0.4710730638446994,0.08938331080534664,0.38407651671779497,-0.014722226978544514,1.312069434987939
1592271600.626681,2.61,9.03,1.08,-0.4866666666666667,-0.44222222222222224,0.07111111111111111,0.5181446216858165,-0.039269908169872414,1.3809917706405133
1592271600.636681,2.7740038453052605,9.135808932455006,0.656764270179973,-0.4866666666666667,-0.44222222222222224,0.07111111111111111,0.40965015953590744,-0.09640263025945221,1.4381244927300931
1592271600.646681,2.942094173689996,9.280500968434279,0.242124273674292,-0.4866666666666667,-0.44222222222222224,0.07111111111111111,0.27553972714132613,-0.14657355550059667,1.3998103004406386
1592271600.656681,3.0042234548335975,9.367242472266245,0.14862123613312203,-0.4866666666666667,-0.44222222222222224,0.07111111111111111,0.17865249691843305,-0.16494018350042688,1.2377999178202712
1592271600.666681,3.0470195428248905,9.303760406377876,0.12779949202765628,-0.48649334462160765,-0.44170225608704516,0.07093778906605208,0.13579777346332494,-0.21080985967583232,1.307529273662207
1592271600.676681,3.13,9.23,0.22,-0.48444444444444446,-0.43555555555555553,0.06888888888888889,0.09053895494720585,-0.16253378659197193,1.1999138607461015
1592271600.686681,3.608243983864237,9.200156628181944,0.031756016135762975,-0.48444444444444446,-0.43555555555555553,0.06888888888888889,0.08253712166286767,-0.1357009880923784,1.2719707828006879
1592271600.696681,3.75,9.23,-0.11,-0.48444444444444446,-0.43555555555555553,0.06888888888888889,0.11671889372712078,-0.06326818538479445,1.1279190291013355
1592271600.706681,3.6205821895099795,8.84029109475499,0.25081824812678205,-0.48444444444444446,-0.43555555555555553,0.06888888888888889,-0.0009003097108768281,-0.1804411037005851,1.1820477725709824
1592271600.716681,3.8933406766843124,8.990538914280076,0.2686637293262749,-0.49392723141054445,-0.424413280870388,0.0707854462821089,0.04204391742739579,-0.07702578783250318,1.0029647628862437
1592271600.726681,4.09,9.14,0.19,-0.5288888888888889,-0.38333333333333336,0.07777777777777778,-0.0643590161672909,-0.039269908169872414,0.9162978572970231
1592271600.736681,4.0039023468976636,8.828536462530218,0.40048801369863013,-0.5288888888888889,-0.38333333333333336,0.07777777777777778,-0.0804820071462314,-0.11123817773348738,1.021177451868822
1592271600.746681,4.195781238836894,8.910612988497535,0.1863942273344288,-0.5288888888888889,-0.38333333333333336,0.07777777777777778,-0.09859038809725756,-0.059646942036971316,0.785746914397782
1592271600.756681,4.482935895133776,8.856108816663673,0.28682707847010236,-0.5288888888888889,-0.38333333333333336,0.07777777777777778,-0.11449844880875487,-0.07745584120052137,0.7613276081148765
1592271600.766681,4.7394360837225395,8.981323300467047,0.37917142362912987,-0.5310522977570201,-0.3802685041034808,0.07777777777777778,-0.1643212697268256,-0.12721170088039235,0.6508204771760571
1592271600.776681,4.573809500680008,8.770680250631436,0.2606802506314358,-0.5422222222222223,-0.36444444444444446,0.07777777777777778,-0.06858876709975033,-0.09571112899644517,0.4604789978792209
1592271600.786681,4.67,8.86,0.35,-0.5422222222222223,-0.36444444444444446,0.07777777777777778,-0.07308566242726255,-0.08072147790473774,0.4799655442984406
1592271600.796681,4.619675470487596,8.849350940975192,0.5409308169375535,-0.5422222222222223,-0.36444444444444446,0.07777777777777778,-0.11811433364012297,0.03851908719607754,0.37065332393243333
1592271600.806681,4.585105293753633,8.956624411648884,0.5418564704558666,-0.5422222222222223,-0.36444444444444446,0.07777777777777778,-0.09007171027314234,0.006185908738034915,0.3001671467762969
1592271600.816681,4.250810267040605,8.849594866479697,0.42931807096695523,-0.543302578276362,-0.36354414773266136,0.0783629706404368,0.034438848611810895,-0.11711443793385762,0.24857903347143537
1592271600.826681,4.316618226139133,8.871896681042566,0.676989499343709,-0.5688888888888889,-0.3422222222222222,0.09222222222222222,-0.08279309503676927,-0.22566462097912035,0.16959381196017886
1592271600.836681,4.4398546331381326,8.952093007233897,0.7107557698932139,-0.5688888888888889,-0.3422222222222222,0.09222222222222222,-0.05717035488587867,-0.22104537861014234,0.20065898001992316
1592271600.8466809,4.414437459971061,8.920913015632042,0.5651168252010342,-0.5688888888888889,-0.3422222222222222,0.09222222222222222,-0.1680689047457055,0.028709003957256868,0.2904087972007731
1592271600.8566809,4.589497550178771,8.997487750893853,0.6715003499744614,-0.5688888888888889,-0.3422222222222222,0.09222222222222222,0.017015585860448917,0.016029791469297817,0.2634847163023273
1592271600.8666809,4.533955468114489,8.719777340572444,0.6794349331265016,-0.5688888888888889,-0.3422222222222222,0.09222222222222222,-0.014143449314234852,-0.10687529171973259,0.13971410435844456
1592271600.8766809,4.308015371557902,8.687784798189362,0.5540461146737081,-0.5988888888888889,-0.31777777777777777,0.07777777777777778,-0.14320903622493636,-0.011941943028899338,0.23437081604696536
1592271600.8866808,4.28384670123005,8.8,0.5340383246924876,-0.5988888888888889,-0.31777777777777777,0.07777777777777778,0.012817455752874515,0.03895636501265896,0.20641862865176558
1592271600.8966808,4.22,8.8,0.55,-0.5988888888888889,-0.31777777777777777,0.07777777777777778,-0.009817477042468103,-0.0916297857297023,0.2203478180642841
1592271600.9066808,4.018525862931465,8.779591595797898,0.7693426713356679,-0.5988888888888889,-0.31777777777777777,0.07777777777777778,-0.06379726287027582,0.06524025901234803,0.3795276519689912
1592271600.9166808,4.085668234117058,8.85512676338169,0.6854147073536769,-0.5988888888888889,-0.31777777777777777,0.07777777777777778,-0.1452778367654664,-0.14258098002369973,0.32734346419341975
1592271600.9266808,4.482471205127056,9.000115179491775,0.7259539282032895,-0.5988888888888889,-0.3388888888888889,0.05444444444444444,-0.2964503391653178,-0.05686986372694605,0.40892812896006137
1592271600.9366808,4.5693203563180464,8.665767073573077,0.7661167931375783,-0.5988888888888889,-0.3388888888888889,0.05444444444444444,-0.09874879718089412,-0.10497815713280147,0.2598570540039883
1592271600.9466808,4.628869455248276,8.536413180939656,0.48727123052327664,-0.5988888888888889,-0.3388888888888889,0.05444444444444444,-0.09828966047392915,-0.039726839482638776,0.34800073583038327
1592271600.9566808,4.69,8.46,0.77,-0.5988888888888889,-0.3388888888888889,0.05444444444444444,-0.16580627893946132,0.20616701789183017,0.5530512067257032
1592271600.9666808,4.954572176860268,8.482909567092898,0.6529339084886766,-0.5999972954004691,-0.338380869237748,0.05356695595611017,-0.1762264605757278,-0.03265834095201198,0.38642083042201353
1592271600.9766808,5.06,8.55,0.49,-0.6255555555555555,-0.32666666666666666,0.03333333333333333,-0.0643590161672909,-0.23234695667174513,0.4428772976935611
1592271600.9866807,4.928877330416868,8.228315995625302,0.7860637892006003,-0.6255555555555555,-0.32666666666666666,0.03333333333333333,0.0272707695624114,0.01848289117544711,0.42748395158631497
1592271600.9966807,4.999466680528122,8.375420002079219,0.4159533215510968,-0.6255555555555555,-0.32666666666666666,0.03333333333333333,0.020276365760349448,0.015338539174273899,0.5131653460248888
1592271601.0066807,4.854118931281838,8.353617839692275,0.5394989084104377,-0.6255555555555555,-0.32666666666666666,0.03333333333333333,-0.01301909203897916,-0.025884408577275815,0.4790771392303382
1592271601.0166807,5.106235512876028,8.358910822996,0.6401974069640083,-0.6255555555555555,-0.32666666666666666,0.03333333333333333,-0.053536843379534085,0.24138471712901202,0.2935968592072826
1592271601.0266807,5.0047407092694876,8.319770824482044,0.6667430585059856,-0.6088888888888889,-0.31444444444444447,0.02666666666666667,0.1062355718084451,-0.2429644071848747,0.342714288951377
1592271601.0366807,5.266774062574636,8.363288034392166,0.64,-0.6088888888888889,-0.31444444444444447,0.02666666666666667,-0.03600418955067178,0.040520807362391754,0.32486897268107856
1592271601.0466807,5.111503821351803,8.117860878910914,0.64,-0.6088888888888889,-0.31444444444444447,0.02666666666666667,0.007705115928429117,0.06346819273891972,0.37458830766355583
1592271601.0566807,5.02446599251974,7.951925078661469,0.5561498426770626,-0.6088888888888889,-0.31444444444444447,0.02666666666666667,0.058166841285881954,0.06072948305154136,0.41281696904046306
1592271601.0666807,5.314970217481646,8.225829062196981,0.008341875606039606,-0.6088888888888889,-0.31444444444444447,0.02666666666666667,0.14599090485808505,-0.0841349517067318,0.38746569295776523
1592271601.0766807,5.335290158679489,8.081295239615338,0.28682920341034546,-0.6306373190156759,-0.3079786949472916,0.016086349307689242,0.00395968251483278,-0.018919369788050935,0.3076730131302169
1592271601.0866807,5.34,7.94,0.56,-0.65,-0.3022222222222222,0.006666666666666667,-0.1265363707695889,0.04581489286485115,0.23780111058422737
1592271601.0966806,5.528691763449473,8.230295020691496,0.33502135896409024,-0.65,-0.3022222222222222,0.006666666666666667,-0.10357832178784847,-0.07135032262816896,0.14517725779582638
1592271601.1066806,5.439733376877858,8.14546740692358,0.8529328543435662,-0.6498222512519051,-0.3018667247260324,0.00681479062341244,-0.11034912595312935,0.1125031284384511,0.26987253308348047
1592271601.1166806,5.434254212932724,8.052321619856304,0.9132036577400392,-0.6461694752884825,-0.29456117279918714,0.009858770592931273,-0.02428261996389572,-0.15346628243105562,0.14435887851584808
1592271601.1266806,5.43,7.98,0.96,-0.6433333333333333,-0.28888888888888886,0.012222222222222223,0.042542400517361786,-0.35997415822383044,0.04690572364734761
1592271601.1366806,5.619156966332378,8.1357763252149,1.0119254417383,-0.6433333333333333,-0.28888888888888886,0.012222222222222223,-0.03635163303519855,-0.278652615946576,0.0736083196189834
1592271601.1466806,5.938386461318052,8.398671203438395,1.0995570678127986,-0.6433333333333333,-0.28888888888888886,0.012222222222222223,-0.16949662355123435,-0.14141085649158522,0.11867277794748782
1592271601.1566806,5.491261052383385,7.833753684127795,0.8246921051597438,-0.6433333333333333,-0.28888888888888886,0.012222222222222223,-0.08446739089756411,-0.1063286737253673,0.12908908712505962
1592271601.1666806,5.590156010531693,7.866718670177232,0.8658983377215389,-0.6433333333333333,-0.28888888888888886,0.012222222222222223,-0.05030613044663756,0.13819403266021227,0.0940288461359508
1592271601.1766806,5.7587965709747495,7.958220317208194,1.1170168881829436,-0.6599971710282145,-0.284967985901858,0.005360641994918233,0.02430702021535438,0.026844639502228956,0.10016229871243584
1592271601.1866806,5.880852758652629,7.83,1.1984855969619315,-0.6622222222222223,-0.28444444444444444,0.0044444444444444444,0.0353183114382323,0.2184894417097387,0.02549372811600543
1592271601.1966805,5.796679273827534,7.83,0.8164674735249622,-0.6622222222222223,-0.28444444444444444,0.0044444444444444444,0.06922072189381823,0.21142643953149162,-0.0310102893099711
1592271601.2066805,5.887329464663157,7.58443603243534,0.9683236616578916,-0.6622222222222223,-0.28444444444444444,0.0044444444444444444,0.09193082165641944,0.16668020958481328,0.3054943689834325
1592271601.2166805,6.016635844438401,7.757383736741909,0.8833641555615991,-0.6622222222222223,-0.28444444444444444,0.0044444444444444444,0.218971893895337,0.12436479575520923,0.1300325472100895
1592271601.2266805,5.64,7.74,0.73,-0.6755555555555556,-0.28888888888888886,-0.015555555555555555,0.37306412761378793,0.3425208657038872,0.14398966328953217
1592271601.2366805,5.566113523328333,7.564519617904792,0.78541485750375,-0.6755555555555556,-0.28888888888888886,-0.015555555555555555,0.30153371930603956,0.12490722916200478,0.21451260105773481
1592271601.2466805,5.814018671808861,7.973364453014768,0.6771028125293952,-0.6755555555555556,-0.28888888888888886,-0.015555555555555555,0.2874050268998589,0.08842865758212133,0.0017535020176632221
1592271601.2566805,5.7353579144462055,7.763394786115512,0.8119631283306927,-0.6755555555555556,-0.28888888888888886,-0.015555555555555555,0.23630163067811388,0.3546541782258307,0.27500389206458437
1592271601.2666805,5.983840714328519,8.059368370587883,0.6851471205129742,-0.6755555555555556,-0.28888888888888886,-0.015555555555555555,0.2161317083892142,0.34642842852851163,0.20385611964816552
1592271601.2766805,5.770535076979185,7.71480605413291,0.7482916091385104,-0.6677777777777778,-0.28555555555555556,-0.04555555555555556,0.2925402592451296,0.09711229948069583,-0.006066788941003422
1592271601.2866805,6.13,8.22,0.69,-0.6677777777777778,-0.28555555555555556,-0.04555555555555556,0.18762289458939044,0.43305982065109305,0.19634954084936207
1592271601.2966805,5.958759078239705,8.120860518980882,0.5007337180544105,-0.6677777777777778,-0.28555555555555556,-0.04555555555555556,0.0490014394116704,0.5500523962975375,0.2641855721065442
1592271601.3066804,6.0404453783162815,8.187604815113014,0.3512911650923944,-0.6677777777777778,-0.28555555555555556,-0.04555555555555556,0.014856852633926899,0.20425153591765674,0.03801006427200771
1592271601.3166804,5.735692908901675,7.792250260196767,0.39247393122950336,-0.6677777777777778,-0.28555555555555556,-0.04555555555555556,0.03642009855906824,0.14315567246308963,0.032619252790722385
1592271601.3266804,5.47,7.78,0.47,-0.68,-0.2788888888888889,-0.03888888888888889,0.011999138607461015,0.4112432050011639,0.2159844949342983
1592271601.3366804,5.400753551331995,7.572260653995986,0.7383299885885177,-0.68,-0.2788888888888889,-0.03888888888888889,0.028994774109225536,0.22806802237103518,0.2584735836887096
1592271601.3466804,5.799797903803248,7.90981762050537,0.7400197167021221,-0.68,-0.2788888888888889,-0.03888888888888889,0.10795460919234191,0.12984327525404488,0.20510576003953943
1592271601.3566804,6.088643669428551,7.860233850098526,0.6504209301773463,-0.68,-0.2788888888888889,-0.03888888888888889,-0.03749543381299876,0.30243976851665677,0.46347968072631285
1592271601.3666804,6.006357443398117,7.684350631136045,0.6081787216990583,-0.68,-0.2788888888888889,-0.03888888888888889,-0.008982317237604252,0.10434802901369503,0.39535160798778246
1592271601.3766804,6.41397530575907,7.817618144137307,0.35350272920984266,-0.6679490223169257,-0.2975131271263674,-0.06299084425503762,-0.08716517731062101,0.39349175610049447,0.30542691961244745
1592271601.3866804,6.190949015997238,7.266460121993325,0.684032685004028,-0.6677777777777778,-0.29777777777777775,-0.06333333333333334,-0.03630398835902206,0.27426636965601214,0.23459035958543545
1592271601.3966804,5.970839836315188,7.401623762847355,0.4908398363151884,-0.6677777777777778,-0.29777777777777775,-0.06333333333333334,0.04707674988584808,0.1594506169166921,0.0559890335788992
1592271601.4066803,5.912938954723574,7.438236627165857,0.621183135829281,-0.6677777777777778,-0.29777777777777775,-0.06333333333333334,-0.10479128922838402,0.2862530833894842,0.2522482710232916
1592271601.4166803,6.136193537818912,7.71466358163725,0.6219216593636103,-0.6677777777777778,-0.29777777777777775,-0.06333333333333334,-0.09515060635926292,0.2002348130510181,0.1690199613960806
1592271601.4266803,5.63,7.43,0.85,-0.7,-0.2788888888888889,-0.08444444444444445,0.0643590161672909,0.04145156973486533,-0.016362461737446838
1592271601.4366803,5.924723251741131,7.608385126053843,0.8655117500916385,-0.7,-0.2788888888888889,-0.08444444444444445,-0.028704803529642317,0.1387455630543864,0.014094788345185849
1592271601.4466803,6.019293184368942,7.6321204468931745,0.9815182124273033,-0.7,-0.2788888888888889,-0.08444444444444445,0.031548337655369005,-0.04699974255394018,0.1840903825076283
1592271601.4566803,6.066841891277832,7.901682969411427,0.7089486523330064,-0.7,-0.2788888888888889,-0.08444444444444445,0.11175814814672076,0.024617926911089633,0.03181856317916046
1592271601.4666803,6.2036348180890855,7.841391283477009,0.5878086685201113,-0.7,-0.2788888888888889,-0.08444444444444445,0.09956913217595742,0.1360142954495554,0.13477169918266899
1592271601.4766803,6.285634839501125,7.774365160498875,0.6147618074013494,-0.6705908812103865,-0.2717901360776029,-0.08444444444444445,0.20541362873147995,0.0044242098205647395,-0.04824723809361958
1592271601.4866803,5.962785309284364,7.533678278927596,0.8017859392864642,-0.6677777777777778,-0.27111111111111114,-0.08444444444444445,0.07816759454719685,0.05056397867863462,-0.076654247233225
1592271601.4966803,6.272206424433913,7.77708794102159,0.48614007372301205,-0.6677777777777778,-0.27111111111111114,-0.08444444444444445,0.17816673011258333,-0.016113736235171455,0.050015654061479134
1592271601.5066803,6.158074889444338,7.714229475100942,0.6598103730051913,-0.6677777777777778,-0.27111111111111114,-0.08444444444444445,0.03383486634257665,0.176024637867508,0.07526732399225547
1592271601.5166802,5.866753482141098,7.518887487933175,0.6894664985519809,-0.6677777777777778,-0.27111111111111114,-0.08444444444444445,0.08626361348004909,0.3596213934472454,0.0782538007191801
1592271601.5266802,5.916063446043894,7.553622357819506,0.6712598186292689,-0.6910849280997277,-0.28373581753550065,-0.11552064487371097,0.01880150538269776,0.12210350777479839,0.02814672914974463
1592271601.5366802,6.024165232358003,7.562986230636833,0.8032616179001721,-0.6944444444444444,-0.28555555555555556,-0.12,-0.0426325207885491,0.04334597293544867,0.13013273284165766
1592271601.5466802,5.962385312572624,7.714556588426679,0.5183485940041831,-0.6944444444444444,-0.28555555555555556,-0.12,-0.08169889067838249,0.0940249489644648,0.20865891852529142
1592271601.5566802,6.07700178210764,7.717764286562908,0.8751821314007366,-0.6944444444444444,-0.28555555555555556,-0.12,-0.11254841320190562,0.10029215112141705,0.07620875359546453
1592271601.5666802,5.992019096413601,7.7689904517932,0.7112657196087564,-0.6944444444444444,-0.28555555555555556,-0.12,0.04197094643137533,-0.010502866295187124,-0.05040557825620967
1592271601.5766802,5.77181407971749,7.610176895660988,0.7281859202825098,-0.6891715804350275,-0.28555555555555556,-0.09890854396233202,-0.036527226516010286,-0.0020609614581372088,0.07587678106254016
1592271601.5866802,6.049758983347941,7.568198948290973,0.9175810692375109,-0.6877777777777778,-0.28555555555555556,-0.09333333333333334,-0.004503859611166353,-0.09831291682965099,0.199088568186656
1592271601.5966802,5.956709189484715,7.515569729828238,0.8411394596564764,-0.6877777777777778,-0.28555555555555556,-0.09333333333333334,-0.07960679187710035,0.15833953751192248,0.21937730717446724
1592271601.6066802,5.764635996195911,7.469397051830718,0.7258418925344745,-0.6877777777777778,-0.28555555555555556,-0.09333333333333334,-0.03236878252612427,0.146255121199229,0.012540897148011876
1592271601.6166801,6.070015010624403,7.491251340234322,0.9875123301557596,-0.6877777777777778,-0.28555555555555556,-0.09333333333333334,0.024272446879400007,0.11780972450961724,0.07759086564732803
1592271601.6266801,5.874710539979232,7.650009086188993,0.7178660436137072,-0.6771338121610707,-0.2806429560401523,-0.12280893042575286,0.03829348435417984,0.10334092462122382,0.2585910369813162
1592271601.6366801,6.008732265446224,7.746455377574371,0.9239004576659039,-0.6733333333333333,-0.2788888888888889,-0.13333333333333333,-0.014677540048236064,0.23837548166672726,0.26521016853416807
1592271601.64668,5.960885974050573,7.691645515673833,0.9312657448622029,-0.6733333333333333,-0.2788888888888889,-0.13333333333333333,0.07990689312208933,0.1218415317781549,0.24391803794922468
1592271601.65668,5.79160627301889,7.813498871331829,0.6960805512652964,-0.6733333333333333,-0.2788888888888889,-0.13333333333333333,0.04533317514849862,0.14531817776634948,0.21361932185831392
1592271601.66668,5.929361049216215,7.705378405848091,0.8959491419412846,-0.6733333333333333,-0.2788888888888889,-0.13333333333333333,0.052592661471391126,0.06585518262872954,0.19832954732775063
1592271601.67668,6.15586517127139,7.541844016899183,1.1349715814108994,-0.6695468898277324,-0.2788888888888889,-0.12803231242549196,0.009939752472571957,0.08247603749288743,0.05067885563544658
1592271601.68668,6.186281313600844,7.652312118394935,0.9802505088067539,-0.6677777777777778,-0.2788888888888889,-0.12555555555555556,0.03147715163707989,0.06134575338689748,-0.0525847642798576
1592271601.69668,5.951288307774565,7.363269011106521,1.060692395557392,-0.6677777777777778,-0.2788888888888889,-0.12555555555555556,0.014429363358510916,0.024430399648020247,-0.12009369039788169
1592271601.70668,6.129734344446034,7.536143940477894,0.8356512615061764,-0.6677777777777778,-0.2788888888888889,-0.12555555555555556,0.12309141197272784,0.030375009572866686,0.07187470343010571
1592271601.71668,6.122003803874795,7.602888043583379,0.8122201089584475,-0.6677777777777778,-0.2788888888888889,-0.12555555555555556,0.10723136301881869,0.05592173667528815,0.13394077019408032
1592271601.72668,6.147773591253154,7.538521110176619,1.0418472666105971,-0.676378357162882,-0.2734157929165499,-0.13728361835342492,0.09518297663582298,0.074015758514138,0.098782809961609
1592271601.73668,6.11082995671793,7.622055437885625,0.9726876323786722,-0.68,-0.27111111111111114,-0.14222222222222222,0.0657904113719587,0.07939352528210106,-0.014491303713175599
1592271601.74668,6.0151332513325135,7.551888752220855,0.8651332513325133,-0.68,-0.27111111111111114,-0.14222222222222222,0.18134715144056293,-0.06272214881980556,-0.04665039639298713
1592271601.75668,6.059758642570093,7.614637963855139,0.8818551855420554,-0.68,-0.27111111111111114,-0.14222222222222222,0.14897247658094845,-0.072812563785023,0.01787610448900899
1592271601.76668,6.0786889710173115,7.5186121377163975,1.0357323477922582,-0.68,-0.27111111111111114,-0.14222222222222222,0.10001715200110911,-0.09739510543532426,0.14499615148575315
1592271601.77668,6.199626813869699,7.617402902191518,1.0427798895977258,-0.6677574675789729,-0.2667902173154545,-0.15950579740484874,0.10609305601586652,-0.11007338226714022,0.1849975883627826
1592271601.78668,6.277314325777051,7.51788455246553,0.8583421360130872,-0.6611111111111111,-0.2644444444444444,-0.1688888888888889,0.07464377360805674,0.10368612985891892,0.15623184888648423
1592271601.79668,6.157405949452024,7.39232453589801,0.789567658242004,-0.6611111111111111,-0.2644444444444444,-0.1688888888888889,0.21601328447407342,0.09088133088929425,0.06727810471508308
1592271601.80668,6.152816941715158,7.356795764571211,0.7601936468568158,-0.6611111111111111,-0.2644444444444444,-0.1688888888888889,0.2789876468360232,0.09050825809698773,0.1677057375966864
1592271601.81668,6.207008445319967,7.36620506719198,0.8688371594078523,-0.6611111111111111,-0.2644444444444444,-0.1688888888888889,0.24846151296015354,0.17902651996213953,0.22937658047395929
1592271601.82668,6.155812380086843,7.355270793362281,0.9761823016594298,-0.6617980335177145,-0.2610098324114279,-0.16614119926247564,0.23093910973333379,0.07688115432592763,0.17314090336678944
1592271601.83668,6.246966251902247,7.634477441589831,0.7540056843612927,-0.6622222222222223,-0.2588888888888889,-0.16444444444444445,0.21999115711780942,0.024499555508892632,0.07451540655129955
1592271601.84668,6.3670930887852855,7.6272672780367845,0.6428633639018393,-0.6622222222222223,-0.2588888888888889,-0.16444444444444445,0.14607453101696763,0.10887227781357939,0.0581121251960601
1592271601.85668,6.28749637068945,7.635895190271068,0.49356624384207143,-0.6622222222222223,-0.2588888888888889,-0.16444444444444445,0.11890055529211369,0.0982319352639932,0.13544084588936445
1592271601.86668,6.182024686883331,7.610563408642423,0.5883097740727317,-0.6622222222222223,-0.2588888888888889,-0.16444444444444445,0.13036003336445418,0.12755227859692658,0.12032365213813606
1592271601.87668,6.112820588670314,7.647948528324212,0.510128679189469,-0.6441026146690989,-0.2588888888888889,-0.16821936268467846,0.09371367426493736,0.18345527886055357,0.05339488413721707
1592271601.88668,5.956068107157729,7.420922592883913,0.5811284874843844,-0.6355555555555555,-0.2588888888888889,-0.17,0.1162621307334784,0.1165826218947634,-0.09728370405421072
1592271601.8966799,6.222141030727858,7.615843803729665,0.5216624785081339,-0.6355555555555555,-0.2588888888888889,-0.17,-0.012499204907852918,0.13600213988419085,0.0782650287414913
1592271601.9066799,6.187951931125195,7.567951931125195,0.598908047351429,-0.6355555555555555,-0.2588888888888889,-0.17,0.003935312591939216,0.09710246146104318,0.0634206382149489
1592271601.9166799,6.203702286514233,7.499519365375642,0.7839906672888475,-0.6355555555555555,-0.2588888888888889,-0.17,0.024323337661819946,0.07402969171761156,-0.0012166606329085533
1592271601.9266798,6.185234137765702,7.484522135208566,0.9376202653028608,-0.6487834070285724,-0.2502907854314279,-0.1666930371317458,0.05251730447314206,0.16152271529213363,0.07043799627834554
1592271601.9366798,6.104636772361571,7.484794131566494,0.9117676289635589,-0.6577777777777778,-0.24444444444444444,-0.16444444444444445,0.04139749281841171,0.2598817867856222,0.12214529934118415
1592271601.9466798,5.990940939822317,7.503146896127842,0.7784265519360787,-0.6577777777777778,-0.24444444444444444,-0.16444444444444445,-0.010313004463918418,0.22255971106851924,0.08559001958286644
1592271601.9566798,6.165426492058576,7.558284740963589,0.6754295889926116,-0.6577777777777778,-0.24444444444444444,-0.16444444444444445,0.09421644892840358,0.13507574238232445,-0.06535561843574833
1592271601.9666798,6.2812325006328,7.679178332911466,0.5802054167721333,-0.6577777777777778,-0.24444444444444444,-0.16444444444444445,0.01824469121903402,0.15923888675065415,-0.07258099469185302
1592271601.9766798,6.197719726735336,7.4693469257725384,0.7983728009627977,-0.6385919869109844,-0.24444444444444444,-0.16753892684231433,-0.00843130221355505,0.10384530661407776,-0.015147261341470467
1592271601.9866798,6.20655183213279,7.31425305355465,0.9700430629502036,-0.6233333333333333,-0.24444444444444444,-0.17,0.04786178062975172,0.04587126213485175,-0.02166305209316991
1592271601.9966798,6.201170650555993,7.327728453433733,0.8563339462393835,-0.6233333333333333,-0.24444444444444444,-0.17,0.0363616946600016,0.06289629750660687,-0.0781399119105081
1592271602.0066798,6.126539804803368,7.066435986986892,0.9394117787771505,-0.6233333333333333,-0.24444444444444444,-0.17,0.12066703628634064,0.1694033798156622,0.07988733314289523
1592271602.0166798,6.173886372993001,7.0797818032111985,0.9645409633594072,-0.6233333333333333,-0.24444444444444444,-0.17,0.17952496924152048,0.19176257270921437,0.15900396775688666
1592271602.0266798,6.236262930160232,7.275015211953215,0.8662690149415184,-0.6358348545286547,-0.23611009698089677,-0.18041793432943456,0.10157739399492174,0.23874720771716335,0.17358616431982382
1592271602.0366797,6.266168875365336,7.326578452176002,0.8767233855146734,-0.6433333333333333,-0.2311111111111111,-0.18666666666666668,0.12086638286074605,0.1826787587686723,0.164213684339849
1592271602.0466797,6.224888660179641,7.2984220621257485,0.6509777320359281,-0.6433333333333333,-0.2311111111111111,-0.18666666666666668,0.2024172360463669,0.15748195817954588,0.08992541366268325
1592271602.0566797,6.2217993145018315,7.33,0.5957324193357759,-0.6433333333333333,-0.2311111111111111,-0.18666666666666668,0.1597268150800148,0.24428653212809948,0.0782844167675754
1592271602.0666797,6.2603253152484895,7.315824944367914,0.8613012609939599,-0.6433333333333333,-0.2311111111111111,-0.18666666666666668,0.20961694218285373,0.34936326563711567,-0.018206135678404605
1592271602.0766797,6.2662580565956665,7.211024185132895,1.22,-0.6369363793232801,-0.23750806512116437,-0.19306362067671995,0.19629587312655988,0.36228689223721433,-0.025433947389098356
1592271602.0866797,6.214216454649286,7.186216769721555,1.1646481036587768,-0.6311111111111111,-0.24333333333333335,-0.1988888888888889,0.14830590081683925,0.32897095246148567,0.006149869468850584
1592271602.0966797,6.331136566802033,7.526215104845095,0.5560580287589713,-0.6311111111111111,-0.24333333333333335,-0.1988888888888889,0.14648520372959484,0.315694613934103,-0.009667084874207282
1592271602.1066797,6.112856363494661,7.345120151715896,0.5971436365053386,-0.6311111111111111,-0.24333333333333335,-0.1988888888888889,0.15947040344210398,0.2321250385085017,0.08186473476334202
1592271602.1166797,6.080402947600481,7.384294841699157,0.6908058952009635,-0.6311111111111111,-0.24333333333333335,-0.1988888888888889,0.21140836750562664,0.2378241567754108,0.10340915051399403
1592271602.1266797,6.112576976324413,7.309124826945657,0.7079902914322767,-0.6311111111111111,-0.23320188018311147,-0.1950459239008737,0.20505848545844624,0.3253822649516648,0.12256020912494209
1592271602.1366796,6.156636132777072,7.231517322691819,0.6663985126065664,-0.6311111111111111,-0.2111111111111111,-0.18666666666666668,0.26568412450519846,0.3220524045136968,0.1825277175945835
1592271602.1466796,6.4014233419465985,7.396046272370562,0.7574696143171595,-0.6311111111111111,-0.2111111111111111,-0.18666666666666668,0.17784391346529208,0.05645644354970909,0.10664663895236419
1592271602.1566796,6.49021239124149,7.145964566411692,0.605946954761717,-0.6311111111111111,-0.2111111111111111,-0.18666666666666668,0.11532111177025257,0.1767821705026785,0.022907446432425576
1592271602.1666796,6.550950260145681,7.015849323621228,0.8378680541103017,-0.6311111111111111,-0.2111111111111111,-0.18666666666666668,0.24118693128273078,0.24224284639938998,0.016280825369208395
1592271602.1766796,7.004859937565036,7.513404162330906,0.4625196670135276,-0.6311111111111111,-0.2111111111111111,-0.18666666666666668,0.1450157706888674,0.3498402834994549,-0.04275493657949979
1592271602.1866796,6.698537381651975,7.492180868429644,0.5634573947110675,-0.6237573910835419,-0.1974542024884826,-0.1982225124242754,0.06239352642240095,0.3039240460677785,0.033659056397677946
1592271602.1966796,6.415210124164279,7.159012655205348,0.6551110315186247,-0.6233333333333333,-0.19666666666666666,-0.1988888888888889,0.10526647283992245,0.32170079221580894,-0.17123060951751284
1592271602.2066796,6.4553031112763435,7.250606222552687,0.530959407021865,-0.6233333333333333,-0.19666666666666666,-0.1988888888888889,0.2115524578546564,0.2313909684610562,-0.17923781571620043
1592271602.2166796,6.267084067635151,7.149762324362944,1.0803748511550368,-0.6233333333333333,-0.19666666666666666,-0.1988888888888889,0.0950867243395333,0.1634949854238931,-0.013551604612747709
1592271602.2266796,6.25,7.1034555371116905,1.1574083471662318,-0.6233333333333333,-0.19666666666666666,-0.1988888888888889,0.17069778973242544,0.24886066544702112,0.025009125811516687
1592271602.2366796,6.34,7.148565797754298,1.073497731111921,-0.6355555555555555,-0.20444444444444446,-0.20555555555555555,0.20823613141643105,0.18314702341901254,-0.024403919863230716
1592271602.2466795,6.424699629875676,6.986468634336148,0.9529505551864857,-0.6355555555555555,-0.20444444444444446,-0.20555555555555555,0.21239159627838844,0.18037301601588662,-0.023427343195232556
1592271602.2566795,6.548390062383715,6.980965962569771,0.6803127941337419,-0.6355555555555555,-0.20444444444444446,-0.20555555555555555,0.17136379733607246,0.16063311214853793,0.09099856754942262
1592271602.2666795,6.614052875234342,6.967566094042928,0.6118833454489804,-0.6355555555555555,-0.20444444444444446,-0.20555555555555555,0.12273407196503094,0.23287081587448052,0.1145384216129945
1592271602.2766795,6.685756594169366,7.0686348912540495,0.6999074502545118,-0.6380975885649648,-0.2022201655612114,-0.2077798344387886,0.1195385979154712,0.353245938186859,0.13452654219769458
1592271602.2866795,6.8,7.24,0.45,-0.6444444444444445,-0.19666666666666666,-0.21333333333333335,0.15926129424448257,0.2792526803190927,0.2498002491916884
1592271602.2966795,6.720185560351155,7.1927073607563345,0.8309389588654982,-0.6444444444444445,-0.19666666666666666,-0.21333333333333335,0.08198740401850957,0.1474133583183735,-0.010783207703515568
1592271602.3066795,6.719670813215042,7.169382774778203,1.040205741740599,-0.6444444444444445,-0.19666666666666666,-0.21333333333333335,0.129503587209392,0.0414695240887765,0.09459700216950541
1592271602.3166795,6.803681225485,7.338406127424998,1.0268122548499947,-0.6444444444444445,-0.19666666666666666,-0.21333333333333335,0.08054142664550452,0.08808629137449742,0.06330345554154854
1592271602.3266795,6.7668488930874435,7.296389288207993,0.9986211853616462,-0.637675643360122,-0.19525649977409948,-0.21276926657630646,0.08988491347339456,0.18503786712573175,0.07362500694443888
1592271602.3366795,6.6412087393901285,7.075165042439484,0.7417852090537567,-0.6177777777777778,-0.19111111111111112,-0.2111111111111111,0.06681047060186228,0.20522934407199717,-0.030849061454160814
1592271602.3466794,6.744548874815974,7.065234968335943,1.0272109924520367,-0.6177777777777778,-0.19111111111111112,-0.2111111111111111,0.024817426309295492,0.06411014880745372,0.006269198976851263
1592271602.3566794,6.771290232558139,7.165483720930233,0.9701613953488373,-0.6177777777777778,-0.19111111111111112,-0.2111111111111111,0.08134903539072372,0.2879794280516953,-0.02716513655361337
1592271602.3666794,6.714395721167469,7.075192512043072,0.9830491994899406,-0.6177777777777778,-0.19111111111111112,-0.2111111111111111,0.14552405943697125,0.34874805204288567,0.01568509724155759
1592271602.3766794,6.853218139044374,7.319149022470999,0.692041048105784,-0.6184559638733403,-0.19111111111111112,-0.21209071324914597,0.19435211792225005,0.17321945060670196,-0.09752781140376503
1592271602.3866794,6.629665997226605,7.122669153158323,1.111995409553866,-0.6377777777777778,-0.19111111111111112,-0.24,0.17242475766076518,0.18980643392936397,-0.028868860391758053
1592271602.3966794,6.533667725427916,7.205620257631904,0.7917151932239279,-0.6377777777777778,-0.19111111111111112,-0.24,0.19709793507599807,0.24532629345322549,0.1086123964125361
1592271602.4066794,6.478296610371359,6.979128177032467,0.8897796622281509,-0.6377777777777778,-0.19111111111111112,-0.24,0.14767202592984688,0.10581601654062463,0.11361360787984257
1592271602.4166794,6.53,6.829994638644649,1.16029648295089,-0.6377777777777778,-0.19111111111111112,-0.24,0.13850199843782782,0.03278726668817596,0.04453118411105546
1592271602.4266794,6.53029612587205,7.073485230814903,1.0514806293602494,-0.6374158461563835,-0.19071627661504462,-0.23976967987729453,0.2044301406758825,0.12087844506851053,0.06556909837791688
1592271602.4366794,6.6405283259070655,6.9419119692576094,0.9510691468043474,-0.6255555555555555,-0.17777777777777778,-0.23222222222222222,0.18163498786811183,0.13817873979302525,0.16615479342102274
1592271602.4466794,6.848657985716809,7.045207812854872,0.6729394099982335,-0.6255555555555555,-0.17777777777777778,-0.23222222222222222,0.22654758084381912,0.0450479777413154,0.07455667500341126
1592271602.4566793,6.818061802412379,6.918956847318657,0.5422408113936349,-0.6255555555555555,-0.17777777777777778,-0.23222222222222222,0.3094538733708505,0.14141676676889853,-0.08037871110514763
1592271602.4666793,6.726918338083521,6.859994866257147,0.47537750712528104,-0.6255555555555555,-0.17777777777777778,-0.23222222222222222,0.33169491715749627,0.12595481577931356,-0.09583007031596072
1592271602.4766793,6.802624042252473,6.948946291750354,0.5926240422524733,-0.6268434211940126,-0.17848024994420889,-0.2337442452494896,0.3519868230744238,0.017331656326908838,-0.01360832295974006
1592271602.4866793,6.760783958362378,7.0023518750871325,0.6214494167944608,-0.6377777777777778,-0.18444444444444444,-0.24666666666666667,0.23494028405692735,-0.02657371049414109,-0.0200157994619935
1592271602.4966793,6.690821267661082,7.126732863829229,0.5883753991513931,-0.6377777777777778,-0.18444444444444444,-0.24666666666666667,0.147907988918203,-0.0279599287851749,-0.007413316726817698
1592271602.5066793,6.498453898361198,7.149985811242226,0.3007659564405136,-0.6377777777777778,-0.18444444444444444,-0.24666666666666667,0.07146720251938045,-0.04698463327356031,0.002099656432031098
1592271602.5166793,6.517134447845538,7.062486461031316,0.32475629856369204,-0.6377777777777778,-0.18444444444444444,-0.24666666666666667,-0.07693015386884648,0.007511758197525625,0.05839142436118714
1592271602.5266793,6.7256734833416205,7.1074449900547,0.46113469666832424,-0.6385342422233272,-0.182175051107796,-0.24565804740593403,-0.060692040136772915,0.06670361074883895,0.16388901907986028
1592271602.5366793,6.811962520147225,7.387088455339316,0.5732923572854771,-0.6444444444444445,-0.16444444444444445,-0.23777777777777778,-0.051904247285431034,0.08211715559719743,-0.04929443024286559
1592271602.5466793,6.8534672394790705,7.335182527722171,0.6659126386108549,-0.6444444444444445,-0.16444444444444445,-0.23777777777777778,0.028476893397989367,0.2084124967011442,-0.025168750740619715
1592271602.5566792,6.678178343949044,7.197128858402744,0.456296913277805,-0.6444444444444445,-0.16444444444444445,-0.23777777777777778,0.14652246440577457,0.08985741285321296,0.012167600078623626
1592271602.5666792,6.590534373250449,7.0901090754647775,0.567764435606865,-0.6444444444444445,-0.16444444444444445,-0.23777777777777778,-0.03176137277983923,0.11281294919064142,0.036983562734152466
1592271602.5766792,6.891004514306129,7.421830404988471,0.4046874086583742,-0.6456373976522721,-0.1666468195973571,-0.23649305893857875,0.009335387299094656,0.015069449431917441,0.00545415391248228
1592271602.5866792,6.751768180843715,7.2004268597698955,0.6823477287344275,-0.6588888888888889,-0.19111111111111112,-0.2222222222222222,-0.0975461675259851,0.3482244911950062,-0.03902706248984544
1592271602.5966792,6.750721416599869,7.033942529573222,0.5462498481867425,-0.6588888888888889,-0.19111111111111112,-0.2222222222222222,-0.10243854653506863,0.15301548053653696,-0.11172103452438058
1592271602.6066792,6.429599943454905,6.909200358118933,0.7846001790594666,-0.6588888888888889,-0.19111111111111112,-0.2222222222222222,-0.05801056297249477,-0.024608869000110764,-0.019678439281524282
1592271602.6166792,6.399968334615453,7.192397087500224,0.8900633307690932,-0.6588888888888889,-0.19111111111111112,-0.2222222222222222,-0.161247103120903,0.17233399284633855,0.07583864556565593
1592271602.6266792,6.429982825554144,7.289944183050968,0.8300343488917115,-0.6588888888888889,-0.19111111111111112,-0.2222222222222222,-0.08839897745383417,0.18870435816478098,0.05128309758799228
1592271602.6366792,6.28,7.24,1.03,-0.6522222222222223,-0.17777777777777778,-0.23555555555555555,-0.09926560120717749,0.08290313946973066,-0.11671889372712078
1592271602.6466792,6.347580149435642,7.36,0.8748979916273648,-0.6522222222222223,-0.17777777777777778,-0.23555555555555555,-0.2592901764154391,-0.08410851008559667,-0.0022229918606574226
1592271602.6566792,6.466008432888264,7.326992269852425,0.9110330288123683,-0.6522222222222223,-0.17777777777777778,-0.23555555555555555,-0.1878375345184832,0.055627003909091935,-0.06043570489194525
1592271602.6666791,6.539286170212766,7.239286170212766,1.1650031914893617,-0.6522222222222223,-0.17777777777777778,-0.23555555555555555,-0.12213539076844135,-0.01651749896355485,-0.11870484400331792
1592271602.6766791,6.494665957446808,7.194665957446809,0.8526617021276595,-0.6522222222222223,-0.17777777777777778,-0.23555555555555555,0.005225891768953522,-0.0943944615341912,-0.20875008197561618
1592271602.6866791,6.53,7.0,1.04,-0.6522222222222223,-0.16444444444444445,-0.24333333333333335,0.04690572364734761,-0.23889194136672384,-0.27598018797160334
1592271602.696679,6.373211200476616,6.782552874590408,1.15,-0.6522222222222223,-0.16444444444444445,-0.24333333333333335,0.07988540176432565,0.03869541045660053,-0.24927514268453496
1592271602.706679,6.48,7.2,1.15,-0.6522222222222223,-0.16444444444444445,-0.24333333333333335,0.08835729338221293,0.3097959422289935,-0.15926129424448257
1592271602.716679,6.4401407007448865,7.29602136128956,0.7308103101722303,-0.6522222222222223,-0.16444444444444445,-0.24333333333333335,0.054288016517153946,0.14384727446867424,-0.23428674640517197
1592271602.726679,6.374018444803531,7.4034700271942615,0.9374423599889646,-0.6522222222222223,-0.16444444444444445,-0.24333333333333335,0.045271992493536556,0.018524540540392403,-0.28387487853506765
1592271602.736679,6.69,7.39,1.12,-0.6377777777777778,-0.16444444444444445,-0.23444444444444446,-0.02945243112740431,-0.07853981633974483,-0.05563236990731925
1592271602.746679,6.24,7.12164883496825,1.1247537743075289,-0.6377777777777778,-0.16444444444444445,-0.23444444444444446,0.09032871847903179,0.012921780215418224,-0.04043084472848691
1592271602.756679,6.22617453129033,7.174446347701622,1.25617453129033,-0.6377777777777778,-0.16444444444444445,-0.23444444444444446,0.02471207682614475,-0.04115506402624109,-0.20952003570196906
1592271602.766679,6.197410226350438,7.119308503922806,1.165864370096492,-0.6377777777777778,-0.16444444444444445,-0.23444444444444446,0.038572539824370214,-0.04780870607000501,-0.20494600355287634
1592271602.776679,6.431918838488592,7.2403452069618535,1.0145684912976825,-0.6377777777777778,-0.16444444444444445,-0.23444444444444446,0.13677026993023392,-0.03295526790273151,-0.1083986554655986
1592271602.786679,6.227318329787506,7.1629410709250765,0.9104844538999821,-0.6644444444444444,-0.17888888888888888,-0.24888888888888888,0.15893859980773606,0.017713774399566416,-0.11459007788480796
1592271602.796679,6.25,7.42,0.85,-0.6644444444444444,-0.17888888888888888,-0.24888888888888888,0.09708393964218458,-0.08290313946973066,-0.10799224746714915
1592271602.806679,6.2651881903365965,7.509148824791918,0.697266921425954,-0.6644444444444444,-0.17888888888888888,-0.24888888888888888,0.0030867947238345248,0.02636940517452957,-0.21803036653955832
1592271602.816679,6.277709558221235,7.392817227005479,0.825634454010958,-0.6644444444444444,-0.17888888888888888,-0.24888888888888888,0.009243816446929481,0.20046903191700274,-0.12060950432386139
1592271602.826679,6.438039208547973,7.362278245990862,0.7645564919817245,-0.6644444444444444,-0.17888888888888888,-0.24888888888888888,0.13666550807676137,0.01391701279881749,-0.14642697125539594
1592271602.836679,6.323928962640129,7.445513319504976,0.8664511618150884,-0.6522222222222223,-0.15777777777777777,-0.24888888888888888,0.12088457734599824,-0.005856398875790342,-0.22558768030720983
1592271602.846679,6.44964489175845,7.416116834409419,0.9405841720470945,-0.6522222222222223,-0.15777777777777777,-0.24888888888888888,-0.0243194052856712,-0.18014202431231544,-0.22282562071500175
1592271602.856679,6.377491548021522,7.400033807913909,0.8401014237417266,-0.6522222222222223,-0.15777777777777777,-0.24888888888888888,-0.005768713753385026,-0.19507026503668148,-0.2698972779702625
1592271602.866679,6.329571982369497,7.447870532632361,1.0389352663161808,-0.6522222222222223,-0.15777777777777777,-0.24888888888888888,0.202980702199542,-0.08626064992451352,-0.35788355852438286
1592271602.876679,6.084564813339706,7.269683500610696,0.9498417503053476,-0.6522222222222223,-0.15777777777777777,-0.24888888888888888,0.3090753640486667,-0.07816182077572538,-0.18294884891055901
1592271602.886679,6.146818615343229,7.265199432637989,0.9386657210633147,-0.6766666666666666,-0.17888888888888888,-0.23444444444444446,0.17787378954309602,-0.01454026667594222,-0.19771644724184742
1592271602.896679,6.267907088541212,7.420996853421904,1.1539874136876147,-0.6766666666666666,-0.17888888888888888,-0.23444444444444446,0.2459043500553385,-0.004124200360778489,-0.26281790015244183
1592271602.906679,6.21,7.349554810914313,0.7909777405457157,-0.6766666666666666,-0.17888888888888888,-0.23444444444444446,0.2808672560871535,0.017909415396204977,-0.18540220018524403
1592271602.916679,6.200304136947218,7.524344079885878,0.8048479315263909,-0.6766666666666666,-0.17888888888888888,-0.23444444444444446,0.2521354051195707,-0.07730588598697966,-0.26852905123487947
1592271602.926679,6.1045711840228245,7.4684998573466475,0.8527144079885878,-0.6766666666666666,-0.17888888888888888,-0.23444444444444446,0.3182734246874055,-0.06512256659290483,-0.4965311713239941
1592271602.936679,7.62,8.95,1.54,-0.6644444444444444,-0.19111111111111112,-0.2411111111111111,0.8061239482648809,-0.1090830782496456,-0.4319689898685966
1592271602.9466789,5.8110484184779585,7.302912335316026,0.6525076435599533,-0.6644444444444444,-0.19111111111111112,-0.2411111111111111,0.6944706352302614,-0.22714093659449414,-0.617457036021244
1592271602.9566789,6.33,6.97,1.24,-0.6644444444444444,-0.19111111111111112,-0.2411111111111111,0.5225079448158023,-0.08508480103472357,-0.7221299780126538
1592271602.9666789,6.5487246382628586,7.978911276565856,0.21065323406048686,-0.6644444444444444,-0.19111111111111112,-0.2411111111111111,0.6526798782037612,-0.3855077728145699,-0.7864414896585211
1592271602.9766788,6.203611752192498,7.684302715286279,0.3874183708282325,-0.6644444444444444,-0.19111111111111112,-0.2411111111111111,0.7509266935040206,-0.505791256967224,-0.773586766161291
1592271602.9866788,5.85,7.26,-0.05,-0.6766666666666666,-0.2111111111111111,-0.22666666666666666,0.6261368691529657,-0.27707101875409984,-1.0570150282390658
1592271602.9966788,6.050403919778019,7.536748270169646,0.2935495767623196,-0.6766666666666666,-0.2111111111111111,-0.22666666666666666,0.6656942837044845,-0.3582678170440594,-0.8342443252384075
1592271603.0066788,5.78,7.72,0.01,-0.6766666666666666,-0.2111111111111111,-0.22666666666666666,0.4494222823885398,-0.032724923474893676,-0.8704829644321719
1592271603.0166788,5.8297494278273225,7.6702505721726775,0.15924828348196668,-0.6766666666666666,-0.2111111111111111,-0.22666666666666666,0.598117170351163,-0.7241018842938055,-0.7847391969208782
1592271603.0266788,6.111706394024054,7.951706394024054,0.027432285165150894,-0.6766666666666666,-0.2111111111111111,-0.22666666666666666,0.3033215700717392,-0.397694978180893,-0.7219447254687799
1592271603.0366788,6.2,7.85,0.23,-0.6711111111111111,-0.23777777777777778,-0.22555555555555556,0.15053464798451094,-0.24652775684419903,-1.1933688760511227
1592271603.0466788,6.057924735842138,7.9605029832338925,-0.0067921069297690595,-0.6711111111111111,-0.23777777777777778,-0.22555555555555556,0.15225664877978548,-0.33607179819847627,-0.8196947034765427
1592271603.0566788,5.700294899800551,7.862412859720772,-0.27970510019944916,-0.6711111111111111,-0.23777777777777778,-0.22555555555555556,0.07022162295848838,-0.30545699158847317,-0.7338707837721564
1592271603.0666788,5.943186500888099,8.249420959147425,-0.028117229129662524,-0.6711111111111111,-0.23777777777777778,-0.22555555555555556,0.02899284842472552,-0.23359627761056168,-0.9007735721075476
1592271603.0766788,5.6675397868561275,8.346269804618117,-0.2143650088809947,-0.6711111111111111,-0.23777777777777778,-0.22555555555555556,-0.13272634138947556,-0.29129508402668364,-0.9430318528630172
1592271603.0866787,5.63,8.77,-0.29,-0.6577777777777778,-0.27666666666666667,-0.20444444444444446,-0.2781618495365963,-0.24870941840919195,-0.8344855486097889
1592271603.0966787,5.402864630901799,8.450327999046976,-0.012390104435531901,-0.6577777777777778,-0.27666666666666667,-0.20444444444444446,-0.33505632231131016,-0.24870941840919195,-1.0051689669339303
1592271603.1066787,5.539626242731195,8.578885762521104,-0.20667839054586382,-0.6577777777777778,-0.27666666666666667,-0.20444444444444446,-0.6002392552224504,-0.26140088977834436,-0.9747096358005427
1592271603.1166787,5.634165350184308,8.665501625174773,0.20910915000635544,-0.6577777777777778,-0.27666666666666667,-0.20444444444444446,-0.6215888192543074,-0.07006573827914513,-1.2717458531494719
1592271603.1266787,5.1924275934702475,8.246612373118339,0.19387681356793957,-0.6577777777777778,-0.27666666666666667,-0.20444444444444446,-0.6930371956026832,-0.1489912702918858,-1.3249167378738447
1592271603.1366787,5.32,8.68,-0.02,-0.6577777777777778,-0.30333333333333334,-0.20444444444444446,-0.7995789635699021,-0.1908953869368798,-1.1911872144861297
1592271603.1466787,4.812741333747862,8.247582776309654,0.08810430592258667,-0.6577777777777778,-0.30333333333333334,-0.20444444444444446,-0.6181581872302538,-0.2035948412806552,-1.3508374976650204
1592271603.1566787,4.55115659891211,8.75707891974425,-0.281899513312339,-0.6577777777777778,-0.30333333333333334,-0.20444444444444446,-0.8278503119548497,-0.19795148711444824,-1.5421552264355787
1592271603.1666787,4.231202291107548,8.010403285361768,0.7439971901511194,-0.6577777777777778,-0.30333333333333334,-0.20444444444444446,-0.7456917578723651,-0.39959258053156416,-1.510494460806284
1592271603.1766787,4.631601974098957,8.584561321349447,0.25294097516165637,-0.6577777777777778,-0.30333333333333334,-0.20444444444444446,-0.716848568282158,-0.3031739181871575,-1.3811121532159263
1592271603.1866786,4.344064100927969,8.561550017319648,0.5047827751545095,-0.6577777777777778,-0.31448645725085533,-0.19700902849942978,-0.5825118313642994,-0.20589891904625152,-1.468355203047443
1592271603.1966786,4.008834796488427,8.22245810055866,0.9087709497206704,-0.6577777777777778,-0.3233333333333333,-0.19111111111111112,-0.3905661723474741,-0.23948567368409224,-1.4460559527565848
1592271603.2066786,4.005965571499025,8.590663676287546,0.7546581808787957,-0.6577777777777778,-0.3233333333333333,-0.19111111111111112,-0.2028308397378711,-0.2752679367739859,-1.3461235610383142
1592271603.2166786,3.5693591410632686,7.995126871493851,1.208205594977152,-0.6577777777777778,-0.3233333333333333,-0.19111111111111112,-0.13113794460248723,-0.21825032841797623,-1.2776010970062623
1592271603.2266786,3.530403276739607,8.306773786083145,1.0991291748708996,-0.6577777777777778,-0.3233333333333333,-0.19111111111111112,-0.013003913025331715,-0.1570585998312482,-1.1594670654291068
1592271603.2366786,3.57,8.87,0.68,-0.6311111111111111,-0.36777777777777776,-0.20555555555555555,0.062177354602297986,-0.05235987755982988,-1.2315479534384988
1592271603.2466786,3.538849001931745,8.87,0.7656652446877013,-0.6311111111111111,-0.36777777777777776,-0.20555555555555555,0.08936172868097013,-0.14325762838538988,-1.2137082079493702
1592271603.2566786,3.9610755401356252,9.310654996583084,0.6654670661830416,-0.6311111111111111,-0.36777777777777776,-0.20555555555555555,0.030206717418365683,-0.038459196631054404,-1.0466722344327617
1592271603.2666786,2.8672512157944396,9.164063777793908,0.045059882412716856,-0.6311111111111111,-0.36777777777777776,-0.20555555555555555,0.2423512666267799,-0.019947864243347036,-1.0054895777683315
1592271603.2766786,3.0153179345402656,9.291488450905199,0.3660260412021761,-0.6311111111111111,-0.36777777777777776,-0.20555555555555555,0.08028166287150251,0.07757983077284257,-1.068402550585976
1592271603.2866786,2.82,9.6,0.04,-0.6044444444444445,-0.4,-0.20555555555555555,-0.09926560120717749,-0.15162547876700738,-0.9228428419920017
1592271603.2966785,2.6736618237058387,9.526830911852919,0.29941767615783116,-0.6044444444444445,-0.4,-0.20555555555555555,-0.029608792179076762,-0.15162547876700738,-0.9758110405237865
1592271603.3066785,2.5146019235146824,9.271760471204189,0.43,-0.6044444444444445,-0.4,-0.20555555555555555,-0.015246923997777974,0.012948090619561647,-0.9248444469507671
1592271603.3166785,2.4910734742946046,9.231610211441907,0.48677957711618697,-0.6044444444444445,-0.4,-0.20555555555555555,0.03938075774447446,-0.13818706990003016,-0.9495650720102272
1592271603.3266785,2.3158034766697164,9.237258188472095,0.6932292772186642,-0.6044444444444445,-0.4,-0.20555555555555555,-0.06355150198363718,0.005544733786059047,-0.9163676385306113
1592271603.3366785,1.9564218217585274,9.363113429585132,0.4953623493870095,-0.5855039168159624,-0.4368288037220485,-0.20766005862538692,-0.006522644639960801,-0.05449900488628094,-1.0653960359119676
1592271603.3466785,1.844547993297694,9.397272001914944,0.40500199473390247,-0.5844444444444444,-0.4388888888888889,-0.20777777777777778,-0.06951385091748122,-0.15554004074526961,-0.8810989160297044
1592271603.3566785,2.1908638592838163,9.586819364914106,0.5933507767336091,-0.5844444444444444,-0.4388888888888889,-0.20777777777777778,-0.2100691609948371,-0.21383424417925645,-0.869019477713158
1592271603.3666785,2.1831517928100603,9.388122808657846,0.6929084661773642,-0.5844444444444444,-0.4388888888888889,-0.20777777777777778,-0.151844144673012,-0.24805467006494142,-0.9190609621130105
1592271603.3766785,2.453639902499363,9.433147669807546,0.6789507767308183,-0.5844444444444444,-0.4388888888888889,-0.20777777777777778,-0.08723773041772034,-0.2631370216753391,-0.8845742741758948
1592271603.3866785,2.253910020747643,9.143910020747642,0.8745288101044661,-0.5710157851951613,-0.4688451287526743,-0.17472261654877314,-0.039866722405365596,-0.20851131342053678,-0.8804707386109603
1592271603.3966784,2.1941850325035674,9.311013159980973,0.8601541937529729,-0.57,-0.4711111111111111,-0.17222222222222222,-0.07464260847198001,-0.11608220103359533,-0.9575740068446128
1592271603.4066784,1.7944525116082735,9.395291965667653,0.5002189390741523,-0.57,-0.4711111111111111,-0.17222222222222222,-0.030989141102689882,-0.16303940285251786,-0.9358651236972708
1592271603.4166784,2.0209352381853445,9.543529968305029,0.5593429206679597,-0.57,-0.4711111111111111,-0.17222222222222222,-0.09186782927006165,-0.11552970808056083,-1.0109437728534028
1592271603.4266784,1.6636160282938035,9.408206296829709,0.4113065830492407,-0.57,-0.4711111111111111,-0.17222222222222222,-0.06163350029643116,-0.115104214395365,-1.1230387381296314
1592271603.4366784,1.8561436811746197,9.73229680125852,0.34,-0.5467527821476432,-0.4827347200372895,-0.18481446522558218,-0.07135078196514426,-0.0854772789376585,-1.0257765023254426
1592271603.4466784,1.3430011447040604,9.300319170426235,0.52899961843198,-0.5433333333333333,-0.48444444444444446,-0.18666666666666668,-0.04340521282574001,-0.10133813807130657,-0.9952839415126137
1592271603.4566784,1.6578431859991052,9.805166310346543,0.5954646248694874,-0.5433333333333333,-0.48444444444444446,-0.18666666666666668,-0.17067830029071823,-0.031216536574739967,-0.9444223146201803
1592271603.4666784,1.620759387906133,9.728290959440427,0.34120222492778535,-0.5433333333333333,-0.48444444444444446,-0.18666666666666668,-0.14089661936339887,-0.02571047191876175,-1.0072304217187313
1592271603.4766784,1.441509019551363,9.730218917653836,0.41783422748712773,-0.5433333333333333,-0.48444444444444446,-0.18666666666666668,-0.18672565848254746,0.07086389938857474,-1.0082116525823452
1592271603.4866784,1.1355594190300264,9.524191749067333,0.6426466007461336,-0.5327827077321807,-0.4997908089552119,-0.18187092775705185,-0.10521572378251166,0.0839106437239108,-1.0404375137308148
1592271603.4966784,0.969662236552375,9.443078405158856,0.65957297892419,-0.5311111111111111,-0.5022222222222222,-0.1811111111111111,-0.11622387650233346,0.02621888476727366,-1.0665801284207204
1592271603.5066783,0.9503877929522846,9.62587253414264,0.8758725341426404,-0.5311111111111111,-0.5022222222222222,-0.1811111111111111,0.0014624722259569956,0.0073850096138662995,-1.119141007795237
1592271603.5166783,0.8921531352503173,9.756496516388536,1.1621902458879019,-0.5311111111111111,-0.5022222222222222,-0.1811111111111111,0.07662896245506665,0.15556309399949775,-1.0946008568600853
1592271603.5266783,0.5935447059186381,9.553223020695185,1.0141911605958733,-0.5311111111111111,-0.5022222222222222,-0.1811111111111111,0.1207308080570827,0.07688467920944547,-1.0158440136007443
1592271603.5366783,0.6114946211947814,9.917241931792173,1.073620965896086,-0.4983684290836957,-0.5293518730449379,-0.16707853309936166,0.08062422942916384,0.09802758691672003,-1.067835700082191
1592271603.5466783,0.3702480338777979,9.692768703367616,1.0520661423674127,-0.4922222222222222,-0.5344444444444445,-0.16444444444444445,0.08735660626873584,0.03187302400837781,-1.0402063355426812
1592271603.5566783,0.31560411726665233,9.81462330243587,0.5736691636128476,-0.4922222222222222,-0.5344444444444445,-0.16444444444444445,0.05552731954041254,0.07103385887038208,-0.8821124868214314
1592271603.5666783,0.26641194743130225,9.49161577060932,0.5835880525686977,-0.4922222222222222,-0.5344444444444445,-0.16444444444444445,0.11804233081554313,0.036596030392294955,-0.9115471002661764
1592271603.5766783,0.12740192963198338,9.50173204691201,0.6858186492576117,-0.4922222222222222,-0.5344444444444445,-0.16444444444444445,0.11440586485228248,0.05916759687449939,-0.9277936470420541
1592271603.5866783,-0.1947301851631577,9.747703104555727,0.6397291939256968,-0.481816784073237,-0.5571472185876849,-0.194714809968765,0.1323296981881311,0.04189359386543563,-0.8823934819590518
1592271603.5966783,0.345608508346796,9.924256865912762,0.15579922814575475,-0.48,-0.5611111111111111,-0.2,0.13588704820956704,0.038021845809859414,-0.6875696744731882
1592271603.6066782,0.06727393456477126,9.69611412934122,0.48513702764698785,-0.48,-0.5611111111111111,-0.2,0.12288881068473988,0.12706784842598087,-0.7456565671613389
1592271603.6166782,-0.488749804412455,9.742624784853701,0.7185834246075209,-0.48,-0.5611111111111111,-0.2,0.16357457900419742,0.15666151786070456,-0.6694747915717647
1592271603.6266782,-0.43302786400057747,9.908502851367935,0.5914971486320653,-0.48,-0.5611111111111111,-0.2,0.11828868056495073,0.12694831628598463,-0.6493039322092193
1592271603.6366782,-0.16476121194485865,10.04509184155967,0.7552755246790092,-0.4633129240978512,-0.5669515876768632,-0.18998775445871072,0.024473564085890097,0.09760731464134476,-0.5455468400672877
1592271603.6466782,-0.31103462190299414,9.979036800903883,0.8409155838915342,-0.4577777777777778,-0.5688888888888889,-0.18666666666666668,0.06856154497686434,0.028125492834726637,-0.5294628163740934
1592271603.6566782,-0.6499466161529189,9.737353194420528,0.6120595832615809,-0.4577777777777778,-0.5688888888888889,-0.18666666666666668,0.16906130146384543,-0.018975984843503865,-0.6363478868342025
1592271603.6666782,-0.5128990523476475,9.71,0.4823371446303678,-0.4577777777777778,-0.5688888888888889,-0.18666666666666668,0.08001929773832374,0.04550841974738563,-0.5817401630632004
1592271603.6766782,-0.4859224180823086,9.786991435070012,0.38116372876537064,-0.4577777777777778,-0.5688888888888889,-0.18666666666666668,0.08753166884689319,0.02700556331523469,-0.5133251833532058
1592271603.6866782,-0.45259304477964635,9.877406955220355,0.47710921192548544,-0.4436462613611997,-0.5921643276926645,-0.17586021293634227,0.09167038417361784,-0.05058153683238085,-0.39101138934869495
1592271603.6966782,-0.4925354748167784,9.923772805239357,0.4511967877748324,-0.4388888888888889,-0.6,-0.17222222222222222,0.19137548515668273,-0.05016494844438715,-0.30498568975532925
1592271603.7066782,-2.668633581655543,11.286293167908278,0.1190318203218034,-0.4388888888888889,-0.6,-0.17222222222222222,0.10580122099195177,-0.31575217616598744,-0.18343545051492244
1592271603.7166781,-2.7903204867182447,9.168596613092529,1.3785173297564015,-0.4388888888888889,-0.6,-0.17222222222222222,0.026501290855268218,-0.41978622150379086,0.030900723308624894
1592271603.7266781,-2.033916235407389,8.595155253339753,1.6634017330605368,-0.4388888888888889,-0.6,-0.17222222222222222,0.08189114415298088,-0.40436082289241504,0.08815485493395085
1592271603.7366781,-0.6755601596071209,9.489051565377533,0.7994724524248005,-0.43078904065207013,-0.6176723961530591,-0.1781130209399086,0.25432457700323746,-0.3351048988337038,-0.06646178669387812
1592271603.746678,-0.7779132911626531,9.668916139533163,0.6153930381385714,-0.4266666666666667,-0.6266666666666667,-0.1811111111111111,0.20256037211298455,-0.3905766566072527,-0.01873018554999241
1592271603.756678,0.7642974325321958,9.82,0.32192765154622266,-0.4266666666666667,-0.6266666666666667,-0.1811111111111111,0.07875447494422427,-0.2863014282250841,0.1065640832378467
1592271603.766678,-0.6687539838050947,9.995505559621332,-0.10325833943199789,-0.4266666666666667,-0.6266666666666667,-0.1811111111111111,0.05814087639998857,-0.3183152072880056,-0.013324853772665998
1592271603.776678,-0.9182478792082377,9.799123939604119,0.13152999341976557,-0.4266666666666667,-0.6266666666666667,-0.1811111111111111,0.08783644782478767,-0.287858853884204,0.01968409375258215
1592271603.786678,0.06094936965422193,9.870265515424217,0.245076411690786,-0.4266666666666667,-0.6259336729408479,-0.18184410483692984,0.1195973533573202,-0.17324726688328376,-0.06431515123007268
1592271603.796678,0.012862366645304768,9.969897839936667,0.14231688468353,-0.4266666666666667,-0.6255555555555555,-0.18222222222222223,0.08571852490809986,-0.1601216799821149,-0.057072651437719904
1592271603.806678,-0.49752667257801547,9.85,-0.006331054603701258,-0.4266666666666667,-0.6255555555555555,-0.18222222222222223,0.025738533125615082,-0.10607829357967746,0.10119119320230831
1592271603.816678,-0.3217267432708956,9.875515504486069,-0.04979379820557217,-0.4266666666666667,-0.6255555555555555,-0.18222222222222223,0.01257262748099134,-0.05436159411300849,0.05226423884648965
1592271603.826678,-0.23313483846323957,9.95,0.0956741923161979,-0.4266666666666667,-0.6255555555555555,-0.18222222222222223,-0.080347414241823,0.08116348137111791,-0.029256813617103583
1592271603.836678,-0.39153866613471644,9.879171487465921,0.17940820533280138,-0.4238560114073779,-0.6255555555555555,-0.17435238749621354,-0.12076274320982251,0.10735631031138496,-0.04285226348051258
1592271603.846678,-0.4511829795098062,9.841280463859178,0.04867079396613458,-0.4211111111111111,-0.6255555555555555,-0.16666666666666666,-0.16692369445423463,0.11313902643715429,0.09301448489875133
1592271603.856678,-0.3977520523497918,9.823256157049375,-0.024495895300416418,-0.4211111111111111,-0.6255555555555555,-0.16666666666666666,-0.129149796266433,0.19700045729273302,0.08759720301210362
1592271603.866678,-0.4020350910114468,9.896280728091575,0.0984035466316382,-0.4211111111111111,-0.6255555555555555,-0.16666666666666666,-0.16907687783888573,0.2079046914727295,0.0918307470959466
1592271603.876678,-0.4368272588877944,9.879518223336618,0.257068147219486,-0.4211111111111111,-0.6255555555555555,-0.16666666666666666,-0.17914749009288083,0.18665768468862498,0.08720814559630012
1592271603.886678,-0.4930083530731829,9.770796658770726,0.37221169430245604,-0.41753203396639377,-0.6219764784108381,-0.15030517114795883,-0.1740686319328274,0.1665495017578559,0.016053748874179548
1592271603.896678,-0.5117799776587959,9.745614960902893,0.4202750279265051,-0.41333333333333333,-0.6177777777777778,-0.13111111111111112,-0.2334536282617991,0.17619209222337032,0.003660823231963473
1592271603.906678,-0.4619332146792101,9.714089047094387,0.4238664293584202,-0.41333333333333333,-0.6177777777777778,-0.13111111111111112,-0.2817059324619917,0.20971110081722563,-0.020352590507005736
1592271603.916678,-0.40383050304389617,9.74405158603012,0.4100368471643704,-0.41333333333333333,-0.6177777777777778,-0.13111111111111112,-0.2700117253451052,0.20568084499261438,-0.03469967320930732
1592271603.926678,-0.34560064127370227,9.775690198463154,0.5148261374315882,-0.41333333333333333,-0.6177777777777778,-0.13111111111111112,-0.18809302100767458,0.14808976145597127,-0.03276285440320316
1592271603.936678,-0.4005038863575449,9.762199333767278,0.595200444155148,-0.41333333333333333,-0.6177777777777778,-0.15002165469064424,-0.16494533415561938,0.23814731789579124,-0.026528568582016944
1592271603.946678,-0.47207476903244294,9.72698130774189,0.679528038387166,-0.41333333333333333,-0.6177777777777778,-0.18222222222222223,-0.15806231525506526,0.32267513589373603,0.004486679271614551
1592271603.956678,-0.607887972072358,9.77843383052999,0.5299714376388448,-0.41333333333333333,-0.6177777777777778,-0.18222222222222223,-0.23063074162756037,0.29291939489586044,0.0504665885882421
1592271603.966678,-0.41555825643688193,9.827936893776698,0.41412621244660514,-0.41333333333333333,-0.6177777777777778,-0.18222222222222223,-0.1567698607302347,0.2943773671797734,0.038560339131618104
1592271603.976678,-0.34312161584497003,9.801827443716158,0.5194667284126532,-0.41333333333333333,-0.6177777777777778,-0.18222222222222223,-0.05624151294473784,0.26355753252535535,0.023798934029035494
1592271603.986678,-0.43317308416848765,9.770240373747267,0.6101201868736342,-0.41333333333333333,-0.6177777777777778,-0.1866132502783848,-0.08595801637779124,0.2550053063754874,0.02724454885412895
1592271603.9966779,-0.518715373203298,9.74174307464066,0.6428438358829681,-0.41333333333333333,-0.6177777777777778,-0.19555555555555557,-0.1416280227370534,0.324887328897243,0.08031098042930016
1592271604.0066779,-0.6327049547531584,9.727629244691336,0.5345900904936833,-0.41333333333333333,-0.6177777777777778,-0.19555555555555557,-0.10259448718978023,0.28552595911179207,0.02302707521817736
1592271604.0166779,-0.6533258040987271,9.86193595444813,0.3414124373544152,-0.41333333333333333,-0.6177777777777778,-0.19555555555555557,-0.13776514430477793,0.18288446282934445,-0.06394651217123709
1592271604.0266778,-0.5203840384038404,9.984674467446744,0.29681968196819686,-0.41333333333333333,-0.6177777777777778,-0.19555555555555557,-0.16417641476399406,0.1604103812163833,-0.05571615408983323
1592271604.0366778,-0.41416909753874204,9.787933454876939,0.6076590701914312,-0.41581165805732806,-0.6156534994429251,-0.1976798338904082,-0.1676253909116573,0.190178143323922,0.023764996538920502
1592271604.0466778,-0.527612333494119,9.427162999517643,1.1761797335905904,-0.4211111111111111,-0.6111111111111112,-0.20222222222222222,-0.2126966222410945,0.1537488973912555,0.11192038776260554
1592271604.0566778,-0.5434696937888013,9.638351977926401,1.046294874486399,-0.4211111111111111,-0.6111111111111112,-0.20222222222222222,-0.08871683602383595,0.07499830496204017,0.005748854559956353
1592271604.0666778,-0.6133793676546239,9.695516995765898,1.0126900399667602,-0.4211111111111111,-0.6111111111111112,-0.20222222222222222,-0.06866208051161866,0.03037008264911268,0.03667442068933229
1592271604.0766778,-0.68,9.438957313372446,1.4527606716568884,-0.4211111111111111,-0.6111111111111112,-0.20222222222222222,0.04776258744712046,-0.1379733000908901,-0.007568639897828834
1592271604.0866778,-0.5892376133984648,9.548087927424984,1.360129099790649,-0.4235314414204854,-0.6090941691866326,-0.20222222222222222,0.06124714161122286,-0.13336605240291632,0.047294707966856114
1592271604.0966778,-0.44121314171594156,9.647074832595841,1.2234126953048519,-0.42777777777777776,-0.6055555555555555,-0.20222222222222222,-0.0010933082929865216,-0.1489639490495077,0.050952438022982334
1592271604.1066778,-0.4121063501679793,9.604581979401884,1.1782048245855594,-0.42777777777777776,-0.6055555555555555,-0.20222222222222222,0.08611483318573429,-0.14558385507390925,0.032809032253628884
1592271604.1166778,-0.15,9.62,1.06,-0.42777777777777776,-0.6055555555555555,-0.20222222222222222,0.08835729338221293,-0.10690141668465267,0.11017390903214205
1592271604.1266778,-0.3664065708418891,9.780390143737167,0.5960164271047228,-0.42777777777777776,-0.6055555555555555,-0.20222222222222222,0.2319090564294904,-0.12017393783800535,-0.050399965989636045
1592271604.1366777,-0.355312927563426,9.823828231890857,0.53,-0.4324567278666024,-0.6132120193372685,-0.20477437681612656,0.1513698386223271,-0.0941926687948523,-0.057712372405603604
1592271604.1466777,-0.38275240607929845,9.8290825313069,0.5290825313069005,-0.44,-0.6255555555555555,-0.2088888888888889,0.1541174338788774,0.03748856784184338,-0.09191997403827099
1592271604.1566777,-0.434795976197223,9.815040804760557,0.470408047605554,-0.44,-0.6255555555555555,-0.2088888888888889,0.10361319090366117,0.04253349829958454,-0.09589518446413843
1592271604.1666777,-0.45788694168734495,9.80957738833747,0.420845223325062,-0.44,-0.6255555555555555,-0.2088888888888889,0.03799467826316362,0.0428956348030089,-0.10126167943339892
1592271604.1766777,-0.4166536739734486,9.82328785890707,0.45996102192034577,-0.44,-0.6255555555555555,-0.2088888888888889,0.020751295960910313,0.016018693438208415,0.053446456493413404
1592271604.1866777,-0.43230129447814397,9.851589644174847,0.5115064723907198,-0.44,-0.6209529665992676,-0.20530909747844275,-0.023026413906922095,-0.01490667912664971,0.03371493205136614
1592271604.1966777,-0.4358937461476459,9.777681238442938,0.55,-0.44,-0.6055555555555555,-0.19333333333333333,0.016282786766111404,0.00715590372218694,-0.023613737512306648
1592271604.2066777,-0.44649160069511484,9.764122900173778,0.5335083993048851,-0.44,-0.6055555555555555,-0.19333333333333333,0.09276700683462487,0.11958061319691876,0.038600750147862135
1592271604.2166777,-0.4783011300634628,9.77,0.53905395522212,-0.44,-0.6055555555555555,-0.19333333333333333,0.04998852307724947,0.10503372250462348,0.03707154456940069
1592271604.2266777,-0.4837097898250376,9.757419579650074,0.6177412610497743,-0.44,-0.6055555555555555,-0.19333333333333333,0.06538042717178671,-0.010309497221185016,-0.029082845830924842
1592271604.2366776,-0.4683085130028895,9.73,0.7033829739942209,-0.4388723420019264,-0.6100661875478501,-0.19220567533525967,-0.04204341635413047,-0.0618362123682521,-0.034054820528015055
1592271604.2466776,-0.46462868527786344,9.711485258888546,0.7477721116671806,-0.43333333333333335,-0.6322222222222222,-0.18666666666666668,0.0335671666489789,0.02610449316520562,-0.023668681300730656
1592271604.2566776,-0.4829478204468699,9.711579700744783,0.7109449576166939,-0.43333333333333335,-0.6322222222222222,-0.18666666666666668,0.05836482648350941,-0.037319045719245464,-0.01668245763427812
1592271604.2666776,-0.5040146215874867,9.748029243174974,0.6240146215874867,-0.43333333333333335,-0.6322222222222222,-0.18666666666666668,0.09245813568634156,-0.07634220509703253,0.06751223036014123
1592271604.2766776,-0.5010059786846893,9.765996014210208,0.6180079715795859,-0.43333333333333335,-0.6322222222222222,-0.18666666666666668,0.12732408273053902,-0.029915285155814778,0.07594312679052682
1592271604.2866776,-0.4769620353178209,9.778784814127128,0.5875696282542566,-0.4321181474604617,-0.6309395260230799,-0.18747679058191444,0.04227728808604514,0.05650781838622004,0.004139623742637856
1592271604.2966776,-0.46716572480630064,9.76,0.5360628531976372,-0.41333333333333333,-0.6111111111111112,-0.2,0.016894781134310886,-0.06117254734840815,-0.014610917815487026
1592271604.3066776,-0.51,9.76,0.52,-0.41333333333333333,-0.6111111111111112,-0.2,-0.007635815477475192,-0.07635815477475191,-0.09053895494720585
1592271604.3166776,-0.5376814661599885,9.76,0.5134879022560008,-0.41333333333333333,-0.6111111111111112,-0.2,-0.002867831854218279,-0.0632351807880274,-0.08054113323210123
1592271604.3266776,-0.44,9.778285950238965,0.5017140497610346,-0.41333333333333333,-0.6111111111111112,-0.2,0.038117053061888215,-0.15283631396912026,-0.08413599752412579
1592271604.3366776,-0.44,9.829874543154343,0.45012545684565647,-0.41333333333333333,-0.6111111111111112,-0.2,0.10564636327521587,-0.10701285346721934,0.013942286357135791
1592271604.3466775,-0.4141320317507272,9.808264063501454,0.45347187299709113,-0.42777777777777776,-0.6322222222222222,-0.18666666666666668,0.0232861690262401,0.03095930820154365,-0.13077433145052875
1592271604.3566775,-0.42394154715341154,9.808175358539765,0.394526075619296,-0.42777777777777776,-0.6322222222222222,-0.18666666666666668,-0.006791405312424045,0.004172036636836183,-0.1225788736680064
1592271604.3666775,-0.4402482751919153,9.78658390826936,0.3809931007676611,-0.42777777777777776,-0.6322222222222222,-0.18666666666666668,-0.04908738521234052,0.03741323807112517,-0.1092260172555922
1592271604.3766775,-0.46260121989693975,9.78780365969082,0.4573987801030603,-0.42777777777777776,-0.6322222222222222,-0.18666666666666668,-0.04284490559396743,0.0468107391181745,-0.02757327463901705
1592271604.3866775,-0.46995267641182037,9.809858029235462,0.4500473235881796,-0.42777777777777776,-0.6322222222222222,-0.18666666666666668,-0.025202676456212415,0.0002994077550021734,-0.009931045501262035
1592271604.3966775,-0.4776211156147462,9.803810557807374,0.4885683265778807,-0.44,-0.6055555555555555,-0.1811111111111111,-0.09417663663888362,-0.023690671777124826,0.12120685917002649
1592271604.4066775,-0.47188500889679713,9.81362299822064,0.43739301601423486,-0.44,-0.6055555555555555,-0.1811111111111111,-0.10362892433716332,-0.013218268170603412,0.18536534070483235
1592271604.4166775,-0.44,9.816881212548466,0.4049502996122665,-0.44,-0.6055555555555555,-0.1811111111111111,-0.11961865031128549,0.06024400411215041,0.05173367840143238
1592271604.4266775,-0.4355550093920615,9.805555009392062,0.47777996243175397,-0.44,-0.6055555555555555,-0.1811111111111111,-0.1582920839226296,0.028839234974000878,-0.00012001187637422986
1592271604.4366775,-0.4208286080438179,9.790828608043817,0.5366855678247283,-0.44,-0.6055555555555555,-0.1811111111111111,-0.16953689225687263,-0.1647321084940393,0.03200801193574862
1592271604.4466774,-0.42571326392752123,9.72214336803624,0.7457132639275212,-0.42777777777777776,-0.6111111111111112,-0.21444444444444444,-0.05921686257160149,0.021969885047008805,-0.04028254381879088
1592271604.4566774,-0.45,9.71,0.77,-0.42777777777777776,-0.6111111111111112,-0.21444444444444444,-0.05126904677733343,0.08290313946973066,-0.04690572364734761
1592271604.4666774,-0.45639830079902904,9.682796601598058,0.7595974511985436,-0.42777777777777776,-0.6111111111111112,-0.21444444444444444,-0.05625176143285128,0.035683086207805075,-0.009027074319113738
