time,acc_x,acc_y,acc_z,mag_x,mag_y,mag_z,gyr_x,gyr_y,gyr_z
1592271939.7263577,-0.31143790849673203,9.748562091503269,0.5170588235294118,-0.4088888888888889,-0.6111111111111112,-0.04,-0.019157270016784165,0.0022672169204828313,-0.12197341847679324
1592271939.7363577,-0.318637230660544,9.738637230660544,0.4536276933945602,-0.4088888888888889,-0.6111111111111112,-0.04,-0.003276653764815741,0.07685644596794317,-0.07675803615450283
1592271939.7463577,-0.30904107094071576,9.730958929059284,0.5390410709407158,-0.4088888888888889,-0.6111111111111112,-0.04,0.04571048860727864,0.057171612505878815,-0.04744373835620844
1592271939.7563577,-0.30140187596758033,9.73859812403242,0.5314018759675804,-0.4088888888888889,-0.6111111111111112,-0.04,0.10570858562463438,0.095503730044745,-0.06910971783469802
1592271939.7663577,-0.2827083582160858,9.73,0.5178123880276139,-0.42777777777777776,-0.5988888888888889,-0.024444444444444446,-0.06817685876313487,-0.034633975058602925,-0.06165470013808582
1592271939.7763577,-0.2904766074259886,9.72863951534657,0.4304766074259886,-0.42777777777777776,-0.5988888888888889,-0.024444444444444446,-0.00866048445729899,-0.08680707304046459,-0.07638084545932049
1592271939.7863576,-0.23507150022161571,9.721267875055405,0.37760725033242354,-0.42777777777777776,-0.5988888888888889,-0.024444444444444446,0.07379069328222901,0.008664250545816671,-0.023862060144011925
1592271939.7963576,-0.26758546246074794,9.735633920924922,0.4275854624607479,-0.42777777777777776,-0.5988888888888889,-0.024444444444444446,0.016788222053566816,-0.030859507081624736,-0.08843187344855832
1592271939.8063576,-0.24513524122180988,9.788017770482444,0.4051352412218099,-0.42777777777777776,-0.5988888888888889,-0.024444444444444446,0.00046196045270724753,-0.11493975432605151,-0.06884035952752683
1592271939.8163576,-0.1374738394216134,9.816242151826485,0.4687473839421613,-0.44,-0.5988888888888889,-0.024444444444444446,-0.01335639899745934,0.04606990776667621,-0.07106346948907723
1592271939.8263576,-0.04768556504584483,9.787685565045845,0.44611339027506897,-0.44,-0.5988888888888889,-0.024444444444444446,-0.0037251405368768954,-0.012080106633126175,-0.14267250841234194
1592271939.8363576,-0.03289623188405797,9.772896231884058,0.34,-0.44,-0.5988888888888889,-0.024444444444444446,-0.09192904645985223,0.008589802328764558,-0.10002383294134824
1592271939.8463576,-0.07811004398168926,9.82023624450229,0.3411812225114442,-0.44,-0.5988888888888889,-0.024444444444444446,-0.11744927352293001,0.2141287020534724,-0.10890235340821915
1592271939.8563576,-0.017874158513598415,9.827765730185801,0.378828650929001,-0.44,-0.5988888888888889,-0.024444444444444446,-0.21026063431025827,0.050682146330655375,0.0011571363749842412
1592271939.8663576,0.061299857887257225,9.920324964471813,0.45129985788725724,-0.41555555555555557,-0.6177777777777778,-0.03111111111111111,-0.011554435162924565,0.21006951539802143,-0.229553014010504
1592271939.8763576,0.14069382512601786,9.941387650252036,0.5294052927491276,-0.41555555555555557,-0.6177777777777778,-0.03111111111111111,-0.1175514241127635,0.18262284815998597,-0.2572618817488004
1592271939.8863575,0.20948693765915305,10.081026124681694,0.47333490521550503,-0.41555555555555557,-0.6177777777777778,-0.03111111111111111,-0.20054496472092723,0.22753590218597092,-0.1378954963337687
1592271939.8963575,0.190565100695649,10.11920885902609,0.6007911409739086,-0.41555555555555557,-0.6177777777777778,-0.03111111111111111,-0.1931939210946111,0.21077691271542565,-0.40370601820113255
1592271939.9063575,0.22885592214573938,10.065601708995965,0.6543982910040351,-0.41555555555555557,-0.6177777777777778,-0.03111111111111111,-0.1271992064693731,0.22748443540535931,-0.410389027277106
1592271939.9163575,0.16627461798642262,9.96,0.6485098471945691,-0.4011111111111111,-0.6255555555555555,-0.04,-0.18547142993765586,0.14243672029894,-0.41975562064688415
1592271939.9263575,0.1170443956043956,9.9592610989011,0.622610989010989,-0.4011111111111111,-0.6255555555555555,-0.04,-0.08139846427036708,0.1980689299056056,-0.5776672058294561
1592271939.9363575,0.08017142857142857,9.950042857142856,0.5304285714285715,-0.4011111111111111,-0.6255555555555555,-0.04,-0.13067061943525043,0.2875632525520264,-0.7214614545759523
1592271939.9463575,0.050184259391515496,9.979815740608485,0.5498771604056564,-0.4011111111111111,-0.6255555555555555,-0.04,-0.12439490836784181,0.15246296133462892,-0.7004473595735442
1592271939.9563575,0.08698429598083578,9.98,0.6017780143731701,-0.4011111111111111,-0.6255555555555555,-0.04,-0.09772792757819126,0.30735180767295006,-0.7099958284086901
1592271939.9663575,0.10639051584221297,9.981604215181239,0.6404010537953096,-0.4088888888888889,-0.6177777777777778,-0.04555555555555556,-0.15163984767153538,0.13815901841965875,-0.8081536073469742
1592271939.9763575,0.017725400253846668,10.020252733305128,0.6457035338128215,-0.4088888888888889,-0.6177777777777778,-0.04555555555555556,-0.2789687810965356,0.2865695949672598,-1.0129406941088142
1592271939.9863575,-0.06633057961655793,10.02959228662406,0.48693112739094613,-0.4088888888888889,-0.6177777777777778,-0.04555555555555556,-0.14754522900626188,0.3150956372814278,-0.9966400985007181
1592271939.9963574,-0.3140153582996688,9.907638024529607,0.5723619754703934,-0.4088888888888889,-0.6177777777777778,-0.04555555555555556,-0.019480045553680932,0.23692477769880224,-1.2128492392030226
1592271940.0063574,-0.44376587691523817,9.831314190049861,0.6486858099501401,-0.4088888888888889,-0.6177777777777778,-0.04555555555555556,-0.12022027514097411,0.31435321862126725,-1.2078538559177023
1592271940.0163574,-0.63,9.74,0.74,-0.3688888888888889,-0.6377777777777778,-0.05444444444444444,-0.148352986419518,0.18435040224190105,-1.275181184738357
1592271940.0263574,-0.8369484368341533,9.628566226320071,0.7797977763142603,-0.3688888888888889,-0.6377777777777778,-0.05444444444444444,-0.1344609417863969,0.18782341340018133,-1.263025645684376
1592271940.0363574,-0.9267316911101618,9.57,0.7591086430300441,-0.3688888888888889,-0.6377777777777778,-0.05444444444444444,-0.023999260924868752,0.15925016278982232,-1.3647154094105083
1592271940.0463574,-0.8207616096840437,9.569619195157978,0.7296191951579781,-0.3688888888888889,-0.6377777777777778,-0.05444444444444444,-0.13054660930234377,0.12492545299730397,-1.3347706015704004
1592271940.0563574,-0.8509831754152105,9.554508412292396,0.7145084122923947,-0.3688888888888889,-0.6377777777777778,-0.05444444444444444,-0.11653579826955508,0.19085868138689777,-1.4485054205424497
1592271940.0663574,-1.0,9.65,0.63,-0.3422222222222222,-0.6577777777777778,-0.06,-0.1308996938995747,0.16035212502697901,-1.4868023565426693
1592271940.0763574,-1.1383625825148929,9.635435517630011,0.5644598293350508,-0.3422222222222222,-0.6577777777777778,-0.06,-0.08244316751362725,0.16035212502697901,-1.5622674386191449
1592271940.0863574,-1.4251448334474373,9.56680186028943,0.4825028919474019,-0.3422222222222222,-0.6577777777777778,-0.06,-0.032665513512070685,0.2117412535800574,-1.8152321679433867
1592271940.0963573,-1.7904021097800822,9.339783479349187,0.6602165206508136,-0.3422222222222222,-0.6577777777777778,-0.06,-0.10575660021279541,0.14242308361954356,-1.7438099098025315
1592271940.1063573,-1.8878916502771321,9.287289111389237,0.7127108886107635,-0.3422222222222222,-0.6577777777777778,-0.06,-0.09266803507487334,0.027080103341605294,-1.639919424020275
1592271940.1163573,-2.04,9.19,0.84,-0.2966666666666667,-0.67,-0.07555555555555556,-0.1265363707695889,0.017453292519943295,-1.8118699297266134
1592271940.1263573,-2.10456604940658,9.17565198902076,0.8973920439169598,-0.2966666666666667,-0.67,-0.07555555555555556,-0.14062249760896575,0.02058354292869371,-1.836129370394429
1592271940.1363573,-2.1692742324157286,9.08163297706461,0.8610886513764069,-0.2966666666666667,-0.67,-0.07555555555555556,-0.16759209569352362,-0.04030361978316663,-1.8821009944103009
1592271940.1463573,-2.293841363562977,9.060947482528773,0.8314212237931591,-0.2966666666666667,-0.67,-0.07555555555555556,-0.17837947677528732,0.033367491415133066,-1.9014786958763823
1592271940.1563573,-2.4170730991470237,9.038048793909933,0.7568293130331101,-0.2966666666666667,-0.67,-0.07555555555555556,-0.17410723806622502,0.1464373142811366,-2.0133542891044742
1592271940.1663573,-2.844871572558795,8.960920486976628,0.601709475813735,-0.24403465674409644,-0.6963160049612851,-0.07555555555555556,-0.10453261031325553,0.04766529748256382,-2.0303516591064446
1592271940.1763573,-2.9666232827187273,8.91464650116494,0.6194372137864546,-0.24333333333333335,-0.6966666666666667,-0.07555555555555556,-0.1764248991970167,0.09104734326320663,-1.9374509143167706
1592271940.1863573,-3.131818435442473,8.73264423613436,0.5837188929806941,-0.24333333333333335,-0.6966666666666667,-0.07555555555555556,-0.19175176396565588,0.05100744702824461,-1.9487287782641682
1592271940.1963573,-3.3997071742313323,8.75710102489019,0.6634773060029283,-0.24333333333333335,-0.6966666666666667,-0.07555555555555556,-0.2758053036807053,-0.004773782150632365,-1.7958412654028442
1592271940.2063572,-3.533112679129992,8.448940132392522,0.7901822215756165,-0.24333333333333335,-0.6966666666666667,-0.07555555555555556,-0.331879889580838,0.09538095973103687,-1.856769237301304
1592271940.2163572,-4.1,8.56,0.76,-0.19,-0.7111111111111111,-0.0811111111111111,-0.3065234498815041,0.11780972450961724,-1.8413223608540177
1592271940.2263572,-4.017365516169154,8.337522543532339,0.8235649875621891,-0.19,-0.7111111111111111,-0.0811111111111111,-0.27185412732058406,0.14901211481444532,-1.8829255479271216
1592271940.2363572,-4.227126017477472,8.342996215936623,0.7270037840633762,-0.19,-0.7111111111111111,-0.0811111111111111,-0.36514147647006895,0.2287963593429561,-1.9319187779623357
1592271940.2463572,-4.622240813097778,8.196991634106,0.8458403049116667,-0.19,-0.7111111111111111,-0.0811111111111111,-0.45271064678543294,0.1754630482131727,-1.8521536879319567
1592271940.2563572,-4.577003039181787,7.965591184552949,0.9914118546288377,-0.19,-0.7111111111111111,-0.0811111111111111,-0.4105359883707168,0.286020639251073,-1.9785530183259648
1592271940.2663572,-4.750483215580041,7.96151444155654,0.995091335066076,-0.1228894095252041,-0.7222962095235771,-0.0943298637803891,-0.43425607271944777,0.245318646573554,-1.9279550179048166
1592271940.2763572,-4.845646116762675,7.917629611471994,1.0889218449973443,-0.11666666666666667,-0.7233333333333334,-0.09555555555555556,-0.507701399861838,0.12943803323836955,-1.9049855752070701
1592271940.2863572,-4.79505833034557,7.6526263824154,1.1774902782757384,-0.11666666666666667,-0.7233333333333334,-0.09555555555555556,-0.44007908613942115,0.25078079051091695,-1.7403705883873635
1592271940.2963572,-5.152387252809788,7.8327927158913075,1.215465452648551,-0.11666666666666667,-0.7233333333333334,-0.09555555555555556,-0.44258574734073,0.2811870206923032,-1.8147755010924436
1592271940.3063571,-5.159576497035841,7.6780942366612885,1.2671607534581846,-0.11666666666666667,-0.7233333333333334,-0.09555555555555556,-0.40096375788891353,0.19691853925894143,-1.7323368777368366
1592271940.3163571,-5.638177122565372,7.521285914128914,1.3673033466049713,-0.043180769276755515,-0.7214246087258032,-0.08314884560660951,-0.3299511332694902,0.10820470885919892,-1.6358294676995035
1592271940.3263571,-5.626259539042627,7.195693748554691,1.606079935250135,-0.03111111111111111,-0.7211111111111111,-0.0811111111111111,-0.3314190789896507,0.18937841490673885,-1.6798500174427167
1592271940.336357,-5.909759091962011,7.097943015983322,1.3951424600416957,-0.03111111111111111,-0.7211111111111111,-0.0811111111111111,-0.242575042938572,0.24648480080226615,-1.6659492660108968
1592271940.346357,-5.890929156861154,7.0048819281019234,1.5644802402012497,-0.03111111111111111,-0.7211111111111111,-0.0811111111111111,-0.2836993006791629,0.15895554649452373,-1.6367151521984427
1592271940.356357,-6.124483076983519,6.957106488302198,1.7732909030192312,-0.03111111111111111,-0.7211111111111111,-0.0811111111111111,-0.34556442222565137,0.09059618890363713,-1.6425622226139376
1592271940.366357,-6.062806304781251,6.9037591693939735,1.715287965993304,0.013127395536830143,-0.716404886999628,-0.10652472131311991,-0.1712981439262811,0.14363442414857475,-1.5958169065070664
1592271940.376357,-6.163737180530685,6.929651636008464,1.7247822725052906,0.021111111111111112,-0.7155555555555555,-0.1111111111111111,-0.1547459686483048,0.18732838981114358,-1.6385029930711439
1592271940.386357,-6.31,6.667702388852024,1.5375746516257465,0.021111111111111112,-0.7155555555555555,-0.1111111111111111,-0.165221414127081,0.1661823151647479,-1.6305831912451079
1592271940.396357,-6.435977746606119,6.650391098642448,1.3976163191555122,0.021111111111111112,-0.7155555555555555,-0.1111111111111111,-0.14713416890556913,0.1959493975302984,-1.6221080358160476
1592271940.406357,-6.4918240983458375,6.545433245954985,1.4118240983458374,0.021111111111111112,-0.7155555555555555,-0.1111111111111111,-0.11691219253088161,0.1255301205389523,-1.62454479259876
1592271940.416357,-6.724459099200224,6.472340746457134,1.4989332818857863,0.07302382956830832,-0.7121514428698377,-0.11706830831111735,-0.11481518202897416,0.1266737003500007,-1.6153119264771165
1592271940.426357,-6.86235552812283,6.373525962502893,1.5537659131239874,0.08888888888888889,-0.7111111111111111,-0.11888888888888889,-0.11574344979770684,0.12230072222466959,-1.5938314478123887
1592271940.436357,-7.226491463006361,6.3416228657515905,1.645706673362348,0.08888888888888889,-0.7111111111111111,-0.11888888888888889,-0.10020225977831006,0.16764511579837166,-1.4907318306704438
1592271940.446357,-6.978567960009522,6.112744584622709,1.5528559866698406,0.08888888888888889,-0.7111111111111111,-0.11888888888888889,0.009003495529264119,0.15018665193245145,-1.5430708410062755
1592271940.456357,-7.188391127660718,6.078559408510714,1.4310164879428562,0.08888888888888889,-0.7111111111111111,-0.11888888888888889,0.03568312751408004,0.1057826799749433,-1.5048100572316647
1592271940.466357,-7.512326186592092,6.025862658277013,1.4742231802998524,0.14679065572214023,-0.6995307577444608,-0.10730853552223862,-0.03528205860449793,0.0759068408038379,-1.3386010509357569
1592271940.476357,-7.581194503952132,6.0619908399202185,1.422013740119672,0.16111111111111112,-0.6966666666666667,-0.10444444444444445,-0.030765424905198298,0.03220871885107213,-1.2943818049296938
1592271940.486357,-7.617749665327978,5.94725702811245,1.35,0.16111111111111112,-0.6966666666666667,-0.10444444444444445,-0.05039462981272984,-0.11897751216257897,-1.21205245630099
1592271940.496357,-7.293406170581669,5.772548749495286,1.2225487494952854,0.16111111111111112,-0.6966666666666667,-0.10444444444444445,0.016025753264194968,-0.07602914116273085,-1.112115183198898
1592271940.506357,-7.769544165641218,5.793573377561393,1.2614311700818577,0.16111111111111112,-0.6966666666666667,-0.10444444444444445,-0.05945375014252886,0.050415863148350726,-1.0685458175324434
1592271940.516357,-7.935728598463765,5.751433819436714,1.31,0.1880934357490074,-0.7014282533674719,-0.11476121562952243,-0.03787318818097403,-0.002173282702253032,-1.1944502350757393
1592271940.526357,-8.0424978431299,5.664389511984695,1.3014445403053378,0.1988888888888889,-0.7033333333333334,-0.11888888888888889,0.028458207549884564,-0.09108999655221278,-1.1125944094422575
1592271940.536357,-8.582633075079427,5.500747449974917,1.2230605874811884,0.1988888888888889,-0.7033333333333334,-0.11888888888888889,-0.037814028169489075,-0.09665310373979508,-0.893130364977705
1592271940.546357,-8.60188111254234,5.477811888745766,1.332802108678021,0.1988888888888889,-0.7033333333333334,-0.11888888888888889,0.0099471631409358,-0.2059867739905289,-0.6802850826228051
1592271940.556357,-8.544843456648845,5.35695209827096,1.364140576108141,0.1988888888888889,-0.7033333333333334,-0.11888888888888889,0.06960893797142621,-0.2052804192176807,-0.5191323124254386
1592271940.566357,-8.483880023072487,5.349463949240531,1.331104018457989,0.2374168642782371,-0.6752400179452669,-0.10845422888760708,0.028708963148593808,-0.18944326695885777,-0.4229945209490214
1592271940.576357,-8.483798029011185,5.384599343003727,1.324599343003728,0.25222222222222224,-0.6644444444444444,-0.10444444444444445,0.12769669455509677,-0.11330508015102762,-0.3819045153184336
1592271940.5863569,-8.434337508715409,5.396566249128459,1.3037350034861637,0.25222222222222224,-0.6644444444444444,-0.10444444444444445,0.217213459675187,-0.2216221543160934,-0.24978076304566876
1592271940.5963569,-8.219534695581826,5.342251102586185,1.2466883269396383,0.25222222222222224,-0.6644444444444444,-0.10444444444444445,0.09234405372113264,-0.2650423882316445,-0.15189230088982736
1592271940.6063569,-8.123773660894079,5.329536850583971,1.258610551751913,0.25222222222222224,-0.6644444444444444,-0.10444444444444445,0.0514711338332933,-0.24549491626036934,-0.13828290055710005
1592271940.6163568,-8.015200885682654,5.477795793007393,1.35,0.2653106436674881,-0.6610001230114797,-0.11339968017015266,-0.024039688347445645,-0.24676819852805204,-0.1346092431574897
1592271940.6263568,-7.967105558464876,5.503947781850827,1.376315553228099,0.2733333333333333,-0.6588888888888889,-0.11888888888888889,-0.08550082971200096,-0.20659789890713512,-0.12432598380357565
1592271940.6363568,-7.79874715261959,5.3357479119210325,1.5447532270311315,0.2733333333333333,-0.6588888888888889,-0.11888888888888889,-0.13160869249472806,-0.1377718450023637,-0.08527447472431482
1592271940.6463568,-7.866570442121415,5.4894269684473,1.6509995684281193,0.2733333333333333,-0.6588888888888889,-0.11888888888888889,-0.11262064132650586,-0.1713224701257539,-0.08820125865390244
1592271940.6563568,-7.895762490678598,5.5376267710663685,1.722882177479493,0.2733333333333333,-0.6588888888888889,-0.11888888888888889,-0.1382032167785042,-0.1856816062505181,-0.07001612480030478
1592271940.6663568,-7.730371381110584,5.288781442809682,1.884858803986711,0.28121512946263777,-0.6588888888888889,-0.13250290038496018,-0.17080975976406357,-0.3681644491488869,0.03036982654581139
1592271940.6763568,-7.64710917274067,5.234336240888996,1.9401178954076554,0.28555555555555556,-0.6588888888888889,-0.14,-0.10017304103364902,-0.37339567378422767,-0.0204843917966735
1592271940.6863568,-7.570118088511202,5.260354265533606,1.8881624544752236,0.28555555555555556,-0.6588888888888889,-0.14,0.018841961880510183,-0.12482566495132659,-0.09697366472807281
1592271940.6963568,-7.673201761695036,5.300751101059398,1.76,0.28555555555555556,-0.6588888888888889,-0.14,-0.05704674933209933,-0.18431601919331098,-0.0845286214639885
1592271940.7063568,-7.779309393773894,5.3269584926269795,1.7843320589841616,0.28555555555555556,-0.6588888888888889,-0.14,-0.09964760049594687,-0.20906245573236049,-0.11224523642951162
1592271940.7163568,-8.060612133853269,5.191469121247846,1.9002448535413077,0.29159185030682266,-0.6599863970254829,-0.1328661971121389,-0.04512470275244725,-0.16824167959551284,-0.21796128567762163
1592271940.7263567,-8.050915383528746,5.013347930498658,1.823347930498658,0.29777777777777775,-0.6611111111111111,-0.12555555555555556,0.0147799172910224,-0.09816721982313528,-0.13315655329220688
1592271940.7363567,-8.214807910385838,4.921169962660766,1.8433818282395242,0.29777777777777775,-0.6611111111111111,-0.12555555555555556,0.17304905742057136,0.011446738640741956,-0.1315416110819394
1592271940.7463567,-8.15192035292715,4.973774889710266,1.8219203529271493,0.29777777777777775,-0.6611111111111111,-0.12555555555555556,0.18038431475945316,-0.1394387646075592,-0.18149686591164998
1592271940.7563567,-8.053741049023808,4.99,1.7448879980414957,0.29777777777777775,-0.6611111111111111,-0.12555555555555556,0.14927520877180486,-0.20492663934308167,-0.16584440026737646
1592271940.7663567,-7.815386281588448,5.077181708784597,1.6726305655836342,0.29111806391228773,-0.6611111111111111,-0.12192298435619736,0.12602626626648644,-0.13835331044490728,-0.18618368054615442
1592271940.7763567,-7.852032817849133,5.146406563569827,1.7751540550112148,0.28555555555555556,-0.6611111111111111,-0.11888888888888889,0.14254045898942416,-0.15700018012456105,-0.2063136896261311
1592271940.7863567,-7.71757600022089,5.2290231106938725,1.8375760002208907,0.28555555555555556,-0.6611111111111111,-0.11888888888888889,0.10163120135318778,-0.23689421838274832,-0.21783144068942611
1592271940.7963567,-7.814196269030091,5.172194029495151,1.8255611941009697,0.28555555555555556,-0.6611111111111111,-0.11888888888888889,0.15252557724271754,-0.056360214161830374,-0.11777097510650805
1592271940.8063567,-7.8975107003287635,5.109388375410954,1.8493883754109548,0.28555555555555556,-0.6611111111111111,-0.11888888888888889,0.19793842137905568,0.014104744481149045,-0.03503234082484222
1592271940.8163567,-8.162520325203252,5.1518699186991865,1.9303739837398373,0.3042728093947606,-0.6669936766034327,-0.11621499548328816,0.10169203455751108,-0.12484780019245617,-0.20571826961870562
1592271940.8263566,-8.322062279888785,5.074033734939759,1.870064874884152,0.3244444444444444,-0.6733333333333333,-0.11333333333333333,0.12497014400269843,-0.18330344732220383,-0.22709936304237652
1592271940.8363566,-8.265240837116599,4.902379581441701,1.7883357324770235,0.3244444444444444,-0.6733333333333333,-0.11333333333333333,0.22515225668731356,-0.04307905882393157,-0.19957746265552256
1592271940.8463566,-8.174800452260097,4.818516201977435,1.9618578748586686,0.3244444444444444,-0.6733333333333333,-0.11333333333333333,0.1304494693636154,-0.0008051926130078005,-0.2776055833062958
1592271940.8563566,-8.054889376121189,4.802555311939406,1.9729479768786125,0.3244444444444444,-0.6733333333333333,-0.11333333333333333,0.11019565172264427,-0.007033108096753615,-0.34286113881024693
1592271940.8663566,-8.056596295397556,4.810850926150611,1.7657453692469465,0.32139475316131466,-0.6743498970943766,-0.11485817897489821,0.2820840933911878,-0.1910112375247159,-0.2921339774773424
1592271940.8763566,-8.096393527603954,4.814425889584181,1.8326226533861592,0.31777777777777777,-0.6755555555555556,-0.11666666666666667,0.2630782371432233,-0.17326332531843133,-0.30034525284660796
1592271940.8863566,-8.174966643723197,4.937006671255361,1.8864213480171546,0.31777777777777777,-0.6755555555555556,-0.11666666666666667,0.18499616805855235,-0.14743727073907742,-0.3052758125349966
1592271940.8963566,-8.304387116948094,4.898774233896185,1.7214196372732957,0.31777777777777777,-0.6755555555555556,-0.11666666666666667,0.17503979653864177,-0.17446948100758042,-0.25463565168470587
1592271940.9063566,-8.435752649412443,4.876424735058755,1.6871505298824885,0.31777777777777777,-0.6755555555555556,-0.11666666666666667,0.16825575279122457,-0.1614068005609532,-0.09211167876751086
1592271940.9163566,-8.528612714664343,4.792811966742911,1.795586537414225,0.32664286549919924,-0.6783550569412676,-0.11060108033095725,0.1419715689151761,-0.14117115900651497,-0.07872972062039946
1592271940.9263566,-8.429276425604597,4.699547766002873,1.9021707231862117,0.3388888888888889,-0.6822222222222222,-0.10222222222222223,0.058988111092912264,-0.1730671782355684,-0.12789913646475146
1592271940.9363565,-8.297776982422652,4.658703836262892,2.0224982104509666,0.3388888888888889,-0.6822222222222222,-0.10222222222222223,0.19142065959793877,-0.17091761601969158,-0.07046007996003678
1592271940.9463565,-8.171115549215406,4.632528076773441,1.7575842303203215,0.3388888888888889,-0.6822222222222222,-0.10222222222222223,0.2068603907354728,-0.17705950488320202,-0.07731940431009926
1592271940.9563565,-8.07281337594401,4.5828412276160035,1.655710306904001,0.3388888888888889,-0.6822222222222222,-0.10222222222222223,0.21692036078961394,-0.08846668611766281,-0.13487711404701844
1592271940.9663565,-8.09031746031746,4.541746031746031,1.6573015873015873,0.34091710758377425,-0.6777601410934744,-0.1054673721340388,0.20382952335790921,-0.12695192535339705,-0.23406111932995385
1592271940.9763565,-8.203351731601732,4.488681385281385,1.638022077922078,0.34444444444444444,-0.67,-0.1111111111111111,0.13529312112583072,-0.21038081220481275,-0.21452202613196428
1592271940.9863565,-8.323339617424528,4.485357816152628,1.671431264610512,0.34444444444444444,-0.67,-0.1111111111111111,0.0792143091235628,-0.1388998051258936,-0.20237410304599268
1592271940.9963565,-8.449146188686518,4.494573094343259,1.8005497735376315,0.34444444444444444,-0.67,-0.1111111111111111,0.18294200378147055,-0.13841556739739988,-0.26928346248116025
1592271941.0063565,-8.441501530051397,4.490632223179536,1.860237083692326,0.34444444444444444,-0.67,-0.1111111111111111,0.2836292584415038,-0.1275662091419526,-0.3402496600213614
1592271941.0163565,-8.467635158702477,4.503728636205093,1.8933135681897453,0.3466534899042747,-0.678099833352711,-0.10374762624501027,0.11473774413365756,-0.3768015642292266,0.028317084404359524
1592271941.0263565,-8.14,4.37,1.9,0.3511111111111111,-0.6944444444444444,-0.08888888888888889,0.04690572364734761,-0.3425208657038872,-0.07963064712224129
1592271941.0363564,-8.140669407428408,4.65257612702013,1.994746243266232,0.3511111111111111,-0.6944444444444444,-0.08888888888888889,0.12975560509021522,-0.2530218649688005,0.005007337005345142
1592271941.0463564,-8.18090052356021,4.715797556719022,1.7701500872600349,0.3511111111111111,-0.6944444444444444,-0.08888888888888889,-0.03465910161628355,-0.2672801937726351,0.14985121299163792
1592271941.0563564,-8.29805036840669,4.504500409340767,1.7832250204670383,0.3511111111111111,-0.6944444444444444,-0.08888888888888889,0.16715054257246212,-0.1302474960789924,0.01247942564724562
1592271941.0663564,-8.414789166455169,4.616551249048258,1.7978162503172475,0.3456107868137889,-0.6898125924045941,-0.08888888888888889,0.10296851708557252,-0.007849346364487931,0.14192131270644176
1592271941.0763564,-8.4,4.55,1.82,0.33,-0.6766666666666666,-0.08888888888888889,0.09490227807719166,-0.061086523819801536,0.20725784867432664
1592271941.0863564,-8.603211482200273,4.4530524577817685,2.098526779248617,0.33,-0.6766666666666666,-0.08888888888888889,0.028258119453540478,-0.003863265546236186,0.28769839570726363
1592271941.0963564,-8.449137644319856,4.475258706704043,2.206378106143393,0.33,-0.6766666666666666,-0.08888888888888889,0.08354244187397325,-0.17261429239013773,0.2774373413640055
1592271941.1063564,-8.392462734670856,4.46,2.3207348320038674,0.33,-0.6766666666666666,-0.08888888888888889,0.048814391866886166,-0.13436227522255711,0.38527396593064706
1592271941.1163564,-8.49394972015214,4.452064071245246,2.072864961810817,0.33,-0.6903340995220769,-0.0774258806875771,-0.013074486804560092,0.017658984907205223,0.44841682507802766
1592271941.1263564,-8.88,4.44,1.91,0.33,-0.7111111111111111,-0.06,0.025089107997418484,0.061086523819801536,0.47342055960346185
1592271941.1363564,-8.896762839007502,4.2652651733725016,1.8432371609924985,0.33,-0.7111111111111111,-0.06,0.15741747378214188,0.012805802906933957,0.5249362921859332
1592271941.1463563,-8.96,4.34,1.78,0.33,-0.7111111111111111,-0.06,0.07526732399225547,-0.04363323129985824,0.6654067773228381
1592271941.1563563,-8.764491478453651,4.579948732160178,1.8275128169599557,0.33,-0.7111111111111111,-0.06,0.012647107509298665,0.03317572059402844,0.6331414930899525
1592271941.1663563,-8.58718327183272,4.404218942189422,1.9624969249692497,0.33,-0.708862921962553,-0.0644963782971163,0.0537915091034015,-0.1348537877692144,0.7015303162615245
1592271941.1763563,-8.702511891846783,4.500593340565802,2.0715071351080696,0.33,-0.7033333333333334,-0.07555555555555556,0.035006264561444934,-0.09943755976080645,0.838711869292336
1592271941.1863563,-8.4,4.67,1.89,0.33,-0.7033333333333334,-0.07555555555555556,-0.0032724923474893677,-0.02617993877991494,0.8552113334772213
1592271941.1963563,-8.490190210625903,4.662661454961908,1.9239545884578997,0.33,-0.7033333333333334,-0.07555555555555556,0.06140579401546524,0.0494481529291827,0.8859868511470165
1592271941.2063563,-8.39,4.81,1.7,0.33,-0.7033333333333334,-0.07555555555555556,0.1636246173744684,0.12980886311707826,0.8988445647770796
1592271941.2163563,-8.416350851221317,5.2184365490583104,1.837298297557365,0.3259558077692793,-0.7073775255640541,-0.07420749147864865,-0.05824860539372123,-0.25124311714751457,1.0161937880607281
1592271941.2263563,-8.34,4.93,1.99,0.30333333333333334,-0.73,-0.06666666666666667,0.11017390903214205,0.015271630954950384,1.227184630308513
1592271941.2363563,-8.46563252930507,4.915093532580741,1.6801759657814235,0.30333333333333334,-0.73,-0.06666666666666667,0.16405901248019736,0.0009144445169275081,1.1218023857393682
1592271941.2463562,-8.59,4.83,1.87,0.30333333333333334,-0.73,-0.06666666666666667,0.22689280275926282,-0.06763150851478027,1.3809917706405133
1592271941.2563562,-8.195062084036953,5.021925499155658,1.6993167775901459,0.30333333333333334,-0.73,-0.06666666666666667,0.19888015557338465,0.03232859659796321,1.1762746789134377
1592271941.2663562,-8.08,5.201909021032772,1.7800579973447,0.3011344032174163,-0.7309054418124364,-0.06511448070248993,0.28238553169156055,0.1371133361718358,1.1876899398049405
1592271941.2763562,-7.910228915662651,5.543150602409638,1.9902289156626507,0.28444444444444444,-0.7377777777777778,-0.05333333333333334,0.21536679557553523,-0.07925444192767549,1.3248833122380623
1592271941.2863562,-7.761585191749126,5.76997686210801,1.7124009255156796,0.28444444444444444,-0.7377777777777778,-0.05333333333333334,0.18786949011704385,-0.14455669338023175,1.4761813496917784
1592271941.2963562,-7.5929039630554644,5.902372885349418,1.5934237312096509,0.28444444444444444,-0.7377777777777778,-0.05333333333333334,0.1350037641644024,-0.14123403176471855,1.4276678240585505
1592271941.3063562,-7.3168485653665405,5.691237334179374,1.4525611231187165,0.28444444444444444,-0.7377777777777778,-0.05333333333333334,0.21617280713894252,-0.11757588081051215,1.439535625464181
1592271941.3163562,-7.697471345782357,5.89750998068255,1.5175022537025114,0.2677756313944337,-0.7469456249552837,-0.05500021463833441,0.23806949850566453,-0.03353612789904381,1.4788960459368368
1592271941.3263562,-7.03,6.13,1.57,0.21777777777777776,-0.7744444444444445,-0.06,0.13744467859455345,0.12762720155208535,1.5304355878425278
1592271941.3363562,-6.987323976426799,5.946324700165426,1.6119114454094292,0.21777777777777776,-0.7744444444444445,-0.06,0.13821799889727085,-0.08365376232673077,1.6409906165936268
1592271941.3463562,-7.007247588729985,6.372076780538794,1.5137197700384852,0.21777777777777776,-0.7744444444444445,-0.06,0.1712868134700027,-0.05499462235286404,1.473469519615924
1592271941.3563561,-6.707084365263242,6.425930933929855,1.6810537668770473,0.21777777777777776,-0.7744444444444445,-0.06,0.178644608648628,-0.06471667131879409,1.5133993635831366
1592271941.3663561,-6.3811661946638845,6.378608138321657,1.9541755850350275,0.20921978768155544,-0.7744444444444445,-0.055598747950514234,0.17293054697202812,-0.04939445676038386,1.4239260507751017
1592271941.3763561,-5.96,6.48,1.65,0.17888888888888888,-0.7744444444444445,-0.04,0.05126904677733343,-0.06981317007977318,1.413716694115407
1592271941.386356,-6.733215694257144,6.77866670059286,1.6061960255464238,0.17888888888888888,-0.7744444444444445,-0.04,0.05161127581853292,0.1557834644722735,1.4033559250005594
1592271941.396356,-6.602621900383507,7.036730187465758,1.3973018746575832,0.17888888888888888,-0.7744444444444445,-0.04,0.09851066450832201,0.06157954264420037,1.3141692453701113
1592271941.406356,-6.08310735076111,7.072532631883429,1.6084336695954007,0.17888888888888888,-0.7744444444444445,-0.04,0.07128567528401523,-0.06882200771349571,1.3401411892286146
1592271941.416356,-5.663812241684708,7.070708128321197,1.2472375516630585,0.1777448446281353,-0.7744444444444445,-0.04,0.029350497166465653,-0.09749214779999579,1.2901240851099263
1592271941.426356,-6.2,6.71,1.14,0.13333333333333333,-0.7744444444444445,-0.04,-0.14398966328953217,-0.32506757318394386,1.27736284630335
1592271941.436356,-5.643873935986847,7.341166503142319,1.7411853305401608,0.13333333333333333,-0.7744444444444445,-0.04,0.014480242782313212,-0.1000502206809442,1.1006353295885176
1592271941.446356,-5.93,7.68,1.44,0.13333333333333333,-0.7744444444444445,-0.04,-0.1308996938995747,-0.039269908169872414,1.1039207518864134
1592271941.456356,-5.620280528389718,7.188188203107454,1.7445938055084833,0.13333333333333333,-0.7744444444444445,-0.04,-0.2045852809636838,-0.10476374112989743,1.0270340745754842
1592271941.466356,-5.294687848383501,7.51113154960981,1.7635340022296544,0.13257896692679302,-0.7747677443329618,-0.03951505016722408,-0.18819992826418927,0.04969421303894669,0.9576788939378139
1592271941.476356,-5.58,7.58,1.37,0.08666666666666667,-0.7944444444444444,-0.01,-0.09053895494720585,0.28579766501407144,0.9533861039019024
1592271941.486356,-5.645725358935964,7.6955060336474945,2.1242957808508764,0.08666666666666667,-0.7944444444444444,-0.01,-0.10362892433716332,0.11656064495597909,0.7271170722551181
1592271941.496356,-5.248297234255248,7.889750083305565,1.426797734088637,0.08666666666666667,-0.7944444444444444,-0.01,-0.13461237154449934,0.21641050415691937,0.692176295419384
1592271941.506356,-5.8621309143278655,7.767359408479399,1.3104965049703186,0.08666666666666667,-0.7944444444444444,-0.01,-0.21873793360251936,0.07797234983622267,0.7343956074730518
1592271941.516356,-5.589572868734413,7.863123046120341,1.6272531525518985,0.08666666666666667,-0.7944444444444444,-0.01,-0.24364808465836457,0.007259662968016917,0.9529620941565969
1592271941.526356,-4.65,7.53,1.76,0.04555555555555556,-0.7822222222222223,-0.0044444444444444444,-0.17016960206944715,-0.16907877128695067,0.9206611804270088
1592271941.536356,-5.030329780528336,7.562197868317002,1.6323276603059995,0.04555555555555556,-0.7822222222222223,-0.0044444444444444444,-0.10518509749317963,-0.006444721525239218,0.959354575370879
1592271941.546356,-5.460619544999284,7.806106262221586,1.6430972480564698,0.04555555555555556,-0.7822222222222223,-0.0044444444444444444,-0.18831796299470127,0.02399827721492203,0.7890953966477039
1592271941.556356,-5.33,7.69,1.81,0.04555555555555556,-0.7822222222222223,-0.0044444444444444444,-0.14398966328953217,0.02399827721492203,0.8017606251348951
1592271941.566356,-5.188284608640445,7.884858663119388,1.6859990325603893,0.04555555555555556,-0.7822222222222223,-0.0044444444444444444,-0.2493024053275965,-0.18759337880651006,0.7998282812442883
1592271941.576356,-4.79,8.03,2.07,0.008888888888888889,-0.7944444444444444,-0.024444444444444446,-0.05781403147231216,-0.11780972450961724,0.8323038870447959
1592271941.586356,-4.738225921183668,8.221754161331626,1.7049950206288234,0.008888888888888889,-0.7944444444444444,-0.024444444444444446,-0.1853406698792762,-0.07006830250350687,0.717798003270499
1592271941.596356,-5.03,8.55,1.86,0.008888888888888889,-0.7944444444444444,-0.024444444444444446,-0.3196134192714616,-0.11780972450961724,0.7406741013150936
1592271941.606356,-5.168341093836319,8.565983742403915,2.2727756293899453,0.008888888888888889,-0.7944444444444444,-0.024444444444444446,-0.28624196914701,-0.29439362852383955,0.7106238697809609
1592271941.616356,-3.9849599479125564,7.846024583695051,2.0079630652671456,0.008888888888888889,-0.7944444444444444,-0.024444444444444446,-0.1950687336775298,-0.05969025008755391,0.5562612631940191
1592271941.626356,-5.17,8.18,2.35,-0.017777777777777778,-0.8,-0.03333333333333333,-0.3065234498815041,-0.3719732968312915,0.7733990247899873
1592271941.6363559,-4.37,8.199816754682134,2.143371425273425,-0.017777777777777778,-0.8,-0.03333333333333333,0.031651500403785,-0.08771934640394055,0.676074776886077
1592271941.6463559,-4.274871703152574,8.62363142080412,1.9031842895979396,-0.017777777777777778,-0.8,-0.03333333333333333,-0.14971567947386716,-0.1898227912948071,0.4531566362456211
1592271941.6563559,-3.9366874754753325,8.394968786787002,1.978593443441658,-0.017777777777777778,-0.8,-0.03333333333333333,-0.06433539635189564,-0.2329466353785925,0.5522295717964265
1592271941.6663558,-3.921725466414583,8.417411800378126,1.7915683301822851,-0.017777777777777778,-0.8,-0.03333333333333333,-0.2120406278175797,-0.06320802684344179,0.48939364459831786
1592271941.6763558,-4.47,9.12,2.4,-0.056666666666666664,-0.7588888888888888,-0.01888888888888889,-0.04908738521234052,0.04581489286485115,0.4385139745635753
1592271941.6863558,-4.338321479790441,8.350090730822139,2.229682442122516,-0.056666666666666664,-0.7588888888888888,-0.01888888888888889,-0.07508917443957802,0.11264472839258291,0.4849523908627975
1592271941.6963558,-3.9271780365275366,8.319730738532325,2.1879273674820414,-0.056666666666666664,-0.7588888888888888,-0.01888888888888889,-0.055291302833933874,-0.06123724990989436,0.6138528976708695
1592271941.7063558,-3.728513392622218,8.163814485432125,2.31510515883457,-0.056666666666666664,-0.7588888888888888,-0.01888888888888889,-0.12472962787274022,-0.04762634281448962,0.5612715577953565
1592271941.7163558,-3.6622980582013365,8.531677454437018,2.3445341963549615,-0.056666666666666664,-0.7588888888888888,-0.01888888888888889,-0.03885651030188954,-0.02033955779197632,0.4577422852099384
1592271941.7263558,-3.34,8.78,2.18,-0.07777777777777778,-0.7588888888888888,-0.05444444444444444,-0.11017390903214205,-0.01090830782496456,0.29779680362153244
1592271941.7363558,-3.5781150195421554,9.097486692722873,2.080785408524102,-0.07777777777777778,-0.7588888888888888,-0.05444444444444444,-0.02359284466836603,0.29861899727553476,0.21013347595320925
1592271941.7463558,-3.0892125094197436,8.62353428786737,2.1436850037678976,-0.07777777777777778,-0.7588888888888888,-0.05444444444444444,-0.08595080723620059,0.09748221207181498,0.05397351797131485
1592271941.7563558,-3.395435979684576,8.638942528735631,2.2279406575781873,-0.07777777777777778,-0.7588888888888888,-0.05444444444444444,-0.18861860935979108,0.17607303480301215,-0.24859406618851418
1592271941.7663558,-3.492604116546378,8.317540229885058,2.026129911788292,-0.07777777777777778,-0.7588888888888888,-0.05444444444444444,-0.16741981040645473,0.22010130955224924,-0.21353451407338098
1592271941.7763557,-4.38,8.52,2.6,-0.09777777777777778,-0.7677777777777778,-0.021111111111111112,-0.09490227807719166,0.36760997370130566,-0.34797501961636945
1592271941.7863557,-3.956785801249966,8.431071670138795,2.308214334027759,-0.09777777777777778,-0.7677777777777778,-0.021111111111111112,-0.1506904767372931,0.3732978412299398,-0.7624518778289125
1592271941.7963557,-3.87,8.19,2.26,-0.09777777777777778,-0.7677777777777778,-0.021111111111111112,-0.15489797111449674,0.409061543436171,-0.643590161672909
1592271941.8063557,-4.102714897907738,8.391879544705358,2.097727017122026,-0.09777777777777778,-0.7677777777777778,-0.021111111111111112,-0.010865390377994649,0.3652539983460323,-0.8515112953655118
1592271941.8163557,-4.208444668515251,8.465077078202867,2.39865021038956,-0.09777777777777778,-0.7677777777777778,-0.021111111111111112,-0.05167563089052005,0.4859103616004552,-0.9198240892669131
1592271941.8263557,-4.27,8.0,2.16,-0.08333333333333333,-0.7677777777777778,-0.021111111111111112,0.022907446432425576,0.6250460383704692,-0.9872018581592926
1592271941.8363557,-4.538375097276265,8.411080155642024,2.3102692607003887,-0.08333333333333333,-0.7677777777777778,-0.021111111111111112,-0.08128090007257055,0.4042123973825877,-0.9591653848102571
1592271941.8463557,-3.824386816999133,8.190328707718994,2.0982679965307893,-0.08333333333333333,-0.7677777777777778,-0.021111111111111112,0.07984578582123494,0.5392744775222035,-1.13876253041407
1592271941.8563557,-4.1132922237590295,8.110448939603504,2.246408483171969,-0.08333333333333333,-0.7677777777777778,-0.021111111111111112,0.02638927871224051,0.4721232597165406,-1.0646969446025387
1592271941.8663557,-4.290552481942523,8.134620792992163,2.0530336560627016,-0.08333333333333333,-0.7677777777777778,-0.021111111111111112,-0.021072044431171163,0.5784717800934446,-1.0084464875436803
1592271941.8763556,-4.69,7.93,2.01,-0.057777777777777775,-0.7555555555555555,-0.012222222222222223,0.09490227807719166,0.5585053606381855,-0.9162978572970231
1592271941.8863556,-4.709013099136648,7.815921405180113,1.8578952069068175,-0.057777777777777775,-0.7555555555555555,-0.012222222222222223,0.1457154589090266,0.6113925488509117,-1.0666633924116367
1592271941.8963556,-4.309157395716702,7.72,1.740843557186078,-0.057777777777777775,-0.7555555555555555,-0.012222222222222223,0.12305364850975714,0.6664975561325504,-0.845183626522411
1592271941.9063556,-5.52,7.72,2.03,-0.057777777777777775,-0.7555555555555555,-0.012222222222222223,0.20289452554434081,0.5846852994181004,-0.9250245035569946
1592271941.9163556,-5.0777743556007415,7.6803977034866335,1.950795406973267,-0.057777777777777775,-0.7555555555555555,-0.012222222222222223,0.1416953697440369,0.6127649120794163,-1.0265431031786751
1592271941.9263556,-5.29,7.55,1.88,-0.017777777777777778,-0.7677777777777778,0.008888888888888889,0.09490227807719166,0.6774059159302992,-0.9053895494720584
1592271941.9363556,-5.148355585474401,7.566664048767718,1.996648341374023,-0.017777777777777778,-0.7677777777777778,0.008888888888888889,0.1994238078790703,0.614692998049172,-0.8390411001195616
1592271941.9463556,-5.307826128333849,7.687147819466585,1.721478194665842,-0.017777777777777778,-0.7677777777777778,0.008888888888888889,0.21888892175497732,0.7394580213270981,-1.1421984506954423
1592271941.9563556,-5.54,7.65,1.35,-0.017777777777777778,-0.7677777777777778,0.008888888888888889,0.05781403147231216,0.5105088062083414,-0.9872018581592926
1592271941.9663556,-5.639412927756654,7.5903522433460076,1.376510114068441,-0.017777777777777778,-0.7677777777777778,0.008888888888888889,0.19372885929704714,0.5994318052638861,-0.9546690536267762
1592271941.9763556,-5.907044782905206,7.540513753125711,1.5426551488974767,0.013333333333333334,-0.76,0.022222222222222223,0.22954387616132457,0.6780143163224007,-1.0333835022692703
1592271941.9863555,-5.584669961923232,7.225818650521487,1.3407657923988365,0.013333333333333334,-0.76,0.022222222222222223,0.06226857749676876,0.5221392092867665,-1.0825564067576854
1592271941.9963555,-6.136723246000907,7.12012754189811,0.9129363244093738,0.013333333333333334,-0.76,0.022222222222222223,0.06818393224740887,0.493705430080897,-1.063578528477877
1592271942.0063555,-5.778555236242258,6.848896346143548,1.282795994502258,0.013333333333333334,-0.76,0.022222222222222223,0.17638186419670726,0.6352611741793533,-0.9439283558762065
1592271942.0163555,-6.325087731824429,7.110932474162398,1.365150206165325,0.013333333333333334,-0.76,0.022222222222222223,0.16658173592576522,0.6148442402815575,-1.050913089500657
1592271942.0263555,-5.84,6.9,1.33,0.06,-0.76,0.035555555555555556,0.1265363707695889,0.4308781590861001,-1.2729995231733642
1592271942.0363555,-5.766354818021485,6.99573873657207,1.2563548180214847,0.06,-0.76,0.035555555555555556,0.17473702966041954,0.6301075491682001,-1.3975178919746767
1592271942.0463555,-6.246780770494111,6.68,0.8478724602318052,0.06,-0.76,0.035555555555555556,0.19740126531503496,0.8014051364302619,-1.2677304844373116
1592271942.0563555,-7.0387500988220415,6.67983872242865,1.219677444857301,0.06,-0.76,0.035555555555555556,0.14462739699469157,0.7324049502959429,-1.430958874788125
1592271942.0663555,-6.781766740453791,6.646679579413392,1.1533591588267846,0.06,-0.76,0.035555555555555556,0.27574732246283307,0.6021893001758575,-1.3875536580814298
1592271942.0763555,-6.69,6.19,0.64,0.09555555555555556,-0.7477777777777778,0.07111111111111111,0.23125612588924865,0.6490443155853912,-1.2686362000433782
1592271942.0863554,-7.719709125400151,6.286810259653006,0.7984167885230999,0.09555555555555556,-0.7477777777777778,0.07111111111111111,0.3282194417109604,0.45895781526163965,-1.1735929498815023
1592271942.0963554,-7.385753028110003,6.547003631192707,0.681677966532084,0.09555555555555556,-0.7477777777777778,0.07111111111111111,0.35436311480747423,0.4050381475645787,-1.0905897698599434
1592271942.1063554,-7.205221727932568,6.113054319831421,0.7965188480449544,0.09555555555555556,-0.7477777777777778,0.07111111111111111,0.31427092801833484,0.3422062334301908,-1.0558459927303692
1592271942.1163554,-7.380425531914893,6.2968278529980655,0.6031721470019342,0.09555555555555556,-0.7477777777777778,0.07111111111111111,0.347063532386121,0.3546529295324261,-1.1791838560303807
1592271942.1263554,-7.4499148267842585,6.19042586607871,0.8292334410583224,0.1343340347203345,-0.7477777777777778,0.08108272003919713,0.3066597172443482,0.4524253369958602,-1.090071329164512
1592271942.1363554,-7.34958980831427,6.337268281139071,0.7764478977676106,0.13444444444444445,-0.7477777777777778,0.0811111111111111,0.2933797865254444,0.25115860327644735,-1.0517693686853424
1592271942.1463554,-7.79322934863988,6.316937858747192,0.5452632892438234,0.13444444444444445,-0.7477777777777778,0.0811111111111111,0.36302478206926475,0.2044133039160772,-0.8198351494605925
1592271942.1563554,-7.736998514466269,5.928693909311703,0.9020059421349242,0.13444444444444445,-0.7477777777777778,0.0811111111111111,0.3189908516971367,0.1738560591558716,-0.7613337557398892
1592271942.1663554,-7.981183211487726,6.253226391154612,0.7494620667431977,0.13444444444444445,-0.7477777777777778,0.0811111111111111,0.31696258601108285,0.19523529102644224,-0.8043646203144272
1592271942.1763554,-7.79,5.95,0.84,0.19,-0.7211111111111111,0.10777777777777778,0.2203478180642841,-0.02617993877991494,-0.5966844380255614
1592271942.1863554,-7.8533621962411715,5.783674234866925,0.8320797254698535,0.19,-0.7211111111111111,0.10777777777777778,0.3197041295923076,0.07922414823242308,-0.5396625548877392
1592271942.1963553,-7.814944791406445,6.088682987759181,0.49966874843867093,0.19,-0.7211111111111111,0.10777777777777778,0.35179894967843783,0.11490887218740108,-0.5106765592509857
1592271942.2063553,-7.7592049860889,6.052273314785199,0.8340309330295529,0.19,-0.7211111111111111,0.10777777777777778,0.23875037496464904,-0.08384349023300613,-0.48633099010436
1592271942.2163553,-7.83288950833284,5.894943360417532,0.8032955736116878,0.19,-0.7211111111111111,0.10777777777777778,0.2656358307979063,-0.0838240151804272,-0.4429658873947353
1592271942.2263553,-7.914961876431771,5.874961876431771,0.5711601189865627,0.19499576404797453,-0.7211111111111111,0.13975066768481478,0.2015488057965631,-0.15100936656076197,-0.300847676093151
1592271942.2363553,-7.827728149875372,5.722595079199164,0.5988498030071561,0.19555555555555557,-0.7211111111111111,0.14333333333333334,0.2316553311884794,-0.06265953215530709,-0.2951775642826492
1592271942.2463553,-8.166678266921872,5.847099356185836,0.3651696537323821,0.19555555555555557,-0.7211111111111111,0.14333333333333334,0.22542178508667757,-0.04225787722817399,-0.27121371109496323
1592271942.2563553,-8.478332513526807,6.075976389572061,0.2141957697983276,0.19555555555555557,-0.7211111111111111,0.14333333333333334,0.17564897440139687,-0.22314330669035717,-0.20797898815867252
1592271942.2663553,-8.05180271973992,5.553119375173453,0.4438791975577846,0.19555555555555557,-0.7211111111111111,0.14333333333333334,0.18468038039162343,-0.28142919543587896,-0.06930970472852896
1592271942.2763553,-8.36,5.93,0.08,0.18444444444444444,-0.7022222222222222,0.16666666666666666,0.32615840396644036,-0.3097959422289935,0.09272061651219875
1592271942.2863553,-8.227163608562691,5.871551987767584,0.15438837920489298,0.18444444444444444,-0.7022222222222222,0.16666666666666666,0.3331137011575875,-0.14286880964146242,-0.08521906996131524
1592271942.2963552,-8.255408347860408,5.725912245502089,0.30553432227082855,0.18444444444444444,-0.7022222222222222,0.16666666666666666,0.3280519567532388,-0.10200263460002497,-0.00424058089708379
1592271942.3063552,-8.148955738312864,5.6608584018673245,0.385522130843568,0.18444444444444444,-0.7022222222222222,0.16666666666666666,0.27970059174813944,-0.057452023473051284,0.09317626162952258
1592271942.3163552,-8.191737832651716,5.71521621150156,0.5239108018529646,0.18444444444444444,-0.7022222222222222,0.16666666666666666,0.2537844360514103,-0.03367365215654004,0.11790436057618546
1592271942.3263552,-8.0455141264655,5.834556025369979,0.40551412646550067,0.19811006470625922,-0.6868483994276806,0.18972740085847906,0.3485738968276324,-0.18684036030231221,0.3457218659704941
1592271942.3363552,-7.869197813121272,5.84274254473161,0.5398320079522863,0.20222222222222222,-0.6822222222222222,0.19666666666666666,0.3485479226421468,-0.16299375718634074,0.2353793795010986
1592271942.3463552,-7.565123668002737,5.706464219376284,0.3296355948773096,0.20222222222222222,-0.6822222222222222,0.19666666666666666,0.3164209076734954,-0.09433060233985,0.38788237435994144
1592271942.3563552,-7.635677865141768,5.59675482487491,0.4056778651417679,0.20222222222222222,-0.6822222222222222,0.19666666666666666,0.28730070871556707,-0.17609730701497886,0.3484454517622638
1592271942.3663552,-7.76911955988656,5.512352176045376,0.463088044011344,0.20222222222222222,-0.6822222222222222,0.19666666666666666,0.14193274585500662,-0.13290220586679402,0.2973151791640539
1592271942.3763552,-8.134388347695765,5.6457590233545645,0.30566691644810795,0.1888847952486019,-0.6822222222222222,0.19666666666666666,0.19903401042116137,-0.06138957778204249,0.3454983419330431
1592271942.3863552,-8.057170843196474,5.454943269937148,0.34957717737327565,0.18666666666666668,-0.6822222222222222,0.19666666666666666,0.18642744163977018,-0.05120342419250771,0.3365807306950972
1592271942.3963552,-8.252168611347589,5.5031982072211925,0.21680179277880715,0.18666666666666668,-0.6822222222222222,0.19666666666666666,0.2930415647496957,-0.20723750041119482,0.32615840396644036
1592271942.4063551,-8.135046728971963,5.523337783711615,0.09668891855807744,0.18666666666666668,-0.6822222222222222,0.19666666666666666,0.17511693473719142,-0.1429250473990049,0.5588068318958314
1592271942.4163551,-8.120909761838274,5.492120317548969,0.1496992061275781,0.18666666666666668,-0.6822222222222222,0.19666666666666666,0.14769192564571565,-0.04951474004935756,0.574999068461722
1592271942.4263551,-7.9148026407034475,5.546785387367896,0.11321461263210451,0.18089508998055223,-0.6640829812087198,0.2247000391420796,0.14187729252068687,-0.3371906787747309,0.5083533783203179
1592271942.436355,-7.965485709117221,5.555236975397974,0.16381512301013024,0.17888888888888888,-0.6577777777777778,0.23444444444444446,0.24027610065106203,-0.1286678122849897,0.5719132259019855
1592271942.446355,-8.046435308517532,5.6010094319245445,0.08798113615091079,0.17888888888888888,-0.6577777777777778,0.23444444444444446,0.272800607483549,-0.021630791931059032,0.46353090504719763
1592271942.456355,-8.179465817520146,5.731501429685469,0.32078918637899667,0.17888888888888888,-0.6577777777777778,0.23444444444444446,0.19603300994151157,-0.21686742420139926,0.49660569009757155
1592271942.466355,-8.403347368421054,5.7254736842105265,0.4452421052631579,0.17888888888888888,-0.6577777777777778,0.23444444444444446,0.15863665009113725,-0.3324484787311936,0.6672875992404478
1592271942.476355,-8.142305930778596,5.7795388138442805,0.3541019769261986,0.18575691988585488,-0.6577777777777778,0.24131247544141046,-0.03236037515060236,-0.3697413276607866,0.7113725930042252
1592271942.486355,-8.010676125980867,5.690035472428249,0.3639858110287004,0.18777777777777777,-0.6577777777777778,0.24333333333333335,0.07935908267074587,-0.22323195917543806,0.7630536620995777
1592271942.496355,-7.969130730228425,5.7734770790863,0.22565365114212535,0.18777777777777777,-0.6577777777777778,0.24333333333333335,0.09164210183701604,-0.06048286350438205,0.8129295098599699
1592271942.506355,-7.723972992181947,5.91227837005449,0.11705946458185264,0.18777777777777777,-0.6577777777777778,0.24333333333333335,0.032821627781648044,-0.019779416157292406,0.8754633396018086
1592271942.516355,-7.646633665375018,5.919950498062527,0.4141088636870829,0.18777777777777777,-0.6577777777777778,0.24333333333333335,0.028015989496472094,-0.15669620093459638,0.8930340003687238
1592271942.526355,-7.433232398791179,6.086135363992699,0.46278716974357437,0.15629464508343058,-0.6586286732560034,0.25950034741961975,-0.040207269985572586,-0.17902154976785578,0.9821945332888012
1592271942.536355,-7.359408699866715,6.132939133244476,0.41587826648895354,0.14666666666666667,-0.6588888888888889,0.2644444444444444,-0.057556028117479605,-0.11503618844516728,0.9127408387088389
1592271942.546355,-7.50314399846781,6.077440696051875,0.5247711291690607,0.14666666666666667,-0.6588888888888889,0.2644444444444444,-0.011947386149750855,-0.18493827315281058,0.7734507772476974
1592271942.556355,-7.405344357883669,6.254593031592028,0.38540696840797206,0.14666666666666667,-0.6588888888888889,0.2644444444444444,-0.09551380126522836,-0.20598821924113134,0.9405239665876277
1592271942.566355,-7.399862709308785,6.157946194746448,0.40102690262677565,0.14666666666666667,-0.6588888888888889,0.2644444444444444,-0.106281423821845,-0.21537168713259267,1.0724729513806626
1592271942.576355,-7.299399263721552,6.229012717536814,0.5037767737617136,0.14666666666666667,-0.6477920943031386,0.25505484902573256,0.01622190957839026,-0.14971542968600957,1.066902781361062
1592271942.586355,-7.228325678992794,6.379547866022646,0.44760155198352997,0.14666666666666667,-0.6444444444444445,0.25222222222222224,-0.07579097286539543,-0.0765800955218914,1.0563931277216871
1592271942.596355,-7.139902502354708,6.428432146221012,0.4315678537789884,0.14666666666666667,-0.6444444444444445,0.25222222222222224,-0.1308686486938921,-0.06741708000111182,0.9300630182577975
1592271942.606355,-7.077640626898312,6.452134613048233,0.48280889320860165,0.14666666666666667,-0.6444444444444445,0.25222222222222224,-0.13501770931744767,-0.14413650334626965,0.8919563348231209
1592271942.616355,-6.906058668672434,6.694306130124106,0.4292704024069199,0.14666666666666667,-0.6444444444444445,0.25222222222222224,-0.207878953527542,-0.3539756145225656,0.9240637191671462
1592271942.626355,-6.772438067206279,6.597314201618837,0.5121486387049301,0.12865015125500776,-0.6361868748807675,0.26648529692311884,-0.2243550225355741,-0.28206550936407315,0.9191286126756869
1592271942.636355,-6.77806702977776,6.57613405955552,0.45295869280006357,0.12,-0.6322222222222222,0.2733333333333333,-0.2431993200086001,-0.22890663085992696,0.8776798975688184
1592271942.646355,-6.580616181229773,6.822866019417476,0.25047766990291265,0.12,-0.6322222222222222,0.2733333333333333,-0.2020944417626418,-0.23068296315188258,0.7597510019045701
1592271942.656355,-6.717497289091304,6.901458107424276,0.6176351237379214,0.12,-0.6322222222222222,0.2733333333333333,-0.18825911397442485,-0.2465653454130554,0.7684596239851371
1592271942.666355,-6.366145215960673,6.94583064084521,0.5569597018771433,0.12,-0.6322222222222222,0.2733333333333333,-0.14573543796391586,-0.24766477317153113,0.8042739317779258
1592271942.676355,-6.417082577720207,7.1660453367875645,0.5390275259067357,0.0826580310880829,-0.6361120106505469,0.25933009499136445,-0.18403922580527504,-0.3243232436691128,0.7237441461669989
1592271942.6863549,-6.4264960519459695,7.27283017355405,0.6063072668243216,0.06666666666666667,-0.6377777777777778,0.25333333333333335,-0.22412014517491022,-0.3126568316670908,0.6608023687411434
1592271942.6963549,-6.228733630172865,7.524049502357255,0.6070887899423782,0.06666666666666667,-0.6377777777777778,0.25333333333333335,-0.23466675775568435,-0.15745276651970452,0.8335039723299709
1592271942.7063549,-6.011934724171563,7.69186121749887,0.6312408116659134,0.06666666666666667,-0.6377777777777778,0.25333333333333335,-0.19008595037864748,-0.2483416389606033,1.0518101952143306
1592271942.7163548,-6.00940062780092,7.3504266282352475,1.0195733717647524,0.06666666666666667,-0.6377777777777778,0.25333333333333335,-0.15994689408637855,-0.1878903207370429,1.1305683526265815
1592271942.7263548,-6.1,7.21717050241133,1.2018863317257797,0.06666666666666667,-0.6391404676149197,0.24515719431048166,-0.22344570823170476,-0.08296480293988459,1.110619895256777
1592271942.7363548,-6.039714641694466,7.292188416864273,1.1906945058478355,0.06666666666666667,-0.64,0.24,-0.2543400360449791,-0.08469868525555688,1.046727434300946
1592271942.7463548,-5.481172325432415,7.4065150544522735,1.2000320307495196,0.06666666666666667,-0.64,0.24,-0.17226600972318792,-0.30386590377911205,0.9483798824247694
1592271942.7563548,-5.380936438622029,7.596638767588549,0.9795317806889859,0.06666666666666667,-0.64,0.24,-0.22332841658521024,-0.3842600509786465,1.0335737222000034
1592271942.7663548,-5.427231965770062,7.664463931540124,1.0019564103135516,0.06666666666666667,-0.64,0.24,-0.4044041994403127,-0.2771833276751689,1.1149869971702928
1592271942.7763548,-4.862964094477842,7.018528629151473,1.0005847376893007,0.04494625304322752,-0.6318548448912104,0.22642474148535052,-0.5718898876652809,-0.47224157653539856,1.308783545963003
1592271942.7863548,-4.491065442115234,6.9790445204069025,1.123989539145834,0.03111111111111111,-0.6266666666666667,0.21777777777777776,-0.5115797800160071,-0.48922531888491794,1.317276398994487
1592271942.7963548,-4.961176678802589,7.571428499190938,1.5286554409385114,0.03111111111111111,-0.6266666666666667,0.21777777777777776,-0.22351037787994116,-0.12946053198886906,1.3365702574478224
1592271942.8063548,-5.308442738840638,7.515136336093719,1.473470006059382,0.03111111111111111,-0.6266666666666667,0.21777777777777776,-0.25661975926638647,-0.12526972036187892,1.449263985258202
1592271942.8163548,-5.083775065773474,7.856795118392253,1.5880122040193672,0.03111111111111111,-0.6266666666666667,0.21777777777777776,0.04138614062843582,-0.21988048108514996,1.5817970746364274
1592271942.8263547,-4.98737397562672,8.132977713266202,1.9685345792131603,0.018086492552608857,-0.6337710040622134,0.22073791835925555,-0.03869508530810509,-0.32242617867826173,1.5748815077023173
1592271942.8363547,-4.83346956872229,8.41732688432084,2.0079363160016124,0.006666666666666667,-0.64,0.22333333333333333,0.10108919240164839,-0.26614987245317845,1.556357174277503
1592271942.8463547,-4.557788422940027,8.375918591270372,1.4140814087296278,0.006666666666666667,-0.64,0.22333333333333333,0.037363209410037374,-0.28543223509635557,1.5607074484147543
1592271942.8563547,-4.297279083040046,8.626484114905354,1.3167844573385332,0.006666666666666667,-0.64,0.22333333333333333,-0.12952557188299563,-0.26561343047114605,1.6981016902056703
1592271942.8663547,-3.889449757015206,8.383074149553222,1.5563144693525632,0.006666666666666667,-0.64,0.22333333333333333,-0.1331899426329146,-0.16988282934296234,1.6788037935659557
1592271942.8763547,-3.982319159256265,8.43463831851253,1.228404850444624,-0.011803574957334053,-0.6370209287703225,0.22333333333333333,0.0255635356134113,-0.05248622698142737,1.4697756961428328
1592271942.8863547,-4.058124646350335,8.725809554603508,0.9535235631719343,-0.027777777777777776,-0.6344444444444445,0.22333333333333333,0.09576376193015347,0.003449109763813061,1.3627265494288532
1592271942.8963547,-3.582047087916334,8.603149583988047,1.5697109811699852,-0.027777777777777776,-0.6344444444444445,0.22333333333333333,-0.0583753649398151,-0.08641908144241127,1.2684957894042876
1592271942.9063547,-3.6031070140663437,8.970992047381367,1.1756919733479807,-0.027777777777777776,-0.6344444444444445,0.22333333333333333,-0.1092596775349737,-0.1002225822879457,1.3341002447524966
1592271942.9163547,-3.68,9.217420330593663,1.0396354914601729,-0.027777777777777776,-0.6344444444444445,0.22333333333333333,-0.07710669486287218,-0.0764830058887863,1.4228067617708486
1592271942.9263546,-3.603630033303058,8.874554950045413,1.3059930366333634,-0.05026449019409964,-0.6255346149964679,0.21527205907087832,-0.14648886460546978,-0.1949244098974493,1.2469558969594423
1592271942.9363546,-3.4828275385678102,9.06201967040558,1.1687881977566528,-0.08666666666666667,-0.6111111111111112,0.20222222222222222,-0.1452031008541671,-0.25089107997418486,1.198172822910889
1592271942.9463546,-3.3412921256496584,8.884595495701632,1.1608707874350341,-0.08666666666666667,-0.6111111111111112,0.20222222222222222,0.03609547043134148,-0.19625148624040362,1.1886059893036869
1592271942.9563546,-3.0520513315322266,8.595436510999614,1.19533346198379,-0.08666666666666667,-0.6111111111111112,0.20222222222222222,0.10112253958323195,-0.12813645238748006,1.1562133945269208
1592271942.9663546,-3.0829084438046106,9.121633775218443,1.32,-0.08666666666666667,-0.6111111111111112,0.20222222222222222,-0.10513808904100587,-0.27340411909171464,1.0694313011659087
1592271942.9763546,-2.9036493842412074,8.923793769061499,1.3478763077635796,-0.09673311113684815,-0.6161443333462019,0.20454524786918718,-0.04348032211670398,-0.2142796691393014,1.1078207572435919
1592271942.9863546,-2.63,8.8,1.4,-0.11555555555555555,-0.6255555555555555,0.2088888888888889,-0.1308996938995747,-0.26616271092913524,1.119192382841364
1592271942.9963546,-2.492054794520548,8.876550435865504,1.2134620174346202,-0.11555555555555555,-0.6255555555555555,0.2088888888888889,0.02982464486887882,-0.1330460359124569,1.1693420715056497
1592271943.0063546,-2.3207149334224217,9.036796401469957,1.3257103994654702,-0.11555555555555555,-0.6255555555555555,0.2088888888888889,0.006157027314595803,-0.1438326998566478,1.2177136441872927
1592271943.0163546,-2.3260141860199064,9.18693398924608,1.257429355908935,-0.11555555555555555,-0.6255555555555555,0.2088888888888889,0.03901769800954461,-0.1263897369554448,1.1613720050627965
1592271943.0263546,-2.324458225481737,9.188408829450676,1.027873885533506,-0.12681146742082894,-0.615586033617742,0.21532083852618797,0.26312959272229725,-0.10210565930680274,1.2303164550540173
1592271943.0363545,-2.63,9.43,1.44,-0.15444444444444444,-0.5911111111111111,0.2311111111111111,0.07090400086226964,-0.13853550937704992,1.1737339219661866
1592271943.0463545,-2.241412403412518,9.141003648062505,1.0309671674374514,-0.15444444444444444,-0.5911111111111111,0.2311111111111111,0.08748144522111388,-0.06871397311743224,1.2369212969471648
1592271943.0563545,-2.112609873141065,8.83408276714021,1.0645735734308928,-0.15444444444444444,-0.5911111111111111,0.2311111111111111,0.09994771380889916,-0.14010834359363278,1.0646564930041018
1592271943.0663545,-2.128386497028909,9.134280923043272,1.1943051656884547,-0.15444444444444444,-0.5911111111111111,0.2311111111111111,0.18380061255200988,-0.07683387963534777,0.9863889742892039
1592271943.0763545,-2.273543460249991,9.901696624761357,0.8417466950037823,-0.16938995153072456,-0.5935441006367846,0.22833055165319852,0.21928590740195325,-0.08343328928124472,0.9258303375574786
1592271943.0863545,-1.822592197500762,9.49685385553185,0.5766641267906126,-0.20222222222222222,-0.5988888888888889,0.2222222222222222,0.13592920178433873,-0.19778406145855942,0.9029648530695145
1592271943.0963545,-2.037524088368379,9.368509981368113,1.339406973649188,-0.20222222222222222,-0.5988888888888889,0.2222222222222222,0.2051416892186047,-0.09471872119119372,1.0635875087219344
1592271943.1063545,-1.929491008693581,9.904595450756222,1.1897911158747172,-0.20222222222222222,-0.5988888888888889,0.2222222222222222,0.15849653054118892,-0.11343356654798789,0.9225851320829488
1592271943.1163545,-1.7750853194189817,9.71254265970949,1.1168354251868566,-0.20222222222222222,-0.5988888888888889,0.2222222222222222,0.23239018378356027,-0.1344063202833015,0.8335177843377981
1592271943.1263545,-1.815412548839347,9.655925074695473,1.0752999310503333,-0.20953471743405092,-0.5945013917617917,0.22831596823207945,0.22610946541614396,-0.11393114541961231,0.765781636355149
1592271943.1363544,-1.55,9.25,1.45,-0.23555555555555555,-0.5788888888888889,0.25,0.14180800172453928,-0.08072147790473774,0.6610434541928523
1592271943.1463544,-1.396481221579745,9.812746870263291,0.8501077864480997,-0.23555555555555555,-0.5788888888888889,0.25,0.25097528209207254,-0.13602879701805873,0.598202341949984
1592271943.1563544,-1.35247534064874,9.772163993729652,0.9052620282165682,-0.23555555555555555,-0.5788888888888889,0.25,0.19744944763861028,-0.09248456141485543,0.4656166143893188
1592271943.1663544,-1.39,9.74,1.05,-0.23555555555555555,-0.5788888888888889,0.25,0.12435470920459597,-0.09599310885968812,0.48432886742842646
1592271943.1763544,-1.2605252035065748,9.763995773324984,0.9975798371947401,-0.23323949419049606,-0.5803627461211994,0.24873669380087665,0.2513517117894297,-0.12627237196092583,0.49333189277754497
1592271943.1863544,-1.22,9.61,1.03,-0.22333333333333333,-0.5866666666666667,0.24333333333333335,0.2999784651865254,-0.12980886311707826,0.5225079448158023
1592271943.1963544,-1.0158670724417151,9.579300038041412,0.796500190207054,-0.22333333333333333,-0.5866666666666667,0.24333333333333335,0.23746308998090176,-0.018216832570948912,0.38864502785803146
1592271943.2063544,-0.81,9.56,0.7,-0.22333333333333333,-0.5866666666666667,0.24333333333333335,0.1679879405044542,-0.039269908169872414,0.2868884957965679
1592271943.2163544,-0.9583048208481734,9.70537436017205,0.7116951791518266,-0.22333333333333333,-0.5866666666666667,0.24333333333333335,0.26755454400497425,0.004168472019229853,0.3858846003813945
1592271943.2263544,-0.982764691118999,9.862764691118999,0.6757678104047901,-0.22890781175926922,-0.5828441671745963,0.24428895820635094,0.2667175715046355,-0.10719185121159035,0.41455285231776057
1592271943.2363544,-0.82,9.7,0.77,-0.26222222222222225,-0.56,0.25,0.1461713248545251,-0.06981317007977318,0.4799655442984406
1592271943.2463543,-0.7965486952948428,9.717241884117527,0.6906931888226834,-0.26222222222222225,-0.56,0.25,0.21673745281673035,0.005718008553676846,0.38886506476284416
1592271943.2563543,-0.8239017192111303,9.703560687684453,0.6593179369466435,-0.26222222222222225,-0.56,0.25,0.18478040838022064,-0.056619212277280916,0.38773615167307085
1592271943.2663543,-0.7829793441264925,9.682979344126492,0.6953195627509949,-0.26222222222222225,-0.56,0.25,0.13693412209187766,-0.13628731241865327,0.4551327753469404
1592271943.2763543,-0.7603192926218733,9.660319292621873,0.6802128617479155,-0.26222222222222225,-0.56,0.25,0.13528623664426476,-0.02340715925716841,0.41723141005184333
1592271943.2863543,-0.696534630167072,9.754631474364002,0.6069636834261511,-0.2577777777777778,-0.5722222222222222,0.2577777777777778,0.19025578197104548,-0.03920990064074928,0.3585725089753721
1592271943.2963543,-0.54,9.83,0.52,-0.2577777777777778,-0.5722222222222222,0.2577777777777778,0.2781618495365963,0.0,0.29343348049154666
1592271943.3063543,-0.3451327063740857,9.910385579937305,0.5160240334378265,-0.2577777777777778,-0.5722222222222222,0.2577777777777778,0.05009683112767894,-0.010371897201931289,0.314524699370336
1592271943.3163543,-0.2244185341136169,9.907054310590922,0.55,-0.2577777777777778,-0.5722222222222222,0.2577777777777778,0.0184314357804826,-0.07594088008204702,0.2663684483720729
1592271943.3263543,-0.1620764157380032,9.936849366992647,0.5548449700553408,-0.2590851506498539,-0.5708379450635533,0.25677802205207256,0.07338766485449909,0.026112294205577737,0.2371813936648105
1592271943.3363543,-0.19,9.76,0.62,-0.27666666666666667,-0.5522222222222222,0.24333333333333335,0.07744898555724837,0.0545415391248228,0.17016960206944715
1592271943.3463542,-0.38311339617252216,9.74924535846901,0.6215092830619823,-0.27666666666666667,-0.5522222222222222,0.24333333333333335,-0.016856373464500078,0.0433143011687633,0.2874030962308356
1592271943.3563542,-0.46,9.78,0.56,-0.27666666666666667,-0.5522222222222222,0.24333333333333335,0.0032724923474893677,0.07853981633974483,0.3108867730114899
1592271943.3663542,-0.53,9.68510469195352,0.6248953080464811,-0.27666666666666667,-0.5522222222222222,0.24333333333333335,-0.026020057092105496,0.06265699966572633,0.2507768787686067
1592271943.3763542,-0.53,9.662114667836,0.6478853321639991,-0.27666666666666667,-0.5522222222222222,0.24333333333333335,-0.06112957348892,-0.04267154952471719,0.27585510476633135
1592271943.3863542,-0.5088940640687264,9.748329451948456,0.6294353878797289,-0.28444444444444444,-0.5666666666666667,0.27111111111111114,-0.09733029815456953,0.1317028994252881,0.21004016435750836
1592271943.3963542,0.6621817746377678,9.97492084780266,0.6094534786253144,-0.28444444444444444,-0.5666666666666667,0.27111111111111114,-0.07673312050870407,0.195326137542608,0.09999920482837932
1592271943.4063542,2.92,10.38,0.47,-0.28444444444444444,-0.5666666666666667,0.27111111111111114,-0.07963064712224129,0.4908738521234052,-0.17671458676442586
1592271943.4163542,-2.18189010140029,9.272041332689522,1.0737172380492517,-0.28444444444444444,-0.5666666666666667,0.27111111111111114,-0.04076622672136794,0.04713362353289592,-0.04679136286536034
1592271943.4263542,-0.010818348623852891,9.498869724770643,1.0899192660550459,-0.28444444444444444,-0.5666666666666667,0.27111111111111114,-0.04253359381012695,0.27158924380529004,-0.10334710970564864
1592271943.4363542,-0.05,9.88,0.88,-0.27666666666666667,-0.5455555555555556,0.2644444444444444,0.13744467859455345,-0.032724923474893676,0.10362892433716332
1592271943.4463542,-0.29814680176347746,9.714396318354087,0.7950862402351304,-0.27666666666666667,-0.5455555555555556,0.2644444444444444,-0.044611173878550826,0.09384907669596317,0.007964861811432666
1592271943.4563541,-0.416115403583758,9.631403912543153,0.785538385664968,-0.27666666666666667,-0.5455555555555556,0.2644444444444444,0.02394179000524155,0.08968303922719012,-0.008772732650091916
1592271943.4663541,-0.43423243889933344,9.673651341651,0.7596270722953341,-0.27666666666666667,-0.5455555555555556,0.2644444444444444,0.13295457971134636,0.0539076603587165,0.008169392250591725
1592271943.4763541,-0.44856947530336694,9.65214578704495,0.8599863271235686,-0.27666666666666667,-0.5455555555555556,0.2644444444444444,0.12513493939170034,0.014809458760486414,-0.09348593190480652
1592271943.486354,-0.527068784081125,9.65471252272075,0.8905749545585,-0.28444444444444444,-0.5433333333333333,0.2577777777777778,0.12152739853874153,-0.0055538136654033655,-0.047370524212280087
1592271943.496354,-0.5386680439520524,9.66546721758082,0.8328033054849255,-0.28444444444444444,-0.5433333333333333,0.2577777777777778,0.10592772242597588,-0.06996071752351896,0.044086571935173804
1592271943.506354,-0.48685779652534494,9.65563237291771,0.74,-0.28444444444444444,-0.5433333333333333,0.2577777777777778,0.10263066638220839,-0.018690664450671024,-0.012801176483145117
1592271943.516354,-0.42311902510767935,9.68,0.7344952200861435,-0.28444444444444444,-0.5433333333333333,0.2577777777777778,0.17575359223327602,-0.0475560508551076,0.05582305615819373
1592271943.526354,-0.3864003571803761,9.68,0.7051202857443009,-0.28444444444444444,-0.5433333333333333,0.2577777777777778,0.13569973896590826,-0.021921584763992235,0.13833399388897133
1592271943.536354,-0.32644114528101803,9.73,0.574970661010958,-0.28444444444444444,-0.5433333333333333,0.27111111111111114,0.03972212674241106,-0.039096701670226816,0.06947315785495685
1592271943.546354,-0.3579566120470805,9.72403254096469,0.5259674590353104,-0.28444444444444444,-0.5433333333333333,0.27111111111111114,0.16749481349389478,-0.019129994845718257,-0.005335831625897156
1592271943.556354,-0.3950140975271551,9.69331453663046,0.5817559510053155,-0.28444444444444444,-0.5433333333333333,0.27111111111111114,0.20506388469607145,-0.05522775160227955,-0.06719613417658489
1592271943.566354,-0.42,9.655472667331136,0.7558456643410258,-0.28444444444444444,-0.5433333333333333,0.27111111111111114,0.17856794531349532,0.017206364828053333,0.0518470792049363
1592271943.576354,-0.42,9.623315188223568,0.8683968412175114,-0.28444444444444444,-0.5433333333333333,0.27111111111111114,0.1452434956203753,0.01545244642315228,-0.006032228156798422
1592271943.586354,-0.33676586541710785,9.582646826916578,0.9861785577507941,-0.28444444444444444,-0.5511111111111111,0.24333333333333335,0.25047508539250696,-0.08168503813321071,0.08299794730858423
1592271943.596354,-0.2955032989341905,9.610235154796143,0.8592945356115717,-0.28444444444444444,-0.5511111111111111,0.24333333333333335,0.23094517175822069,-0.016113144805091448,0.08432651585704161
1592271943.606354,-0.28,9.68,0.65,-0.28444444444444444,-0.5511111111111111,0.24333333333333335,0.2825251726665821,0.09381144729469522,-0.06872233929727672
1592271943.616354,-0.2631128893969706,9.726602076783843,0.42094636562827475,-0.28444444444444444,-0.5511111111111111,0.24333333333333335,0.16152505129563077,0.14660293927502815,0.020108842484892413
1592271943.626354,-0.28708716776221777,9.854464894731828,0.1971864342193007,-0.28444444444444444,-0.5511111111111111,0.24333333333333335,0.1789596385149311,0.19193286604520898,-0.018247249397568274
1592271943.636354,-0.3780615166213179,9.841938483378682,0.15007689577664735,-0.28888888888888886,-0.5511111111111111,0.2644444444444444,0.1491820332998055,0.10164194245021065,-0.08234952962033873
1592271943.646354,-0.41791196061395885,9.792198088618592,0.20186794092093832,-0.28888888888888886,-0.5511111111111111,0.2644444444444444,0.1038810190271234,0.0626932325831311,0.1595497183697126
1592271943.656354,-0.4377617886941033,9.724079403768632,0.2622382113058967,-0.28888888888888886,-0.5511111111111111,0.2644444444444444,0.029353901507179755,-0.02890512388563802,-0.007734345097699744
1592271943.666354,-0.392736408849254,9.741368204424628,0.31820922654776196,-0.28888888888888886,-0.5511111111111111,0.2644444444444444,0.11454594982881701,0.04216267691552482,0.0459663857078739
1592271943.676354,-0.4071226204767621,9.748561310238381,0.3613678614302864,-0.28888888888888886,-0.5511111111111111,0.2644444444444444,0.20634954637656377,0.06884064514307517,-0.02779034998005943
1592271943.686354,-0.4076314583986306,9.75,0.38159775297152637,-0.28444444444444444,-0.5433333333333333,0.2788888888888889,-0.022505429909021265,0.10689528886508229,0.057321807132914335
1592271943.696354,-0.2693443247239085,9.751588898098161,0.3772888152147129,-0.28444444444444444,-0.5433333333333333,0.2788888888888889,0.10442401073757705,0.13570180756653974,-0.049943023094106066
1592271943.706354,-0.19187464907355417,9.764112857944975,0.3038307130825379,-0.28444444444444444,-0.5433333333333333,0.2788888888888889,0.0977569044497466,0.1655511801068337,0.009553497218068342
1592271943.716354,-0.46535710331081825,9.799336729044404,0.25265308382238955,-0.28444444444444444,-0.5433333333333333,0.2788888888888889,0.10847648405302317,0.15322832723159913,0.055966226211473846
1592271943.726354,-0.4111731812645333,9.791596168752076,0.2836153249916953,-0.28444444444444444,-0.5433333333333333,0.2788888888888889,0.1650488817053074,0.14647341407908757,-0.041980014499943596
1592271943.7363539,-0.4840127479089164,9.74203824372675,0.3185986778191124,-0.27666666666666667,-0.5511111111111111,0.2644444444444444,-0.032940308469101266,0.043661042922775235,-0.05219316290572704
1592271943.7463539,-0.4990514164369945,9.816350472145665,0.1702679257217729,-0.27666666666666667,-0.5511111111111111,0.2644444444444444,-0.04385834175027402,0.0963754146645869,-0.1497811009168301
1592271943.7563539,-0.42,9.787785598920038,0.10073813369332016,-0.27666666666666667,-0.5511111111111111,0.2644444444444444,-0.1525936657009499,0.06328354216171458,-0.08565039849153036
1592271943.7663538,-0.41876928452869744,9.76492286188521,0.10815392679304621,-0.27666666666666667,-0.5511111111111111,0.2644444444444444,-0.028209949422634346,0.010471899276740504,0.05660577938377988
1592271943.7763538,-0.40411286800034946,9.823548527998602,0.08616930200052415,-0.27666666666666667,-0.5511111111111111,0.2644444444444444,-0.19528110416434852,0.031255870680015944,0.042216876104589185
1592271943.7863538,-0.3968633169192523,9.8,0.1479088779461682,-0.2966666666666667,-0.5577777777777778,0.2644444444444444,-0.09639644037337688,-0.0935425596189027,0.03133589646854511
1592271943.7963538,-0.3739844461726475,9.798007776913677,0.13099611154316188,-0.2966666666666667,-0.5577777777777778,0.2644444444444444,-0.24465510542576868,0.00022580112364708332,-0.03618080046187573
1592271943.8063538,-0.4086438898697332,9.780339027532566,0.14508541298850028,-0.2966666666666667,-0.5577777777777778,0.2644444444444444,-0.2757198814037136,-0.01345921849865766,-0.1167928580608483
1592271943.8163538,-0.37,9.788086999133023,0.2951924309246485,-0.2966666666666667,-0.5577777777777778,0.2644444444444444,0.03824963661021753,0.09737534594304598,-0.11544249547802525
1592271943.8263538,-0.37,9.7327511402616,0.4453897621470843,-0.2966666666666667,-0.5577777777777778,0.2644444444444444,-0.08592374032588702,0.011143834181862294,-0.01541394183505218
1592271943.8363538,-0.37,9.65,0.76,-0.2966666666666667,-0.5433333333333333,0.27111111111111114,-0.12217304763960307,0.05017821599483697,-0.09490227807719166
1592271943.8463538,-0.3800572777173769,9.590085916576065,0.8296276948370501,-0.2966666666666667,-0.5433333333333333,0.27111111111111114,-0.036016159911562796,0.12267968764266385,-0.13274083784446875
1592271943.8563538,-0.3969167377095766,9.62411101638723,0.6917779672255375,-0.2966666666666667,-0.5433333333333333,0.27111111111111114,-0.049044814190043605,-0.08027303558248382,-0.0067815018552642705
1592271943.8663538,-0.37,9.66,0.62,-0.2966666666666667,-0.5433333333333333,0.27111111111111114,-0.10581058590215622,-0.07635815477475191,0.05781403147231216
1592271943.8763537,-0.36335867499321206,9.679923975020364,0.6000760249796362,-0.2966666666666667,-0.5433333333333333,0.27111111111111114,-0.11015732295453688,0.007678761571274256,0.008551011545331305
1592271943.8863537,-0.3603758962340766,9.709749402510617,0.5598747012553078,-0.2966666666666667,-0.5577777777777778,0.28555555555555556,-0.0151102223209392,-0.04643840553385404,0.03111470972706722
1592271943.8963537,-0.3895725920597721,9.690284938626817,0.5501424693134094,-0.2966666666666667,-0.5577777777777778,0.28555555555555556,-0.08730050597634262,0.07458648177079288,-0.009226919374481758
1592271943.9063537,-0.39,9.729617523006135,0.4014342887269939,-0.2966666666666667,-0.5577777777777778,0.28555555555555556,0.05641635224932148,0.028820539791263006,-0.0054958756803327475
1592271943.9163537,-0.39994427619624473,9.77011144760751,0.3899442761962447,-0.2966666666666667,-0.5577777777777778,0.28555555555555556,0.01622873420844788,-0.04521919750840124,0.02062852848270615
1592271943.9263537,-0.392685818118889,9.784628363762222,0.38268581811888897,-0.2966666666666667,-0.5577777777777778,0.28555555555555556,-0.0011903147008793663,0.0323747476331474,0.007960129275922698
1592271943.9363537,-0.35943319347093206,9.789244257961242,0.4107557420387572,-0.2966666666666667,-0.5377777777777778,0.27111111111111114,-0.1319301772489535,-0.008232014252269828,0.09996040361337483
1592271943.9463537,-0.33094831241519673,9.748419479308005,0.45,-0.2966666666666667,-0.5377777777777778,0.27111111111111114,-0.1837171524011972,0.015522322221958982,-0.08922865367357363
1592271943.9563537,-0.35762508480325644,9.703958191994571,0.45,-0.2966666666666667,-0.5377777777777778,0.27111111111111114,-0.13521741157028552,-0.038797387508662115,-0.052368850642080744
1592271943.9663537,-0.4064445470899985,9.681422181164,0.5243112753439977,-0.2966666666666667,-0.5377777777777778,0.27111111111111114,-0.04679887876907955,0.03134821833455915,-0.1210290463480653
1592271943.9763536,-0.38143369634849456,9.665716848174247,0.6371236386931455,-0.2966666666666667,-0.5377777777777778,0.27111111111111114,-0.054383190466710245,0.12823418144809845,0.039395972150117364
1592271943.9863536,-0.38958808768524217,9.68010297807869,0.6798970219213106,-0.2966666666666667,-0.5577777777777778,0.2577777777777778,0.043713077158943486,0.032365462168791916,-0.042609799512255866
1592271943.9963536,-0.3499400973418195,9.69,0.6698502433545489,-0.2966666666666667,-0.5577777777777778,0.2577777777777778,-0.05325467735183652,-0.0022012646640418936,-0.048437215760549296
1592271944.0063536,-0.33146585328253353,9.69,0.6236646332063338,-0.2966666666666667,-0.5577777777777778,0.2577777777777778,0.007202144957827873,-0.008246946895008333,0.15207791156650424
1592271944.0163536,-0.3668595632979358,9.708429781648968,0.5831404367020642,-0.2966666666666667,-0.5577777777777778,0.2577777777777778,-0.07042633125580716,-0.05697570178968961,0.13180114885716573
