time,acc_x,acc_y,acc_z,mag_x,mag_y,mag_z,gyr_x,gyr_y,gyr_z
1592330934.3569875,-0.3445122024464954,9.735487797553505,-0.4436585317023364,-0.5066666666666667,-0.84,-0.48444444444444446,0.04739792857989691,-0.012291801590027934,-0.002873408447524599
1592330934.3669875,-0.3122453031044106,9.777193371119486,-0.5438254164628709,-0.51820282405143,-0.8525848989651965,-0.47815199496184624,0.05314455262453559,-0.025445165057217153,-0.0012132930696127542
1592330934.3769875,-0.31,9.808927305605787,-0.55,-0.5188888888888888,-0.8533333333333334,-0.4777777777777778,0.04924340228772976,-0.03775003043005553,-0.001090830782496456
1592330934.3869874,-0.2905101278932537,9.81,-0.6474493605337316,-0.5188888888888888,-0.8533333333333334,-0.4777777777777778,0.03314227088162207,-0.03711606976532806,0.0010351844615993369
1592330934.3969874,-0.2313639297239154,9.77090928648261,-0.5327278594478307,-0.5188888888888888,-0.8533333333333334,-0.4777777777777778,0.014602348188723083,-0.025361874360886764,0.002156864622859432
1592330934.4069874,-0.16954539588902204,9.747329523458383,-0.41664761729191635,-0.5188888888888888,-0.8533333333333334,-0.4777777777777778,0.003464616917421547,-0.017670211897780685,0.006303270509236136
1592330934.4169874,-0.15,9.682260087881126,-0.2645201757622514,-0.5017807667795927,-0.8597488791243194,-0.4841933235687638,0.005248706126492355,0.012021640902809865,0.0034368505762813065
1592330934.4269874,-0.4,9.7,-0.22,-0.5011111111111111,-0.86,-0.48444444444444446,0.0272707695624114,0.0370882466048795,0.004363323129985824
1592330934.4369874,-0.3304619076184763,9.7,-0.3513497300539892,-0.5011111111111111,-0.86,-0.48444444444444446,0.04665575522568375,0.0370882466048795,0.007734624984467972
1592330934.4469874,-0.41776371517027866,9.717960619195047,-0.39,-0.5011111111111111,-0.86,-0.48444444444444446,0.0611762758906239,0.0214146495723568,0.011665445703569654
1592330934.4569874,-0.340382625863771,9.764808687068115,-0.5169579466929912,-0.5011111111111111,-0.86,-0.48444444444444446,0.08009954283391972,0.002527410772933645,0.009555203848603507
1592330934.4669874,-0.272756283174522,9.78,-0.5879327876191085,-0.5124911356966738,-0.8537927138624204,-0.4978935644092004,0.08820696145561065,-0.02053879427380973,0.0077109814407763325
1592330934.4769874,-0.20581101636321736,9.789169854805253,-0.5808301451947453,-0.5133333333333333,-0.8533333333333334,-0.4988888888888889,0.07435342953258017,-0.02181661564992912,0.013637471413032093
1592330934.4869874,-0.2,9.78075006031363,-0.6077498190591073,-0.5133333333333333,-0.8533333333333334,-0.4988888888888889,0.059968507797297385,-0.014753532387640184,0.018216847750904746
1592330934.4969873,-0.28118983460323355,9.725873443597845,-0.5197890726630738,-0.5133333333333333,-0.8533333333333334,-0.4988888888888889,0.05595271656110851,0.0005799282960465956,0.014607929044172943
1592330934.5069873,-0.24631279309878998,9.698156396549395,-0.4080631838971766,-0.5133333333333333,-0.8533333333333334,-0.4988888888888889,0.05245534656804382,0.014095499087275786,0.01259228850281621
1592330934.5169873,-0.39459523340555447,9.699144179633642,-0.34256746109907427,-0.5072372135775721,-0.8594294530890946,-0.4602801304357341,0.05426147256484956,0.02153654908995588,0.011001663344955639
1592330934.5269873,-0.26544214249621023,9.654825669530066,-0.3038605356240526,-0.5066666666666667,-0.86,-0.45666666666666667,0.06439704917587719,0.0021055955478203464,0.006966103804542804
1592330934.5369873,-0.27628264351540194,9.746369692889807,-0.4401740987488103,-0.5066666666666667,-0.86,-0.45666666666666667,0.09316409965536927,-0.023891597159984415,0.007500648581378113
1592330934.5469873,-0.35717146872803934,9.699977746544858,-0.45142539236355117,-0.5066666666666667,-0.86,-0.45666666666666667,0.11672617615328643,-0.03381818173277869,0.009506504669008702
1592330934.5569873,-0.29913438735177866,9.767952173913043,-0.499605928853755,-0.5066666666666667,-0.86,-0.45666666666666667,0.13004069699523968,-0.0465019437944591,0.007498405291553602
1592330934.5669873,-0.20211629648115798,9.808485462939856,-0.6133400923384078,-0.5226947633308378,-0.8543430247067632,-0.4877800307794693,0.14065152917203297,-0.05589714886659692,0.006544984694978735
1592330934.5769873,-0.1543170174383644,9.792158508719181,-0.7013659651232712,-0.5255555555555556,-0.8533333333333334,-0.49333333333333335,0.14278110411927716,-0.047965279137174535,0.008491189484454553
1592330934.5869873,-0.15903032933121172,9.699696706687883,-0.7641819759872703,-0.5255555555555556,-0.8533333333333334,-0.49333333333333335,0.12812299069118616,-0.03311493795255467,0.011681814623141563
1592330934.5969872,-0.15383769139197898,9.788596937728336,-0.77,-0.5255555555555556,-0.8533333333333334,-0.49333333333333335,0.1332584066904611,-0.028273074731961115,0.009982527831199352
1592330934.6069872,-0.30236265693170683,9.842744635384204,-0.8352982815421601,-0.5255555555555556,-0.8533333333333334,-0.49333333333333335,0.12240736597837723,-0.033302876334945775,0.011892396284429797
1592330934.6169872,-0.2343314855581784,9.824291435694773,-0.8285828713895446,-0.5002473130637999,-0.8585695214350759,-0.4863517491976766,0.08844550766372453,-0.035140646547734675,0.008806123016715614
1592330934.6269872,-0.21738369107527986,9.84607553661292,-0.9590695286022388,-0.49333333333333335,-0.86,-0.48444444444444446,0.05417374643108387,-0.032062185239137966,0.007635815477475192
1592330934.6369872,-0.23782550855041965,9.85891275427521,-1.1226040684033571,-0.49333333333333335,-0.86,-0.48444444444444446,0.012261219785956463,-0.009272787235877947,0.0115247381655655
1592330934.6469872,-0.2808220393675379,9.877495159728944,-1.14,-0.49333333333333335,-0.86,-0.48444444444444446,-0.02735199228040464,0.004905570571236482,0.012635280566695193
1592330934.6569872,-0.302912462442262,9.911262612673214,-1.076212161980358,-0.49333333333333335,-0.86,-0.48444444444444446,-0.09178952867423983,0.01850188228801374,0.016182491045989622
1592330934.6669872,-0.2918014497678106,9.821617397213728,-0.9516173972137275,-0.519750884081499,-0.8818628006191717,-0.4835334944186456,-0.16344027945086612,0.025197400349990483,0.017453292519943295
1592330934.6769872,-0.0877902695757456,9.808791727409751,-0.613497813248993,-0.5255555555555556,-0.8866666666666667,-0.48333333333333334,-0.21686198960838476,0.012753537134092266,0.01649426383095596
1592330934.6869872,-0.12885574912891987,9.74114425087108,-0.3978606271777003,-0.5255555555555556,-0.8866666666666667,-0.48333333333333334,-0.23004047669944494,0.01184718245873555,0.016362461737446838
1592330934.6969872,-0.31817310642717206,9.662124530884887,-0.21728019449099537,-0.5255555555555556,-0.8866666666666667,-0.48333333333333334,-0.2173735038104075,0.0342113339336069,-0.0012221928957519834
1592330934.7069871,-0.41501891397193413,9.722243237746593,-0.45729997966239583,-0.5255555555555556,-0.8866666666666667,-0.48333333333333334,-0.18967601693221972,0.030298562631256555,-0.008303580508045525
1592330934.7169871,-0.2042447153217096,9.793658386051536,-0.551268322789693,-0.5090623874916422,-0.8692033122460526,-0.4658699789127192,-0.1580800798591161,-0.004161011974213456,-0.0012451729870249627
1592330934.7269871,-0.12009873856446218,9.819960504574215,-0.49011848627735466,-0.5066666666666667,-0.8666666666666667,-0.4633333333333333,-0.15653098607627539,-0.01634738274827196,0.003266029923557277
1592330934.736987,-0.061977382699940194,9.767796444299462,-0.4861583211004186,-0.5066666666666667,-0.8666666666666667,-0.4633333333333333,-0.16429638599695182,0.006631335459906417,0.010045511857816273
1592330934.746987,-0.010754261363636365,9.61047040719697,-0.5246228693181818,-0.5066666666666667,-0.8666666666666667,-0.4633333333333333,-0.1541672126236752,0.059841752642076355,0.01090830782496456
1592330934.756987,-0.11155212981744422,9.817048275862069,-0.6136640973630831,-0.5066666666666667,-0.8666666666666667,-0.4633333333333333,-0.11588065775624663,0.12000802511616061,0.008626723505128768
1592330934.766987,-0.3683514667401185,9.927441123812146,-0.6797644952485883,-0.5066666666666667,-0.8617059174585686,-0.4914442455125556,-0.1011681326807397,0.18645153973315506,0.0027656113310807404
1592330934.776987,-0.2814273100525363,9.8867529027416,-0.718831398172266,-0.5066666666666667,-0.86,-0.5011111111111111,-0.13840122031091634,0.18686486086320236,-0.00048167804893954136
1592330934.786987,-0.26251257739938083,9.855829140866872,-0.7370854295665634,-0.5066666666666667,-0.86,-0.5011111111111111,-0.17667622405259947,0.15789089585915783,-0.002636631718180046
1592330934.796987,-0.30115669529112016,9.864104463527413,-0.7188433047088798,-0.5066666666666667,-0.86,-0.5011111111111111,-0.22038034637675638,0.134505961731847,-0.00019537575022914684
1592330934.806987,-0.2754170010373647,9.893055332641756,-0.6869446673582431,-0.5066666666666667,-0.86,-0.5011111111111111,-0.2584206114557456,0.11740077238873613,-0.0033103258631101955
1592330934.816987,-0.2567551828558118,9.842448171441882,-0.6497344514325647,-0.5246804876154981,-0.8645034552372078,-0.48534901778088363,-0.3084027381338553,0.10024056456903141,-0.0021237278546716466
1592330934.826987,-0.19892909651410956,9.718393644771163,-0.6858031776144178,-0.5333333333333333,-0.8666666666666667,-0.4777777777777778,-0.35645302785212113,0.09516038359172213,-0.0016654505359319852
1592330934.836987,-0.158722153190734,9.604888612762936,-0.7354630780154433,-0.5333333333333333,-0.8666666666666667,-0.4777777777777778,-0.3781244080612049,0.08948648767740702,-0.005276398936298424
1592330934.846987,-0.3636449446794275,9.73540253781633,-0.6741905035008483,-0.5333333333333333,-0.8666666666666667,-0.4777777777777778,-0.3633354351830048,0.07974870511000448,-0.009552087690863534
1592330934.856987,-0.563829040746352,9.850377960290249,-0.622695159875608,-0.5333333333333333,-0.8666666666666667,-0.4777777777777778,-0.34445245642128597,0.06629060688468974,-0.014683638283737876
1592330934.866987,-0.5499295611339787,9.79593425705838,-0.5619624326047887,-0.5173208108682629,-0.8666666666666667,-0.48711841588240223,-0.3475468832375938,0.03466946578549674,-0.009593163935301605
1592330934.876987,-0.27578720062819007,9.733089909697684,-0.53,-0.5066666666666667,-0.8666666666666667,-0.49333333333333335,-0.3688417088133826,-0.019898346676705078,0.006943285687409714
1592330934.886987,-0.07410797577631749,9.578725679680453,-0.31065223553665766,-0.5066666666666667,-0.8666666666666667,-0.49333333333333335,-0.37194549547466504,-0.061015375959719106,0.010348991755403112
1592330934.896987,-0.1243292668538663,9.438004436159419,-0.056008872318837166,-0.5066666666666667,-0.8666666666666667,-0.49333333333333335,-0.3483033576484496,-0.07373991894179793,-0.002726472068834909
1592330934.906987,-0.26841243607940735,9.335213198265636,0.11841243607940737,-0.5066666666666667,-0.8666666666666667,-0.49333333333333335,-0.2850040443141152,-0.07662698641652717,-0.014702959240608937
1592330934.916987,-0.3695227815392667,9.230954436921467,0.24904556307853337,-0.5156875165814425,-0.8510851986320537,-0.5039943377780686,-0.13898093283855795,-0.08791540219583219,-0.010778755390749906
1592330934.926987,-0.22250575259858763,9.374341823375387,0.15016742045544712,-0.5188888888888888,-0.8455555555555555,-0.5077777777777778,-0.03913575061112691,-0.1024606283836493,-0.0009132234853701593
1592330934.936987,0.24118490482636679,9.619919606597232,-0.3813456916319032,-0.5188888888888888,-0.8455555555555555,-0.5077777777777778,0.18261788679350144,-0.11714821039224343,0.011234680103729005
1592330934.946987,-0.35428723934239553,9.619523877304108,-0.5026190306739734,-0.5188888888888888,-0.8455555555555555,-0.5077777777777778,0.28756390877839977,-0.07347515058011891,-0.010830441247863717
1592330934.956987,0.10563170339544126,9.29679825971815,-0.38893275323938337,-0.5188888888888888,-0.8455555555555555,-0.5077777777777778,0.33293622578521914,-0.04742696598909816,0.0018610256143788452
1592330934.966987,0.6623626716604244,8.651178041337218,-0.5317339436815092,-0.5065703364621383,-0.8455555555555555,-0.5016185015644025,0.3985315234397875,-0.023396913053826657,-0.0002663902888868086
1592330934.976987,0.17367171656924718,9.642745636009385,-0.00560300608374098,-0.5011111111111111,-0.8455555555555555,-0.4988888888888889,0.4601379630909521,0.012890402312528297,-0.04867714712967912
1592330934.9869869,-2.8492240717029453,10.698407170294495,0.31782586427656856,-0.5011111111111111,-0.8455555555555555,-0.4988888888888889,0.6208681983748182,0.09123758946372917,-0.09291671464518532
1592330934.9969869,-0.17880644547960767,10.55678130050385,-1.2328253636277213,-0.5011111111111111,-0.8455555555555555,-0.4988888888888889,0.48908620249472706,-0.03425635386639592,0.10389691363744535
1592330935.0069869,-1.0111834271760407,10.588156243062704,-1.15625436419043,-0.5011111111111111,-0.8455555555555555,-0.4988888888888889,0.3327944398231798,-0.06859426007601854,0.05175600318404211
1592330935.0169868,-1.2495276241337658,9.944240574734566,-0.5190902155254625,-0.5096633253509087,-0.8494429256645545,-0.5089960511722861,0.06335168467032598,-0.030987944151452507,-0.003176232373803496
1592330935.0269868,-0.7259040152055121,9.783422428130198,-0.5709408410548824,-0.5133333333333333,-0.8511111111111112,-0.5133333333333333,-0.08050105700178853,-0.05962534445374902,0.018835944509636472
1592330935.0369868,-0.9542840372382538,9.758247563406044,-0.6423140134865817,-0.5133333333333333,-0.8511111111111112,-0.5133333333333333,-0.31532002080983423,-0.11888932803488578,0.016638616528625676
1592330935.0469868,0.1788451443569552,9.613868766404199,-0.5532125984251968,-0.5133333333333333,-0.8511111111111112,-0.5133333333333333,-0.426523425174874,-0.12011106252266357,0.024786767497073012
1592330935.0569868,0.16922899585028972,9.62583264839725,-0.7416488583284886,-0.5133333333333333,-0.8511111111111112,-0.5133333333333333,-0.43442537643249696,-0.12217394421884013,0.012819727287235277
1592330935.0669868,0.15904497589444308,9.515931552905355,-0.4406955721897995,-0.5051323338690124,-0.8429101116467902,-0.5088600608982492,-0.3965337006550444,-0.06767908185675986,0.0029419008692239015
1592330935.0769868,0.15473957718200074,9.488069761033032,-0.242806976103303,-0.5011111111111111,-0.8388888888888889,-0.5066666666666667,-0.34753539776209535,-0.04271465051809377,0.0036169923489533483
1592330935.0869868,-0.5677105248664427,9.39051385140717,-0.19133171779478989,-0.5011111111111111,-0.8388888888888889,-0.5066666666666667,-0.16812293509432422,0.0008818805450385853,-0.010334866187087781
1592330935.0969868,-0.5875385150005792,9.409718521950655,-0.19840148268272906,-0.5011111111111111,-0.8388888888888889,-0.5066666666666667,-0.08896064296942718,0.021112181315118772,-0.012877944131874644
1592330935.1069868,-0.5138684719535783,9.903516792685071,-0.36614295762264815,-0.5011111111111111,-0.8388888888888889,-0.5066666666666667,0.05385475881592028,-0.005837776484135686,-0.00932001447267655
1592330935.1169868,-0.35799909597709806,9.763427753503088,-0.47133343378032244,-0.5155450086216998,-0.8500423551470712,-0.5106031841695545,0.104324972003861,-0.043373548817359456,-0.017796139139242315
1592330935.1269867,-0.19575946334451366,9.580159718894745,-0.4908800511100463,-0.5255555555555556,-0.8577777777777778,-0.5133333333333333,0.10253809355466686,-0.0545415391248228,-0.02181661564992912
1592330935.1369867,-0.51367125524965,9.975761199253384,-0.7426271581894541,-0.5255555555555556,-0.8577777777777778,-0.5133333333333333,0.1471579973314367,-0.053913089775854205,-0.013018324764368868
1592330935.1469867,-0.39624113982959835,9.777217488842748,-0.7314278895491754,-0.5255555555555556,-0.8577777777777778,-0.5133333333333333,0.17142444406718255,-0.03917964993443853,-0.006544984694978735
1592330935.1569867,-0.5273041039209055,9.806520519604527,-0.856658576856512,-0.5255555555555556,-0.8577777777777778,-0.5133333333333333,0.14426115036744924,-0.041760706087835234,-0.004162252131346262
1592330935.1669867,-0.6558713628343078,9.933233920354288,-1.0236812787599903,-0.5255555555555556,-0.8496903820057126,-0.5133333333333333,0.1030697900589678,-0.040794836992720185,-0.009399645412775052
1592330935.1769867,-0.5721157862170314,9.902149431510557,-0.9891855518601593,-0.5255555555555556,-0.8455555555555555,-0.5133333333333333,0.07422960466289394,-0.03363806923705309,-0.009550949511962548
1592330935.1869867,-0.25354750547892224,9.877346396802889,-0.9718994456619827,-0.5255555555555556,-0.8455555555555555,-0.5133333333333333,-0.005828948575562019,-0.030515839968095065,0.0
1592330935.1969867,-0.3693194715787515,10.094740440971252,-0.9738985021862498,-0.5255555555555556,-0.8455555555555555,-0.5133333333333333,-0.06962695047926326,-0.04537075658058323,-0.0046589911442014185
1592330935.2069867,-0.517410197841064,10.093312640459787,-0.9143370298051062,-0.5255555555555556,-0.8455555555555555,-0.5133333333333333,-0.12635254952657454,-0.06255854054239227,-0.012189731577508153
1592330935.2169867,-0.6136718600953895,9.863867090620033,-0.7030467408585055,-0.5255555555555556,-0.8478233527645292,-0.510611976682565,-0.1845975647269907,-0.0917874619375633,-0.007211830883350019
1592330935.2269866,-0.2575884732052578,9.747530333670374,-0.6347598584428716,-0.5255555555555556,-0.8511111111111112,-0.5066666666666667,-0.22635400514829265,-0.13118232826561588,0.002372198488831398
1592330935.2369866,-0.4603068881403183,9.840656522244164,-0.8156018120571495,-0.5255555555555556,-0.8511111111111112,-0.5066666666666667,-0.25108205455373866,-0.1506301352742878,-0.002181661564992912
1592330935.2469866,-0.7479931356659357,9.816304700162075,-0.7026094003241491,-0.5255555555555556,-0.8511111111111112,-0.5066666666666667,-0.2651221109854171,-0.16033538141405293,0.001577643528503312
1592330935.2569866,-0.38641010401188713,9.799525705794949,-0.624064190193165,-0.5255555555555556,-0.8511111111111112,-0.5066666666666667,-0.25778428767854183,-0.16590417816570616,0.006346398383728415
1592330935.2669866,-0.20246263807667317,9.712008880225255,-0.6026120857699805,-0.5172975477101533,-0.8457676942699685,-0.5095812576709263,-0.2524588095945564,-0.16472088222843928,0.01002030966685043
1592330935.2769866,-0.27422272047832585,9.473753529314068,-0.39882702208935394,-0.5066666666666667,-0.8388888888888889,-0.5133333333333333,-0.2515884978611173,-0.1536952219271029,0.013013198165230205
1592330935.2869866,-0.3048148148148148,9.539885057471265,-0.3950574712643678,-0.5066666666666667,-0.8388888888888889,-0.5133333333333333,-0.16031451017241016,-0.08615334153303109,0.004356357416176779
1592330935.2969866,-0.21062755114219558,9.641259637648293,-0.3443701811758528,-0.5066666666666667,-0.8388888888888889,-0.5133333333333333,-0.1026730250495442,-0.0509272654570401,0.005045401576205828
1592330935.3069866,-0.17621844538865283,9.765406148462883,-0.2552436890777306,-0.5066666666666667,-0.8388888888888889,-0.5133333333333333,-0.06838072195899428,-0.03440547357319614,0.004988485585438054
1592330935.3169866,-0.06096980481565924,9.75951509759217,-0.18145470722348883,-0.5099191829320284,-0.8318417703139385,-0.5236329681736455,-0.0694693548723445,-0.02950532577470103,-0.004789725564816432
1592330935.3269866,-0.40882644628099174,9.979967886658796,-0.3866238488783943,-0.5133333333333333,-0.8244444444444444,-0.5344444444444445,-0.09914196513265604,-0.029694448743280033,-0.014664835404205365
1592330935.3369865,-0.66497786452135,10.051964583234161,-0.54497786452135,-0.5133333333333333,-0.8244444444444444,-0.5344444444444445,-0.1730851740864043,-0.04483845729413361,-0.005339758700703363
1592330935.3469865,-0.5867661691542289,10.046467661691542,-0.41691542288557215,-0.5133333333333333,-0.8244444444444444,-0.5344444444444445,-0.26168542040396325,-0.05865341038288987,-0.0011921351337730755
1592330935.3569865,-0.4576656653470468,9.839512602701573,-0.14998289136013684,-0.5133333333333333,-0.8244444444444444,-0.5344444444444445,-0.31213150539761236,-0.06616058938097132,0.002588333315126868
1592330935.3669865,-0.18045143682774123,9.559339219778455,0.08966960988922781,-0.5133333333333333,-0.8276676477408537,-0.5382048482902553,-0.3011317442363261,-0.07463180867524155,0.012035178577767288
1592330935.3769865,-0.037735034269640665,9.572348956063548,0.10860742442850918,-0.5133333333333333,-0.8311111111111111,-0.5422222222222223,-0.2533874882048773,-0.07400626293155078,0.010282358256655908
1592330935.3869865,-0.26136523254932675,9.398583735441981,0.35902710759669554,-0.5133333333333333,-0.8311111111111111,-0.5422222222222223,-0.0807364419326006,-0.031442371252541026,0.005416922970230487
1592330935.3969865,-0.271983637111805,9.482339457313678,0.321668724130419,-0.5133333333333333,-0.8311111111111111,-0.5422222222222223,0.08562061855146649,0.006492783875454725,-0.0002596574907431119
1592330935.4069865,-0.30221095620335164,9.597738346711731,0.12889452189832418,-0.5133333333333333,-0.8311111111111111,-0.5422222222222223,0.20982339787844903,0.049098445600502715,-0.0016937755538383222
1592330935.4169865,-0.31922866520787746,9.724860807196693,0.07897763189885729,-0.5186606829294649,-0.8311111111111111,-0.5577199665018775,0.2569322217858551,0.08183969217332532,0.0029369286111524747
1592330935.4269865,-0.37,9.99,0.0,-0.5255555555555556,-0.8311111111111111,-0.5777777777777777,0.26616271092913524,0.09599310885968812,0.001090830782496456
1592330935.4369864,-0.5315218298689373,9.995235272838578,-0.28827893257645326,-0.5255555555555556,-0.8311111111111111,-0.5777777777777777,0.20330560942132972,0.10098485032426015,0.007282070258363589
1592330935.4469864,-0.43559862085364404,10.199521103317085,-0.5300913090001189,-0.5255555555555556,-0.8311111111111111,-0.5777777777777777,0.10248209299208429,0.10027807270317005,0.020167309595100453
1592330935.4569864,-0.2962388535031847,10.065609872611466,-0.6709307324840764,-0.5255555555555556,-0.8311111111111111,-0.5777777777777777,-0.02270856088370607,0.09121950829208182,0.02249855858815859
1592330935.4669864,-0.31823353651248953,10.013754033703837,-0.5374211186805307,-0.5307842649031247,-0.8319155279338141,-0.5697336095507483,-0.162972556879828,0.061239646893070585,0.023509639259526222
1592330935.4769864,-0.5399493400260271,10.00420245398773,-0.2646834913552705,-0.54,-0.8333333333333334,-0.5555555555555556,-0.32025688572858396,0.02679024836160728,0.014984423463648915
1592330935.4869864,-0.40589235332416984,9.815184113434132,-0.12875352673081097,-0.54,-0.8333333333333334,-0.5555555555555556,-0.4029522702626003,0.010460233081203084,0.0035969611724452092
1592330935.4969864,-0.5871391088751414,9.845751871554775,0.005221818356883262,-0.54,-0.8333333333333334,-0.5555555555555556,-0.39496111861035116,0.01502065821299383,-0.011622679494526184
1592330935.5069864,-0.476898912039825,9.68182022562126,0.2863595487574772,-0.54,-0.8333333333333334,-0.5555555555555556,-0.3494163885577038,0.01378614093234561,-0.012001590995104831
1592330935.5169864,-0.16332967494108913,9.678069982891635,0.29386003421672746,-0.5341716790227071,-0.8333333333333334,-0.5622805412985857,-0.3153461191100631,-0.0066213241874236925,0.0026218108526137422
1592330935.5269864,-0.3708075190914431,9.697996867045232,0.264002349716076,-0.5255555555555556,-0.8333333333333334,-0.5722222222222222,-0.2945243112740431,-0.020812589964359737,0.003490573065901132
1592330935.5369864,0.06356037621359223,9.656449989886731,0.17728585153721682,-0.5255555555555556,-0.8333333333333334,-0.5722222222222222,-0.30413802977532284,-0.04668395558702059,0.010168704035163602
1592330935.5469863,-0.07811080017075368,9.327096712991509,0.4098159654698098,-0.5255555555555556,-0.8333333333333334,-0.5722222222222222,-0.29326755086485856,-0.04414597299006077,0.02327945579191661
1592330935.5569863,-0.06571445846265467,9.297899149502197,0.700588093030755,-0.5255555555555556,-0.8333333333333334,-0.5722222222222222,-0.18754966396065698,-0.03352243602005554,0.03427408873587548
1592330935.5669863,0.01866738505747126,9.445607040229886,0.7094127155172414,-0.5180218310983398,-0.8333333333333334,-0.5849106002554278,-0.004333740614153023,-0.005073499420673618,0.021902228626213417
1592330935.5769863,-0.2,9.69,0.42,-0.5044444444444445,-0.8333333333333334,-0.6077777777777778,0.10581058590215622,0.015271630954950384,0.004363323129985824
1592330935.5869863,0.009157836904481593,9.509394866964916,0.3737367553567224,-0.5044444444444445,-0.8333333333333334,-0.6077777777777778,0.21832266216371343,-0.010579628806519862,-0.018714926803819584
1592330935.5969863,-0.09329354861996775,9.735469355343263,0.33552903241331183,-0.5044444444444445,-0.8333333333333334,-0.6077777777777778,0.29002278702102524,-0.013818274871372075,-0.016365716616697737
1592330935.6069863,-0.22707061917851565,9.853916981430578,0.45452291019835067,-0.5044444444444445,-0.8333333333333334,-0.6077777777777778,0.3193355073334209,-0.011592679185233115,-0.008063091869369259
1592330935.6169863,-0.23893497543232722,9.790439027503032,0.537617892923234,-0.5084290869901233,-0.8315221321762066,-0.6052420961578003,0.3114579086486786,-0.01446459298084127,0.0017063068707380267
1592330935.6269863,-0.03,9.75,0.45,-0.5166666666666667,-0.8277777777777777,-0.6,0.2923426497090502,-0.02181661564992912,0.011999138607461015
1592330935.6369863,0.16340397276143653,10.152768217908507,0.04872849029414258,-0.5166666666666667,-0.8277777777777777,-0.6,0.18279868613006467,-0.016687544166962536,0.014575232698339241
1592330935.6469862,0.17,10.1,-0.07,-0.5166666666666667,-0.8277777777777777,-0.6,0.10581058590215622,-0.01308996938995747,0.017453292519943295
1592330935.6569862,-0.22822866308730813,10.369176376233654,-0.08329070777730746,-0.5166666666666667,-0.8277777777777777,-0.6,-0.08847503515914601,-0.013780405225756406,0.0027477941626055267
1592330935.6669862,-0.30451051300924886,10.004149198323038,0.07506992671296445,-0.5206902351514635,-0.8318013462625745,-0.6040235684847968,-0.2295092675820403,-0.0317739418975907,0.0061864596482146105
1592330935.6769862,0.15,9.73,0.14,-0.5311111111111111,-0.8422222222222222,-0.6144444444444445,-0.29561514205653955,-0.04908738521234052,0.01090830782496456
1592330935.6869862,-0.4363119533527697,9.541027696793003,0.37315597667638484,-0.5311111111111111,-0.8422222222222222,-0.6144444444444445,-0.24968019420032037,-0.020236421641028457,-0.008610566599443599
1592330935.6969862,-0.3312344911608941,9.30367115045128,0.44291106193590096,-0.5311111111111111,-0.8422222222222222,-0.6144444444444445,-0.1595376702278148,-0.01000388843927305,0.00045220969284575475
1592330935.7069862,-0.22,9.21,0.56,-0.5311111111111111,-0.8422222222222222,-0.6144444444444445,-0.08290313946973066,-0.008726646259971648,0.001090830782496456
1592330935.7169862,-0.5822129725979882,9.85147005959701,0.4732147699681519,-0.5311111111111111,-0.8422222222222222,-0.6198671767974577,0.06524896870522584,0.00010043912228075748,-0.009197162271505372
1592330935.7269862,-0.01,9.74,0.28,-0.5311111111111111,-0.8422222222222222,-0.6355555555555555,0.10253809355466686,-0.01854412330243975,-0.001090830782496456
1592330935.7369862,-0.30788870151770653,9.935929173693086,0.17798988195615514,-0.5311111111111111,-0.8422222222222222,-0.6355555555555555,0.0583470301556652,-0.032613908908749226,0.007635815477475192
1592330935.7469862,0.0,9.74,0.15,-0.5311111111111111,-0.8422222222222222,-0.6355555555555555,0.02399827721492203,-0.0272707695624114,0.007635815477475192
1592330935.7569861,-0.5372224257969953,9.56004397215097,0.19760718211799194,-0.5311111111111111,-0.8422222222222222,-0.6355555555555555,-0.030548058527485947,0.023458258018457127,-0.005991774800154589
1592330935.7669861,0.16599547511312218,9.701132205390516,0.41251524690143615,-0.5339809167814282,-0.8409177650993508,-0.6355555555555555,-0.030314494328916856,0.05072942568691688,0.013734853612149454
1592330935.7769861,-0.01,9.77,0.16,-0.5433333333333333,-0.8366666666666667,-0.6355555555555555,0.01308996938995747,0.0916297857297023,0.008726646259971648
1592330935.786986,-0.2447144674994157,9.812336458306282,0.2616407406445581,-0.5433333333333333,-0.8366666666666667,-0.6355555555555555,0.0015156108895817743,0.12074239277143836,0.011909650087402161
1592330935.796986,-0.20075865350303318,9.880793862257642,0.06543213988343047,-0.5433333333333333,-0.8366666666666667,-0.6355555555555555,-0.019329075116617286,0.12544938066642655,0.02122406110996185
1592330935.806986,-0.469777813171936,10.088844469220355,0.08582225053754877,-0.5433333333333333,-0.8366666666666667,-0.6355555555555555,-0.0630305950216402,0.10758986408062977,0.015373442986254503
1592330935.816986,-0.3538515363553392,10.077757833891086,0.08453909339823547,-0.5433333333333333,-0.840861981543454,-0.642081600919447,-0.14901388982789698,0.07323948051904444,0.014005245111930463
1592330935.826986,-0.18,10.22,0.29,-0.5433333333333333,-0.8566666666666667,-0.6666666666666666,-0.23780111058422737,0.032724923474893676,0.017453292519943295
1592330935.836986,-0.471315567592427,9.749441988809116,0.34653363652622704,-0.5433333333333333,-0.8566666666666667,-0.6666666666666666,-0.3587398212787066,-0.006562320261720676,0.019456776788824917
1592330935.846986,-0.33178160919540234,9.836027298850574,0.575507183908046,-0.5433333333333333,-0.8566666666666667,-0.6666666666666666,-0.40101329675120445,-0.024243322319581977,0.007097844692860379
1592330935.856986,-0.86,9.77,0.8,-0.5433333333333333,-0.8566666666666667,-0.6666666666666666,-0.39597157404621347,-0.011999138607461015,-0.01090830782496456
1592330935.866986,0.11139942164603438,9.616743022386846,0.5632569776131527,-0.5445999357384482,-0.8566666666666667,-0.6720949626885877,-0.39348460603938334,-0.033485460464555084,0.013292597312871732
1592330935.876986,0.17,9.6,0.58,-0.5511111111111111,-0.8566666666666667,-0.7,-0.38069994309126315,-0.02617993877991494,0.008726646259971648
1592330935.886986,-0.4535609911054638,9.417156925031767,0.783856416772554,-0.5511111111111111,-0.8566666666666667,-0.7,-0.32304253662329924,-0.020315857035255628,0.015792097230461717
1592330935.896986,-0.05,9.44,0.86,-0.5511111111111111,-0.8566666666666667,-0.7,-0.2399827721492203,-0.02945243112740431,0.017453292519943295
1592330935.906986,-0.18014310067468609,9.62018655910106,0.7308893370789215,-0.5511111111111111,-0.8566666666666667,-0.7,-0.13134266302306777,-0.001687122276292149,0.019456540694689963
1592330935.916986,-0.5008666608325312,9.578291473410927,0.9234170531781453,-0.5524930233462657,-0.8580485789018212,-0.7062186050581954,-0.04503236870852104,0.009737990000238408,0.01967469760605105
1592330935.926986,-0.16,9.61,0.86,-0.5577777777777778,-0.8633333333333333,-0.73,0.016362461737446838,0.001090830782496456,0.02399827721492203
1592330935.936986,-0.4945504939050021,9.59441414459857,0.998964638503573,-0.5577777777777778,-0.8633333333333333,-0.73,0.11082180474280515,-0.01303047578170656,-0.007944889930744008
1592330935.946986,-0.6016098774885146,9.65407542113323,0.9247396630934149,-0.5577777777777778,-0.8633333333333333,-0.73,0.17790857038125488,-0.053248996524582926,-0.03792056886732798
1592330935.956986,-0.99,9.76,0.84,-0.5577777777777778,-0.8633333333333333,-0.73,0.24107360293171679,-0.07635815477475191,-0.042542400517361786
1592330935.966986,-0.4342877050737949,9.68619180338253,0.5968265028187749,-0.5573546448202812,-0.8638975106099955,-0.73,0.3598003107386363,-0.09756858442006702,-0.028812387703177754
1592330935.976986,-0.35,9.63,0.55,-0.5511111111111111,-0.8722222222222222,-0.73,0.3894265893512348,-0.10471975511965977,-0.0032724923474893677
1592330935.986986,0.025164400494437578,9.546264798791375,0.6536256008790002,-0.5511111111111111,-0.8722222222222222,-0.73,0.40361934506502134,-0.09115012581578379,0.001462411404217059
1592330935.996986,-0.13978284447797795,9.852431151560879,0.4438206168065642,-0.5511111111111111,-0.8722222222222222,-0.73,0.4011210504747419,-0.045653886529417126,-0.004555913455821282
1592330936.006986,-0.3889670116036532,10.128439683278993,0.2422417529009133,-0.5511111111111111,-0.8722222222222222,-0.73,0.37947252927626074,0.0005274230121481011,-0.00895200936811099
1592330936.016986,-0.430899996665444,9.998444429624195,0.239100003334556,-0.5519185182715144,-0.8747790115634992,-0.7278469142389247,0.2600286110425556,0.01679273408151135,-0.002313773252679301
1592330936.026986,-0.51,10.35,0.16,-0.5577777777777778,-0.8933333333333333,-0.7122222222222222,0.13635384781205698,0.011999138607461015,-0.0032724923474893677
1592330936.0369859,-0.4604599379916468,10.0016401465652,0.04719988725753965,-0.5577777777777778,-0.8933333333333333,-0.7122222222222222,0.001980975757261737,0.03267254392006245,0.004845472180593451
1592330936.0469859,-0.5622172326017002,9.88040752125258,0.17823519523557946,-0.5577777777777778,-0.8933333333333333,-0.7122222222222222,-0.04881594799587089,0.062685755827664,-0.0012833411187090885
1592330936.0569859,-0.6,10.16,0.08,-0.5577777777777778,-0.8933333333333333,-0.7122222222222222,-0.08508480103472357,0.06763150851478027,-0.011999138607461015
1592330936.0669858,-0.759339802303437,9.956399141501164,0.2039309573471177,-0.5577777777777778,-0.8933333333333333,-0.7122222222222222,-0.18454432551604216,0.04252522078163189,-0.012964765058735953
1592330936.0769858,-0.3094184970535236,9.693649734573613,0.3680280524034481,-0.5844444444444444,-0.9011111111111111,-0.7288888888888889,-0.2675401019434919,-0.0105262275158176,-0.0017915592693774894
1592330936.0869858,-0.6260832783197633,9.660878016577422,0.2618699723709626,-0.5844444444444444,-0.9011111111111111,-0.7288888888888889,-0.2539403066066133,-0.031933851785883066,-0.007138288461736692
1592330936.0969858,-0.3,9.47,0.58,-0.5844444444444444,-0.9011111111111111,-0.7288888888888889,-0.2530727415391778,-0.04581489286485115,0.0032724923474893677
1592330936.1069858,-0.16274335232668566,9.544902659069326,0.4805097340930674,-0.5844444444444444,-0.9011111111111111,-0.7288888888888889,-0.18406427929591293,-0.040450709183574775,0.0015700245614264636
1592330936.1169858,-0.4035440153514032,9.467720076757015,0.4959066922523387,-0.5844444444444444,-0.9015048905946004,-0.7300045974254418,-0.11394380347066663,-0.02097899942482315,-0.009559748973204728
1592330936.1269858,-0.46,9.75,0.59,-0.5844444444444444,-0.9077777777777778,-0.7477777777777778,-0.05235987755982988,-0.007635815477475192,-0.00545415391248228
1592330936.1369858,-0.2012183988764045,9.43710323033708,0.54,-0.5844444444444444,-0.9077777777777778,-0.7477777777777778,0.009812497828924405,-0.005509308277889404,-0.0012237374824705678
1592330936.1469858,-0.2121083204380431,9.276953695988572,0.4999419116771813,-0.5844444444444444,-0.9077777777777778,-0.7477777777777778,0.05874663271171254,0.011312360584037583,-0.0025266346899704842
1592330936.1569858,-0.23594568304735225,9.897723434885801,0.19822224816155012,-0.5844444444444444,-0.9077777777777778,-0.7477777777777778,0.1468322916564323,0.025110117344811028,-0.005639460600797112
1592330936.1669858,-0.293064277654566,9.587651064160928,0.5654132134936384,-0.5844444444444444,-0.9077777777777778,-0.7477777777777778,0.20557862883546082,0.03579126955917985,-0.00741965263652525
1592330936.1769857,-0.41,9.96,0.28,-0.5777777777777777,-0.9133333333333333,-0.7644444444444445,0.22907446432425577,0.015271630954950384,-0.007635815477475192
1592330936.1869857,-0.21981889946598562,9.954313649614322,0.06229265020767227,-0.5777777777777777,-0.9133333333333333,-0.7644444444444445,0.21953670912937465,-0.009917827958815713,-0.0005906520984912962
1592330936.1969857,-0.4054719562243502,10.035430916552668,0.020013679890560875,-0.5777777777777777,-0.9133333333333333,-0.7644444444444445,0.17204386125250534,-0.03431565618917715,-0.012593051947315446
1592330936.2069857,-0.52,9.88,0.11,-0.5777777777777777,-0.9133333333333333,-0.7644444444444445,0.10690141668465267,-0.061086523819801536,-0.00545415391248228
1592330936.2169857,-0.18205412054120546,9.96690036900369,0.28380073800738004,-0.5777777777777777,-0.9133333333333333,-0.7644444444444445,0.06371766670353529,-0.08109850551836813,-0.022306349027064673
1592330936.2269857,-0.54,9.75,0.2,-0.5844444444444444,-0.94,-0.7766666666666666,0.042542400517361786,-0.062177354602297986,-0.0272707695624114
1592330936.2369857,0.03750160153747595,9.573023702754645,0.30245996156310057,-0.5844444444444444,-0.94,-0.7766666666666666,0.012060633231970746,-0.07945035606401958,0.006259174451518742
1592330936.2469857,-0.5088444805660468,9.579207582349285,0.4022699239852751,-0.5844444444444444,-0.94,-0.7766666666666666,0.03599741582238304,-0.08152733260027374,0.00043443925197622635
1592330936.2569857,0.15083360899768442,9.70591134634469,0.2742970559047304,-0.5844444444444444,-0.94,-0.7766666666666666,0.04294005037588348,-0.09071504671758568,0.018745834982034696
1592330936.2669857,-0.11033585647292327,9.812011441692125,0.1029045941896441,-0.5844444444444444,-0.94,-0.7766666666666666,0.08923495038819965,-0.12098478903333088,-0.0017307554080282263
1592330936.2769856,-0.38,9.76,0.31,-0.5777777777777777,-0.9466666666666667,-0.8122222222222222,0.09490227807719166,-0.12217304763960307,0.0
1592330936.2869856,0.29659674358205973,10.215209269803216,0.04316751573269404,-0.5777777777777777,-0.9466666666666667,-0.8122222222222222,0.07648378936592347,-0.14132540362887683,0.003963537080542262
1592330936.2969856,-0.11942534767777487,9.730086591445815,-0.05178168459721858,-0.5777777777777777,-0.9466666666666667,-0.8122222222222222,0.028154654489293857,-0.11883157334024237,-0.014437836657020134
1592330936.3069856,-0.19,10.18,-0.14,-0.5777777777777777,-0.9466666666666667,-0.8122222222222222,-0.04690572364734761,-0.09381144729469522,-0.016362461737446838
1592330936.3169856,0.24323349706481373,9.515708637833953,0.36062537438600695,-0.5777777777777777,-0.9466666666666667,-0.8122222222222222,-0.08681285368081804,-0.07280769464550023,-0.0027100225154701087
1592330936.3269856,-0.02,9.39,0.57,-0.6166666666666667,-0.9666666666666667,-0.8066666666666666,-0.06872233929727672,-0.032724923474893676,-0.00545415391248228
1592330936.3369856,-0.1897676244308369,9.456589208143614,0.4776663003087873,-0.6166666666666667,-0.9666666666666667,-0.8066666666666666,-0.007042586678557482,-0.008785392524439583,0.010091626276651805
1592330936.3469856,0.37,9.27,0.35,-0.6166666666666667,-0.9666666666666667,-0.8066666666666666,0.08508480103472357,-0.011999138607461015,0.025089107997418484
1592330936.3569856,0.005644198806520062,9.233564419880652,0.5686134807160879,-0.6166666666666667,-0.9666666666666667,-0.8066666666666666,0.21723710017262332,0.007873387578689328,0.006210208120575662
1592330936.3669856,-0.33434563115548444,9.525394289062676,0.3125083951229407,-0.6166666666666667,-0.9666666666666667,-0.8066666666666666,0.3717490878493806,0.027393396141553006,-0.0034481964696074672
1592330936.3769855,-0.07,9.71,0.26,-0.6022222222222222,-0.9733333333333334,-0.8366666666666667,0.4777838827334477,0.019634954084936207,-0.002181661564992912
1592330936.3869855,-0.4232491402822246,10.280633226609748,-0.0479607889639907,-0.6022222222222222,-0.9733333333333334,-0.8366666666666667,0.4955685767077673,-0.001113855551770071,-0.015026162768668224
1592330936.3969855,0.1555866030099605,10.25913966507525,-0.35483799045149406,-0.6022222222222222,-0.9733333333333334,-0.8366666666666667,0.35723916367024167,-0.028866185255009152,-0.0008446318372576344
1592330936.4069855,-0.21,10.25,-0.3,-0.6022222222222222,-0.9733333333333334,-0.8366666666666667,0.20071286397934787,-0.04581489286485115,-0.009817477042468103
1592330936.4169855,-0.0002657846322464408,10.128999491133989,-0.21933299408932555,-0.6022222222222222,-0.9733333333333334,-0.8366666666666667,0.059922378892648315,-0.03789542807872429,-0.006297714915300614
1592330936.4269855,-0.31,9.9,-0.01,-0.59,-1.0322222222222222,-0.8066666666666666,-0.10035643198967394,-0.022907446432425576,0.00545415391248228
1592330936.4369855,-0.07478964908841404,9.93920172515193,0.019401293863948246,-0.59,-1.0322222222222222,-0.8066666666666666,-0.18588132903505772,-0.02825275249776206,0.022559133321559035
1592330936.4469855,-0.10666937604590007,9.427711212048768,0.1873954099928281,-0.59,-1.0322222222222222,-0.8066666666666666,-0.24389150856630923,-0.032781746814005794,0.014248810850932311
1592330936.4569855,-0.4137480070316013,9.747188994726299,0.145622010547402,-0.59,-1.0322222222222222,-0.8066666666666666,-0.2333197007074998,-0.034122387365621426,-0.004567745202140018
1592330936.4669855,-0.48233555455623234,9.695748334082825,0.24850333183434858,-0.59,-1.0322222222222222,-0.8066666666666666,-0.19123490863110884,-0.03973369297580689,-0.008308615608930325
1592330936.4769855,-0.12,9.44,0.47,-0.62,-1.0377777777777777,-0.8511111111111112,-0.1679879405044542,-0.074176493209759,-0.001090830782496456
1592330936.4869854,0.11283936876416106,9.52955360337083,0.38940175696625196,-0.62,-1.0377777777777777,-0.8511111111111112,-0.0996064614361875,-0.08785278902341234,-0.00011395251009264549
1592330936.4969854,-0.22,9.22,0.37,-0.62,-1.0377777777777777,-0.8511111111111112,-0.02617993877991494,-0.05126904677733343,-0.016362461737446838
1592330936.5069854,0.0586735964949959,9.554408315793996,0.11919376315450364,-0.62,-1.0377777777777777,-0.8511111111111112,0.0001654917883156838,-0.043162760448647086,-0.001163174871159937
1592330936.5169854,-0.0741337754256201,9.554311037429065,0.33120066313843016,-0.62,-1.0377777777777777,-0.8511111111111112,0.061028514964824684,-0.03787201532689894,0.004670385190462838
1592330936.5269854,-0.58,9.63,0.39,-0.6,-1.0822222222222222,-0.8744444444444445,0.14180800172453928,-0.0272707695624114,-0.00545415391248228
1592330936.5369854,-0.31315206929740136,9.686604106512672,0.11506576836701954,-0.6,-1.0822222222222222,-0.8744444444444445,0.18238361719293406,-0.035209476936662557,-0.010746625495316384
1592330936.5469854,-0.55,10.11,-0.08,-0.6,-1.0822222222222222,-0.8744444444444445,0.18653206380689397,-0.039269908169872414,-0.01854412330243975
1592330936.5569854,-0.12557452290844673,10.015683227312989,-0.26077381431677266,-0.6,-1.0822222222222222,-0.8744444444444445,0.1488080628575657,-0.037555180853993855,-0.00997048672304696
1592330936.5669854,-0.13959575409111014,9.917102388323752,-0.2857007961079169,-0.6,-1.0822222222222222,-0.8744444444444445,0.036927950927088934,-0.0273692627531441,-0.01205353541008219
1592330936.5769854,-0.12,9.76,0.0,-0.6077777777777778,-1.1022222222222222,-0.8888888888888888,-0.07963064712224129,0.006544984694978735,0.007635815477475192
1592330936.5869853,-0.15298671242169107,9.718766609472887,0.05772674673795939,-0.6077777777777778,-1.1022222222222222,-0.8888888888888888,-0.1291071639412822,0.02993388355488898,-0.0004603418201860471
1592330936.5969853,-0.24919708607173965,9.382944017736955,0.5258962177000026,-0.6077777777777778,-1.1022222222222222,-0.8888888888888888,-0.13422084420421085,0.0759883543004366,0.0021427351992755095
1592330936.6069853,-0.7588650276558471,9.349890163966695,0.4293409838001693,-0.6077777777777778,-1.1022222222222222,-0.8888888888888888,-0.052096290002285515,0.0850528510277485,-0.014132875161991314
1592330936.6169853,-0.5029287640493671,9.32512213845639,0.2807328307383422,-0.6077777777777778,-1.1022222222222222,-0.8888888888888888,0.007342704223969307,0.07784812445486912,-0.003325785302672255
1592330936.6269853,-0.3514368667417195,9.487557326539077,0.31899419328079637,-0.6132535074032378,-1.1263154325742464,-0.8976500562896249,0.13467675284678904,0.05593017181703972,-0.005391458773593759
1592330936.6369853,-0.41567736403723665,9.60675975828842,0.29081006042789487,-0.6133333333333333,-1.1266666666666667,-0.8977777777777778,0.22789754110739027,0.053244273560484466,-0.0038620896812590916
1592330936.6469853,-0.2681720895038374,9.659545995027564,-0.1113857961301481,-0.6133333333333333,-1.1266666666666667,-0.8977777777777778,0.3138647139272772,0.05027726451470477,-0.0188920901859277
1592330936.6569853,-0.5745174576873002,9.94592496153391,-0.29202414486921524,-0.6133333333333333,-1.1266666666666667,-0.8977777777777778,0.3090633594350485,0.05537647848692536,-0.015476344091265496
1592330936.6669853,-0.15264203132151316,9.864576443197421,-0.17276859092989474,-0.6133333333333333,-1.1266666666666667,-0.8977777777777778,0.32171648058844105,0.06690888983033741,-0.007464809469783968
1592330936.6769853,-0.43,10.1,-0.63,-0.6255555555555555,-1.1533333333333333,-0.8977777777777778,0.29561514205653955,0.08617563181722002,-0.019634954084936207
1592330936.6869853,-0.16383792931041113,10.00648359678474,-0.5220964578285451,-0.6255555555555555,-1.1533333333333333,-0.8977777777777778,0.23362410257693172,0.10265426256496388,-0.007079806848559937
1592330936.6969852,-0.396659468797236,10.446934247462751,-0.8447144245303391,-0.6255555555555555,-1.1533333333333333,-0.8977777777777778,0.10946902647618856,0.11928414802139366,-0.006262089473692136
1592330936.7069852,-0.7817233533495966,9.895677659973728,-0.44335194220304,-0.6255555555555555,-1.1533333333333333,-0.8977777777777778,-0.06844612616401888,0.1118974585139623,-0.005533243749897755
1592330936.7169852,-0.8559225404830385,9.87296127024152,-0.042619676135692064,-0.6255555555555555,-1.1533333333333333,-0.8977777777777778,-0.1402549829181286,0.0820434026991913,-0.010463525989416085
1592330936.7269852,-0.8043602472836269,9.983148182840015,-0.033148182840015,-0.6140946463511094,-1.2148054827026353,-0.9061129844719203,-0.23284097754411026,0.04955933607262069,-0.003816068571063846
1592330936.7369852,-0.6503480886910912,9.861726933163792,0.09302392116347452,-0.6133333333333333,-1.218888888888889,-0.9066666666666666,-0.2297684244620515,0.02985823092815659,-0.005863681419159007
1592330936.7469852,-0.23035142652785512,9.501729794166732,0.4663542875307956,-0.6133333333333333,-1.218888888888889,-0.9066666666666666,-0.20722476745151805,-0.021046801031112575,-0.013135828841911746
1592330936.7569852,-0.4423316062176166,9.486310880829016,0.3838341968911917,-0.6133333333333333,-1.218888888888889,-0.9066666666666666,-0.061392860754575146,-0.047175887955136886,-0.012200348845061397
1592330936.7669852,-0.34233102253032927,9.553834488734836,0.22637240034662043,-0.6133333333333333,-1.218888888888889,-0.9066666666666666,0.030270436056696222,-0.040963578927704324,-0.00967805109756496
1592330936.7769852,-0.32318927262203356,9.367707891182713,0.10931892726220335,-0.6247231333204707,-1.2603063433875705,-0.9232336484661392,0.19067966215353832,-0.012468471550730765,-0.008652352749220877
1592330936.7869852,-0.04226018081446514,9.665143611488919,-0.22569645571645736,-0.6255555555555555,-1.2633333333333334,-0.9244444444444444,0.23256452936882197,0.010016722316205156,0.012198383881198068
1592330936.7969851,0.08115521403909556,9.580035565016486,-0.5038270034526622,-0.6255555555555555,-1.2633333333333334,-0.9244444444444444,0.27475946334420903,0.04954426493625209,0.02567588156622794
1592330936.8069851,-0.2840786793614703,9.727599355786083,-0.750879162521908,-0.6255555555555555,-1.2633333333333334,-0.9244444444444444,0.2568514566698663,0.08541629764242126,0.0009949290283250076
1592330936.8169851,-0.1960135216225947,9.883986478377405,-0.370596871624595,-0.6255555555555555,-1.2633333333333334,-0.9244444444444444,0.21275254272350289,0.09269604805476205,-0.010301471290124549
1592330936.8269851,-0.9543495164988535,9.629580301066692,0.031655866812880046,-0.6137110512965362,-1.306404257911585,-0.9169070326432504,0.18161728988456047,0.08535449102979796,-0.017318447522406098
1592330936.836985,-1.054515960230246,9.820619892927585,-0.06317594493418671,-0.6133333333333333,-1.3077777777777777,-0.9166666666666666,0.19108213182751127,0.07320478748916782,-0.019329084132399466
1592330936.846985,-0.5913932669614519,9.782961506117244,-0.05498250278056589,-0.6133333333333333,-1.3077777777777777,-0.9166666666666666,0.21800654004808576,0.03375491417142826,-0.01052441753547845
1592330936.856985,-0.7842687859220889,9.930898318314057,-0.522395515504151,-0.6133333333333333,-1.3077777777777777,-0.9166666666666666,0.2364732739224998,0.009568319000258774,-0.010605974394436555
1592330936.866985,-0.47822552145744057,9.622882791396714,-0.2995259662448971,-0.6133333333333333,-1.3077777777777777,-0.9166666666666666,0.22769992050074034,0.004946124571266807,-0.013306598010532453
1592330936.876985,-0.17302136161057322,9.845108344859383,-0.658993391731981,-0.5936690401789526,-1.365787442583201,-0.8930695148814097,0.20141912955283148,0.003398054396988345,0.009950918152483036
1592330936.886985,-0.32746629124365484,9.981792909263959,-0.5425337087563451,-0.5911111111111111,-1.3733333333333333,-0.89,0.19185583367835293,0.020628451061094743,0.004411990033154784
1592330936.896985,-0.07565031543710571,9.659088966138793,-0.5045260718424102,-0.5911111111111111,-1.3733333333333333,-0.89,0.16142773164868976,0.0650555074788084,0.0007157321789311752
1592330936.906985,-0.47978701444923993,9.795076937511729,-0.24701773315819103,-0.5911111111111111,-1.3733333333333333,-0.89,0.14155110687897107,0.07199483164476608,-0.009737440481020156
1592330936.916985,-0.7491700262241183,9.59639516223727,0.01977083251790676,-0.5911111111111111,-1.3733333333333333,-0.89,0.154036522631854,0.09413913629448621,-0.02085686046734906
1592330936.926985,-0.5874635654834359,9.622176530578676,-0.038903181234990286,-0.5911111111111111,-1.4170084767137108,-0.8751318660832758,0.18425038758944134,0.09285989059407752,-0.013229243471836233
1592330936.936985,-0.4305116824386568,9.737590654049075,-0.1302185746587388,-0.5911111111111111,-1.4255555555555555,-0.8722222222222222,0.21498903533821218,0.0797899645064364,-0.006130978740178137
1592330936.946985,-0.3961742873343987,9.76185061085623,-0.07567632352183101,-0.5911111111111111,-1.4255555555555555,-0.8722222222222222,0.23671027980173093,0.0656517172786271,-0.005683183954087932
1592330936.956985,-0.221738299904489,10.052855778414518,-0.2546322827125119,-0.5911111111111111,-1.4255555555555555,-0.8722222222222222,0.25010343138625046,0.0670376464841948,0.0005980294834316766
1592330936.966985,-0.34666725959657047,10.143255896687894,-0.2844960688747376,-0.5911111111111111,-1.4255555555555555,-0.8722222222222222,0.2501131126079781,0.07016833331295143,-0.00035516323317825527
1592330936.976985,-0.4602482842147759,9.855537949132014,-0.19344368187323374,-0.5929598977257435,-1.4856411205311084,-0.8444904230027362,0.20550600174143566,0.07054640918064382,-0.006178365144543411
1592330936.986985,-0.43,9.903485441452723,-0.2236482467125861,-0.5933333333333334,-1.4977777777777779,-0.8388888888888889,0.1974403716318585,0.06981317007977318,-0.006544984694978735
1592330936.996985,-0.5335255205592723,9.801538750657746,-0.28,-0.5933333333333334,-1.4977777777777779,-0.8388888888888889,0.143234535823847,0.0645431582651054,-0.014073573001647003
1592330937.006985,-0.3883314933038928,9.860372005952096,-0.3083953343253492,-0.5933333333333334,-1.4977777777777779,-0.8388888888888889,0.07011571029295728,0.02578231150768924,-0.016678929900909065
1592330937.016985,-0.5881867312709654,9.695086760260073,-0.06654097817534266,-0.5933333333333334,-1.4977777777777779,-0.8388888888888889,0.06164205831881798,0.01360568248943068,-0.002875588415116242
1592330937.026985,-0.34464864864864864,9.45227027027027,0.3261801801801802,-0.5888088088088088,-1.5303543543543543,-0.8216956956956958,0.13090952120392152,-0.0007193586781868537,0.004565765599530211
1592330937.036985,-0.38493458922030355,9.61683250815119,0.3644306243207342,-0.5877777777777777,-1.5377777777777777,-0.8177777777777778,0.1750847732562061,-0.009458389406544261,0.006627797030678463
1592330937.046985,-0.6250920951650039,9.659562292146328,0.0047237145049884854,-0.5877777777777777,-1.5377777777777777,-0.8177777777777778,0.2263297789202337,-0.04598578689688001,0.014585459603944874
1592330937.056985,-0.25619074638863276,9.519047686597158,-0.09223443743055063,-0.5877777777777777,-1.5377777777777777,-0.8177777777777778,0.28341618414977165,-0.05986782725439808,0.008738638512704957
1592330937.066985,-0.26119358448340174,9.579300535935138,-0.05172834174208366,-0.5877777777777777,-1.5377777777777777,-0.8177777777777778,0.3117127712631724,-0.04995374970648958,0.0016743960204047567
1592330937.076985,-0.0767167672785512,9.492503387951214,-0.1892066034249107,-0.5684800076656674,-1.5707448017192995,-0.7856148275909272,0.33855896077610864,-0.03100287029676018,-0.014510589348288139
1592330937.0869849,-0.1683603811954225,9.539511144782487,-0.20379839706527375,-0.5611111111111111,-1.5833333333333333,-0.7733333333333333,0.3438549684097658,-0.014161923001928648,-0.007616938306949914
1592330937.0969849,0.11028329231610601,9.691805304894723,-0.1693407164342357,-0.5611111111111111,-1.5833333333333333,-0.7733333333333333,0.3857037750917041,0.036853674735217154,-0.013499277019091087
1592330937.1069849,0.06853136870629789,9.860881178776221,-0.5894459364641553,-0.5611111111111111,-1.5833333333333333,-0.7733333333333333,0.38907778531500353,0.10005933097303843,-0.019334210895404207
1592330937.1169848,-0.07091812759804808,9.953245978673413,-0.5844587023314657,-0.5611111111111111,-1.5833333333333333,-0.7733333333333333,0.3647236981445104,0.12257720507754229,-0.016616390898454507
1592330937.1269848,-0.18279952790423198,10.201209914011129,-0.629228797841848,-0.5611111111111111,-1.6233359560876,-0.7309305532138106,0.214451152119651,0.1372699911763752,-0.012609900850339827
1592330937.1369848,-0.20679518853023368,10.162867441577903,-0.5655421003604553,-0.5611111111111111,-1.6388888888888888,-0.7144444444444444,0.14565349942818995,0.12941195640005795,-0.0123645013133557
1592330937.1469848,-0.3740202155581616,9.499666610822583,-0.1498838443066957,-0.5611111111111111,-1.6388888888888888,-0.7144444444444444,0.007963606868585563,0.0884206464851222,0.004789189997715356
1592330937.1569848,-0.36965975502361703,9.66238171483468,-0.5089576495076455,-0.5611111111111111,-1.6388888888888888,-0.7144444444444444,-0.030236561268788965,0.06280560187227473,-0.004108583446009988
1592330937.1669848,-0.8013532030777211,10.031327915622027,-0.456921414368462,-0.5611111111111111,-1.6388888888888888,-0.7144444444444444,-0.0899287988857593,0.014096844773118102,-0.009107993798375728
1592330937.1769848,-0.3483105083839936,9.823190593894047,-0.35148239695370437,-0.5751534653097884,-1.6451299351994122,-0.6793385589477512,-0.13157267287454666,-0.025158409892946185,0.0016015952259808338
1592330937.1869848,-0.20712783901463144,9.756703801043423,-0.3928443102028008,-0.5811111111111111,-1.6477777777777778,-0.6644444444444444,-0.14010879091358266,-0.028969980373368006,-0.004120578728420594
1592330937.1969848,-0.1539005490840047,9.819667983784061,-0.2720331503053318,-0.5811111111111111,-1.6477777777777778,-0.6644444444444444,-0.14354156453580486,-0.0277505515009744,0.0011858803370035113
1592330937.2069848,0.07802646981533243,9.877960295277001,-0.48713896653049527,-0.5811111111111111,-1.6477777777777778,-0.6644444444444444,-0.15371032874173357,-0.027048272292506365,0.0035990197300040144
1592330937.2169847,0.15961656804733726,9.772979289940828,-0.31794477317554243,-0.5811111111111111,-1.6477777777777778,-0.6644444444444444,-0.16115979162942742,-0.0301517676906048,0.012764979272213704
1592330937.2269847,-0.057790641582247976,9.604129281234925,-0.45515677761698026,-0.5541244573082489,-1.6574652945275232,-0.6464533419092029,-0.161854451068478,-0.029060405592932596,0.010124256756021134
1592330937.2369847,-0.3291738716166143,9.544043476726541,-0.5368913434731976,-0.5377777777777778,-1.6633333333333333,-0.6355555555555555,-0.16144295580947549,-0.03147283743785801,0.006348160126714474
1592330937.2469847,-0.37893476785887376,9.485036347775516,0.08864398565474457,-0.5377777777777778,-1.6633333333333333,-0.6355555555555555,-0.11237936016057994,-0.0557670717021143,0.003277778917143804
1592330937.2569847,-0.15655720677532758,9.558029721955897,0.13803491530840523,-0.5377777777777778,-1.6633333333333333,-0.6355555555555555,-0.05214608657952757,-0.056383470872767835,-0.00363013249737545
1592330937.2669847,0.07089640033247374,9.76788047995567,-0.2976626670360819,-0.5377777777777778,-1.6633333333333333,-0.6355555555555555,0.033098383241096936,-0.044691468046484606,-0.011370715366659206
1592330937.2769847,-0.37598332356198283,9.799038499120579,-0.2872861702820664,-0.5523551849680441,-1.66916429620944,-0.6100450929725896,0.05307544436197562,-0.028501444979130576,0.004729278346574755
1592330937.2869847,-0.39467887772129295,9.821286041367534,-0.36913500717916875,-0.56,-1.6722222222222223,-0.5966666666666667,0.0632730111331434,-0.0236814287377989,0.013193976966215524
1592330937.2969847,-0.4158705380646519,9.656755554385596,-0.5561429925239549,-0.56,-1.6722222222222223,-0.5966666666666667,0.06756468838129419,-0.00999938746173511,0.00817164001157501
1592330937.3069847,-0.2682708086317288,9.478324401233104,-0.2879691723974389,-0.56,-1.6722222222222223,-0.5966666666666667,0.09206187577928304,-0.012896222115570502,0.014817605299404311
1592330937.3169847,-0.5864084127269458,9.65974294445443,-0.2718802804242315,-0.56,-1.6722222222222223,-0.5966666666666667,0.1518398016225293,0.00651694428478693,0.0007459141284588376
1592330937.3269846,-0.1192741159303301,9.527046167220343,-0.4574575429227855,-0.5673096546513914,-1.67022868004457,-0.5720796464756228,0.2095794836512248,0.02792315471448781,-4.226634842918395e-05
1592330937.3369846,0.3630472882292572,9.477409805005133,-0.6276790084471461,-0.5722222222222222,-1.6688888888888889,-0.5555555555555556,0.2299453549616116,0.03097039703906966,0.004276346016989738
1592330937.3469846,-0.9413265989507758,9.920186683781672,-0.6872787141422034,-0.5722222222222222,-1.6688888888888889,-0.5555555555555556,0.21779695551254882,0.03523864980733424,-0.0026435813418760404
1592330937.3569846,-1.0265657322740218,10.008390046469794,-0.7948523459751162,-0.5722222222222222,-1.6688888888888889,-0.5555555555555556,0.12783585094175187,0.03692309309111524,-0.01985570383105676
1592330937.3669846,-1.0005043017868962,10.201512905360687,-0.9159245532759761,-0.5722222222222222,-1.6688888888888889,-0.5555555555555556,0.07329198899088762,0.04218490256667201,-0.029938287591084065
1592330937.3769846,-0.17035447415549942,9.863274254307417,-0.9077391465448033,-0.5710780378352786,-1.6723214420497197,-0.537248605364458,-0.0869127661244804,0.03362093658166731,-0.0035647188610736106
1592330937.3869846,0.6050709170060384,9.521810139025419,-0.6319955062491223,-0.57,-1.6755555555555555,-0.52,-0.16890153617736656,0.03530747033096835,0.01102013291571339
1592330937.3969846,0.012440868138921313,9.57877956593054,-0.49358832338887965,-0.57,-1.6755555555555555,-0.52,-0.15721276138458715,0.06213786200045469,-0.006155789382394309
1592330937.4069846,-0.5502602274615951,9.745882897642282,-0.4756877270460859,-0.57,-1.6755555555555555,-0.52,-0.11078015060029492,0.09210018173776795,-0.017432002710526383
1592330937.4169846,-0.45975971013915706,9.624879855069578,-0.5151908184189047,-0.57,-1.6755555555555555,-0.52,-0.09435454990144111,0.09598385772167886,-0.0059926309502235575
1592330937.4269845,-0.5323231678109532,9.604619511416255,-0.4776813028899889,-0.5777782745223269,-1.6749572267461457,-0.4954685188141998,-0.06335021976106074,0.0906229400347549,-0.012251581547928898
1592330937.4369845,-0.6436777734221873,9.674514308114466,-0.4078494707957664,-0.5844444444444444,-1.6744444444444444,-0.47444444444444445,-0.04033807567072547,0.09191765216748224,-0.02052121667991941
1592330937.4469845,-0.5864522564296113,9.519136518035262,-0.4289480778562571,-0.5844444444444444,-1.6744444444444444,-0.47444444444444445,-0.04231464173129301,0.08740688199332247,-0.012581371816676718
1592330937.4569845,-0.5649483836232121,9.213453030267562,-0.011539595964325008,-0.5844444444444444,-1.6744444444444444,-0.47444444444444445,0.04703932290421274,0.07488904811473253,-0.010572420090865953
1592330937.4669845,-0.2038157947244503,9.278605291512031,-0.06763158944890059,-0.5844444444444444,-1.6744444444444444,-0.47444444444444445,0.17434348046638595,0.0724110702792779,-0.002491685781160347
1592330937.4769845,-0.15018051803591292,9.634514857778484,-0.21977435245510885,-0.5811186326959408,-1.6655756131151014,-0.4567067817857584,0.29660259265809197,0.08179754008995647,9.845731518480852e-06
1592330937.4869845,-0.09450646253269734,9.874506462532697,-0.3561147868902908,-0.5777777777777777,-1.6566666666666667,-0.4388888888888889,0.3435057437349679,0.09004565572120844,-0.005348201161066541
1592330937.4969845,-0.290173536922195,10.045028922820366,-0.7408098389702433,-0.5777777777777777,-1.6566666666666667,-0.4388888888888889,0.3062710506593308,0.09815584048301804,-0.007062005173732462
1592330937.5069845,-0.42347385971180185,10.082675955698464,-0.8037561033702513,-0.5777777777777777,-1.6566666666666667,-0.4388888888888889,0.19160234193489642,0.08242689966401051,-0.002775727203715824
1592330937.5169845,-0.27168276471415087,9.96792626357959,-0.877490712664913,-0.5777777777777777,-1.6566666666666667,-0.4388888888888889,0.07149895367022535,0.06649559791641647,-0.00677200472007549
1592330937.5269845,-0.4392190425247392,9.969013105108319,-0.9288071676918963,-0.5822254910701019,-1.6571608570324805,-0.43938307925470266,-0.03735810979659098,0.0410740530104603,-0.0012049026829928765
1592330937.5369844,-0.7661076448405897,10.227841618100788,-0.8909989715461091,-0.5877777777777777,-1.6577777777777778,-0.44,-0.102549387037571,0.014554008647233312,-0.004167968313127355
1592330937.5469844,-0.44194500287191274,9.879905226881103,-0.7182258759333716,-0.5877777777777777,-1.6577777777777778,-0.44,-0.14913539591959982,-0.0036781861623466083,-0.012974056871426831
1592330937.5569844,-0.529838139061669,9.824745069022129,-0.6998138599209194,-0.5877777777777777,-1.6577777777777778,-0.44,-0.18107526145100145,-0.03707323875888821,-0.0027319324358265574
1592330937.5669844,-0.5701927454526114,10.010426550366983,-0.7485971705137752,-0.5877777777777777,-1.6577777777777778,-0.44,-0.22109950617992802,-0.06835321357817474,0.004214777063849034
1592330937.5769844,-0.09791507723094234,9.768522293790257,-0.5052348195860171,-0.5750706300071567,-1.658836706758663,-0.42252767181539613,-0.2891876240995671,-0.09444121089822265,0.010132358844231823
1592330937.5869844,0.13292354474370113,9.661091146039016,-0.47479740936734854,-0.5611111111111111,-1.66,-0.4033333333333333,-0.308056738722883,-0.10399203201687512,0.014382191607102492
1592330937.5969844,-0.23368197703444826,9.23073639540689,-0.026090364453320025,-0.5611111111111111,-1.66,-0.4033333333333333,-0.20118241680045046,-0.09641337551712822,0.008309483813944547
1592330937.6069844,-0.029513167633646115,9.02834562949168,0.10080295107800301,-0.5611111111111111,-1.66,-0.4033333333333333,-0.02385505732921786,-0.08649678919321896,0.010465078871534177
1592330937.6169844,-0.05521053477439833,9.002660814014224,0.02893567439431074,-0.5611111111111111,-1.66,-0.4033333333333333,0.16664755407586773,-0.06252999329714175,0.00564910008631587
1592330937.6269844,-0.15511780786253584,9.363327258526425,-0.2269174694090081,-0.5715951430472389,-1.649971795539356,-0.39467261129914083,0.37253056907887117,-0.02299200640781957,-0.006376858732146685
1592330937.6369843,-0.68,9.67,-0.51,-0.5866666666666667,-1.6355555555555557,-0.38222222222222224,0.4799655442984406,0.009817477042468103,-0.02181661564992912
1592330937.6469843,-0.011998598986959801,10.283979685310918,-0.9759992994934799,-0.5866666666666667,-1.6355555555555557,-0.38222222222222224,0.49174246683880235,0.03861739644897075,-0.006763762158738397
1592330937.6569843,-0.3123324835249411,10.218843138198086,-0.9558030689306845,-0.5866666666666667,-1.6355555555555557,-0.38222222222222224,0.39459608517554334,0.06595666952557903,-0.01509642849293895
1592330937.6669843,-0.41098161033797215,10.290196322067594,-0.8777454025844931,-0.5866666666666667,-1.6355555555555557,-0.38222222222222224,0.2662129061328858,0.06975260601980232,-0.007225918100313202
1592330937.6769843,-0.39219952060267094,10.016772057984248,-0.8212658372331926,-0.5779817118796687,-1.6355555555555557,-0.3652865603875763,0.1333799300812126,0.05847854053362749,-0.004915648817824459
1592330937.6869843,-0.7654533969679955,9.950547445255474,-0.6676347557551937,-0.5644444444444444,-1.6355555555555557,-0.3388888888888889,0.00044581047490713926,0.04152085678274287,-0.012514695491889084
1592330937.6969843,-0.3106012478729438,9.920601247872945,-0.5575964265456609,-0.5644444444444444,-1.6355555555555557,-0.3388888888888889,-0.0772757396020022,0.0010346805309300634,-0.0024110577718054814
1592330937.7069843,-0.5387048546951116,9.892321518562069,-0.6986460608096758,-0.5644444444444444,-1.6355555555555557,-0.3388888888888889,-0.12410788423163735,-0.032208001983641786,0.004568002784621897
1592330937.7169843,-0.9916295043003605,10.210325900860072,-0.7438044594839567,-0.5644444444444444,-1.6355555555555557,-0.3388888888888889,-0.16981989991757063,-0.054209612107456714,0.008590245722220363
1592330937.7269843,-0.5840192583112411,9.912456958283817,-0.27933235822896674,-0.5672868398154073,-1.623779917590138,-0.33645254999949215,-0.21091097006439657,-0.07606461402939962,0.0014279156764628936
1592330937.7369843,-0.4,9.5,0.59,-0.5722222222222222,-1.6033333333333333,-0.3322222222222222,-0.2399827721492203,-0.07744898555724837,0.015271630954950384
1592330937.7469842,0.1272310288544001,9.71790826347968,-0.330321465128503,-0.5722222222222222,-1.6033333333333333,-0.3322222222222222,-0.18905271068684476,-0.07180640252462035,-0.008613027483970895
1592330937.7569842,-0.09,9.24,0.16,-0.5722222222222222,-1.6033333333333333,-0.3322222222222222,-0.19853120241435498,-0.0643590161672909,0.007635815477475192
1592330937.7669842,0.21069794493989918,9.258994366261433,-0.03575234358962663,-0.5722222222222222,-1.6033333333333333,-0.3322222222222222,-0.006195838232127812,-0.04463155680558709,0.005407901274098481
1592330937.7769842,-0.43015534451894777,9.616809065809035,-0.1134433690342547,-0.5744401293189181,-1.603702984516116,-0.3344401293189181,0.12938241344832413,-1.4827276026530868e-05,-0.0101867357894056
1592330937.7869842,-0.27,9.47,0.0,-0.5788888888888889,-1.6044444444444443,-0.3388888888888889,0.19416787928436915,0.015271630954950384,-0.004363323129985824
1592330937.7969842,-0.4954555433589462,10.397327113062568,-0.6936882546652031,-0.5788888888888889,-1.6044444444444443,-0.3388888888888889,0.18670149581098094,0.02752162472040592,-0.004339973843203518
1592330937.8069842,-0.29,10.21,-1.02,-0.5788888888888889,-1.6044444444444443,-0.3388888888888889,0.13199052468207118,0.022907446432425576,-0.007635815477475192
1592330937.8169842,-0.2158147810974096,10.101453695274353,-0.672759248530994,-0.5788888888888889,-1.6044444444444443,-0.3388888888888889,-0.08756442560539632,0.009833636829778116,-0.01154916978120446
1592330937.8269842,0.07832407379898393,9.877876645176624,-0.37696663596660623,-0.5751682396321275,-1.5964307383529581,-0.3317337941643477,-0.18983819596401022,0.0017520572139197057,0.006197827044956393
1592330937.8369842,-0.6905585379237945,9.637639634480948,-0.019324314651778675,-0.5644444444444444,-1.5733333333333333,-0.3111111111111111,-0.24652775684419903,0.008677509034830205,0.0033216295726308112
1592330937.8469841,-0.2871779837336864,9.62212407792699,-0.2191167013429166,-0.5644444444444444,-1.5733333333333333,-0.3111111111111111,-0.23163493529281654,-8.459251386864607e-06,0.005875259572984505
1592330937.8569841,-0.009624035070999716,9.630375964929,-0.6460375964929,-0.5644444444444444,-1.5733333333333333,-0.3111111111111111,-0.20771058555203292,-0.004569185862954336,-0.001296693515464969
1592330937.8669841,-0.2705995397008055,9.68144418872267,-0.5476605293440736,-0.5644444444444444,-1.5733333333333333,-0.3111111111111111,-0.2071601885651457,-0.0027243153593234275,-0.003967159499426697
1592330937.8769841,-0.5527329733495907,9.828515937989897,-0.36338791151367356,-0.5602297315605101,-1.5763084247808163,-0.3086318682382086,-0.21064757540481552,0.0015597683144945836,-0.0015597683144945836
1592330937.886984,-0.04,9.51,-0.41,-0.5455555555555556,-1.5866666666666667,-0.3,-0.20725784867432664,-0.011999138607461015,0.011999138607461015
1592330937.896984,-0.2299398134993413,9.56,-0.18634567199648697,-0.5455555555555556,-1.5866666666666667,-0.3,-0.16830121657811928,-0.002919824301258757,0.009085879634963183
1592330937.906984,-0.28447305432653947,9.579598172191195,-0.048642924494088635,-0.5455555555555556,-1.5866666666666667,-0.3,-0.12810936030950418,-0.0035520241640237824,0.002077460205701708
1592330937.916984,-0.4,9.61,0.0,-0.5455555555555556,-1.5866666666666667,-0.3,-0.0916297857297023,0.001090830782496456,-0.006544984694978735
1592330937.926984,-0.2643614237110704,9.712048220361162,-0.13709238419261974,-0.5469799209049405,-1.5826309648434091,-0.3052226729477449,-0.026823917198553093,0.02320534800833111,-0.001715539094403776
1592330937.936984,-0.17,9.83,-0.2,-0.5522222222222222,-1.5677777777777777,-0.3244444444444444,-0.001090830782496456,0.04036073895236887,0.0
1592330937.946984,-0.1038002445361455,9.785418003973712,-0.44536374751642976,-0.5522222222222222,-1.5677777777777777,-0.3244444444444444,0.009323577272768311,0.07885724593012741,0.00335776820646032
1592330937.956984,-0.2113905969160912,9.68117018257497,-0.39280389745530225,-0.5522222222222222,-1.5677777777777777,-0.3244444444444444,-0.004262196068511363,0.11897516229767088,0.001090830782496456
1592330937.966984,-0.28610500428512875,9.614157506427693,-0.24342083690427396,-0.5522222222222222,-1.5677777777777777,-0.3244444444444444,0.008491119972786952,0.13949425927763995,0.0005052363016145973
1592330937.976984,-0.33170207352754105,9.68255311029131,-0.2919145146927872,-0.5549644517943716,-1.5682505759798724,-0.325106361927377,0.03497610624864257,0.14508049407202864,-0.00164783304187068
1592330937.986984,-0.3870538453671507,9.726842656985069,-0.453685313970137,-0.5844444444444444,-1.5733333333333333,-0.3322222222222222,0.07825299634160632,0.13956874746252612,-0.009473064347309362
1592330937.996984,-0.46,9.76,-0.52,-0.5844444444444444,-1.5733333333333333,-0.3322222222222222,0.09272061651219875,0.1287180323345818,-0.01308996938995747
1592330938.006984,-0.4289938606727891,9.757248465168198,-0.72973311685017,-0.5844444444444444,-1.5733333333333333,-0.3322222222222222,0.0891188658398288,0.08908975340431238,-0.01210889138242121
1592330938.016984,-0.3946569430569431,9.741985414585415,-0.6393138861138862,-0.5844444444444444,-1.5733333333333333,-0.3322222222222222,0.07671646162918232,0.0665327226226812,-0.01468879385633859
1592330938.026984,-0.36302209321077245,9.716604418642154,-0.6049066279632317,-0.5810488630865989,-1.571069612428103,-0.32976985790822266,0.06964834046467898,0.0534303377239401,-0.01308996938995747
1592330938.036984,-0.28,9.7,-0.58,-0.5644444444444444,-1.56,-0.31777777777777777,0.074176493209759,0.04799655442984406,-0.01308996938995747
1592330938.046984,-0.36062851852778544,9.753748592588886,-0.6981144444166437,-0.5644444444444444,-1.56,-0.31777777777777777,0.07785789357594784,0.04861114465578684,-0.009817477042468103
1592330938.056984,-0.33830742826754334,9.779153714133772,-0.8222884285334429,-0.5644444444444444,-1.56,-0.31777777777777777,0.07813287414954763,0.035091215974621295,-0.010067105871250379
1592330938.066984,-0.3980574203408849,9.808057420340885,-0.8222296813635396,-0.5644444444444444,-1.56,-0.31777777777777777,0.06905951361699554,0.02369974382775658,-0.011755918100810246
1592330938.076984,-0.3898067601205293,9.799420280361588,-0.789710140180794,-0.5645840065796177,-1.5601932398794707,-0.31791733991295107,0.05217016475179057,0.004173610321946515,-0.015271630954950384
1592330938.086984,-0.3646100009208951,9.745389999079105,-0.7653899990791049,-0.5788888888888889,-1.58,-0.3322222222222222,0.028315240790057303,-0.018211419411507966,-0.0158595886462619
1592330938.096984,-0.3336266404049195,9.750643794517098,-0.7846781027414516,-0.5788888888888889,-1.58,-0.3322222222222222,0.016362461737446838,-0.025669636932509298,-0.016942990672537652
