time,acc_x,acc_y,acc_z,mag_x,mag_y,mag_z,gyr_x,gyr_y,gyr_z
1592330990.406934,-0.28242041723195505,9.75,-0.39515916553609,-0.6133333333333333,-1.6277777777777778,-0.6533333333333333,0.03242617237932764,-0.0016536084403726333,0.0005627776578761775
1592330990.416934,-0.29,9.753242055658154,-0.3810806852193848,-0.6140537901462565,-1.6264569402874185,-0.6557348560430774,0.03526023845093476,0.00035365341104817276,-0.0007371773714482831
1592330990.426934,-0.29,9.78,-0.39,-0.62,-1.6155555555555556,-0.6755555555555556,0.038179077387375956,0.0032724923474893677,0.002181661564992912
1592330990.436934,-0.2551714485654304,9.746780965710286,-0.3764380685794262,-0.62,-1.6155555555555556,-0.6755555555555556,0.03128295052308416,0.0058052960817953445,0.004187752045329291
1592330990.446934,-0.2495601214102265,9.73,-0.39602848470698104,-0.62,-1.6155555555555556,-0.6755555555555556,0.02914761994820941,0.009769493731839496,0.0032724923474893677
1592330990.456934,-0.30222832207207206,9.732228322072073,-0.35554335585585584,-0.62,-1.6155555555555556,-0.6755555555555556,0.030063105961580603,0.014542414262090632,0.0032724923474893677
1592330990.466934,-0.3119814241486068,9.74,-0.335046439628483,-0.6193395252837978,-1.6167664258685932,-0.6755555555555556,0.03610548574510715,0.011999138607461015,0.0032724923474893677
1592330990.476934,-0.3191725650708939,9.742706858732276,-0.29,-0.6133333333333333,-1.6277777777777778,-0.6755555555555556,0.03797406405359047,0.010227503710039079,0.0029772198645857118
1592330990.486934,-0.2923342405048048,9.74533151899039,-0.32034512656246233,-0.6133333333333333,-1.6277777777777778,-0.6755555555555556,0.04188849579020355,0.0036717709350084816,0.0019270354253537979
1592330990.496934,-0.3096682917503107,9.73,-0.41758292706242234,-0.6133333333333333,-1.6277777777777778,-0.6755555555555556,0.04769670891650227,-0.0024453233213777978,0.001090830782496456
1592330990.506934,-0.33611835354034436,9.733881646459656,-0.3905917677017217,-0.6133333333333333,-1.6277777777777778,-0.6755555555555556,0.05081334891158108,-0.004119336236481523,0.0017259636992405728
1592330990.516934,-0.3201771122344267,9.749822887765573,-0.31088556117213334,-0.6133333333333333,-1.6277777777777778,-0.6755555555555556,0.053421728420735934,-0.007597175582021325,0.004334343208395423
1592330990.526934,-0.32,9.69,-0.23,-0.62,-1.6155555555555556,-0.6755555555555556,0.061086523819801536,-0.01308996938995747,0.00545415391248228
1592330990.536934,-0.2733680499919885,9.718894674998666,-0.23884260001068205,-0.62,-1.6155555555555556,-0.6755555555555556,0.07683476328921074,-0.016000744976611008,0.0020610893113809686
1592330990.546934,-0.23416633468469525,9.714047524195628,-0.3342851451737633,-0.62,-1.6155555555555556,-0.6755555555555556,0.09342177175164983,-0.011323903795761724,0.001090830782496456
1592330990.5569339,-0.285372458734928,9.734627541265072,-0.43771256877512,-0.62,-1.6155555555555556,-0.6755555555555556,0.11076569973604997,-0.0036902745354240743,0.0009225686338560186
1592330990.5669339,-0.260822374839037,9.759177625160962,-0.4786293752682717,-0.62,-1.6155555555555556,-0.6755555555555556,0.11969236214488613,-0.00011960957188961088,2.990239297240272e-05
1592330990.5769339,-0.29,9.75,-0.46,-0.6133333333333333,-1.6355555555555557,-0.6822222222222222,0.11890055529211369,0.0032724923474893677,0.001090830782496456
1592330990.5869339,-0.2991147239776175,9.79,-0.5030984660783385,-0.6133333333333333,-1.6355555555555557,-0.6822222222222222,0.11553149431100225,0.0042184701795527045,0.002133377248181872
1592330990.5969338,-0.2890534979423869,9.786378600823044,-0.5663786008230453,-0.6133333333333333,-1.6355555555555557,-0.6822222222222222,0.11166875121556312,0.0012883474673929336,0.0006957974127035007
1592330990.6069338,-0.32411317799099276,9.772943411004503,-0.5514717055022519,-0.6133333333333333,-1.6355555555555557,-0.6822222222222222,0.10298677167131305,0.0012184325662175021,-0.001572445281884161
1592330990.6169338,-0.29126179753279813,9.7893691012336,-0.5596845506168006,-0.6133333333333333,-1.6355555555555557,-0.6822222222222222,0.09940324196618291,-0.0041568619914776825,-0.004260092560731754
1592330990.6269338,-0.3066069246435845,9.746606924643585,-0.49491038696537676,-0.6266666666666667,-1.6222222222222222,-0.6611111111111111,0.09325625663777899,-0.012904905837652064,-0.004363323129985824
1592330990.6369338,-0.29395778364116093,9.72868073878628,-0.47659630606860154,-0.6266666666666667,-1.6222222222222222,-0.6611111111111111,0.0908267730956218,-0.012143047681668991,-0.004219414055777848
1592330990.6469338,-0.30794132029339855,9.72,-0.5148319944114566,-0.6266666666666667,-1.6222222222222222,-0.6611111111111111,0.09384810042821815,-0.013653711347967166,-0.0038362343054990627
1592330990.6569338,-0.25362126559344744,9.72,-0.4803432917508068,-0.6266666666666667,-1.6222222222222222,-0.6611111111111111,0.09979229293796786,-0.016757480535539614,-0.006149965896885958
1592330990.6669338,-0.2773684111197086,9.72,-0.4170175703474437,-0.6266666666666667,-1.6222222222222222,-0.6611111111111111,0.10324617524949703,-0.019347892269186484,-0.003559554163239091
1592330990.6769338,-0.2650916453537937,9.656605569764137,-0.21169721511793121,-0.62,-1.6277777777777778,-0.6611111111111111,0.11842511860195913,-0.016897880171395974,-0.0023867929291068735
1592330990.6869338,-0.28089722675367046,9.646068515497554,-0.24579119086460033,-0.62,-1.6277777777777778,-0.6611111111111111,0.14257496431386385,-0.013849813997014545,-0.008064673909092886
1592330990.6969337,-0.23,9.679171114674837,-0.39,-0.62,-1.6277777777777778,-0.6611111111111111,0.17433462318662604,-0.010914130254043683,-0.0044537404927706015
1592330990.7069337,-0.24058360081704117,9.668588853224394,-0.39,-0.62,-1.6277777777777778,-0.6611111111111111,0.2103497985007095,0.0020144241873671057,-0.005377187795409725
1592330990.7169337,-0.3629734461628246,9.65227020717829,-0.39,-0.62,-1.6277777777777778,-0.6611111111111111,0.23349094436719076,0.012694953048820004,-0.004487143723621984
1592330990.7269337,-0.39999976473356075,9.78285707563816,-0.5099997647335608,-0.62,-1.6277777777777778,-0.6677777777777778,0.2646043665749475,0.013401679322534861,-0.0003116842689899885
1592330990.7369337,-0.46,9.78252220409643,-0.5749936559724488,-0.62,-1.6277777777777778,-0.6677777777777778,0.26657402155724624,-0.00040577441968068714,0.006406035749464981
1592330990.7469337,-0.45529047066896994,9.66,-0.5982261766724248,-0.62,-1.6277777777777778,-0.6677777777777778,0.2543348156405195,-0.021027151425695896,0.02106827150512317
1592330990.7569337,-0.3947653933368219,9.65883675407485,-0.46,-0.62,-1.6277777777777778,-0.6677777777777778,0.2576775835725735,-0.051193339565051316,0.025406334113110468
1592330990.7669337,-0.3216047444618873,9.642578832102641,-0.46,-0.62,-1.6277777777777778,-0.6677777777777778,0.2762989574066186,-0.06538105296241903,0.02983999454978788
1592330990.7769337,-0.13469939523301316,9.59156646507767,-0.4793987904660263,-0.6133333333333333,-1.6277777777777778,-0.6466666666666666,0.3166965173213495,-0.09340411584277046,0.024129440788199796
1592330990.7869337,-0.15243935373827347,9.648388136075049,-0.5572183265422155,-0.6133333333333333,-1.6277777777777778,-0.6466666666666666,0.35424303273154156,-0.09543446250661297,0.010615753686600057
1592330990.7969337,-0.13174768792980793,9.948996917239743,-0.7447963006876926,-0.6133333333333333,-1.6277777777777778,-0.6466666666666666,0.39116627949697863,-0.0863337854668331,-0.005961104390911626
1592330990.8069336,-0.30158912459883336,10.150894778273418,-0.9488117392971761,-0.6133333333333333,-1.6277777777777778,-0.6466666666666666,0.3905377205996186,-0.09050694098039419,-0.024279379219244182
1592330990.8169336,-0.5978983912964495,10.371010233534506,-0.9403457602486728,-0.6133333333333333,-1.6277777777777778,-0.6466666666666666,0.3129641359789679,-0.11359431735558789,-0.04182578526439139
1592330990.8269336,-0.5,10.34,-1.06,-0.6133333333333333,-1.6477777777777778,-0.6466666666666666,0.18980455615438332,-0.062177354602297986,0.001090830782496456
1592330990.8369336,-0.2767935483870968,9.844529032258064,-0.7677354838709678,-0.6133333333333333,-1.6477777777777778,-0.6466666666666666,0.00710813488346497,-0.10853569232537093,0.01427960832849425
1592330990.8469336,-0.37964299030574195,9.912326621923937,-0.698091909023117,-0.6133333333333333,-1.6477777777777778,-0.6466666666666666,-0.10228206149740306,-0.12389053670999342,0.016614019842955435
1592330990.8569336,-0.06574288902135204,9.699391841288763,-0.5561508245831231,-0.6133333333333333,-1.6477777777777778,-0.6466666666666666,-0.15093268693022632,-0.15307740226485542,0.018278764005296162
1592330990.8669336,-0.02086829596344017,9.692981185137635,-0.8318090390817247,-0.6133333333333333,-1.6477777777777778,-0.6466666666666666,-0.1551284515696182,-0.14538516709263696,0.015481587579034901
1592330990.8769336,-0.0049866654813761225,9.360880078229176,-0.7356000533380744,-0.6166577769875841,-1.6505481474896535,-0.6245037089716616,-0.16251924088858724,-0.13256066776907338,0.007653270321536829
1592330990.8869336,-0.035566289689735894,9.579675228329322,-0.4269095585083583,-0.62,-1.6533333333333333,-0.6022222222222222,-0.09268900187743287,-0.08143113474042099,0.00945737951883216
1592330990.8969336,-0.06982455766361118,9.771052654018334,-0.7434502238328715,-0.62,-1.6533333333333333,-0.6022222222222222,-0.019902883146456652,-0.04772225385618539,0.001926498781442845
1592330990.9069335,-0.11056188217614878,9.68555049425908,-0.6366059311089718,-0.62,-1.6533333333333333,-0.6022222222222222,-0.010364134662764937,-0.005204017646736191,-0.005030079966961281
1592330990.9169335,-0.26431372003007436,9.768968004232686,-0.5065531452758207,-0.62,-1.6533333333333333,-0.6022222222222222,-0.007240685104644752,0.019315247198862993,-0.007767525601752005
1592330990.9269335,-0.4448108054424471,10.065862151157017,-0.8108243122455061,-0.624160360181415,-1.6533333333333333,-0.6209438430385893,0.003805524983902026,0.025761590170352094,-0.01621475703103551
1592330990.9369335,-0.4076485355648536,9.877595536959554,-0.5894449093444909,-0.6266666666666667,-1.6533333333333333,-0.6322222222222222,0.012228258713240606,0.05162930999810771,-0.011971753734260269
1592330990.9469335,-0.37492601529776,9.619954470952468,-0.5596471498816245,-0.6266666666666667,-1.6533333333333333,-0.6322222222222222,-0.0037961795258737163,0.0638216712551064,-0.007087296055817838
1592330990.9569335,-0.5243839864674372,9.791263978949347,-0.6777920308241707,-0.6266666666666667,-1.6533333333333333,-0.6322222222222222,-0.02597573476537374,0.05570043791216632,-0.007771951487169327
1592330990.9669335,-0.6516363933889707,10.201000245459008,-0.8080003272786778,-0.6266666666666667,-1.6533333333333333,-0.6322222222222222,-0.01996219439454374,0.03556106565910166,-0.00545415391248228
1592330990.9769335,-0.77,9.74,-0.32,-0.6,-1.6655555555555555,-0.6377777777777778,-0.016362461737446838,0.04363323129985824,0.01090830782496456
1592330990.9869335,-0.3180727330983659,9.906014098045498,-0.2738849727651394,-0.6,-1.6655555555555555,-0.6377777777777778,-0.059623636206812464,0.012444942728920237,0.006884012525488688
1592330990.9969335,-0.4658894076935839,9.459134649569814,-0.10411059230641606,-0.6,-1.6655555555555555,-0.6377777777777778,-0.09580431868230932,0.0031230269934183095,0.006295875771526972
1592330991.0069335,-0.3813379285614678,9.657024124947707,-0.18665517859633046,-0.6,-1.6655555555555555,-0.6377777777777778,-0.1360217112764139,0.0004743224393798462,0.00145569419740403
1592330991.0169334,-0.4147606430663187,9.832493376098173,-0.10309839233420323,-0.6,-1.6655555555555555,-0.6377777777777778,-0.10047464860534382,0.01232334332973654,0.010570325651524565
1592330991.0269334,-0.16,9.49,-0.16,-0.6266666666666667,-1.6655555555555555,-0.6533333333333333,-0.07090400086226964,0.011999138607461015,0.001090830782496456
1592330991.0369334,-0.5467980176477698,10.02414964341835,-0.3626084854345461,-0.6266666666666667,-1.6655555555555555,-0.6533333333333333,-0.052821235822607004,0.018026726954015224,-0.0009183653330216144
1592330991.0469334,-0.42355303382327764,9.532213553767516,-0.34088825845581944,-0.6266666666666667,-1.6655555555555555,-0.6533333333333333,-0.010737969725567661,0.03454323266497887,0.022374529615894253
1592330991.0569334,-0.18135782078719645,9.863644738066437,-0.28272587698892715,-0.6266666666666667,-1.6655555555555555,-0.6533333333333333,-0.009817477042468103,-0.005703059633741882,0.011453444088581646
1592330991.0669334,-0.22938961906883493,9.842881488081979,-0.3022711071508131,-0.6266666666666667,-1.6655555555555555,-0.6533333333333333,0.008807930041826194,-0.006826015169462396,0.011718108132977354
1592330991.0769334,-0.5048054474708171,10.002903696498054,-0.11889591439688715,-0.6256555339386078,-1.6817336792044963,-0.6604112624297449,-0.018479395016707957,-0.005552307460518196,0.009021106904079397
1592330991.0869334,-0.34527142385511483,9.595124274866764,-0.31243786256661793,-0.6255555555555555,-1.6833333333333333,-0.6611111111111111,-0.04700506780812677,0.0015986126918130636,-0.0003411965169795063
1592330991.0969334,-0.23928586495418006,9.904713713174115,-0.1304289028991961,-0.6255555555555555,-1.6833333333333333,-0.6611111111111111,-0.06590952626797908,0.00811888781992417,-0.0001012930733412464
1592330991.1069334,-0.4637464920486436,9.668854069223574,-0.20349859681945742,-0.6255555555555555,-1.6833333333333333,-0.6611111111111111,-0.07171115441601583,0.013826203636516116,0.001019911475308894
1592330991.1169333,-0.36418333267848024,9.734932222702447,-0.18683666653569603,-0.6255555555555555,-1.6833333333333333,-0.6611111111111111,-0.05009652476575213,0.03439462190692835,0.01793568222789181
1592330991.1269333,-0.32057055843873333,9.769429441561266,-0.49117157152179997,-0.5930763679556371,-1.6969536378107186,-0.6537771010079036,-0.023061381066296,0.035217776393978314,0.015707298850678793
1592330991.1369333,-0.23204605263157896,9.884340131578949,-0.3340921052631579,-0.5911111111111111,-1.6977777777777778,-0.6533333333333333,-0.02277604438224459,0.035866013772202054,0.01719048841958132
1592330991.1469333,-0.22,9.730369608347418,-0.3546395767506797,-0.5911111111111111,-1.6977777777777778,-0.6533333333333333,-0.01609025501120994,0.04963179866481432,0.014531639053708023
1592330991.1569333,-0.3080652647865532,9.657160841128068,-0.3247738940853787,-0.5911111111111111,-1.6977777777777778,-0.6533333333333333,-0.03928770637941874,0.04358390264150356,-0.0002288450822270846
1592330991.1669333,-0.3966026440508855,9.711282115240708,-0.15913444749314043,-0.5911111111111111,-1.6977777777777778,-0.6533333333333333,-0.03669316396676904,0.04087119007433528,-0.014715739887691648
1592330991.1769333,-0.30067747435168846,9.84014386982921,-0.357823707115724,-0.6400639421463159,-1.7089961348900122,-0.7073854176013719,-0.03390534900894504,0.028345906581070307,-0.02455153948808903
1592330991.1869333,-0.5299514974571482,9.80385548125824,-0.3430843850065926,-0.6444444444444445,-1.71,-0.7122222222222222,-0.03381575425739013,0.0272707695624114,-0.025089107997418484
1592330991.1969333,-0.3670613679372804,9.826134090294675,-0.4271136343155808,-0.6444444444444445,-1.71,-0.7122222222222222,-0.04046759062945039,0.04532575400086067,0.004369024507419796
1592330991.2069333,-0.21143414888079126,9.68429203539823,-0.5514237376366475,-0.6444444444444445,-1.71,-0.7122222222222222,-0.07884985986251582,-0.009035838014822932,0.016206304285501745
1592330991.2169333,-0.12703952127309792,9.66,-0.3102880252515289,-0.6444444444444445,-1.71,-0.7122222222222222,-0.07134895537951995,-0.054600718147349236,0.01230235039924194
1592330991.2269332,-0.07014839547393806,9.799480615841217,-0.20014839547393806,-0.5990578948453184,-1.7243908571899669,-0.733255013499866,-0.03937512649799302,-0.07957399109940712,4.0468587738692885e-05
1592330991.2369332,-0.23334304297514064,9.584684170623678,-0.3262196241171541,-0.5988888888888889,-1.7244444444444444,-0.7333333333333333,-0.02388166831398799,-0.08044055448307731,-0.006479258886688179
1592330991.2469332,-0.2638339600383396,10.103096905797635,-0.6054943596549436,-0.5988888888888889,-1.7244444444444444,-0.7333333333333333,0.020464263220716032,-0.050275907935445424,-0.001115253767648568
1592330991.2569332,-0.2687341922601503,9.596074926309784,-0.5439238851383474,-0.5988888888888889,-1.7244444444444444,-0.7333333333333333,0.0014083717581181085,-0.04105112997604407,-0.010480278355375584
1592330991.2669332,-0.24901066146967787,9.733886277656769,-0.53,-0.5988888888888889,-1.7244444444444444,-0.7333333333333333,0.010029440607334721,-0.036544769523516485,-0.004367199749756245
1592330991.2769332,-0.45239389619646214,9.745042441521415,-0.25813581286852844,-0.6036087532488102,-1.7527636306039729,-0.7758121125726257,0.031026265353961514,-0.027492639440351938,0.010956830816747351
1592330991.2869332,-0.1758506457046603,9.904527419052966,-0.32344282238442823,-0.6044444444444445,-1.7577777777777779,-0.7833333333333333,0.052853742366653564,-0.011901447697967369,0.0188013658227365
1592330991.2969332,-0.13,9.992548779592136,-0.6795505177858838,-0.6044444444444445,-1.7577777777777779,-0.7833333333333333,0.017618438003307015,0.013575711821539424,0.018660237882269226
1592330991.3069332,-0.300076668492107,10.241687897330888,-0.8363682468630205,-0.6044444444444445,-1.7577777777777779,-0.7833333333333333,-0.07576667665837314,0.015386015077575074,-0.0048905965344826115
1592330991.3169332,-0.37045189868895795,10.204412531704355,-0.8146836709177294,-0.6044444444444445,-1.7577777777777779,-0.7833333333333333,-0.12139770165741709,0.033433010716302,6.901230006791693e-05
1592330991.3269331,-0.6701884737259043,9.389434578822287,-0.159161935569052,-0.6044444444444445,-1.7691031819382097,-0.8317236965642696,-0.20450671986428606,0.03307482753959861,-0.015612353548519302
1592330991.3369331,-0.3492610895399459,9.588491587245558,-0.29799388163313334,-0.6044444444444445,-1.77,-0.8355555555555556,-0.1891234126124715,0.03291577714868733,-0.012326554694782872
1592330991.3469331,0.021764689439257565,9.401058869570079,-0.3860784368535808,-0.6044444444444445,-1.77,-0.8355555555555556,-0.13058742247218202,0.05010549190985195,0.0075630913924901715
1592330991.356933,-0.507082513962086,9.524600802328326,-0.34507983953433496,-0.6044444444444445,-1.77,-0.8355555555555556,-0.09451598686482644,0.03775794960632564,0.00600827844590178
1592330991.366933,-0.39021118594175097,9.838552027117435,-0.5434690691762187,-0.6044444444444445,-1.77,-0.8355555555555556,-0.03652062148827515,0.026508997876182494,0.022316784503211975
1592330991.376933,-0.6436,9.639348148148148,-0.3242666666666667,-0.6044444444444445,-1.774872427983539,-0.8677135802469136,-0.03794636682044338,-0.019741613094780303,0.023846368928174377
1592330991.386933,-0.5748354278874925,9.658767205266306,-0.33289048473967686,-0.6044444444444445,-1.7755555555555556,-0.8722222222222222,-0.047412297368004244,-0.04669356326176332,0.017779040311963482
1592330991.396933,-0.4884465941583603,9.894271665642286,-0.4206795649501617,-0.6044444444444445,-1.7755555555555556,-0.8722222222222222,-0.07447300935629582,-0.09149208003994218,0.016944941647012168
1592330991.406933,-0.42723889347287963,9.882929170104658,-0.25740695705041905,-0.6044444444444445,-1.7755555555555556,-0.8722222222222222,-0.10250142776990756,-0.1201897792355558,0.01146288966240261
1592330991.416933,-0.33607445887445886,9.808395382395382,-0.30856738816738816,-0.6044444444444445,-1.7755555555555556,-0.8722222222222222,-0.11916311023370159,-0.1225043579759665,0.019225506894253695
1592330991.426933,-0.40273072190319936,9.582115463494667,-0.0769001230516817,-0.6044444444444445,-1.7755555555555556,-0.8989435785252028,-0.14184155886510008,-0.13720720589651816,0.005413885343809315
1592330991.436933,-0.3359315694694556,9.664094749965368,-0.22816318049591358,-0.6044444444444445,-1.7755555555555556,-0.9077777777777778,-0.10447345311446943,-0.12980025010217283,-0.009823219052405055
1592330991.446933,-0.14290777230432403,9.669619594964422,-0.23683429118773947,-0.6044444444444445,-1.7755555555555556,-0.9077777777777778,-0.062328560347052905,-0.09671047787182249,-0.01282763563239897
1592330991.456933,-0.545479825920189,9.883879914435347,-0.3203599616434314,-0.6044444444444445,-1.7755555555555556,-0.9077777777777778,-0.0321489725461403,-0.06705555758602688,-0.01308996938995747
1592330991.466933,-0.5588766336083048,9.986337009917508,-0.4287301881546019,-0.6044444444444445,-1.7755555555555556,-0.9077777777777778,-0.022876811366423496,-0.043910261269646006,0.00012254026400831605
1592330991.476933,-0.42394548598162524,9.974965928738516,-0.5360545140183748,-0.6005517698598352,-1.7755555555555556,-0.9474830585407932,-0.06811392664400243,-0.025081674801253392,0.011019620862063734
1592330991.486933,-0.40781285390713473,9.842807191392978,-0.27092440543601365,-0.5988888888888889,-1.7755555555555556,-0.9644444444444444,-0.14034455278261984,-0.02266886580403415,0.011999138607461015
1592330991.496933,-0.29258209424554155,9.699920713355196,-0.2560475719868829,-0.5988888888888889,-1.7755555555555556,-0.9644444444444444,-0.1861182184552218,-0.0004929098801101407,0.02480744520878412
1592330991.506933,-0.5874571742138666,9.595380541107984,-0.16512096196974757,-0.5988888888888889,-1.7755555555555556,-0.9644444444444444,-0.23268481908569674,0.00528618564721931,0.011438602428775882
1592330991.516933,-0.5278298649302653,9.7025311276343,-0.2591576840160148,-0.5988888888888889,-1.7755555555555556,-0.9644444444444444,-0.2118311887652084,0.03399997503079031,0.010868929644796566
1592330991.526933,-0.044531331874364255,9.425538636994112,-0.1577693184970564,-0.5915987013120447,-1.7564188131663394,-1.0172983043765649,-0.15301441101107066,0.07234804119290052,0.007918315869995463
1592330991.536933,-0.22547793800189966,9.61016837924186,-0.35362058544167174,-0.59,-1.7522222222222221,-1.028888888888889,-0.10576358438583933,0.08381999870786384,0.007124167708671051
1592330991.546933,-0.37531223034651895,9.487134293110495,-0.2706501203506063,-0.59,-1.7522222222222221,-1.028888888888889,-0.042741156732420404,0.09098779126535916,0.004556481276175645
1592330991.556933,-0.4541911590891183,9.682573477267354,-0.3936078060567856,-0.59,-1.7522222222222221,-1.028888888888889,0.008486550602752087,0.08249514875865589,0.006594178518778973
1592330991.566933,-0.28756434974458867,9.80959054679891,-0.6267243743912861,-0.59,-1.7522222222222221,-1.028888888888889,0.035684764913365155,0.059685340394331286,0.014046806925731976
1592330991.576933,-0.608543407192154,9.714885579367962,-0.12782782419179073,-0.5980857246640029,-1.7477301529644427,-1.0747079953182388,0.048925325717229344,0.04114924358628385,0.02362740267354292
1592330991.586933,-0.500498966397795,9.802058692391876,-0.40412995014389363,-0.6,-1.7466666666666666,-1.0855555555555556,0.04273769862308456,0.015885425001507712,0.016054194046004847
1592330991.596933,-0.42390381383322556,9.601896832579186,-0.627931221719457,-0.6,-1.7466666666666666,-1.0855555555555556,0.029123306256015787,-0.013683742360432337,0.0024140712779281617
1592330991.6069329,-0.31332218559776726,9.78985395664413,-0.6540066886413397,-0.6,-1.7466666666666666,-1.0855555555555556,0.038379853449885835,-0.011853451297265942,0.008781735012286448
1592330991.6169329,-0.2248529202785278,9.828615176921984,-0.6950490265738241,-0.6,-1.7466666666666666,-1.0855555555555556,0.04678675070069903,-0.0018795400366306003,0.020347474149131878
1592330991.6269329,-0.12838464720482212,9.78882047039357,-0.7416153527951779,-0.5967977255118254,-1.7250513138714887,-1.1279856925238676,0.029695808483468332,-0.0034151151524931134,0.028923808161332793
1592330991.6369328,-0.14864917169840533,9.746794395417247,-0.8195765598389844,-0.5955555555555555,-1.7166666666666666,-1.1444444444444444,0.015170468601843807,-0.012049719784014304,0.028412181521461143
1592330991.6469328,-0.2678022939346812,9.767252867418351,-0.6606590202177294,-0.5955555555555555,-1.7166666666666666,-1.1444444444444444,0.02074977402611655,-0.03365994400905435,0.03658479236080983
1592330991.6569328,-0.3881768597785103,9.904691598093386,-0.923913775522303,-0.5955555555555555,-1.7166666666666666,-1.1444444444444444,0.044326314587473006,-0.05997812861554229,0.04353379442613782
1592330991.6669328,-0.4462127102507141,9.658171215487148,-1.0481279752459536,-0.5955555555555555,-1.7166666666666666,-1.1444444444444444,0.03281783103162249,-0.09937689987317959,0.03402467725873466
1592330991.6769328,-0.42636145355504584,9.854028813073395,-1.0910987672018349,-0.5903228927752293,-1.7002211550713557,-1.1586473862767583,-0.004543108492969669,-0.1467280379126362,-0.01122792624804695
1592330991.6869328,-0.3159473028722659,10.007298201914844,-1.1043986923017046,-0.5877777777777777,-1.6922222222222223,-1.1655555555555555,-0.049933804349517746,-0.1720026257273076,-0.04079742788475614
1592330991.6969328,-0.24023111564279037,9.476127396833489,-0.9432659246041861,-0.5877777777777777,-1.6922222222222223,-1.1655555555555555,-0.14472423696287276,-0.1897761939979177,-0.05815768317859443
1592330991.7069328,-0.1326948392635696,9.29720404464371,-0.47334923209005053,-0.5877777777777777,-1.6922222222222223,-1.1655555555555555,-0.12604449276626345,-0.10847569684380454,-0.01197707849815173
1592330991.7169328,-0.08315366049879325,9.832534191472245,-0.693612228479485,-0.5877777777777777,-1.6922222222222223,-1.1655555555555555,-0.13296375986935077,-0.09650693140446019,0.007061001187422755
1592330991.7269328,-0.17239734837241516,10.173928960126645,-0.973418422875235,-0.595821927596935,-1.6549266185152205,-1.1999260138737728,-0.17198927229729813,-0.07568500630434227,0.01268923181249538
1592330991.7369328,-0.24307230591882975,10.073933696386693,-0.9468493858568192,-0.6,-1.6355555555555557,-1.2177777777777778,-0.22585521919228913,-0.061430202508916565,0.00840859387735005
1592330991.7469327,-0.5333980633342057,9.84772415598011,-0.6700314053912588,-0.6,-1.6355555555555557,-1.2177777777777778,-0.3412693079571024,-0.04718886574891264,0.006045046755615272
1592330991.7569327,-0.4239836606739972,9.549738760776117,-0.4815102002042416,-0.6,-1.6355555555555557,-1.2177777777777778,-0.3838816084331849,-0.043065109157218125,0.0034372296345412815
1592330991.7669327,-0.37049205665988416,9.306574972609173,-0.22559085928940364,-0.6,-1.6355555555555557,-1.2177777777777778,-0.3618337694580229,-0.04153102589003895,-0.004283866974812199
1592330991.7769327,-0.3383011428189534,9.548940052128584,-0.11518077925549688,-0.5818942279845841,-1.6015167041665739,-1.2409531659575102,-0.2627416445567359,-0.02680288531713557,-0.011901887503815337
1592330991.7869327,-0.38796454263139274,9.785977436219977,-0.2193053972247337,-0.5722222222222222,-1.5833333333333333,-1.2533333333333334,-0.2029755692244744,-0.011130341780378163,-0.010110006135521715
1592330991.7969327,-0.3846298297757363,9.757545258038368,-0.37225074304242095,-0.5722222222222222,-1.5833333333333333,-1.2533333333333334,-0.12970010425224682,0.018703135247091694,0.00589493679149429
1592330991.8069327,-0.4133046723673643,9.689993385930931,-0.3366688713563566,-0.5722222222222222,-1.5833333333333333,-1.2533333333333334,-0.10254097948672242,0.03308648953385315,0.023268651749878105
1592330991.8169327,-0.4543420476919711,9.649122730255963,-0.34014621162400643,-0.5722222222222222,-1.5833333333333333,-1.2533333333333334,-0.10045212727380894,0.03760973817509398,0.04105767187683085
1592330991.8269327,-0.4049320559858676,9.67615504824025,-0.2739808397880147,-0.5885522640455376,-1.5591198230435899,-1.2640323262520572,-0.12790884015607273,0.023282396352839324,0.04629360437620763
1592330991.8369327,-0.3759672260439031,9.735967226043904,-0.1819754195329273,-0.6044444444444445,-1.5355555555555556,-1.2744444444444445,-0.15425151658403818,-0.002199536985080266,0.034897647329842914
1592330991.8469326,-0.3655394171492621,9.714460582850739,-0.15338174855221373,-0.6044444444444445,-1.5355555555555556,-1.2744444444444445,-0.1412512765801753,-0.01936790126586996,0.02268792514334575
1592330991.8569326,-0.2681575427297498,9.693026257121625,-0.15697374287837504,-0.6044444444444445,-1.5355555555555556,-1.2744444444444445,-0.11404918198641693,-0.029265852317566857,0.004635990294369568
1592330991.8669326,-0.25209539834089845,9.660893723587415,-0.05058577242134921,-0.6044444444444445,-1.5355555555555556,-1.2744444444444445,-0.080181995581214,-0.025381578357477407,-0.01113688032614896
1592330991.8769326,-0.29212725111984644,9.644645458146693,-0.022200079227229802,-0.6003151483140513,-1.5123282648220941,-1.2832191987215298,-0.023630345779036572,0.00020528905484042126,-0.010943010184623465
1592330991.8869326,-0.3041833797901512,9.732843837106534,-0.046110317945928805,-0.5955555555555555,-1.4855555555555555,-1.2933333333333332,0.03730234875112107,0.04470999625609774,0.011674858275582834
1592330991.8969326,-0.302537327833659,9.90168439588007,-0.2697013773307283,-0.5955555555555555,-1.4855555555555555,-1.2933333333333332,0.04263544096039691,0.054511306243304886,0.023491238375191546
1592330991.9069326,-0.41310416569264574,9.836295525737528,-0.27559259432418537,-0.5955555555555555,-1.4855555555555555,-1.2933333333333332,0.018467445380073888,0.05557808081629268,0.034405105817656115
1592330991.9169326,-0.5443888419952571,9.74388841995257,-0.10705494593834158,-0.5955555555555555,-1.4855555555555555,-1.2933333333333332,0.02787658205172984,0.06039569501603072,0.05225070240614943
1592330991.9269326,-0.5054585014134613,9.733187752120193,-0.12655020169615347,-0.6074332885119659,-1.4672440505810895,-1.2958078610325854,0.0562468565803674,0.05186447691414382,0.06132469587452569
1592330991.9369326,-0.3493274700171331,9.638814163335237,-0.015256653340948029,-0.6222222222222222,-1.4444444444444444,-1.298888888888889,0.07755902801836784,0.028732295918189803,0.048533285537192807
1592330991.9469326,-0.22411177796348353,9.572639722454355,-0.06604041631846842,-0.6222222222222222,-1.4444444444444444,-1.298888888888889,0.09617028702674559,0.0077631881822307226,0.036606517566009036
1592330991.9569325,-0.05983030874381334,9.630585670516144,0.047504124440254564,-0.6222222222222222,-1.4444444444444444,-1.298888888888889,0.1468269030999566,-0.005563416953387534,0.024779829319279613
1592330991.9669325,-0.03339064295052094,9.753638236342749,-0.10306738501762866,-0.6222222222222222,-1.4444444444444444,-1.298888888888889,0.21400239192231288,-0.00771684022561055,0.006842075438141717
1592330991.9769325,0.021852547623755852,9.815297936853208,-0.2363598312570035,-0.6192789239704407,-1.4267846549337553,-1.2941796116860385,0.24973524945354478,-0.00031791630774557263,-0.015856628598242925
1592330991.9869325,0.08011969702915898,9.910106353753777,-0.18206114359719006,-0.6166666666666667,-1.4111111111111112,-1.29,0.2318595696595116,0.004852165667771901,-0.029828127958266084
1592330991.9969325,-0.3542005545286506,10.32193314849045,-0.5888847812692545,-0.6166666666666667,-1.4111111111111112,-1.29,0.07892106942746578,-0.001305737216694386,-0.0677855892029425
1592330992.0069325,-0.6684079554189086,9.947526662182936,-0.4229068985395849,-0.6166666666666667,-1.4111111111111112,-1.29,-0.03728439282023712,-0.017883577471666894,-0.07160796297394652
1592330992.0169325,-0.5606027956903112,9.809919493731725,-0.4199194937317259,-0.6166666666666667,-1.4111111111111112,-1.29,-0.09432398528121606,-0.012384667138111424,-0.026872177451676617
1592330992.0269325,-0.5714286997664251,9.758883032880158,-0.1502335748936935,-0.6166666666666667,-1.3899855596148345,-1.2884155836377793,-0.13184320340192926,-0.026086450198148616,0.01941962329143388
1592330992.0369325,-0.415134049509575,9.421711349836526,0.040456795889771135,-0.6166666666666667,-1.3666666666666667,-1.2866666666666666,-0.14261682651072008,-0.0568683560797892,0.02835329556127652
1592330992.0469325,0.0020211802410645963,9.435765809702966,-0.04704266239346014,-0.6166666666666667,-1.3666666666666667,-1.2866666666666666,-0.08556760493292875,-0.04557817759437002,0.043563589788883
1592330992.0569324,0.06463959657760146,9.593604034223985,0.013918789732804356,-0.6166666666666667,-1.3666666666666667,-1.2866666666666666,0.014569481309498991,-0.014598314989663446,0.05637435487220218
1592330992.0669324,0.06904982828221967,9.707873712116648,-0.03619931312887871,-0.6166666666666667,-1.3666666666666667,-1.2866666666666666,0.07365825493055285,0.02182167644225618,0.06384077788808475
1592330992.0769324,-0.049542825397862825,9.953128002352864,-0.33908565079572567,-0.6129349803383332,-1.3485413330719038,-1.2866666666666666,0.08224748604067744,0.05737307932109223,0.059345814406028555
1592330992.0869324,-0.19,10.13,-0.62,-0.6088888888888889,-1.3288888888888888,-1.2866666666666666,0.08508480103472357,0.06872233929727672,0.04799655442984406
1592330992.0969324,-0.39082018502036303,9.824747687245463,-0.22623027753054453,-0.6088888888888889,-1.3288888888888888,-1.2866666666666666,-0.04690401724754761,0.028542243358218755,-0.004666150253114339
1592330992.1069324,-0.3036835375351638,9.837893660056263,-0.22526329249296723,-0.6088888888888889,-1.3288888888888888,-1.2866666666666666,-0.12175236782140739,-0.025357168383138794,-0.03333735396257198
1592330992.1169324,-0.21747402206619862,9.795155867602809,-0.2483506519558676,-0.6088888888888889,-1.3288888888888888,-1.2866666666666666,-0.16062766647558877,-0.05083625939084968,-0.036177331784142036
1592330992.1269324,-0.2628311665998511,9.91847975488231,-0.304351411717542,-0.6195660805986676,-1.319033019618324,-1.285434683007846,-0.17422559216956687,-0.0638371841114984,-0.027246436558014033
1592330992.1369324,-0.3425042542427448,9.945417375707123,-0.38916524858575174,-0.6377777777777778,-1.3022222222222222,-1.2833333333333334,-0.20316584104228225,-0.06358595764144406,-0.009181932529168876
1592330992.1469324,-0.31,9.600023916366684,-0.18694832092312247,-0.6377777777777778,-1.3022222222222222,-1.2833333333333334,-0.22121996091610155,-0.0808804576560898,0.0011777841805883497
1592330992.1569324,-0.20049465369424913,9.261416530199403,-0.010938734225989788,-0.6377777777777778,-1.3022222222222222,-1.2833333333333334,-0.19640717698116048,-0.11531350731921222,-0.00332277291096346
1592330992.1669323,-0.05068291670988487,9.268801369152577,0.021456487916191286,-0.6377777777777778,-1.3022222222222222,-1.2833333333333334,-0.09575819724568344,-0.14422303613176612,-0.03519621356773996
1592330992.1769323,-0.09151356413332942,9.577567820666648,0.02289719352667466,-0.6318906870348151,-1.2813909780548158,-1.2892204240762961,0.0674994762032762,-0.1381640248487683,-0.06035772844464733
1592330992.1869323,-0.21,10.17,-0.22,-0.6233333333333333,-1.251111111111111,-1.2977777777777777,0.17671458676442586,-0.1090830782496456,-0.0545415391248228
1592330992.1969323,-0.24241548862937923,9.746805269768313,-0.2320520563320061,-0.6233333333333333,-1.251111111111111,-1.2977777777777777,0.34240470203460394,-0.019731295597353055,0.001249495488119721
1592330992.2069323,-0.100515799147011,10.071870684983152,-0.5866127854096468,-0.6233333333333333,-1.251111111111111,-1.2977777777777777,0.32219101753085294,-0.02888769955686236,-0.001238625900179592
1592330992.2169323,-0.3428278748561264,10.2,-0.635964005441038,-0.6233333333333333,-1.251111111111111,-1.2977777777777777,0.2302858035445632,-0.025647158626463343,0.0015310894927868537
1592330992.2269323,-0.2600895034103885,10.087970124378877,-0.5719104348631215,-0.6210281918596476,-1.24004643203742,-1.284407957230401,0.08477870451071326,-0.04581489286485115,-8.140578476208832e-05
1592330992.2369323,0.05,9.93,-0.49,-0.6177777777777778,-1.2244444444444444,-1.2655555555555555,0.004363323129985824,-0.04581489286485115,-0.0032724923474893677
1592330992.2469323,-0.38984064564217236,9.360475749865062,-0.24634872902048474,-0.6177777777777778,-1.2244444444444444,-1.2655555555555555,-0.06958794984496211,-0.03835214903053402,-0.001541018920223487
1592330992.2569323,-0.32648314901951414,9.435932596078056,-0.2384059044115891,-0.6177777777777778,-1.2244444444444444,-1.2655555555555555,-0.03117876131553936,-0.02767232410464837,0.0008031090844739476
1592330992.2669322,-0.37,9.530601775147929,-0.15364181459566073,-0.6177777777777778,-1.2244444444444444,-1.2655555555555555,0.021939533130410423,-0.0385258626053696,0.002301179612266439
1592330992.2769322,-0.35967268399127156,9.565237056139654,0.04082391059974873,-0.6223676960038793,-1.2202370194038514,-1.2605831441439455,0.08882145367351522,-0.06434055073845277,-0.0007153189757334757
1592330992.2869322,-0.34,9.88,-0.11,-0.6311111111111111,-1.2122222222222223,-1.251111111111111,0.11671889372712078,-0.08508480103472357,0.0
1592330992.2969322,-0.3375508367824366,10.217550836782436,-0.5547003779017455,-0.6311111111111111,-1.2122222222222223,-1.251111111111111,0.06292485930263027,-0.12740891761648412,0.020578560990003773
1592330992.3069322,-0.15865328570085552,9.91318064303845,-0.4570200714487167,-0.6311111111111111,-1.2122222222222223,-1.251111111111111,-0.043567547637529666,-0.1703258635534021,0.010583248045626575
1592330992.3169322,-0.09689346500503009,9.59185496951157,-0.2645443160120722,-0.6311111111111111,-1.2122222222222223,-1.251111111111111,-0.12279092454555693,-0.19756849783356797,0.0055367719090049445
1592330992.3269322,0.003937677053824362,9.391218130311616,0.04,-0.6311111111111111,-1.204620711362921,-1.244595530374567,-0.16113702876282635,-0.2001504526410636,0.0014214792066526054
1592330992.3369322,-0.19722780373831778,9.504155373831775,0.12922897196261682,-0.6311111111111111,-1.1888888888888889,-1.231111111111111,-0.11267530125522883,-0.16646115970946704,0.006796665862669214
1592330992.3469322,-0.14293574078888285,9.522066740717984,0.07621014818140995,-0.6311111111111111,-1.1888888888888889,-1.231111111111111,-0.008125816675284614,-0.13537601093969884,0.007466595302675325
1592330992.3569322,-0.11291615035109456,9.85451053283767,-0.3327110009637891,-0.6311111111111111,-1.1888888888888889,-1.231111111111111,0.08842442836221787,-0.11426388615852832,0.004363323129985824
1592330992.3669322,-0.5135079685656582,10.107015937131315,-0.5288496070707273,-0.6311111111111111,-1.1888888888888889,-1.231111111111111,0.11921487614587549,-0.09321757501402077,0.007196006221791693
1592330992.3769321,-0.4547195225360381,10.117289804970321,-0.28275683256147677,-0.6311111111111111,-1.1800103638959551,-1.2231204386174708,0.08153702173286209,-0.08638972808129489,0.012508871288030098
1592330992.3869321,-0.33,10.22,-0.07,-0.6311111111111111,-1.1555555555555554,-1.201111111111111,0.044724062082354694,-0.09599310885968812,0.01090830782496456
1592330992.3969321,-0.57844983791871,9.732887540520322,-0.23144377026016125,-0.6311111111111111,-1.1555555555555554,-1.201111111111111,-0.08271856895498525,-0.09801727952041735,0.00435945461420272
1592330992.406932,-0.5846256283202707,9.640003096934036,-0.09846844700669413,-0.6311111111111111,-1.1555555555555554,-1.201111111111111,-0.12745912156777997,-0.10874691828103482,-0.00025110650716495334
1592330992.416932,-0.2569731287964584,9.447215072583136,0.06341398126222589,-0.6311111111111111,-1.1555555555555554,-1.201111111111111,-0.11680334804076614,-0.11602158410820589,-0.013467655369730516
1592330992.426932,-0.24890070818640167,9.333370442689361,0.024469734502958064,-0.6295749262508217,-1.151561474918803,-1.2032617699155161,-0.05496731060123043,-0.09307190261794836,-0.002206490021878924
1592330992.436932,-0.56,9.63,0.01,-0.6255555555555555,-1.1411111111111112,-1.208888888888889,0.015271630954950384,-0.06544984694978735,0.011999138607461015
1592330992.446932,-0.2756741441605365,9.879361597047126,-0.48921863221647477,-0.6255555555555555,-1.1411111111111112,-1.208888888888889,0.09667390340851034,-0.04411290649279558,0.010977946784227675
1592330992.456932,-0.15873700283574493,9.862488184396133,-0.7750141787246418,-0.6255555555555555,-1.1411111111111112,-1.208888888888889,0.07976120099906737,-0.04445264326917191,0.00668069410157013
1592330992.466932,-0.09,9.8,-0.85,-0.6255555555555555,-1.1411111111111112,-1.208888888888889,0.04908738521234052,-0.05126904677733343,0.0032724923474893677
1592330992.476932,-0.6339129172714079,9.748496371552976,-0.35496371552975325,-0.6247202064183196,-1.1381038542170618,-1.204545073375262,-0.043977104225777296,-0.07625144650952659,-0.002009725102033383
1592330992.486932,-0.43,9.74,-0.27,-0.62,-1.1211111111111112,-1.18,-0.08290313946973066,-0.0818123086872342,0.017453292519943295
1592330992.496932,-0.1469310326057373,9.604694355233791,-0.2974122257906483,-0.62,-1.1211111111111112,-1.18,-0.06837765078318431,-0.09749530950017464,0.002990209970918242
1592330992.506932,-0.3273063347138554,9.717313394201806,-0.24846479668674698,-0.62,-1.1211111111111112,-1.18,-0.027187807281513703,-0.08655319746998123,0.0014265302594704925
1592330992.516932,-0.31424785375214626,9.674363801636199,-0.21861165538834462,-0.62,-1.1211111111111112,-1.18,0.006865943005812861,-0.08040413329450617,-0.0006238481186554824
1592330992.526932,-0.2740182719590908,9.998410713728914,-0.39345764085934337,-0.6229698689366302,-1.1142575674111954,-1.1740602621267395,0.03849509212967194,-0.05474548104655423,6.115536612293429e-05
1592330992.536932,-0.56,10.34,-0.6,-0.6344444444444445,-1.0877777777777777,-1.1511111111111112,0.05235987755982988,-0.02181661564992912,0.008726646259971648
1592330992.546932,-0.4973049163179916,9.815672071129708,-0.30921966527196654,-0.6344444444444445,-1.0877777777777777,-1.1511111111111112,-0.028764329136416352,0.0012532002598492232,0.007001342196505365
1592330992.556932,-0.664169084127642,9.64196192194242,-0.15705711708637038,-0.6344444444444445,-1.0877777777777777,-1.1511111111111112,-0.09005942125712615,-0.008619640017589313,-0.0028197102180052705
1592330992.566932,-1.0,9.8,0.08,-0.6344444444444445,-1.0877777777777777,-1.1511111111111112,-0.08072147790473774,0.0,0.004363323129985824
1592330992.576932,-0.46874099141442627,9.495324309080655,-0.06874099141442627,-0.6334652155445538,-1.086238989506521,-1.1491526533113299,-0.03980353135017995,0.00028253453807469144,0.004630134720139591
1592330992.586932,-0.46,9.81,-0.06,-0.6266666666666667,-1.0755555555555556,-1.1355555555555557,-0.028361600344907853,0.009817477042468103,-0.001090830782496456
1592330992.596932,-0.8605890070243529,9.83252794708503,-0.2666294038866264,-0.6266666666666667,-1.0755555555555556,-1.1355555555555557,-0.018426176311006837,0.008502946493358619,0.007793624735729592
1592330992.606932,-0.29,9.74,-0.39,-0.6266666666666667,-1.0755555555555556,-1.1355555555555557,-0.032724923474893676,-0.0032724923474893677,0.011999138607461015
1592330992.616932,-0.6095534470174507,9.95955344701745,-0.5844405370136908,-0.6266666666666667,-1.0755555555555556,-1.1355555555555557,-0.03270740764652369,-0.017028014962535802,0.02208152445916122
1592330992.626932,-0.25601431359791804,9.586193884189981,-0.6870019518542616,-0.6262537410540013,-1.0755555555555556,-1.1363814067808864,-0.08084681343901808,-0.06992871155758087,0.0012161663167767904
1592330992.636932,-0.44,9.63,-0.1,-0.6233333333333333,-1.0755555555555556,-1.1422222222222222,-0.08944812416470939,-0.08617563181722002,0.009817477042468103
1592330992.646932,-0.4789465211947773,9.609323146894242,-0.4010534788052227,-0.6233333333333333,-1.0755555555555556,-1.1422222222222222,-0.07985214678313761,-0.16049979146757656,-0.014508882783302122
1592330992.6569319,-0.5557210485409454,9.64,-0.2175256129442521,-0.6233333333333333,-1.0755555555555556,-1.1422222222222222,-0.06582936018182385,-0.16269410087357955,-0.014450713929275986
1592330992.6669319,-0.36697022215219793,9.671465259177564,-0.16674255553804948,-0.6233333333333333,-1.0755555555555556,-1.1422222222222222,-0.04705155158479021,-0.17391841984842993,-0.01361596397162289
1592330992.6769319,-0.4500180621855245,9.756708811766224,-0.18334537479034962,-0.6217621023810548,-1.073891899253143,-1.1422222222222222,-0.01636443201624376,-0.1340814478717558,0.010999046200272854
1592330992.6869318,-0.34,9.5,-0.11,-0.6044444444444445,-1.0555555555555556,-1.1422222222222222,-0.004363323129985824,-0.13308135546456762,0.011999138607461015
1592330992.6969318,-0.03802151807723911,9.830106820049302,-0.4399465899753492,-0.6044444444444445,-1.0555555555555556,-1.1422222222222222,0.04968823286834226,-0.11414637727462387,0.025899948421917958
1592330992.7069318,-0.19784263406367264,9.584944437719404,-0.5475833434208933,-0.6044444444444445,-1.0555555555555556,-1.1422222222222222,0.08343845335330899,-0.07742070133577267,0.03575400249900162
1592330992.7169318,0.0415860304314706,9.617195343477157,-0.5120116413071079,-0.6044444444444445,-1.0555555555555556,-1.1422222222222222,0.09838084725200111,-0.09197580389302715,0.009438391133485605
1592330992.7269318,-0.09668725027243008,9.570552124954595,-0.6184053759535053,-0.6051806110505711,-1.0548807361666062,-1.140749889009969,0.1253116130693722,-0.06120697879905287,0.00030113744812833505
1592330992.7369318,-0.04,9.58,-0.42,-0.6177777777777778,-1.0433333333333332,-1.1155555555555556,0.16035212502697901,-0.06326818538479445,0.00545415391248228
1592330992.7469318,0.043892193935306724,9.439433512367831,-0.4488807533900142,-0.6177777777777778,-1.0433333333333332,-1.1155555555555556,0.24386022775684993,-0.08193340117685403,-0.00684796551300781
1592330992.7569318,-0.1638271411401996,10.110456706902857,-0.9628024246224591,-0.6177777777777778,-1.0433333333333332,-1.1155555555555556,0.30325363658751203,-0.08203854620490825,-0.007491716600004792
1592330992.7669318,-0.12806630507648242,9.824102220326244,-0.7219336949235176,-0.6177777777777778,-1.0433333333333332,-1.1155555555555556,0.22075612342512838,-0.04603637403719665,-0.00021696069619157779
1592330992.7769318,-0.3278818487909397,10.119211815120906,-0.5418227731864096,-0.6184783865591946,-1.0427203006495935,-1.1145046423834304,0.13240421900086918,-0.052451197492187636,0.004390201574427503
1592330992.7869318,-0.42,10.11,-0.68,-0.6266666666666667,-1.0355555555555556,-1.1022222222222222,0.04799655442984406,-0.015271630954950384,0.017453292519943295
1592330992.7969317,-0.5534507891697678,9.973640446554601,-0.7092773001411523,-0.6266666666666667,-1.0355555555555556,-1.1022222222222222,-0.04513892211997345,0.0032922009288027902,-0.012633732529638089
1592330992.8069317,-0.7912787088764742,9.76619180633147,-0.46793606455617626,-0.6266666666666667,-1.0355555555555556,-1.1022222222222222,-0.13922988986584575,0.0062152301381346794,-0.01591218087440516
1592330992.8169317,-0.9325712511766708,9.73074225400068,-0.38679925494201767,-0.6266666666666667,-1.0355555555555556,-1.1022222222222222,-0.174872677838152,-0.012959123878203355,-0.011519145972089844
1592330992.8269317,-0.8415650203896692,9.45886754266727,-0.04713729043951065,-0.6259937908003156,-1.0351470237795566,-1.101549346355871,-0.19047628780615716,-0.03924074685760812,0.0011616087471786002
1592330992.8369317,-0.46,9.86,-0.37,-0.5955555555555555,-1.0166666666666666,-1.0711111111111111,-0.12217304763960307,-0.08726646259971647,0.004363323129985824
1592330992.8469317,-0.3641973437459861,9.29918771032959,0.0510637860610887,-0.5955555555555555,-1.0166666666666666,-1.0711111111111111,-0.047855181056666196,-0.10319849916134331,0.011309197314891713
1592330992.8569317,-0.59,9.69,-0.14,-0.5955555555555555,-1.0166666666666666,-1.0711111111111111,-0.01090830782496456,-0.10035643198967394,0.028361600344907853
1592330992.8669317,-0.20849329584775086,9.97457331314879,-0.6815067041522491,-0.5955555555555555,-1.0166666666666666,-1.0711111111111111,0.026344294706853802,-0.08544113751763034,0.006758786584722796
1592330992.8769317,-0.3264126297577855,10.038068339100345,-0.5635873702422146,-0.5955555555555555,-1.0166666666666666,-1.0711111111111111,0.01348129077879941,-0.09038844672072818,0.009727172106581503
1592330992.8869317,-0.44,10.02,-0.63,-0.6222222222222222,-1.0177777777777777,-1.0622222222222222,-0.07308566242726255,-0.05563236990731925,0.014180800172453926
1592330992.8969316,-0.325136858096194,10.004863141903806,-0.083104196619917,-0.6222222222222222,-1.0177777777777777,-1.0622222222222222,-0.1511597976226581,-0.0836502651946166,0.013309153493420326
1592330992.9069316,-0.38451940129105483,9.838462084131375,-0.5688465630985317,-0.6222222222222222,-1.0177777777777777,-1.0622222222222222,-0.13489584727266576,-0.09358420700258119,-0.0020173314967683507
1592330992.9169316,-0.2762571592778295,9.458966685824134,-0.2293571018054262,-0.6222222222222222,-1.0177777777777777,-1.0622222222222222,-0.1815212551388168,-0.0822556539316393,-0.006101639450573628
1592330992.9269316,-0.37600467706454743,9.575338789908638,0.020011692661368652,-0.6222222222222222,-1.0177777777777777,-1.0622222222222222,-0.18424144671080092,-0.08497584550362343,-0.003381447878589511
1592330992.9369316,0.07,9.95,0.03,-0.5966666666666667,-1.0233333333333334,-1.0466666666666666,-0.13853550937704992,-0.07199483164476608,0.0032724923474893677
1592330992.9469316,0.12870895092442255,9.496149374116168,0.358686429581522,-0.5966666666666667,-1.0233333333333334,-1.0466666666666666,-0.1246017786917853,0.033431538208980316,0.008444983045300955
1592330992.9569316,0.08806168022189836,9.967348032532556,-0.20489868835503738,-0.5966666666666667,-1.0233333333333334,-1.0466666666666666,-0.14239426365418523,0.11695243438733839,0.002767923494638885
1592330992.9669316,-0.0422626400820876,9.673575840492525,-0.015838480574613203,-0.5966666666666667,-1.0233333333333334,-1.0466666666666666,-0.11629788479605768,0.18018984726674464,-0.003583195753476981
1592330992.9769316,-0.059140092147355286,9.77484055288413,-0.13398064503148704,-0.5966666666666667,-1.0233333333333334,-1.0466666666666666,0.008893136055678513,0.21424916911611405,0.018509337338005874
1592330992.9869316,-0.21,9.58,-0.21,-0.5844444444444444,-1.0044444444444445,-1.0466666666666666,0.10362892433716332,0.2301652951067522,0.014180800172453926
1592330992.9969316,-0.43300663402306117,9.86118227768125,-0.30695940609698313,-0.5844444444444444,-1.0044444444444445,-1.0466666666666666,0.14276245712173385,0.20478138194919293,-0.0027418085992522677
1592330993.0069315,-0.9684908489420949,9.82471690030226,-0.3673584501511293,-0.5844444444444444,-1.0044444444444445,-1.0466666666666666,0.1506478407924621,0.16129892055752293,-0.002068468757041736
1592330993.0169315,-0.5969038668644464,9.922775689350374,-0.411743644971857,-0.5844444444444444,-1.0044444444444445,-1.0466666666666666,0.15858582277828873,0.10365206511982086,0.006094670384182848
1592330993.0269315,-0.5713356227013187,9.863116452969743,-0.34356166053685006,-0.5844444444444444,-1.0044444444444445,-1.0466666666666666,0.15300769722078375,0.022769244535998504,0.0023759200125128555
1592330993.0369315,-0.23,9.88,-0.21,-0.6077777777777778,-1.011111111111111,-1.04,0.056723200689815706,-0.08944812416470939,-0.00545415391248228
1592330993.0469315,-0.30332664006303534,9.957700226215591,-0.39856264138474445,-0.6077777777777778,-1.011111111111111,-1.04,0.05311699613689901,-0.09038887317851374,-0.00551687051340257
1592330993.0569315,0.2546694923326031,9.872004238498905,-0.3526652538336984,-0.6077777777777778,-1.011111111111111,-1.04,-0.07250188249973116,-0.1201379089921276,-0.007054347292482201
1592330993.0669315,0.16274888293118858,9.76151385165326,-0.3529746797736074,-0.6077777777777778,-1.011111111111111,-1.04,-0.10967122353302913,-0.10301036446895949,-0.0029233745063472196
1592330993.0769315,-0.262053619302949,9.436664879356568,-0.04478462913315462,-0.6077777777777778,-1.011111111111111,-1.04,-0.09149915898720495,-0.14571471615164633,-0.023821248734045036
1592330993.0869315,-0.07,9.64,-0.13,-0.5933333333333334,-0.9955555555555555,-1.0255555555555556,-0.009817477042468103,-0.09817477042468103,0.007635815477475192
1592330993.0969315,-0.3270689017626032,9.408637988413657,-0.29281030444964873,-0.5933333333333334,-0.9955555555555555,-1.0255555555555556,0.057483004061181106,-0.12995555316807095,0.005766357669040491
1592330993.1069314,0.046512671216532235,10.085532381997805,-0.667002815825896,-0.5933333333333334,-0.9955555555555555,-1.0255555555555556,0.21140423428363936,-0.1390824605630809,0.011835667569564825
1592330993.1169314,-0.11311009029612397,9.683175150822128,-0.6262418674342495,-0.5933333333333334,-0.9955555555555555,-1.0255555555555556,0.19232074460754572,-0.11978877740772202,0.009817477042468103
1592330993.1269314,-0.02214896888923938,9.989135286463467,-0.5766267103032214,-0.5933333333333334,-0.9955555555555555,-1.0255555555555556,0.15353349712241696,-0.13151515455438886,0.009817477042468103
1592330993.1369314,0.11,10.23,-0.64,-0.5811111111111111,-0.9966666666666667,-1.0044444444444445,0.06763150851478027,-0.09599310885968812,0.014180800172453926
1592330993.1469314,0.00888768595372709,10.009391314808132,-0.7870724567945788,-0.5811111111111111,-0.9966666666666667,-1.0044444444444445,-0.07675653830123565,-0.13309281533324774,-0.007878484757770726
1592330993.1569314,0.09768726926283196,9.663986185542456,-0.33673454805287606,-0.5811111111111111,-0.9966666666666667,-1.0044444444444445,-0.16545451621553087,-0.12277264732516822,-0.007696664011299336
1592330993.1669314,-0.2822682893153711,10.033707370954062,-0.5905122389001756,-0.5811111111111111,-0.9966666666666667,-1.0044444444444445,-0.21459674577474408,-0.09723026876409543,-0.008429727882913893
1592330993.1769314,-0.3236330105130279,9.371871831791553,-0.05277086333063763,-0.5811111111111111,-0.9966666666666667,-1.0044444444444445,-0.20918211643172954,-0.11979122435998926,-0.0030150985398993742
1592330993.1869314,-0.15,9.54,0.12,-0.5811111111111111,-0.99,-1.0177777777777777,-0.038179077387375956,-0.0818123086872342,-0.004363323129985824
1592330993.1969314,-0.2596894762445273,9.244682179341657,0.060936435868331446,-0.5811111111111111,-0.99,-1.0177777777777777,0.054781833209146036,-0.0808919036318231,-0.002522513019163606
1592330993.2069314,0.04096476708441712,9.533506739181838,-0.22189879404114446,-0.5811111111111111,-0.99,-1.0177777777777777,0.20281765924659098,-0.04912246513346123,0.01713757322985683
1592330993.2169313,0.07120798966510981,9.937181357448077,-0.5693294246248634,-0.5811111111111111,-0.99,-1.0177777777777777,0.26550385477331556,-0.050595491560189436,0.007284425527704695
1592330993.2269313,0.12122448573983902,9.820476199940376,-0.12751704263142205,-0.5811111111111111,-0.99,-1.0177777777777777,0.23822408799785166,-0.0678726771846499,-0.007264783419209378
1592330993.2369313,0.11,10.55,-0.83,-0.5822222222222222,-0.9911111111111112,-0.99,0.14398966328953217,-0.025089107997418484,0.020725784867432664
1592330993.2469313,-0.556184099408855,10.088112357743194,-0.6168210881891664,-0.5822222222222222,-0.9911111111111112,-0.99,0.007371168269898837,-0.09388281825553173,-0.009310905526954807
1592330993.2569313,-0.0669447971740586,10.060103664026967,-0.46913190035324265,-0.5822222222222222,-0.9911111111111112,-0.99,-0.06999125205199935,-0.11595002588238977,-0.005340519934447417
1592330993.2669313,-0.4542927065777019,9.508132893126774,-0.42071341167778725,-0.5822222222222222,-0.9911111111111112,-0.99,-0.14076519842345073,-0.13390759436469835,0.00099744541224972
1592330993.2769313,-0.4353612099290498,9.844943060993302,-0.21467674940874854,-0.5822222222222222,-0.9911111111111112,-0.99,-0.11403535938325012,-0.13238040287020672,0.004674397536211188
1592330993.2869313,0.02,9.77,0.06,-0.5955555555555555,-0.9644444444444444,-0.9733333333333334,-0.1090830782496456,-0.11562806294462433,-0.009817477042468103
1592330993.2969313,-0.02471286188894162,9.710382850814744,-0.2082771713336497,-0.5955555555555555,-0.9644444444444444,-0.9733333333333334,-0.09688953671915305,-0.08067324389054573,-0.01875940749816263
1592330993.3069313,-0.14,9.61,0.06,-0.5955555555555555,-0.9644444444444444,-0.9733333333333334,-0.08072147790473774,-0.015271630954950384,0.004363323129985824
1592330993.3169312,-0.0763134604553866,9.681647356987689,0.08388245232923003,-0.5955555555555555,-0.9644444444444444,-0.9733333333333334,-0.06161688751910365,-0.002245773873836234,0.009573665962431484
1592330993.3269312,-0.2524404723073912,9.788201883140887,0.0418898819231522,-0.5955555555555555,-0.9644444444444444,-0.9733333333333334,-0.0156138691207333,-0.002407835734021197,0.00041230827541160336
1592330993.3369312,0.03949386723350473,10.206076178439089,0.0017088443972079377,-0.6102250436458923,-0.9948312412029989,-0.9586638452429966,0.042894532086996555,0.0656501025879379,0.011191379243373573
1592330993.3469312,-0.27661459962935325,9.739504440540086,-0.2212038797564322,-0.6111111111111112,-0.9966666666666667,-0.9577777777777777,-0.03286858580230998,0.057223813493027395,-0.0005902179792847684
1592330993.3569312,-0.7394090303837308,10.052171892022757,-0.27884880765040554,-0.6111111111111112,-0.9966666666666667,-0.9577777777777777,-0.033865984499450615,0.06524892598154541,0.019157766785361616
1592330993.3669312,-0.3883795393977964,9.604358219641224,-0.07749254206276598,-0.6111111111111112,-0.9966666666666667,-0.9577777777777777,-0.046438689617563915,0.03783717584940721,0.0030673514247081222
1592330993.3769312,-0.1214967860422406,9.67986736047342,-0.1427813488419549,-0.6111111111111112,-0.9966666666666667,-0.9577777777777777,-0.04270278080075913,0.05686332475421353,0.011523785248411699
1592330993.3869312,-0.25,9.51,-0.12,-0.5844444444444444,-0.9911111111111112,-0.9577777777777777,-0.02399827721492203,0.05126904677733343,-0.002181661564992912
1592330993.3969312,-0.4750347727004832,9.664711406231582,-0.3661317826411536,-0.5844444444444444,-0.9911111111111112,-0.9577777777777777,0.011288733506683885,0.04052952177510554,-0.012154077638490234
1592330993.4069312,-0.4732983719033827,9.778350814048308,-0.2089056041391334,-0.5844444444444444,-0.9911111111111112,-0.9577777777777777,0.06837398383804066,0.030723160190117334,-0.006868801599368552
1592330993.4169312,-0.5643360113421549,10.012211720226842,-0.6063705103969754,-0.5844444444444444,-0.9911111111111112,-0.9577777777777777,0.02073557966179345,-0.0003281256110864855,-0.003378688538980044
1592330993.4269311,-0.6835480228442379,10.183548022844239,-0.47137955744717813,-0.5844444444444444,-0.9911111111111112,-0.9577777777777777,-0.06409961489697932,-0.05591048426351762,-0.00715275729964083
1592330993.4369311,-0.27251956374391517,10.200489555733563,-0.5321671082629861,-0.5907847406220689,-0.9911111111111112,-0.9662315060146104,-0.18260308342855597,-0.09263659787407438,0.005797353245492749
1592330993.4469311,-0.28366761019005254,9.708452891225233,-0.3312608168216741,-0.5911111111111111,-0.9911111111111112,-0.9666666666666667,-0.2559326325466157,-0.10850171352205548,0.008014011317714764
1592330993.456931,-0.2817532799913791,9.825811040168107,-0.23912336000431045,-0.5911111111111111,-0.9911111111111112,-0.9666666666666667,-0.2731468902695626,-0.1176184713311241,0.010717054646471418
1592330993.466931,0.024046759498022985,9.308915248409832,0.10205260443527592,-0.5911111111111111,-0.9911111111111112,-0.9666666666666667,-0.19906546009001813,-0.1022629949199888,-0.004638421764663886
1592330993.476931,-0.14906364829396324,9.419017388451444,0.2534566929133858,-0.5911111111111111,-0.9911111111111112,-0.9666666666666667,-0.11458386446231136,-0.054740773211639,0.0006116239525217988
1592330993.486931,-0.3,9.738726315467263,0.15127368453273746,-0.5746835770234099,-0.9795152046962632,-0.9463738304406828,0.050382698767863644,0.028083725485807936,-0.004032724838715892
1592330993.496931,-0.2531106790723511,9.830956117205943,0.06373281488682128,-0.5722222222222222,-0.9777777777777777,-0.9433333333333334,0.07465654358466961,0.06764150640835681,-0.008523052790776364
1592330993.506931,-0.3367155180707436,9.677837283135043,-0.22216271686495848,-0.5722222222222222,-0.9777777777777777,-0.9433333333333334,0.06551102974293062,0.1447993820504739,-0.005474548176863367
1592330993.516931,-0.6336929685840396,10.001981022965989,-0.26,-0.5722222222222222,-0.9777777777777777,-0.9433333333333334,0.026543643447074404,0.1583669916882659,-0.0005110300321238145
1592330993.526931,-0.5228646455001194,10.108854141799952,-0.19378909047505372,-0.5722222222222222,-0.9777777777777777,-0.9433333333333334,-0.015900831212340465,0.19055875015147222,0.003209995477639965
1592330993.536931,-0.3328855784873521,9.883194041277234,-0.21570480717088264,-0.5854258331826995,-0.9838717520672288,-0.9301297223728561,-0.0643517785264488,0.20778644003025198,0.005360447341387095
1592330993.546931,-0.45375060965696634,9.61924890261746,0.06756381076247761,-0.5866666666666667,-0.9844444444444445,-0.9288888888888889,-0.05231208388467417,0.2528479605252265,0.015667103665886344
1592330993.556931,-0.4325439958592132,9.43878079710145,-0.05236801242236025,-0.5866666666666667,-0.9844444444444445,-0.9288888888888889,0.0010677946044810038,0.2491314378027618,0.011185814724341894
1592330993.566931,-0.5211827099449716,9.699820559853258,-0.25301658824467665,-0.5866666666666667,-0.9844444444444445,-0.9288888888888889,0.046879625135923336,0.2601533546836206,0.007977923464728347
1592330993.576931,-0.6410954540426944,9.827809091914611,-0.6265727242561663,-0.5866666666666667,-0.9844444444444445,-0.9288888888888889,0.07072475761368245,0.23500717937109195,-0.0009263796867611754
1592330993.586931,-0.5647038218552575,10.032572089822981,-0.8179696003002439,-0.5818537283765282,-0.9709682172320566,-0.9481406420494429,0.06385143562116023,0.18320048223330576,0.0060318773274693005
1592330993.596931,-0.55,9.958956873423297,-0.6696043727225403,-0.5811111111111111,-0.9688888888888889,-0.9511111111111111,0.010778839101170085,0.12800783261117613,0.004271113792627476
1592330993.606931,-0.3905371215263376,10.049462878473662,-0.7630340107839071,-0.5811111111111111,-0.9688888888888889,-0.9511111111111111,-0.059352550790387315,0.06870311063354545,0.00950574647044817
1592330993.616931,-0.3684576796573673,9.60636993918743,-0.38557369678900166,-0.5811111111111111,-0.9688888888888889,-0.9511111111111111,-0.10621203620291028,0.06050041618916934,0.024747153803090075
1592330993.626931,-0.1672078011804418,9.806706212124203,-0.3519570066523224,-0.5811111111111111,-0.9688888888888889,-0.9511111111111111,-0.1073440021265965,0.03863729565168288,0.029559169282299493
1592330993.636931,-0.12343209314426956,9.738898790165214,-0.3873728372577078,-0.5811111111111111,-0.9872268837720249,-0.9385640619805443,-0.11230008538366337,0.05977375218341871,0.04380883987190707
1592330993.646931,-0.24654003039270578,9.657556986323282,-0.4482700151963529,-0.5811111111111111,-0.99,-0.9366666666666666,-0.10899701054054116,0.04719708007365704,0.03628048392394345
1592330993.656931,-0.28134275345533166,9.765971739634006,-0.4170141301829975,-0.5811111111111111,-0.99,-0.9366666666666666,-0.09077215291079721,-0.019939464693305098,-0.003278275971435894
1592330993.666931,-0.2397457534486151,9.747055068535078,-0.5512712327569246,-0.5811111111111111,-0.99,-0.9366666666666666,-0.08974163235767807,-0.058301677640496805,-0.03318483564661889
1592330993.676931,-0.017390532544378723,9.693552662721894,-0.27804852071005914,-0.5811111111111111,-0.99,-0.9366666666666666,-0.08523790462147396,-0.08840751032592786,-0.04499915798738427
1592330993.686931,-0.25242520624192427,10.049727661266274,-0.2890736507305437,-0.5851680305690842,-0.99,-0.9261186760759368,-0.037204149408426736,-0.05235391436600847,-0.0009986723325290658
1592330993.696931,-0.4242852795739825,9.667149486496767,-0.18143096234309625,-0.5866666666666667,-0.99,-0.9222222222222223,-0.07121502663425874,-0.04410059980248433,-0.0023372574354517082
1592330993.7069309,-0.12000040873048312,9.805931905501513,-0.20779653396550316,-0.5866666666666667,-0.99,-0.9222222222222223,-0.07963064712224129,-0.029766759461279896,0.001996765167747232
1592330993.7169309,-0.2902369862312535,9.63739008036034,-0.19789834672672366,-0.5866666666666667,-0.99,-0.9222222222222223,-0.11519540451530738,0.04569652457602008,0.027355804894434843
1592330993.7269309,-0.32961362874853406,9.502188808845704,-0.1035192243256827,-0.5866666666666667,-0.99,-0.9222222222222223,-0.11331061862349223,0.038998342657594026,0.021348434696518478
1592330993.7369308,-0.3315080615832222,9.53150806158322,0.07942902169959992,-0.5682186392963456,-0.99,-0.9342134400129308,-0.05003606020732531,0.028361600344907853,0.006401242052164618
1592330993.7469308,-0.34982003717913224,9.677480520507851,-0.042210576276549436,-0.5644444444444444,-0.99,-0.9366666666666666,-0.005507480924591822,0.027290400460882144,-0.000992676290142722
1592330993.7569308,-0.4245497183137679,9.626350845058695,-0.3210307218383149,-0.5644444444444444,-0.99,-0.9366666666666666,0.014279036397281198,-0.01606775306296503,-0.03559027283695872
1592330993.7669308,-0.3015626258558196,9.86610390656464,-0.33615626258558196,-0.5644444444444444,-0.99,-0.9366666666666666,0.021982502763690962,-0.0035281764052472984,-0.022910873125983156
1592330993.7769308,-0.5453901939145515,9.82034886601653,0.008173014121303557,-0.5644444444444444,-0.99,-0.9366666666666666,-0.012824245065201682,0.025013218348826527,-0.009125011637737464
1592330993.7869308,-0.3797575690485415,9.530506171472851,0.29117396358000774,-0.5805038037428584,-0.9940148398246035,-0.9310458909122218,-0.03690497230143853,0.04904098550810913,-0.0007794969179952677
1592330993.7969308,-0.4532567898356452,9.812559505769903,-0.05697843571511829,-0.5866666666666667,-0.9955555555555555,-0.9288888888888889,-0.028691354459761134,0.09272076909372795,0.023846153430310917
1592330993.8069308,-0.4190808971661369,9.691229350405157,-0.11374311680171911,-0.5866666666666667,-0.9955555555555555,-0.9288888888888889,-0.023911301809826174,0.09035172097576422,0.021468714029545685
1592330993.8169308,-0.3296018216065425,9.596733029732242,-0.09346605946448583,-0.5866666666666667,-0.9955555555555555,-0.9288888888888889,0.008674316760570514,0.0839939702522271,0.013780994474246074
1592330993.8269308,-0.4033750194491987,9.523102925159483,-0.17140442663762254,-0.5866666666666667,-0.9955555555555555,-0.9288888888888889,0.03298560182063302,0.08099819538365678,0.014994913476031345
1592330993.8369308,-0.440689799622984,9.702412902324932,-0.282413600502688,-0.569195466499104,-0.9904597888400164,-0.9288888888888889,0.038931379731123775,0.05066731152546548,0.008877137192472729
1592330993.8469307,-0.3866422663055413,9.782743210599516,-0.32111924456481955,-0.56,-0.9877777777777778,-0.9288888888888889,0.03969522916855241,0.01598421231085393,-0.003823896488366994
1592330993.8569307,-0.2859835962145111,9.744098422712934,-0.35,-0.56,-0.9877777777777778,-0.9288888888888889,0.0635096134217028,-0.04134874947057197,-0.03120491788106297
1592330993.8669307,-0.23985518262191463,9.86430411649398,-0.4062027443293195,-0.56,-0.9877777777777778,-0.9288888888888889,0.07287065569584036,-0.03093378255928112,-0.019364657414664452
1592330993.8769307,-0.1977129789701731,9.795157231328096,-0.2833485786813139,-0.56,-0.9877777777777778,-0.9288888888888889,0.05871900304145725,0.009898972464299795,0.0111985308298356
1592330993.8869307,-0.1900945552191053,9.686540593041192,-0.14,-0.5762192513029513,-0.9833543456042456,-0.9288888888888889,0.04003494806420682,0.023641543203666262,0.009491686154306062
1592330993.8969307,-0.18656167065477486,9.608136610833153,-0.17937002392864915,-0.5844444444444444,-0.9811111111111112,-0.9288888888888889,0.047449691558114376,0.04652776513737145,0.00545415391248228
1592330993.9069307,-0.2528368794326241,9.629120567375887,-0.16858156028368793,-0.5844444444444444,-0.9811111111111112,-0.9288888888888889,0.06784503283816255,0.07878273893953482,0.01299403817220601
1592330993.9169307,-0.1903011481272351,9.800854743083004,-0.2310053171466215,-0.5844444444444444,-0.9811111111111112,-0.9288888888888889,0.10014821840651958,0.08170264559826357,0.009976415378530605
1592330993.9269307,-0.3306215506180885,9.779689224690955,-0.3433541738793964,-0.5844444444444444,-0.9811111111111112,-0.9288888888888889,0.09438053293417166,0.08211721169702511,-0.001456714394245569
1592330993.9369307,-0.41747838664080733,9.912051872062063,-0.26430163373985077,-0.5679961576250324,-0.9811111111111112,-0.9288888888888889,0.06895695702219945,0.05698883543018367,-0.01907403018596536
1592330993.9469306,-0.36,10.094404447423413,-0.2920683673067066,-0.5577777777777778,-0.9811111111111112,-0.9288888888888889,0.057669995187543774,0.04556006605468313,-0.019721573696021167
1592330993.9569306,-0.40981243438040915,9.923766067932238,-0.6041485769416305,-0.5577777777777778,-0.9811111111111112,-0.9288888888888889,-0.05013890510428986,0.07648172097558975,0.002325688000989507
1592330993.9669306,0.46267857142857144,9.918315746753247,0.10965503246753239,-0.5577777777777778,-0.9811111111111112,-0.9288888888888889,-0.05485276235538083,0.09718886127183217,0.04808642401135656
1592330993.9769306,-0.0909408060699689,9.7967297651407,-0.07266421573420423,-0.5577777777777778,-0.9811111111111112,-0.9288888888888889,0.15352206567808468,0.23376354134828117,0.16409429514533894
1592330993.9869306,-0.705705447209146,9.105292535305985,-0.24667585743106926,-0.5577777777777778,-0.9811111111111112,-0.9288888888888889,0.3107103474545361,0.2300526908531455,0.1741252757940306
1592330993.9969306,-0.380165916650362,9.127782038739973,-0.04662766581882216,-0.5577777777777778,-0.9811111111111112,-0.9288888888888889,0.3711215481545576,0.17149456342686017,0.13631269888330227
1592330994.0069306,-0.5578708959074491,9.910770713955952,0.13077071395595147,-0.5577777777777778,-0.9811111111111112,-0.9288888888888889,0.4603526598149209,0.2032347528896677,0.0941737442414386
1592330994.0169306,-0.2616885620448379,11.04764386691418,-1.094375981722119,-0.5577777777777778,-0.9811111111111112,-0.9288888888888889,0.11222519427770766,0.08500676216252157,-0.03396233026286338
1592330994.0269306,-0.05979670329670331,10.938724489795918,-1.1438076923076923,-0.5577777777777778,-0.9811111111111112,-0.9288888888888889,-0.3710055055962398,-0.004712149237355568,-0.13958198769915914
1592330994.0369306,-0.25,9.663305162536004,0.29720032918684514,-0.5737011363276675,-0.988409317113144,-0.920927209613944,-0.7215418692316498,-0.09735909016621568,-0.18042654653190113
1592330994.0469306,-0.11534861509073543,9.169142390958292,0.9026743075453677,-0.5844444444444444,-0.9933333333333333,-0.9155555555555556,-0.6721117314317575,-0.14472057374340408,-0.1545887547955011
1592330994.0569305,0.23634006376195538,9.197781083953242,0.4066567481402763,-0.5844444444444444,-0.9933333333333333,-0.9155555555555556,-0.2532674913494428,-0.07655615041518805,-0.07077509503547516
1592330994.0669305,0.1786750048856752,9.179051006449091,0.29113699433261675,-0.5844444444444444,-0.9933333333333333,-0.9155555555555556,-0.10953228650152688,-0.02735181976047768,-0.05330617379659005
1592330994.0769305,-0.1525345812251634,9.219984148009814,0.19052593863325445,-0.5844444444444444,-0.9933333333333333,-0.9155555555555556,0.13542475494150352,0.07877747253050696,-0.005381694001434598
1592330994.0869305,-0.32796461779978264,9.654230165438957,-0.3749027895181742,-0.5726371613734251,-1.001412000697715,-0.9074768881911739,0.26205618946688003,0.12675839652540313,0.02656800634243572
1592330994.0969305,-0.3395753485195452,9.764009481338636,-0.5559905186613636,-0.5633333333333334,-1.0077777777777779,-0.9011111111111111,0.2966288420617594,0.12216787637158111,0.03015221763396907
1592330994.1069305,-0.20909892122356713,9.875406472658597,-0.608109708987896,-0.5633333333333334,-1.0077777777777779,-0.9011111111111111,0.33865861867632546,0.09886762448594734,0.054826802595828464
1592330994.1169305,-0.16264575813353097,9.97980565582196,-0.6713228790667655,-0.5633333333333334,-1.0077777777777779,-0.9011111111111111,0.29874742459078385,0.09220700061272148,0.07347617426716566
1592330994.1269305,-0.09906081239727636,10.02023479690068,-0.6907043907020427,-0.5633333333333334,-1.0077777777777779,-0.9011111111111111,0.23685345294270665,0.07777669581463373,0.06910127429204158
1592330994.1369305,-0.09957767571884985,9.933882787539936,-0.6125748801916933,-0.5633333333333334,-0.9996109558040469,-0.9130472355342564,0.15303432331596645,0.0520700711788172,0.037507327760135725
1592330994.1469305,-0.142578839482813,9.804653106275623,-0.5652207505518764,-0.5633333333333334,-0.9933333333333333,-0.9222222222222223,0.10051389896876184,0.035427920281410834,0.011409002938153959
1592330994.1569304,-0.23154371959585882,9.451006361481852,-0.5898208806286641,-0.5633333333333334,-0.9933333333333333,-0.9222222222222223,0.018951609896854172,0.017751002106085524,-0.016689479662188263
1592330994.1669304,-0.14709551886792455,9.544103773584906,-0.4012429245283019,-0.5633333333333334,-0.9933333333333333,-0.9222222222222223,0.05700529879194009,0.008621036345770045,-0.011601911548929287
1592330994.1769304,-0.13266561921998368,9.65671187923868,-0.4698643622839641,-0.5633333333333334,-0.9933333333333333,-0.9222222222222223,0.12882424954408644,0.017079818406049847,-0.0033064445396615
1592330994.1869304,-0.2204685355812586,9.657576945696922,-0.5405489119780436,-0.5662412598836829,-0.9904254067829837,-0.9222222222222223,0.16030101572350586,0.02945243112740431,-0.009604272123795497
1592330994.1969304,-0.23879218270651062,9.737841911903951,-0.45,-0.5688888888888889,-0.9877777777777778,-0.9222222222222223,0.16373699323056015,0.027054735242005613,-0.014923844206207619
1592330994.2069304,-0.336120396039604,9.935871419141915,-0.5319918151815182,-0.5688888888888889,-0.9877777777777778,-0.9222222222222223,0.18477360138429055,0.011971979441047968,0.004075919819661542
1592330994.2169304,-0.31230066804440815,10.127965107896381,-0.6664161099629932,-0.5688888888888889,-0.9877777777777778,-0.9222222222222223,0.15721712024267018,0.006600477768620899,0.02341186457890463
1592330994.2269304,-0.25533636328017867,10.25,-0.668027269521608,-0.5688888888888889,-0.9877777777777778,-0.9222222222222223,0.09384119372828914,0.0017463207997807932,0.034104328854554104
1592330994.2369304,-0.2543944647020145,10.241211070595972,-0.6024221411919422,-0.5654709718984332,-0.993148790191351,-0.912945018962414,-0.030452690808407096,-0.011504681686923588,0.03290609828086931
1592330994.2469304,-0.26,10.159546113214603,-0.48786799420371146,-0.5611111111111111,-1.0,-0.9011111111111111,-0.22799408650816944,-0.03622998157748828,0.014947538006156504
1592330994.2569304,-0.3505712787010324,9.423379270880522,-0.27680694308671705,-0.5611111111111111,-1.0,-0.9011111111111111,-0.3767105209967597,-0.08075625153331592,-0.01604892688889781
1592330994.2669303,-0.20575046590528984,9.102303005686434,0.13366010417164428,-0.5611111111111111,-1.0,-0.9011111111111111,-0.3226952364623412,-0.11526769315369446,-0.011027180076098656
1592330994.2769303,0.07506625159642401,9.42058908045977,0.22882183908045978,-0.5611111111111111,-1.0,-0.9011111111111111,-0.12662796990617783,-0.09827438013215037,0.018608382012328194
1592330994.2869303,0.003686623955250573,9.617436339393151,-0.15095320173013757,-0.5734839796054795,-0.9969067828764079,-0.8969868216129884,0.03247067181733889,-0.06658459618520035,0.010219625331855716
1592330994.2969303,-0.2,9.73,-0.36,-0.5877777777777777,-0.9933333333333333,-0.8922222222222222,0.06872233929727672,-0.05781403147231216,-0.011999138607461015
1592330994.3069303,-0.13,9.812337956567386,-0.521481461015638,-0.5877777777777777,-0.9933333333333333,-0.8922222222222222,0.11444380299083598,-0.006522260309445157,-0.01004978415611906
1592330994.3169303,-0.19750059222059033,9.767307054531672,-0.5788458805135737,-0.5877777777777777,-0.9933333333333333,-0.8922222222222222,0.11258624872276499,4.196496874909377e-05,-0.011600600606834616
1592330994.3269303,-0.21550256937307297,9.68220102774923,-0.44320616649537514,-0.5877777777777777,-0.9933333333333333,-0.8922222222222222,0.10035123008337303,0.001090830782496456,-0.01672780596704596
1592330994.3369303,-0.14645053051600618,9.664516489827998,-0.3235494694839938,-0.5757338049031165,-0.9933333333333333,-0.8992478730657746,0.1027850398903313,0.0040468664624238255,-0.01903679591576098
1592330994.3469303,-0.13126698535777467,9.677601912146647,-0.3469684194677608,-0.5611111111111111,-0.9933333333333333,-0.9077777777777778,0.11387584388929116,0.008603262117938229,-0.020395090731014306
1592330994.3569303,-0.24755432710636677,9.83064763629432,-0.5191009817003431,-0.5611111111111111,-0.9933333333333333,-0.9077777777777778,0.13679724474111263,0.026898018793926323,-0.03429447426673105
1592330994.3669302,-0.4258518275999158,9.878049390800028,-0.5960987816000561,-0.5611111111111111,-0.9933333333333333,-0.9077777777777778,0.13005755957643508,0.035332141951876624,-0.0360063953232235
1592330994.3769302,-0.47361008767609103,9.85361008767609,-0.5631949561619545,-0.5611111111111111,-0.9933333333333333,-0.9077777777777778,0.1098391483136283,0.03648178294572307,-0.026800157373576307
1592330994.3869302,-0.40958635481564704,9.84,-0.5674793177407823,-0.5647520965966477,-0.9933333333333333,-0.9060973229382994,0.0850396793447112,0.027793624108653443,-0.010056343470582943
1592330994.3969302,-0.27374105668684645,9.794196477710512,-0.4958750687947166,-0.5755555555555556,-0.9933333333333333,-0.9011111111111111,0.0557317273616413,0.009142536752307596,0.0036805783267969986
