time,acc_x,acc_y,acc_z,mag_x,mag_y,mag_z,gyr_x,gyr_y,gyr_z
1592331046.4068806,-0.28178973482809466,9.79,0.06642053034381071,-0.7766666666666666,-1.7822222222222222,-1.0533333333333332,0.02181661564992912,0.034125665902689936,0.008336186691373319
1592331046.4168806,-0.28644588956132766,9.796445889561328,0.1151212269292937,-0.7766666666666666,-1.7822222222222222,-1.0533333333333332,0.01408210342045344,0.03209403513825907,0.010132921210785408
1592331046.4268806,-0.30623242538496775,9.751302723845097,0.21304591423235492,-0.7766666666666666,-1.7822222222222222,-1.0307882980764336,0.01070281850669309,0.02523121312455085,0.011793649289189545
1592331046.4368806,-0.2650436314146185,9.757982547434153,0.18953926827315667,-0.7766666666666666,-1.7822222222222222,-1.0255555555555556,0.013850695268296005,0.025469470936587753,0.011508740700239108
1592331046.4468806,-0.2851566207245875,9.77248433792754,0.07987470342033004,-0.7766666666666666,-1.7822222222222222,-1.0255555555555556,0.017453292519943295,0.02973026422425513,0.008448813163120827
1592331046.4568806,-0.27818955220242303,9.746142164151818,0.09181044779757697,-0.7766666666666666,-1.7822222222222222,-1.0255555555555556,0.020055778694637812,0.027073280343641412,0.006768320085910353
1592331046.4668806,-0.2218510468144442,9.774392109418253,0.08624315623269835,-0.7766666666666666,-1.7822222222222222,-1.0255555555555556,0.01847482656972759,0.020927702751936436,0.002793387532136945
1592331046.4768806,-0.26222817385228964,9.743328869610783,0.1266711303892172,-0.7766666666666666,-1.7822222222222222,-1.0532125217121286,0.014907777235820098,0.02363515387068614,0.003636346066619652
1592331046.4868805,-0.28,9.76894753569888,0.14778950713977615,-0.7766666666666666,-1.7822222222222222,-1.0611111111111111,0.015030503589308304,0.027638218247981614,0.0026639162962770724
1592331046.4968805,-0.3027112030464012,9.749718395938132,0.11971839593813173,-0.7766666666666666,-1.7822222222222222,-1.0611111111111111,0.012794223015896212,0.030013205637610636,-0.0002957463740612602
1592331046.5068805,-0.31,9.755097683305468,0.14019536661093862,-0.7766666666666666,-1.7822222222222222,-1.0611111111111111,0.016116393030958208,0.02395565483230526,-0.006031536090693086
1592331046.5168805,-0.3460484742741186,9.76,0.11395152572588138,-0.7766666666666666,-1.7822222222222222,-1.0611111111111111,0.018764052033284635,0.011330539543198409,-0.016811132070864564
1592331046.5268805,-0.36354126738794434,9.785834930448223,0.09645873261205565,-0.780254851451142,-1.7822222222222222,-1.0560876524128455,0.015407723475449785,-0.008318368698473438,-0.022202907997511172
1592331046.5368805,-0.29237800670347003,9.762432225946373,0.16762199329653,-0.7822222222222223,-1.7822222222222222,-1.0533333333333332,0.010631164327903342,-0.023467647828464146,-0.01689900552582086
1592331046.5468805,-0.2624844280860702,9.75,0.17496885617214045,-0.7822222222222223,-1.7822222222222222,-1.0533333333333332,0.015556229076714393,-0.024540295341558858,-0.015271630954950384
1592331046.5568805,-0.25255669028268135,9.712783451413406,0.2742063360424615,-0.7822222222222223,-1.7822222222222222,-1.0533333333333332,0.021512988201596396,-0.01750276412427707,-0.010399996136966662
1592331046.5668805,-0.23285596360567928,9.682855963605679,0.3500027515867484,-0.7822222222222223,-1.7822222222222222,-1.0533333333333332,0.035998316277040796,-0.009661258164401006,-0.0018695239604112962
1592331046.5768805,-0.24893401015228428,9.67,0.4031472081218274,-0.7745064861816131,-1.786723068245911,-1.0494754653130287,0.06664588476206774,0.002751994410663647,0.005166218883599966
1592331046.5868804,-0.24374968242603415,9.683125158786982,0.4003122618195256,-0.7688888888888888,-1.79,-1.0466666666666666,0.1011407004477272,0.012305978067470354,-0.000613678920018677
1592331046.5968804,-0.24977154825982123,9.663637935653572,0.3240948391339292,-0.7688888888888888,-1.79,-1.0466666666666666,0.13211323949208484,0.017056455300377558,-0.006520064475928547
1592331046.6068804,-0.26,9.663323479629057,0.3099852194435836,-0.7688888888888888,-1.79,-1.0466666666666666,0.1617925927291757,0.027264320328042813,-0.010542547819342878
1592331046.6168804,-0.2545114524810435,9.686465642556868,0.330977095037913,-0.7688888888888888,-1.79,-1.0466666666666666,0.18742553963109881,0.040614707569705685,-0.012597846265948245
1592331046.6268804,-0.2377203313058108,9.693860165652906,0.34,-0.790037207195548,-1.794093222898063,-1.0555353162791365,0.22013567286454339,0.05603357879613185,-0.01308996938995747
1592331046.6368804,-0.2941754377628359,9.69713060419587,0.2686939580412935,-0.8033333333333333,-1.7966666666666666,-1.0611111111111111,0.251014834802915,0.07586526067364432,-0.008422999857165013
1592331046.6468804,-0.2999458346389722,9.69331527821299,0.19320694749093514,-0.8033333333333333,-1.7966666666666666,-1.0611111111111111,0.2687355558684323,0.0818123086872342,-0.0014406544865926373
1592331046.6568804,-0.2771963190184049,9.683598159509202,0.17,-0.8033333333333333,-1.7966666666666666,-1.0611111111111111,0.2898601731521971,0.08111397622003479,0.0031858281840947108
1592331046.6668804,-0.27,9.690642904132527,0.15935709586747204,-0.8033333333333333,-1.7966666666666666,-1.0611111111111111,0.3116582025912412,0.08072147790473774,0.004363323129985824
1592331046.6768804,-0.2875758728950623,9.711717248596708,0.15,-0.7987766255457246,-1.7966666666666666,-1.0441861964714214,0.33694560061994894,0.07880424758641984,0.0024460928116679164
1592331046.6868804,-0.2865238995031143,9.740214150745329,0.04219119602491425,-0.7955555555555556,-1.7966666666666666,-1.0322222222222222,0.3615843340838917,0.06936390566973807,0.001090830782496456
1592331046.6968803,-0.3226870229007634,9.735770992366412,-0.14517557251908397,-0.7955555555555556,-1.7966666666666666,-1.0322222222222222,0.37258116436657573,0.06467377497323262,-0.005117745029941388
1592331046.7068803,-0.29542597991577585,9.7996469063816,-0.23900226757369616,-0.7955555555555556,-1.7966666666666666,-1.0322222222222222,0.37111603882081645,0.06192788050691655,-0.007331923519928398
1592331046.7168803,-0.2178912770349098,10.153217266445303,-0.43202167279906667,-0.7955555555555556,-1.7966666666666666,-1.0322222222222222,0.3284088604100476,0.04736577563176312,-0.0024116875572006693
1592331046.7268803,-0.35313759355210134,10.3343791978507,-0.6337651122625215,-0.7825678585897353,-1.7867348983986864,-1.0322222222222222,0.21638348235925287,0.038860663460645664,0.012341396970420465
1592331046.7368803,-0.482791675168333,10.137107120995715,-0.5323015711079371,-0.7766666666666666,-1.7822222222222222,-1.0322222222222222,0.10879716084030158,0.016246234062560153,0.015303013762608413
1592331046.7468803,-0.2915238841417134,9.796730161839237,-0.3563491908038097,-0.7766666666666666,-1.7822222222222222,-1.0322222222222222,-0.03509703907876674,-0.044232316217278064,0.00910410901855996
1592331046.7568803,-0.25418515890685783,9.645117314608665,-0.10023462921733173,-0.7766666666666666,-1.7822222222222222,-1.0322222222222222,-0.07828595725420899,-0.06910278097771336,0.011398731979275593
1592331046.7668803,-0.26735902926481087,9.58,0.07488523235283068,-0.7766666666666666,-1.7822222222222222,-1.0322222222222222,-0.08308303905781284,-0.07833827962580675,0.012355536493007867
1592331046.7768803,-0.0823510694714513,9.623923752283307,0.16725178245241884,-0.7885191077589876,-1.7947718657317384,-1.0322222222222222,-0.022755818961097476,-0.08313794029752274,0.007764046425037529
1592331046.7868803,-0.042531483628513174,9.689928037420541,0.10754047895094551,-0.7955555555555556,-1.8022222222222222,-1.0322222222222222,0.008438729383705641,-0.07445459771141734,0.005456116387403814
1592331046.7968802,-0.0589754830329599,9.81,-0.17319694755642145,-0.7955555555555556,-1.8022222222222222,-1.0322222222222222,0.035867770079115076,-0.05176974147162105,0.0014976562910845967
1592331046.8068802,-0.09778871492791816,9.79673228956751,-0.2402953030537901,-0.7955555555555556,-1.8022222222222222,-1.0322222222222222,0.03274639851897631,-0.039050169431404866,0.0015732583475968108
1592331046.8168802,-0.09,9.797918120725068,0.09632959100245281,-0.7955555555555556,-1.8022222222222222,-1.0322222222222222,0.015077357923293937,-0.01673001648113724,0.00659880078279847
1592331046.8268802,-0.08148182840014986,9.85148182840015,-0.0040633195953540535,-0.8012343366221223,-1.8097939303109778,-1.0222843553557304,0.013857515365801737,-0.005009892743290206,0.008585336877038658
1592331046.8368802,-0.1283069306930693,9.845830693069306,-0.13843366336633664,-0.8088888888888889,-1.82,-1.008888888888889,-0.003990496609077132,0.01653677865655073,0.004182094015824532
1592331046.8468802,-0.1813529039261806,9.878382259815451,-0.008382259815451421,-0.8088888888888889,-1.82,-1.008888888888889,-0.027832196107491727,0.032696034320598776,0.0007956729328088405
1592331046.8568802,-0.2875863952687457,9.845785335961809,-0.035421466403819206,-0.8088888888888889,-1.82,-1.008888888888889,-0.052056902114600005,0.04605104996962884,0.00423168141310426
1592331046.8668802,-0.2840702755552008,9.677889338946864,0.041407107368757114,-0.8088888888888889,-1.82,-1.008888888888889,-0.07295411063347185,0.04812810622363477,0.004779918320779011
1592331046.8768802,-0.19943604358759429,9.753514501257333,0.07197384744341996,-0.8024102076930242,-1.8129814287044799,-1.0304844928751047,-0.07065079645297465,0.04301091828178021,0.0026501793294113397
1592331046.8868802,-0.20180968873900562,9.741399079433076,0.06669780795697945,-0.7955555555555556,-1.8055555555555556,-1.0533333333333332,-0.07256264229953867,0.04052354580706859,-0.0018214482919687441
1592331046.8968801,-0.360023435346016,9.494988282326991,0.24035130043194564,-0.7955555555555556,-1.8055555555555556,-1.0533333333333332,-0.07144813805367622,0.037706469261616936,-0.009636097978665905
1592331046.9068801,-0.356702850016167,9.808563905954086,0.009423068040094185,-0.7955555555555556,-1.8055555555555556,-1.0533333333333332,-0.032369996594580265,0.04050555153811855,-0.003274860542176298
1592331046.9168801,-0.25750206382764523,9.894971106412967,-0.09185281385281385,-0.7955555555555556,-1.8055555555555556,-1.0533333333333332,-0.006749796877537469,0.0411105162688308,6.76703843928636e-05
1592331046.9268801,-0.3442968606572425,9.84147390000612,-0.03003120984027907,-0.7926979173041225,-1.816509835519382,-1.055714698542861,-0.007947157180526625,0.042075387962784636,-0.002648674119570062
1592331046.93688,-0.4849481687879289,9.84932135351484,0.037709745212401724,-0.7888888888888889,-1.8311111111111111,-1.058888888888889,-0.04741156168146094,0.0386221943901691,-0.00849943385041295
1592331046.94688,-0.2749318124900394,9.825068187509961,-0.08999954465769638,-0.7888888888888889,-1.8311111111111111,-1.058888888888889,-0.10055066707265792,0.03329275251687621,-0.0033023937718484886
1592331046.95688,-0.24326944914370469,9.847051053278024,-0.08185858960394893,-0.7888888888888889,-1.8311111111111111,-1.058888888888889,-0.13523156947345696,0.029592276690398687,0.007142842172349855
1592331046.96688,-0.238996730649658,9.671304330384901,0.2408026957097298,-0.7888888888888889,-1.8311111111111111,-1.058888888888889,-0.15768159483763847,0.015618219205858506,0.0011492044617731987
1592331046.97688,-0.11580859418003006,9.689573593629591,0.25790429709001506,-0.8003986805784905,-1.8287132378424442,-1.06608250869489,-0.14337930081580624,0.009565614458215499,0.0011373445019658666
1592331046.98688,-0.45518531395591405,9.726502329462486,0.1853904457270009,-0.8155555555555556,-1.8255555555555556,-1.0755555555555556,-0.11805662348722838,0.022732379507594075,0.0091486121624143
1592331046.99688,-0.48391292235443945,9.796475902415729,0.05064074501532217,-0.8155555555555556,-1.8255555555555556,-1.0755555555555556,-0.11792203315109127,0.023893435556955344,0.008586857382682733
1592331047.00688,-0.24599616907163835,9.739503511684331,0.03849776529178905,-0.8155555555555556,-1.8255555555555556,-1.0755555555555556,-0.06430276824621159,0.02612578030612684,0.004854231806230749
1592331047.01688,-0.2587688151292937,9.713354303357777,0.11815322269394056,-0.8155555555555556,-1.8255555555555556,-1.0755555555555556,-0.03146964711013434,0.03573224416342689,0.004594919430044218
1592331047.02688,-0.3696538851959789,9.68346114804021,0.19998755689446282,-0.8132564189324398,-1.8267051238671135,-1.0786210710530433,-0.022417985277425445,0.04036073895236887,0.004024883047987267
1592331047.03688,-0.45219903093551994,9.834010436079016,0.07642937010808795,-0.8088888888888889,-1.8288888888888888,-1.0844444444444445,-0.017501267932665838,0.035344055752509096,0.006568972401340007
1592331047.04688,-0.4876743707093822,9.746851487414187,0.06808581235697941,-0.8088888888888889,-1.8288888888888888,-1.0844444444444445,-0.016497105701766882,0.013808070532997704,0.0013601187111365416
1592331047.05688,-0.46574247515550155,9.773187960248801,0.04031672267105169,-0.8088888888888889,-1.8288888888888888,-1.0844444444444445,-0.010096131391925445,-0.007856134127689854,-0.006951072911498293
1592331047.06688,-0.4819229165425627,9.81049979150533,0.15330791684041223,-0.8088888888888889,-1.8288888888888888,-1.0844444444444445,-0.013606046001298798,-0.013245208249752791,-0.004988437333096321
1592331047.07688,-0.36478829869130097,9.792113163972287,0.22274634334103155,-0.7977698657086647,-1.8338732785903686,-1.0940298092549825,-0.030735353935686806,-0.0167772965384886,0.001090830782496456
1592331047.08688,-0.22242706099446413,9.840221684704005,0.238308064435689,-0.7766666666666666,-1.8433333333333333,-1.1122222222222222,-0.04262259026218248,-0.015536382239326175,0.008116953946399367
1592331047.09688,-0.18553584158415842,9.78111603960396,0.26604950495049506,-0.7766666666666666,-1.8433333333333333,-1.1122222222222222,-0.04509412372524042,-0.011573044983391212,0.014241670690178185
1592331047.10688,-0.21560420036594097,9.751998090742754,0.10200286388586884,-0.7766666666666666,-1.8433333333333333,-1.1122222222222222,-0.07243126809159346,-0.0017452251181655533,0.011606293738402005
1592331047.11688,-0.35443544857768056,9.675564551422319,0.21258059810357405,-0.7766666666666666,-1.8433333333333333,-1.1122222222222222,-0.07615582197534357,0.002867826748672667,0.0031933255620346657
1592331047.12688,-0.4305344541940235,9.68342977235074,0.34685954470147884,-0.7802053888582083,-1.846872055524875,-1.110292010117745,-0.06228913513900837,0.014613230206835612,-0.0035883225645360344
1592331047.13688,-0.47399622388393414,9.771332074627978,0.3966556529948079,-0.7888888888888889,-1.8555555555555556,-1.1055555555555556,-0.010834624648614774,0.0370882466048795,-0.008436032658215454
1592331047.14688,-0.5465471250740961,9.790458407429362,0.14931238885595732,-0.7888888888888889,-1.8555555555555556,-1.1055555555555556,0.025314128218111295,0.04315657208715503,-0.007573309860616078
1592331047.15688,-0.68,9.83,0.09,-0.7888888888888889,-1.8555555555555556,-1.1055555555555556,0.044724062082354694,0.04908738521234052,-0.002181661564992912
1592331047.16688,-0.6411177016594598,9.79779425414865,0.1959822055194585,-0.7888888888888889,-1.8555555555555556,-1.1055555555555556,0.041645998449420005,0.04443403657445044,0.001733460531022022
1592331047.17688,-0.4348782047378357,9.473953778698009,0.45510931124779247,-0.7945999025637902,-1.8581914080208948,-1.1244458315571524,0.034221834798977176,0.024251737104734786,0.003196862918960519
1592331047.1868799,-0.32,9.48,0.31,-0.8033333333333333,-1.8622222222222222,-1.1533333333333333,0.038179077387375956,0.019634954084936207,0.01308996938995747
1592331047.1968799,-0.3990169173483449,9.725381006831443,-0.0593367930336881,-0.8033333333333333,-1.8622222222222222,-1.1533333333333333,0.03090242658833731,0.00870253137417101,0.008343366695734466
1592331047.2068799,-0.26,9.81,-0.15,-0.8033333333333333,-1.8622222222222222,-1.1533333333333333,0.04145156973486533,0.011999138607461015,0.001090830782496456
1592331047.2168798,-0.2689971455332055,9.75344476160742,0.021439052673832573,-0.8033333333333333,-1.8622222222222222,-1.1533333333333333,0.05654087660269179,0.029415966309979526,-0.0056364779996062025
1592331047.2268798,-0.3002282248483712,9.744308134808978,0.070841618207966,-0.8037692184775284,-1.875734661692268,-1.1589998402078687,0.042391458947821065,0.03925278827201669,-0.011227310861901714
1592331047.2368798,-0.44,9.72,0.32,-0.8044444444444444,-1.8966666666666667,-1.1677777777777778,0.0370882466048795,0.05781403147231216,-0.0032724923474893677
1592331047.2468798,-0.48611253008497474,9.779287538680682,0.21341249570214646,-0.8044444444444444,-1.8966666666666667,-1.1677777777777778,0.03046554443605573,0.06845371706003295,0.003029775934860606
1592331047.2568798,-0.4852491396079605,9.716229238366004,0.15212629058805927,-0.8044444444444444,-1.8966666666666667,-1.1677777777777778,0.026466234933214178,0.07183356562454965,0.014735274535485569
1592331047.2668798,-0.5050531550068588,9.671213991769548,0.0820181755829904,-0.8044444444444444,-1.8966666666666667,-1.1677777777777778,0.03688960766609157,0.05554464706147034,0.013222395349149428
1592331047.2768798,-0.3921063683191706,9.632127366383411,0.14261721185078252,-0.7974232167138758,-1.8950283801962007,-1.1740968827352896,0.05155683083593292,0.033411940361956965,0.0036740157094378484
1592331047.2868798,-0.5305863610213746,9.70294242598575,0.1270575740142497,-0.7711111111111111,-1.8888888888888888,-1.1977777777777778,0.058449838536801295,0.02913146224335692,0.001522490244242852
1592331047.2968798,-0.6266460878436707,9.73077275224318,-0.004126664399508151,-0.7711111111111111,-1.8888888888888888,-1.1977777777777778,0.045636745048513866,0.03528199953159463,-0.007839816556923413
1592331047.3068798,-0.3330809044506988,9.871833945523065,-0.3074574249868816,-0.7711111111111111,-1.8888888888888888,-1.1977777777777778,0.014996932882117356,0.030409893627902085,-0.013495381908510632
1592331047.3168797,-0.22526489999799396,9.775264899997994,-0.201580573331461,-0.7711111111111111,-1.8888888888888888,-1.1977777777777778,0.0020092477605978473,0.04024587665267732,0.003617079246564007
1592331047.3268797,-0.24454844480350857,9.842837440129262,-0.24774712908996477,-0.7771472355268304,-1.8932483120780195,-1.2021372009669085,-0.014549425313102507,0.03093624803576639,0.009817477042468103
1592331047.3368797,-0.17369612856099342,9.736793279766252,-0.024700511322132912,-0.7911111111111111,-1.9033333333333333,-1.2122222222222223,-0.03384244734081864,0.015594736785704447,0.010288789246884943
1592331047.3468797,-0.31,9.68,0.14,-0.7911111111111111,-1.9033333333333333,-1.2122222222222223,-0.038179077387375956,0.017453292519943295,0.01090830782496456
1592331047.3568797,-0.10315736710196544,9.704290462999605,-0.2539163698720486,-0.7911111111111111,-1.9033333333333333,-1.2122222222222223,-0.04196637970368419,0.010517099444612184,-0.007260204783024756
1592331047.3668797,-0.43363043318918126,9.850392508978963,-0.039893718390383345,-0.7911111111111111,-1.9033333333333333,-1.2122222222222223,0.010127863694791732,0.03600900934752136,-0.009619467628640318
1592331047.3768797,-0.31901649284501576,9.6677055542081,0.010491147222895951,-0.790109278572776,-1.9033333333333333,-1.221439081574905,0.05223473495490123,0.04976693866003446,-0.015378914942896614
1592331047.3868797,-0.36,9.93,-0.26,-0.7855555555555556,-1.9033333333333333,-1.2633333333333334,0.06654067773228381,0.05781403147231216,-0.01090830782496456
1592331047.3968797,-0.5603653444676409,9.85525574112735,-0.03122259916492693,-0.7855555555555556,-1.9033333333333333,-1.2633333333333334,0.03167394559154897,0.06642325401156883,0.001632260883829509
1592331047.4068797,-0.31,9.68,-0.05,-0.7855555555555556,-1.9033333333333333,-1.2633333333333334,0.004363323129985824,0.053450708342326333,0.004363323129985824
1592331047.4168797,-0.3152190736315011,9.85605667463298,-0.22603732787071812,-0.7855555555555556,-1.9033333333333333,-1.2633333333333334,-0.04662317774306151,0.029356842223054447,0.008774440712146581
1592331047.4268796,-0.2535835065620055,9.63408643852192,0.16297446557661877,-0.7796773637526329,-1.9069255616573415,-1.2675786940798885,-0.05858811485964916,0.016815939496581524,0.013602166748472607
1592331047.4368796,-0.07,9.74,0.05,-0.7655555555555555,-1.9155555555555555,-1.2777777777777777,-0.044724062082354694,0.002181661564992912,0.017453292519943295
1592331047.4468796,-0.018400217622218135,9.651415062566388,-0.05447498639861137,-0.7655555555555555,-1.9155555555555555,-1.2777777777777777,-0.00014452469291139323,-0.004926189439863849,0.00240582462016952
1592331047.4568796,-0.4792085585252091,10.052110510599443,-0.23941265023074454,-0.7655555555555555,-1.9155555555555555,-1.2777777777777777,0.023291327554767063,0.010169323204389789,-0.005188640622885218
1592331047.4668796,-0.33,10.45,-0.6,-0.7655555555555555,-1.9155555555555555,-1.2777777777777777,0.01854412330243975,0.025089107997418484,-0.006544984694978735
1592331047.4768796,-0.40348686182435806,9.84580510873547,-0.3061591234555566,-0.769006893795584,-1.9127944849635328,-1.288131792497863,-0.062414869227667216,0.0486356060931769,-0.004363323129985824
1592331047.4868796,-0.57,9.6,-0.1,-0.7822222222222223,-1.9022222222222223,-1.3277777777777777,-0.11344640137963141,0.04690572364734761,-0.004363323129985824
1592331047.4968796,-0.4697256041198996,9.83970421233329,-0.17312901095998945,-0.7822222222222223,-1.9022222222222223,-1.3277777777777777,-0.1350577570447385,0.03719204333825689,0.014010139098757663
1592331047.5068796,-0.10516444884862211,9.729483767459419,-0.046619479048697635,-0.7822222222222223,-1.9022222222222223,-1.3277777777777777,-0.12698187569703825,0.013904231948862316,0.01787836238601803
1592331047.5168796,-0.27265214094736423,9.845749630871143,0.0957496308711441,-0.7822222222222223,-1.9022222222222223,-1.3277777777777777,-0.09086604311910729,-0.0017072226528883235,0.019171310736663342
1592331047.5268795,-0.4019503910753794,9.79667445701287,0.042867159016546696,-0.7771458248937917,-1.9030682884436274,-1.3334887247722622,-0.0785898182742764,-0.011426172864113652,0.014441007384445152
1592331047.5368795,-0.07,9.74,-0.03,-0.7555555555555555,-1.9066666666666667,-1.3577777777777778,-0.09272061651219875,-0.022907446432425576,0.01090830782496456
1592331047.5468795,-0.2011561493558776,9.767248641304349,0.03436996779388084,-0.7555555555555555,-1.9066666666666667,-1.3577777777777778,-0.09278239841868526,-0.012750731556028924,0.024951656292538697
1592331047.5568795,-0.12197302097834958,9.59065767365945,-0.006083721376794197,-0.7555555555555555,-1.9066666666666667,-1.3577777777777778,-0.12651353930584885,-0.03433752651588923,0.010386535566465462
1592331047.5668795,-0.4572137449962348,9.69157663192105,0.049697594229321074,-0.7555555555555555,-1.9066666666666667,-1.3577777777777778,-0.14549043650315033,-0.03909792430665768,0.0054046728839631086
1592331047.5768795,-0.26202969696969697,9.578430909090908,-0.015355151515151511,-0.7566597306397306,-1.9052719191919192,-1.3612065319865319,-0.1356828216034304,-0.05069850922260953,-0.006665901634444555
1592331047.5868795,-0.42806467315716273,9.5747311080204,0.17086045433472413,-0.7766666666666666,-1.88,-1.4233333333333333,-0.07131456691269603,-0.048993524204815564,0.008750111511852888
1592331047.5968795,-0.2520367912004552,9.724098236298122,-0.1351166318983501,-0.7766666666666666,-1.88,-1.4233333333333333,-0.01949841922499923,-0.076981870839464,0.006835431578844661
1592331047.6068795,-0.16846634353697415,9.898650631139681,-0.300184287602706,-0.7766666666666666,-1.88,-1.4233333333333333,0.02513595765415617,-0.08760105453564512,0.022124460588106496
1592331047.6168795,-0.09484516670418962,9.750828915859923,-0.09195808346466362,-0.7766666666666666,-1.88,-1.4233333333333333,0.02097315802427297,-0.1095669071018014,0.018229191375509296
1592331047.6268795,-0.05892002285061411,10.034326192516424,-0.048107683518994575,-0.7737839347488019,-1.878378463296201,-1.4267565774857978,0.012707010202649159,-0.1370610339380302,0.008697451502953675
1592331047.6368794,0.05,9.85,-0.09,-0.7588888888888888,-1.87,-1.4444444444444444,-0.017453292519943295,-0.17453292519943295,-0.019634954084936207
1592331047.6468794,-0.03034280755044478,9.873114558472553,-0.16277175092210894,-0.7588888888888888,-1.87,-1.4444444444444444,-0.01989778063819338,-0.17321666236652905,-0.01775457860935922
1592331047.6568794,-0.2247389049542337,9.597269077265015,0.22281122290466746,-0.7588888888888888,-1.87,-1.4444444444444444,-0.020909784190207323,-0.1680886995555344,-0.01349300559427827
1592331047.6668794,-0.61,9.59,0.39,-0.7588888888888888,-1.87,-1.4444444444444444,0.007635815477475192,-0.1712604328519436,-0.02617993877991494
1592331047.6768794,-0.12908120847108115,9.700319138489737,0.0968858629832084,-0.7575338505013475,-1.8688534290566958,-1.4477799235522386,0.07615559894911275,-0.12500140250866382,-0.006033328608003703
1592331047.6868794,-0.41,9.8,0.26,-0.7444444444444445,-1.8577777777777778,-1.48,0.10581058590215622,-0.11017390903214205,-0.001090830782496456
1592331047.6968794,-0.4020343047807726,9.605085761951932,0.06143996663364788,-0.7444444444444445,-1.8577777777777778,-1.48,0.10632213498137814,-0.10630052423650828,0.0047639180954154176
1592331047.7068794,-0.4160159524779037,9.819460346355601,-0.12017988454813289,-0.7444444444444445,-1.8577777777777778,-1.48,0.11872105380762903,-0.10584983062263599,0.004879304980874228
1592331047.7168794,-0.23340248476324427,9.829330559462417,-0.1542268323175496,-0.7444444444444445,-1.8577777777777778,-1.48,0.14154940033415842,-0.11028072913513967,-0.0006916138206650935
1592331047.7268794,-0.46138388365498945,10.177023689746639,-0.14941705539803044,-0.7451358611881799,-1.855969457063393,-1.4799468140966356,0.16803446851642753,-0.10259030869319302,-0.0037946437327509414
1592331047.7368793,-0.29,9.72,0.26,-0.7588888888888888,-1.82,-1.478888888888889,0.14726215563702155,-0.10362892433716332,-0.014180800172453926
1592331047.7468793,-0.3918587603047063,9.752598873004278,-0.041841803193154545,-0.7588888888888888,-1.82,-1.478888888888889,0.12690244734232276,-0.06492785203579036,-0.01470649455430348
1592331047.7568793,-0.3703508351506147,9.726443959836086,-0.19,-0.7588888888888888,-1.82,-1.478888888888889,0.0784029168020628,-0.011048161276673348,-0.006455922880030728
1592331047.7668793,-0.7423123226746415,10.121928149681773,-0.16956598420366537,-0.7588888888888888,-1.82,-1.478888888888889,0.0030831172311967525,0.02971010340909132,0.002089692510061936
1592331047.7768793,-0.3161603788053064,10.322943217544667,-0.040916340771413234,-0.7588888888888888,-1.82,-1.478888888888889,-0.0530508792540407,0.06567094490744657,0.015246097936289463
1592331047.7868793,-0.1874837240332191,9.931897674204606,-0.3,-0.7688888888888888,-1.8133333333333332,-1.4944444444444445,-0.2032131498155538,0.07594414648724526,0.011350221144336125
1592331047.7968793,-0.6048941602220901,9.865719561768788,-0.25489416022209,-0.7688888888888888,-1.8133333333333332,-1.4944444444444445,-0.24141701562675164,0.08487125300973455,0.013680403451958638
1592331047.8068793,-0.4315875613747954,9.655248226950356,-0.012094926350245505,-0.7688888888888888,-1.8133333333333332,-1.4944444444444445,-0.26765404859467595,0.09266289115164111,0.01544361682300356
1592331047.8168793,-0.5173605299169031,9.465460801618308,0.12312853261408485,-0.7688888888888888,-1.8133333333333332,-1.4944444444444445,-0.2429003220964475,0.09079336602949287,0.014247821051104028
1592331047.8268793,-0.36310440267765187,9.540351441812563,0.09128861997940267,-0.7688823807071747,-1.8131445960636228,-1.4946982635312964,-0.21472753994792781,0.10246781023764324,0.025063550427591712
1592331047.8368793,-0.89,9.6,0.31,-0.7677777777777778,-1.781111111111111,-1.5377777777777777,-0.18653206380689397,0.09053895494720585,0.020725784867432664
1592331047.8468792,-0.6517126265884927,9.91344460964457,0.11942912447050243,-0.7677777777777778,-1.781111111111111,-1.5377777777777777,-0.15050245582294933,0.09194326149304546,0.034221583579281685
1592331047.8568792,-0.68,9.64,0.11,-0.7677777777777778,-1.781111111111111,-1.5377777777777777,-0.1679879405044542,0.061086523819801536,0.022907446432425576
1592331047.8668792,-0.20186458105447386,9.591131918617371,0.18700350032815577,-0.7677777777777778,-1.781111111111111,-1.5377777777777777,-0.12530994382638044,0.04962976985518846,0.03271886197809311
1592331047.8768792,-0.22939225552395537,9.903112229271494,-0.15250448479544962,-0.7677777777777778,-1.781111111111111,-1.5377777777777777,-0.1233080748475903,0.05763724577034905,0.048733813808414295
1592331047.8868792,-0.26,9.67,0.09,-0.7733333333333333,-1.7422222222222221,-1.5888888888888888,-0.1112647398146385,0.03599741582238304,0.03599741582238304
1592331047.8968792,-0.21052634197303619,9.578947316053927,-0.08578926421571066,-0.7733333333333333,-1.7422222222222221,-1.5888888888888888,-0.13945409515165402,0.027353690284547344,0.02049612485690955
1592331047.9068792,-0.28118343330216433,9.462613405706206,0.48975346089812305,-0.7733333333333333,-1.7422222222222221,-1.5888888888888888,-0.10527162638218898,0.0015093055833351194,-0.01866891193575565
1592331047.9168792,-0.2290553590010406,9.714723204994797,0.1560588969823101,-0.7733333333333333,-1.7422222222222221,-1.5888888888888888,-0.054928789728107386,-0.008417513215949708,-0.045239283822391264
1592331047.9268792,-0.22032632674297606,9.758368366285119,0.30445244536940685,-0.7733333333333333,-1.7422222222222221,-1.5888888888888888,-0.028267477880303683,-0.005560944089399311,-0.05000023236664192
1592331047.9368792,-0.35,9.75,0.44,-0.7655555555555555,-1.7022222222222223,-1.6177777777777778,0.02399827721492203,0.0545415391248228,0.002181661564992912
1592331047.9468791,-0.4411414840720386,9.86200961149573,0.19885851592796136,-0.7655555555555555,-1.7022222222222223,-1.6177777777777778,0.004739494047890473,0.04086142646662444,0.019012371103181634
1592331047.9568791,-0.4527479403735112,9.73669420888599,0.16382232852552486,-0.7655555555555555,-1.7022222222222223,-1.6177777777777778,-0.025454220453283428,0.012907413162024999,0.009396019095724045
1592331047.9668791,-0.32944390452495725,9.836653708598973,-0.08998056289846058,-0.7655555555555555,-1.7022222222222223,-1.6177777777777778,-0.032301359360799226,0.009756816436249741,0.02084710607986939
1592331047.9768791,-0.32129140102627896,9.640993624630694,0.2035095630539574,-0.7655555555555555,-1.7022222222222223,-1.6177777777777778,-0.04208366130864437,0.008867516259172908,0.022625706434023056
1592331047.986879,-0.4,9.59,0.51,-0.78,-1.6577777777777778,-1.6266666666666667,-0.02399827721492203,-0.032724923474893676,-0.007635815477475192
1592331047.996879,-0.21742980309914947,9.754313177210765,0.19963066526855416,-0.78,-1.6577777777777778,-1.6266666666666667,0.012845063073067028,-0.039695285150999716,-0.020580772875957835
1592331048.006879,-0.27080828107709337,9.781225562523053,0.16612781261527113,-0.78,-1.6577777777777778,-1.6266666666666667,0.05839430234734267,-0.015694021074436054,-0.01084146375866348
1592331048.016879,-0.13197103781174577,9.796550683829446,0.26024637972646825,-0.78,-1.6577777777777778,-1.6266666666666667,0.08383271509833834,-0.0049435125918345525,-0.009683097747560807
1592331048.026879,-0.19945776347546257,9.67844891391794,0.26868222043443285,-0.78,-1.6577777777777778,-1.6266666666666667,0.07831147026604766,0.012540429377085969,-0.0050820603873185655
1592331048.036879,0.02943498020038802,10.028835942275492,-0.13991149972094505,-0.7533333333333333,-1.6277777777777778,-1.6266666666666667,0.06867035908112831,0.050220542328120114,0.006756616361394451
1592331048.046879,-0.48,10.0,0.11,-0.7533333333333333,-1.6277777777777778,-1.6266666666666667,0.04036073895236887,0.05126904677733343,0.011999138607461015
1592331048.056879,-0.7341816934161869,9.921790248179635,0.20776218977545652,-0.7533333333333333,-1.6277777777777778,-1.6266666666666667,0.009434557220683676,0.0342063258219209,0.015198398786600864
1592331048.066879,-0.5,9.93,-0.09,-0.7533333333333333,-1.6277777777777778,-1.6266666666666667,-0.01308996938995747,0.022907446432425576,0.007635815477475192
1592331048.076879,-0.5737834283209119,9.921801841297677,0.19693555458132397,-0.7533333333333333,-1.6277777777777778,-1.6266666666666667,-0.03186985752175748,-0.010180927895031586,-0.004884109943724815
1592331048.086879,-0.74,10.08,0.39,-0.7744444444444445,-1.5822222222222222,-1.6566666666666667,-0.0839939702522271,-0.04690572364734761,-0.004363323129985824
1592331048.096879,-0.3415943407442635,10.042939008441326,0.26955177743431225,-0.7744444444444445,-1.5822222222222222,-1.6566666666666667,-0.13958146708253483,-0.07116208590057281,0.002711449193871526
1592331048.106879,-0.19,9.56,0.4,-0.7744444444444445,-1.5822222222222222,-1.6566666666666667,-0.20725784867432664,-0.11344640137963141,0.006544984694978735
1592331048.116879,-0.39167269221499157,9.665220535068691,0.4701470233791275,-0.7744444444444445,-1.5822222222222222,-1.6566666666666667,-0.20821433032935727,-0.12301121792993777,0.017066282900315727
1592331048.126879,-0.41135259575603894,9.472462298144935,0.4021733618043507,-0.7744444444444445,-1.5822222222222222,-1.6566666666666667,-0.2092919649306234,-0.16302941363040904,0.010997839512037203
1592331048.136879,-0.04,9.66,0.28,-0.7822222222222223,-1.5566666666666666,-1.6655555555555555,-0.13526301702956053,-0.1712604328519436,0.009817477042468103
1592331048.146879,-0.05751902290552932,9.77387364888594,0.22744293128341203,-0.7822222222222223,-1.5566666666666666,-1.6655555555555555,-0.08270972100187785,-0.16552734601256003,0.005039904676315131
1592331048.156879,-0.23,9.71,0.37,-0.7822222222222223,-1.5566666666666666,-1.6655555555555555,-0.039269908169872414,-0.14398966328953217,-0.001090830782496456
1592331048.166879,-0.030876213111507234,10.047644682115271,0.1449035452564864,-0.7822222222222223,-1.5566666666666666,-1.6655555555555555,-0.0421030867298537,-0.10526955630312124,0.010241883457428698
1592331048.176879,-0.008681378068002702,9.735382121143886,0.5180247691961269,-0.7822222222222223,-1.5566666666666666,-1.6655555555555555,-0.07568710102609613,-0.08127276378815027,0.008211172835034232
1592331048.186879,-0.10309852172345413,9.589690147827655,0.4518591130340725,-0.7944444444444444,-1.4933333333333334,-1.6444444444444444,-0.09682278527420994,-0.059522498234640196,0.010256872216371208
1592331048.196879,-0.19761582837569858,9.58023841716243,0.5085694970254192,-0.7944444444444444,-1.4933333333333334,-1.6444444444444444,-0.05558183024423983,-0.045088163974150657,0.023660182601111496
1592331048.206879,-0.2572445336382517,9.656326044851003,0.24285884302149208,-0.7944444444444444,-1.4933333333333334,-1.6444444444444444,-0.013952874500354581,-0.04056112212087078,0.02607974719566399
1592331048.216879,-0.31677057445146634,9.830311723354399,0.1826911879571114,-0.7944444444444444,-1.4933333333333334,-1.6444444444444444,0.016900170129983256,-0.07029216585900758,0.004505457226831738
1592331048.226879,-0.17369931662870158,9.814182232346242,0.15418223234624145,-0.7944444444444444,-1.4933333333333334,-1.6444444444444444,0.045768178471432164,-0.07293359216783481,-0.010808915498541192
1592331048.2368789,-0.37,9.87,0.12,-0.8088888888888889,-1.4733333333333334,-1.6477777777777778,0.061086523819801536,-0.04581489286485115,-0.002181661564992912
1592331048.2468789,-0.1557200370385281,9.79285921333387,0.4114207496276018,-0.8088888888888889,-1.4733333333333334,-1.6477777777777778,0.054541714789025454,-0.06357937451981477,-0.004986579721039799
1592331048.2568789,-0.005133881824981312,10.000160059835451,0.10582946896035905,-0.8088888888888889,-1.4733333333333334,-1.6477777777777778,0.01690502155073042,-0.04983407805612568,-0.00023334151368286163
1592331048.2668788,-0.24799687010954619,9.533082942097026,0.662300469483568,-0.8088888888888889,-1.4733333333333334,-1.6477777777777778,-0.024266290411873434,-0.028277952914012194,0.006242829689498497
1592331048.2768788,-0.2522579895859546,9.757744333249454,0.3493515417820019,-0.8088888888888889,-1.4733333333333334,-1.6477777777777778,-0.007600447568207436,-0.014602934645338097,0.001477850728149415
1592331048.2868788,-0.07,9.43,0.65,-0.8211111111111111,-1.4344444444444444,-1.6488888888888888,0.032724923474893676,0.028361600344907853,0.017453292519943295
1592331048.2968788,-0.16827492606247213,9.43,0.44451606368755825,-0.8211111111111111,-1.4344444444444444,-1.6488888888888888,0.06780899003738713,0.026412485535880437,0.004784046261265095
1592331048.3068788,-0.64,9.37,0.52,-0.8211111111111111,-1.4344444444444444,-1.6488888888888888,0.19962203319685143,0.05563236990731925,0.01854412330243975
1592331048.3168788,-0.40650455927051676,9.743592705167172,-0.11822087132725434,-0.8211111111111111,-1.4344444444444444,-1.6488888888888888,0.2641470501579934,0.046293222715575025,0.011752016253898495
1592331048.3268788,-0.190070963414898,10.402370134787219,-0.5604030635425457,-0.8211111111111111,-1.4344444444444444,-1.6488888888888888,0.3023229926183323,0.022974636567597195,0.00034895445684845865
1592331048.3368788,-0.42,9.38,0.35,-0.7944444444444444,-1.3966666666666667,-1.6088888888888888,0.2498002491916884,0.05999569303730508,0.011999138607461015
1592331048.3468788,-0.23295096322241682,9.890133736666137,-0.20264488138831394,-0.7944444444444444,-1.3966666666666667,-1.6088888888888888,0.2247591179501471,0.002493836112284334,0.010144239996976475
1592331048.3568788,-0.5464435146443515,9.816401673640168,0.23891213389121352,-0.7944444444444444,-1.3966666666666667,-1.6088888888888888,0.19095472082881473,-0.024431871040600534,-0.004879071575266574
1592331048.3668787,-0.3276346402412753,9.75190866006032,0.17286299009047826,-0.7944444444444444,-1.3966666666666667,-1.6088888888888888,0.14650321125589214,-0.06733432253253184,-0.019183848636394118
1592331048.3768787,-0.12495719871772287,9.965219642794237,-0.045219642794236764,-0.7944444444444444,-1.3966666666666667,-1.6088888888888888,0.12380462491772393,-0.05991853137135753,-0.0012936875726045627
1592331048.3868787,-0.23358345458324672,9.633749740178756,0.39288921222199125,-0.812756183745583,-1.378354927365528,-1.6013487609413612,0.034133865998783305,-0.04822986660510676,0.00023331217526270046
1592331048.3968787,-0.20918195500955947,9.65081804499044,0.06329699385754389,-0.8133333333333334,-1.3777777777777778,-1.6011111111111112,0.012304161216535603,-0.04043266820015908,0.003361727213193325
1592331048.4068787,-0.6016715715126546,9.848016480282519,-0.04854620364920542,-0.8133333333333334,-1.3777777777777778,-1.6011111111111112,-0.004641969721865437,-0.04936603180422013,0.002498830727178462
1592331048.4168787,-0.14762689140011487,10.04270637808849,-0.24696035242290754,-0.8133333333333334,-1.3777777777777778,-1.6011111111111112,-0.04858093552515962,-0.08396367520080747,-0.0015548673976898343
1592331048.4268787,-0.17582559938128384,9.699358081979891,0.06747679814385155,-0.8133333333333334,-1.3777777777777778,-1.6011111111111112,-0.10448620653371923,-0.09871350697316456,-0.0047085841491170495
1592331048.4368787,-0.19039598386037346,10.256536548747302,0.0033658628131744417,-0.8089768853023052,-1.3440153055373099,-1.5717050869016713,-0.11462362243898132,-0.11534729454485068,0.007376644646914903
1592331048.4468787,-0.30631110761237507,9.533362985121625,0.4652444304495001,-0.8088888888888889,-1.3433333333333333,-1.5711111111111111,-0.15259995312107885,-0.1207030924058178,-0.0033600816884439763
1592331048.4568787,-0.8271305737330696,9.9725711459443,-0.09852686044742043,-0.8088888888888889,-1.3433333333333333,-1.5711111111111111,-0.19069476770074417,-0.16227697404890057,-0.027599546059859918
1592331048.4668787,-0.46415066047840053,9.495016779721528,0.4487740092823992,-0.8088888888888889,-1.3433333333333333,-1.5711111111111111,-0.17899072728259036,-0.16882477634359325,-0.02542776792189507
1592331048.4768786,-0.5895886131903106,9.738779395296753,0.31001355572582073,-0.8088888888888889,-1.3433333333333333,-1.5711111111111111,-0.139672694199399,-0.16410493780683894,-0.002706857336915676
1592331048.4868786,-0.3711910288487626,9.588071925963886,0.4292059807674916,-0.8019197674145976,-1.3144612586541264,-1.5631464008547782,-0.09537244051435848,-0.16253378659197193,0.0053407401311290625
1592331048.4968786,-0.008710494860148243,9.771657183839348,0.30276021993784363,-0.8011111111111111,-1.3111111111111111,-1.5622222222222222,-0.04946869354850268,-0.14948392472636252,0.013484838137472682
1592331048.5068786,-0.16051458800897728,9.832120070535428,0.03727957678743188,-0.8011111111111111,-1.3111111111111111,-1.5622222222222222,-0.03793845809325683,-0.15229120380531516,0.008273474093758186
1592331048.5168786,-0.45724919004236697,9.673888350455515,0.1624611635699056,-0.8011111111111111,-1.3111111111111111,-1.5622222222222222,-0.029824690384832004,-0.15489797111449674,0.007263556220047498
1592331048.5268786,-0.5399425685711456,9.829827705713438,0.0051866521437766155,-0.8011111111111111,-1.3111111111111111,-1.5622222222222222,-0.037625830999818095,-0.17451413080828984,-0.0005375843949385947
1592331048.5368786,-0.1832517401774817,9.648494705241976,0.09456338864513575,-0.8096979660358409,-1.281057118874557,-1.5622222222222222,-0.06775864555679392,-0.19266933191936073,-0.009595086179279766
1592331048.5468786,-0.3630959415331986,9.79861452340227,0.05172601461670036,-0.81,-1.28,-1.5622222222222222,-0.08677676761152377,-0.17803169157333348,-0.011322012735322025
1592331048.5568786,-0.18104187424950818,9.69647862854807,0.18616923430673718,-0.81,-1.28,-1.5622222222222222,-0.10152716394621852,-0.14002882804081698,-0.006320665005437999
1592331048.5668786,-0.09583961147054282,9.487049818949393,0.34248116558837155,-0.81,-1.28,-1.5622222222222222,-0.08739847575683005,-0.10223112365246204,-0.002701496131057405
1592331048.5768785,-0.36171289551890917,9.350233378008275,0.5628797855602821,-0.81,-1.28,-1.5622222222222222,-0.03243192280524054,-0.030950583374514555,0.00735145958297616
1592331048.5868785,-0.2559691454435342,10.090077136391164,-0.11796130430625051,-0.8149678244208574,-1.2680772213899425,-1.5433444894229644,0.03792637097972657,0.04728224506843115,0.016016259522124196
1592331048.5968785,-0.059902195527778895,9.62262245850412,0.19913883365123167,-0.8155555555555556,-1.2666666666666666,-1.541111111111111,0.04318921390005955,0.08017285301583393,0.013128394823957995
1592331048.6068785,-0.2437036550092032,9.676359716013673,-0.14097344201945827,-0.8155555555555556,-1.2666666666666666,-1.541111111111111,0.11045555161571638,0.12489608023243816,0.011823682075866726
1592331048.6168785,-0.3172190714217053,9.648076035758915,-0.13085696433721042,-0.8155555555555556,-1.2666666666666666,-1.541111111111111,0.17585653924994268,0.1354437910629186,0.0044859013463405635
1592331048.6268785,-0.36959096090659155,9.69446824917857,-0.1992637296318648,-0.8155555555555556,-1.2666666666666666,-1.541111111111111,0.20166091318285737,0.13364908047753254,-0.0010551353877497074
1592331048.6368785,-0.2978178515827712,9.66399974052932,-0.3074545926310327,-0.8058585596494262,-1.248242374445021,-1.5207474197082396,0.2611450025450935,0.1451796991029744,0.008825851290917418
1592331048.6468785,-0.11839805043099977,9.685911544348667,-0.17233907999677758,-0.8044444444444444,-1.2455555555555555,-1.5177777777777777,0.2803113477191358,0.12963411752689102,-0.0008437175817891298
1592331048.6568785,-0.15660417727967396,10.271982679572083,-0.6745613856342334,-0.8044444444444444,-1.2455555555555555,-1.5177777777777777,0.28995860374722326,0.12935952752322874,0.016149852538576162
1592331048.6668785,-0.1817364455676887,10.028140050545991,-0.39682227838443573,-0.8044444444444444,-1.2455555555555555,-1.5177777777777777,0.18289272752761515,0.15993435727963173,0.030830755197529293
1592331048.6768785,-0.2138357608653208,10.105644499980475,-0.4453430434612832,-0.8044444444444444,-1.2455555555555555,-1.5177777777777777,0.07841394633457957,0.13406446196853178,0.03198674168487206
1592331048.6868784,-0.29939162920665774,9.86388257805856,-0.36350656056372255,-0.7941642030804952,-1.2361320009719354,-1.4920771743679044,-0.043994069534950234,0.12394685697119386,0.035839344091630684
1592331048.6968784,-0.4565689712206418,10.005202117102217,-0.2896513397287463,-0.7911111111111111,-1.2333333333333334,-1.4844444444444445,-0.16141704722522698,0.10641001960903121,0.03377772132173842
1592331048.7068784,-0.42009587875976184,9.80832598778319,-0.12019175751952371,-0.7911111111111111,-1.2333333333333334,-1.4844444444444445,-0.25626679325976526,0.021910744402211343,-0.0003965890620349702
1592331048.7168784,-0.2372721423975981,9.634226892558438,0.058318678962041584,-0.7911111111111111,-1.2333333333333334,-1.4844444444444445,-0.32063500580956195,-0.03864530637075907,-0.03002767300905964
1592331048.7268784,-0.23395286195286197,9.625090160867938,0.13149794238683127,-0.7911111111111111,-1.2333333333333334,-1.4844444444444445,-0.3274973548820299,-0.05663848072331879,-0.028733780544547498
1592331048.7368784,-0.2737349707451939,9.67439754388221,0.40331286568507685,-0.7920147238474893,-1.2215863677604177,-1.5016130864356287,-0.273686904392186,-0.08687215599268278,-0.005237327360428798
1592331048.7468784,-0.1139476318212756,9.723347880049646,0.4369956359851063,-0.7922222222222223,-1.218888888888889,-1.5055555555555555,-0.2411390257011518,-0.099050291291747,0.006802526798689413
1592331048.7568784,-0.0005432333378580095,9.802635808334465,0.26154934165874844,-0.7922222222222223,-1.218888888888889,-1.5055555555555555,-0.21435812502133716,-0.10770472538034967,0.02265942938876037
1592331048.7668784,-0.053601300781903824,9.636923794266039,0.33587360417015377,-0.7922222222222223,-1.218888888888889,-1.5055555555555555,-0.21575183166513046,-0.12578110197788214,0.023140109701593418
1592331048.7768784,-0.08113444513073914,9.618179260174319,0.3312535172603116,-0.7922222222222223,-1.218888888888889,-1.5055555555555555,-0.20330473810852237,-0.12936275367826855,0.022907446432425576
1592331048.7868783,-0.1543111296224675,9.635688870377532,0.2668622259244935,-0.7838350572033969,-1.2105017238700635,-1.484968877782075,-0.15154207546736093,-0.1362675562269364,0.01916468279498422
1592331048.7968783,-0.03227710394139452,9.709519882438093,0.2975445792117211,-0.78,-1.2066666666666668,-1.4755555555555555,-0.12200994818476837,-0.1534869227724422,-0.004330401778973276
1592331048.8068783,0.09678702098979396,9.86353793568265,0.0695667244367418,-0.78,-1.2066666666666668,-1.4755555555555555,-0.11817989908047309,-0.16290396116282777,-0.022194667392813387
1592331048.8168783,0.11660431688917447,9.826230218224222,0.10405035577449369,-0.78,-1.2066666666666668,-1.4755555555555555,-0.11999138607461016,-0.1369518435262377,-0.015951242337015475
1592331048.8268783,0.03164589523220801,9.824773774153023,0.18,-0.78,-1.2066666666666668,-1.4755555555555555,-0.13098052357090928,-0.10311712634555113,0.0043543831421175485
1592331048.8368783,-0.047761581112502234,9.871841054075002,0.18592052703750075,-0.7839470180250004,-1.1994304669541658,-1.4623988288055538,-0.17320946449330984,-0.0769331935739431,0.02152909625033353
1592331048.8468783,-0.15240896031393802,9.827194879820608,0.20320128004484828,-0.7866666666666666,-1.1944444444444444,-1.4533333333333334,-0.21218993975476647,-0.05757286183468798,0.03588937997837602
1592331048.8568783,-0.21306307380469774,9.884909979730535,0.3014415166328842,-0.7866666666666666,-1.1944444444444444,-1.4533333333333334,-0.23032254017841527,-0.05554392768338965,0.04928885139596839
1592331048.8668783,-0.24592911560119246,9.813318979794634,0.408340510102683,-0.7866666666666666,-1.1944444444444444,-1.4533333333333334,-0.25188290855913115,-0.06912774245658809,0.05627913608839532
1592331048.8768783,-0.2372,9.6189,0.4571,-0.7866666666666666,-1.1944444444444444,-1.4533333333333334,-0.259465009924607,-0.09640762455703678,0.047865654735944486
1592331048.8868783,-0.1624498529018454,9.583944607886838,0.6234670589284121,-0.7838246840939183,-1.168156105646522,-1.45901729847883,-0.24666892851986313,-0.14095419672676285,0.017342332555351295
1592331048.8968782,-0.03531421032056295,9.53988125488663,0.804685789679437,-0.7822222222222223,-1.1533333333333333,-1.4622222222222223,-0.21773651927749088,-0.17058628620875396,-0.02264998392854276
1592331048.9068782,0.008266264916940887,9.526532529833881,0.8234674701661182,-0.7822222222222223,-1.1533333333333333,-1.4622222222222223,-0.19621443577207076,-0.17802831497597466,-0.04144144982830765
1592331048.9168782,-0.05637958622238441,9.523487915111025,0.7334879151110237,-0.7822222222222223,-1.1533333333333333,-1.4622222222222223,-0.12592718604098702,-0.16767973479954934,-0.07015750919071759
1592331048.9268782,0.0547287375481208,9.583315474064372,0.7873643687740604,-0.7822222222222223,-1.1533333333333333,-1.4622222222222223,-0.05865571627896757,-0.12485555538956647,-0.05425988078966695
1592331048.9368782,0.043609396774835746,9.66450328488951,0.6807286482181962,-0.7829028690247086,-1.1492494525184154,-1.44588669896255,0.01700896845444703,-0.06135385662753658,-0.018731972919572827
1592331048.9468782,-0.16524492924824694,9.665763691658078,0.5088184582903963,-0.7833333333333333,-1.1466666666666667,-1.4355555555555555,0.07935085904735813,-0.0328915351486874,0.011942550406916295
1592331048.9568782,-0.27194390447098027,9.656537073035269,0.37957511802277144,-0.7833333333333333,-1.1466666666666667,-1.4355555555555555,0.10212187542216197,-0.026345638429463837,0.021188350433906444
1592331048.9668782,-0.37,9.743702525823323,0.3840980892054564,-0.7833333333333333,-1.1466666666666667,-1.4355555555555555,0.12219030734814941,-0.05213722158545957,0.014498384543829153
1592331048.9768782,-0.3464088142538618,9.996422875278709,0.4033286463250507,-0.7833333333333333,-1.1466666666666667,-1.4355555555555555,0.08832712095412508,-0.08525356504426071,0.006153247099223726
1592331048.9868782,-0.29002786032689454,10.00009751114413,0.33667595344229817,-0.7892551318034231,-1.1355632945352485,-1.4355555555555555,0.04364690720584236,-0.10616710495247808,-0.00508395895617629
1592331048.9968781,-0.23814575494847048,9.968225094061836,0.33,-0.7922222222222223,-1.13,-1.4355555555555555,0.0060176814130750884,-0.11647687847294758,-0.013987187969115362
1592331049.0068781,-0.15711124706842053,9.850224329560518,0.39444376465789743,-0.7922222222222223,-1.13,-1.4355555555555555,-0.08649041218985842,-0.12481531186293367,-0.019392584320985992
1592331049.0168781,-0.08280608693565034,9.88782660874157,0.5173520869836545,-0.7922222222222223,-1.13,-1.4355555555555555,-0.14503320894150062,-0.10713849689336317,-0.00499277042955612
1592331049.026878,-0.06581855572786731,9.862828871957387,0.6323133976131077,-0.7922222222222223,-1.13,-1.4355555555555555,-0.17112458466535663,-0.09556802245233607,0.004788409537337875
1592331049.036878,-0.3809484536082474,9.480295532646048,0.7868041237113402,-0.7936029018709431,-1.1334516991218022,-1.4369362352042765,-0.17884451820983646,-0.06799286963997841,0.02219746928395537
1592331049.046878,-0.52430699456543,9.546399890526645,0.6268745357156821,-0.7944444444444444,-1.1355555555555557,-1.4377777777777778,-0.1608767490820085,-0.06428493503700994,0.01946448645238984
1592331049.056878,-0.42764892685063516,9.831598773543584,0.4212538326763031,-0.7944444444444444,-1.1355555555555557,-1.4377777777777778,-0.12013843082858006,-0.10138228117496519,-0.004619785426308633
1592331049.066878,-0.32707746054692205,9.853034574147694,0.42718949524153715,-0.7944444444444444,-1.1355555555555557,-1.4377777777777778,-0.1282770218411403,-0.12140101645695438,-0.0011274940505745807
1592331049.076878,-0.26878535181173396,9.868576727898628,0.41753360833308606,-0.7944444444444444,-1.1355555555555557,-1.4377777777777778,-0.13971332304563616,-0.1252675277464494,0.0016476248430638372
1592331049.086878,-0.1442548398182443,9.883477414181526,0.6782290274542747,-0.7973602148484733,-1.127391398424275,-1.4255315420808568,-0.17455650037308956,-0.11748458704395733,0.0011992099377164253
1592331049.096878,-0.11462835069647666,9.909008935190604,0.7912388310117445,-0.8,-1.12,-1.4144444444444444,-0.19466356055531042,-0.10316027016626049,0.004949279171291716
1592331049.106878,-0.11208203053154314,9.783988281352636,0.723578128694921,-0.8,-1.12,-1.4144444444444444,-0.26078525538429165,-0.05471112964848426,0.00916170026684292
1592331049.116878,-0.27211198081940624,9.534649178478245,0.7750224478762664,-0.8,-1.12,-1.4144444444444444,-0.31090713169896617,-0.0271991295462796,0.0011779321192179025
1592331049.126878,-0.43357770324229356,9.353434754831497,0.9422360645264335,-0.8,-1.12,-1.4144444444444444,-0.2971470266844105,-0.030412505081556476,-0.015808247918708423
1592331049.136878,-0.51,9.314425849161665,1.0345932067066759,-0.7900903985096277,-1.1125677988822207,-1.4063928932335168,-0.1998674920569603,-0.05021472774719301,-0.03943168020387872
1592331049.146878,-0.4997049052179011,9.365593511823334,1.022642564002345,-0.7822222222222223,-1.1066666666666667,-1.4,-0.10404231871930462,-0.05261594672847064,-0.04481990681946832
1592331049.156878,-0.2669309946434198,9.733319504253755,0.732108497006617,-0.7822222222222223,-1.1066666666666667,-1.4,0.1331542799255548,0.0032292417834317716,-0.017831319635461314
1592331049.166878,-0.12,9.86205334972923,0.7946401967507745,-0.7822222222222223,-1.1066666666666667,-1.4,0.23052022075142714,0.04239115921677823,-0.00521561932157385
1592331049.176878,-0.14545202372998037,10.139791451537791,0.8085535240640629,-0.7822222222222223,-1.1066666666666667,-1.4,0.22479306007038158,0.106221748425126,0.005592216704225083
1592331049.186878,-0.3386201639031827,10.152690426275333,0.6344485737881964,-0.7828467413477895,-1.1097892622945034,-1.4,0.1002965579158491,0.20905944153805522,0.016768690696661263
1592331049.196878,-0.4582540685732343,9.916372254700585,0.5801358824458841,-0.7833333333333333,-1.1122222222222222,-1.4,-0.001802999022862288,0.2525532654800145,0.018902792738112864
1592331049.206878,-0.38938469361810324,9.69469234680905,0.5791545893719807,-0.7833333333333333,-1.1122222222222222,-1.4,-0.13535523702324984,0.2675640388031661,0.025693183625254055
1592331049.216878,-0.4910990232481139,9.590010879076697,0.6122089255729253,-0.7833333333333333,-1.1122222222222222,-1.4,-0.1153888866282673,0.264587000536464,0.03672443855685157
1592331049.226878,-0.6078382874666773,9.435764566755527,0.7471177166222365,-0.7833333333333333,-1.1122222222222222,-1.4,-0.064805725267473,0.23926004838109738,0.026032333027121178
1592331049.236878,-0.5568918049659076,9.447774347098932,0.7264466743856941,-0.7746422802578727,-1.1035311691467615,-1.3896793744728904,0.014712392479683638,0.18384224602635754,-0.008798638565570605
1592331049.246878,-0.47243047158403867,9.5520253929867,0.6570294236195083,-0.7655555555555555,-1.0944444444444446,-1.3788888888888888,0.06696694151448063,0.15712381989982052,-0.030175035073810166
1592331049.256878,-0.5682254777771658,9.83468744836702,0.3245536156854106,-0.7655555555555555,-1.0944444444444446,-1.3788888888888888,0.20561550461412365,0.1488083153009709,0.004598287011152516
1592331049.266878,-0.5127237951309358,10.110895180523745,0.058196887765944894,-0.7655555555555555,-1.0944444444444446,-1.3788888888888888,0.2243156767204059,0.09054382323259372,0.0029760678594266225
1592331049.2768779,-0.4138412660590537,10.12538094954429,-0.08703401441591707,-0.7655555555555555,-1.0944444444444446,-1.3788888888888888,0.16721891574120976,0.019429896698905463,-0.01675847570056081
1592331049.2868779,-0.2900991142977647,9.89820328975116,0.12079291438211728,-0.777977412249871,-1.0977887904775294,-1.372677960541731,0.05514308330369843,-0.02494717577624592,-0.009436307365834486
1592331049.2968779,-0.32455461469322106,9.886134632669474,0.28208382610341076,-0.7944444444444444,-1.1022222222222222,-1.3644444444444443,-0.08942438689426384,-0.06380722783495567,0.0209201208685151
1592331049.3068779,-0.2716943859566112,9.806777543826446,0.27881497078237005,-0.7944444444444444,-1.1022222222222222,-1.3644444444444443,-0.15229108967670832,-0.11329256660013673,0.011197835151109673
1592331049.3168778,-0.21951713468660636,9.566619942806245,0.4371728939102714,-0.7944444444444444,-1.1022222222222222,-1.3644444444444443,-0.16695742733050656,-0.14056679881153178,-0.0023396788692877897
1592331049.3268778,-0.17498837232816322,9.486870639623062,0.6069171503104083,-0.7944444444444444,-1.1022222222222222,-1.3644444444444443,-0.15645858861869402,-0.1612427058278067,-0.015956888245161956
1592331049.3368778,-0.13,9.460876286996095,0.7061340089726624,-0.7878550961638461,-1.094619128052301,-1.3522794937725706,-0.09329132841822035,-0.17382444674879305,-0.02895480977763815
1592331049.3468778,-0.13,9.45,0.63,-0.78,-1.0855555555555556,-1.3377777777777777,-0.05235987755982988,-0.16907877128695067,-0.028361600344907853
1592331049.3568778,-0.028295030715225978,9.656977018429135,0.7471341597191751,-0.78,-1.0855555555555556,-1.3377777777777777,0.08668215734401989,-0.1370305015381783,-0.020066272596948983
1592331049.3668778,0.09959801813592596,9.714698513601943,0.48048237823688883,-0.78,-1.0855555555555556,-1.3377777777777777,0.15265930530462998,-0.10372100811734415,-0.012016678375114505
1592331049.3768778,0.17505323472041615,9.814946765279583,0.4348402958387516,-0.78,-1.0855555555555556,-1.3377777777777777,0.1510230350190588,-0.059858408295213425,-0.0017397305878270155
1592331049.3868778,0.05502852935762931,9.837861218479661,0.45907478986440886,-0.7683108029804147,-1.0905009850638416,-1.3377777777777777,0.12121459695943054,-0.005384684475570119,0.00610360614349925
1592331049.3968778,-0.07380490337006869,9.814731672256828,0.342634163871586,-0.7511111111111111,-1.0977777777777777,-1.3377777777777777,0.10985463936133472,0.03224070506693117,0.005326446044159344
1592331049.4068778,-0.27017990765801625,9.752287852252827,0.42064267897893115,-0.7511111111111111,-1.0977777777777777,-1.3377777777777777,0.05537440981780037,0.046745887963514206,0.0016011934730706086
1592331049.4168777,-0.35,9.88,0.41,-0.7511111111111111,-1.0977777777777777,-1.3377777777777777,0.00545415391248228,0.04036073895236887,0.002181661564992912
1592331049.4268777,-0.3602559959176731,9.812424732097295,0.3765963599251574,-0.7511111111111111,-1.0977777777777777,-1.3377777777777777,-0.04121499731648074,-0.0059092079172573374,-0.013888378108631097
1592331049.4368777,-0.3813568320009877,9.74496712861508,0.481159603691472,-0.7544371396922401,-1.0927887349060843,-1.3344517491966488,-0.054548710548529444,-0.026306431920130356,-0.012006310031167665
1592331049.4468777,-0.3,9.77,0.55,-0.76,-1.0844444444444445,-1.3288888888888888,-0.04908738521234052,-0.03381575425739013,-0.006544984694978735
1592331049.4568777,-0.2927337709700948,9.84158278628738,0.4796761487964989,-0.76,-1.0844444444444445,-1.3288888888888888,-0.07911467063613702,-0.06295820167008939,-0.006464544875788078
1592331049.4668777,-0.12685516845603884,9.940284785155784,0.28057363525501544,-0.76,-1.0844444444444445,-1.3288888888888888,-0.11699981114964744,-0.053014021296092256,0.0013091743056134987
1592331049.4768777,-0.1001338661731992,9.791373703171448,0.5479394452428293,-0.76,-1.0844444444444445,-1.3288888888888888,-0.14164355141975046,-0.03953118616130172,0.010572105948263877
1592331049.4868777,-0.19897411832653505,9.60191928671985,0.8186167563079811,-0.7649106594953615,-1.0830803723623996,-1.3288888888888888,-0.14188596602260603,-0.048610188581900686,0.006871292845523735
1592331049.4968777,0.05,9.7,0.63,-0.78,-1.0788888888888888,-1.3288888888888888,-0.1287180323345818,-0.0370882466048795,-0.002181661564992912
1592331049.5068777,-0.31134381244172105,9.608656187558278,0.7230307712801386,-0.78,-1.0788888888888888,-1.3288888888888888,-0.085855168488631,-0.02965359619138301,-0.0063609660320037105
1592331049.5168777,-0.39105309667483024,9.651053096674831,0.58939278410382,-0.78,-1.0788888888888888,-1.3288888888888888,-0.06406302913420357,-0.042542400517361786,-0.02041219890309543
1592331049.5268776,-0.46,9.72,0.6,-0.78,-1.0788888888888888,-1.3288888888888888,-0.05017821599483697,-0.042542400517361786,-0.016362461737446838
1592331049.5368776,-0.5473036328300195,9.670898789056661,0.7316854537300045,-0.78,-1.0771410773907408,-1.324694141293334,-0.0035789164826830946,-0.05932155993987888,-0.0025493705272253845
1592331049.5468776,-0.28,9.76,0.67,-0.78,-1.0733333333333333,-1.3155555555555556,0.007635815477475192,-0.0839939702522271,0.01090830782496456
1592331049.5568776,-0.3365145650845386,9.84789442860053,0.4164211142798941,-0.78,-1.0733333333333333,-1.3155555555555556,-0.004533036311923422,-0.0900783961469264,0.006745279581222929
1592331049.5668776,-0.24600837821663676,9.608180730101735,0.4732016756433273,-0.78,-1.0733333333333333,-1.3155555555555556,-0.034186545331272834,-0.1002702622330674,0.0034017469823991813
1592331049.5768776,-0.2191019186283848,9.69576113368194,0.5242388663180608,-0.78,-1.0733333333333333,-1.3155555555555556,-0.041609289917595896,-0.09559047497562144,0.01148776728093098
1592331049.5868776,-0.2816228016979988,9.568377198302,0.6708114008489994,-0.7760638770972307,-1.0756294050266153,-1.3144075197089145,-0.06083700206652217,-0.11096295873339236,-0.004311063802019044
1592331049.5968776,-0.0537527947785632,9.705662729510603,0.63809006526796,-0.7533333333333333,-1.0888888888888888,-1.3077777777777777,-0.06313579475661549,-0.1362876524979675,-0.023248178620431367
1592331049.6068776,-0.08585847504114098,9.560126165660998,0.7412122874382886,-0.7533333333333333,-1.0888888888888888,-1.3077777777777777,-0.03206521917555065,-0.12122133817193406,-0.019621191546265106
1592331049.6168776,-0.20317194451714213,9.698063334205704,0.5446244438628631,-0.7533333333333333,-1.0888888888888888,-1.3077777777777777,0.00883769917135378,-0.11110629671485167,-0.01184069550767417
1592331049.6268775,-0.21793497363796133,9.76677504393673,0.5164499121265378,-0.7533333333333333,-1.0888888888888888,-1.3077777777777777,0.03086725207201307,-0.11809824829303678,-0.02142936113663512
1592331049.6368775,-0.22063233623627412,9.73,0.6045257478227943,-0.7547679750936093,-1.0878129075686818,-1.3077777777777777,0.020339182212219985,-0.10992164666924552,-0.024874948300059756
1592331049.6468775,-0.152847370671227,9.78474561778538,0.6033561351004704,-0.7622222222222222,-1.0822222222222222,-1.3077777777777777,0.01523960713548419,-0.06207382128305292,-0.0014889521497436305
1592331049.6568775,-0.21699108127988231,9.852035674880472,0.4525222968002942,-0.7622222222222222,-1.0822222222222222,-1.3077777777777777,-0.017158694991818275,-0.053894823706880805,-0.00103774856553836
1592331049.6668775,-0.23939052643651795,9.724875788507857,0.41686982452116067,-0.7622222222222222,-1.0822222222222222,-1.3077777777777777,-0.052501876979274026,-0.03571341698349476,0.002115178312576509
1592331049.6768775,-0.2224667018717362,9.59987912926128,0.41703749339904944,-0.7622222222222222,-1.0822222222222222,-1.3077777777777777,-0.045921716579924,-0.006140027447965003,0.009481132750851669
1592331049.6868775,-0.09813123918541196,9.738409423665647,0.42598429389058967,-0.7635718828105358,-1.0817031219959476,-1.3058051969179347,-0.0029558276414299017,0.04134964464378154,0.02352988641173641
1592331049.6968775,-0.11403806965542794,9.7485200537236,0.31723045572434233,-0.7766666666666666,-1.0766666666666667,-1.2866666666666666,-0.038317452040639105,0.0552126486151286,0.00041742262599004125
1592331049.7068775,-0.13650290885585004,9.700101117370025,0.3078612983655,-0.7766666666666666,-1.0766666666666667,-1.2866666666666666,-0.046185336137787775,0.09958401621350045,0.01629940327684634
1592331049.7168775,-0.11848858786416774,9.832724067545,0.20924429393208388,-0.7766666666666666,-1.0766666666666667,-1.2866666666666666,-0.039493251167578305,0.11827174367106616,0.025377629601909285
1592331049.7268775,-0.24908478847176013,9.666446837411659,0.30355316258834186,-0.7766666666666666,-1.0766666666666667,-1.2866666666666666,-0.03931395199007637,0.08612228961859172,-0.004182251705334563
1592331049.7368774,-0.026623971035283668,9.698451685623526,0.2891559927588209,-0.7762753849248366,-1.0762753849248368,-1.2876839991954245,0.006744990830868375,0.11750241254821304,0.028284772354556804
1592331049.7468774,-0.51,9.81,0.41,-0.7711111111111111,-1.0711111111111111,-1.301111111111111,0.038179077387375956,0.11344640137963141,0.0272707695624114
1592331049.7568774,-0.29747962588196686,9.653995514959252,0.399785046217798,-0.7711111111111111,-1.0711111111111111,-1.301111111111111,0.07875329293219532,0.04061222129926066,0.015798043468977962
1592331049.7668774,-0.23346788555146622,10.013266057224266,0.15257248011397365,-0.7711111111111111,-1.0711111111111111,-1.301111111111111,0.056095924425052575,0.030251639832728085,0.02058547784264854
1592331049.7768774,-0.3502539238420115,9.952748318353423,0.04150112109771756,-0.7711111111111111,-1.0711111111111111,-1.301111111111111,-0.011301379847411062,0.015314402074342266,0.021544519418255255
1592331049.7868774,-0.238543139542865,9.993881186080033,0.017867046468529067,-0.7706902403123832,-1.0711111111111111,-1.3002693695136553,-0.079069957554342,-0.038296029661537494,0.003886566660252405
1592331049.7968774,-0.19,9.79,0.28,-0.7566666666666667,-1.0711111111111111,-1.2722222222222221,-0.13308135546456762,-0.07853981633974483,-0.011999138607461015
1592331049.8068774,-0.2633998604749917,9.653200279050017,0.4675595256149716,-0.7566666666666667,-1.0711111111111111,-1.2722222222222221,-0.13767155313353185,-0.0839939702522271,-0.011196293239470585
1592331049.8168774,-0.1907499451259664,9.668499865863474,0.3655000853596079,-0.7566666666666667,-1.0711111111111111,-1.2722222222222221,-0.1163916152283214,-0.08505753226043732,-0.013444490059360874
1592331049.8268774,-0.13,9.52,0.46,-0.7566666666666667,-1.0711111111111111,-1.2722222222222221,-0.0839939702522271,-0.08726646259971647,-0.014180800172453926
1592331049.8368773,-0.19595066311409154,9.719366224590607,0.6329108163937371,-0.7535159183972165,-1.0730803287795174,-1.270646848087497,-0.016472580032168213,-0.060244079677177785,0.006227463882530361
1592331049.8468773,-0.27,9.67,0.6,-0.7388888888888889,-1.0822222222222222,-1.2633333333333334,0.0032724923474893677,-0.05126904677733343,0.009817477042468103
1592331049.8568773,-0.1937760370304433,9.844105394338614,0.4341712658002493,-0.7388888888888889,-1.0822222222222222,-1.2633333333333334,-0.004341766744574197,-0.07721070010769822,-0.009145733464640928
1592331049.8668773,-0.32049587905833066,9.796632211647921,0.337128090706252,-0.7388888888888889,-1.0822222222222222,-1.2633333333333334,-0.018230846596223954,-0.08581953847539965,-0.013414521474690947
1592331049.8768773,-0.2965768445610965,9.85,0.36,-0.7388888888888889,-1.0822222222222222,-1.2633333333333334,-0.026285808854109992,-0.07525262688459977,0.00690369591992566
1592331049.8868773,-0.32919510061242346,9.85,0.36,-0.7388888888888889,-1.0822222222222222,-1.2633333333333334,-0.05386108212751749,-0.08058977655042059,0.008682745808532595
1592331049.8968773,-0.3189025123768102,9.705137185952898,0.4751371859528987,-0.7566666666666667,-1.0877777777777777,-1.28,-0.11428697146555596,-0.12629693611303203,-0.03497726974404086
1592331049.9068773,-0.22864515549970832,9.689151371000314,0.5164416819997307,-0.7566666666666667,-1.0877777777777777,-1.28,-0.10710442683835787,-0.08521364663987235,-0.005158034206728069
1592331049.9168773,-0.33853635393191794,9.591950895504684,0.6014636460680821,-0.7566666666666667,-1.0877777777777777,-1.28,-0.06712616313816129,-0.04169074774275561,0.015085603615480166
1592331049.9268773,-0.36899870063393314,9.647249675158484,0.5682509745245502,-0.7566666666666667,-1.0877777777777777,-1.28,-0.028128611740755705,-0.08723880204831562,-0.02155738388287957
1592331049.9368773,-0.30293892979485765,9.630734732448715,0.6177958026538568,-0.7566666666666667,-1.0877777777777777,-1.28,0.03222166465383171,-0.06742229338143615,-0.013450630337337979
1592331049.9468772,-0.38445969366246663,9.758061735912689,0.5661492341561666,-0.7711111111111111,-1.0877777777777777,-1.2577777777777779,0.07579309329067171,-0.04356961781331516,0.011709122423028493
1592331049.9568772,-0.3786790760260148,9.630440681767212,0.5880500112132765,-0.7711111111111111,-1.0877777777777777,-1.2577777777777779,0.07814876610296066,-0.09256967625815068,-0.009350956678659908
1592331049.9668772,-0.20468030690537084,10.07900824097755,0.27609832338732593,-0.7711111111111111,-1.0877777777777777,-1.2577777777777779,0.07502770700024927,-0.08666292536370607,-0.0072799547959446625
1592331049.9768772,-0.24231483047264735,9.907438276824216,0.4295404582734421,-0.7711111111111111,-1.0877777777777777,-1.2577777777777779,0.03942029284822369,-0.10050868437102221,-0.00545415391248228
1592331049.9868772,-0.01,9.822302324778057,0.5534211889875298,-0.7714912432208366,-1.088062876860072,-1.2583954924560818,-0.000979633793338038,-0.10070087512010333,-0.005360855455973895
1592331049.9968772,-0.01,9.65,0.63,-0.78,-1.0944444444444446,-1.2722222222222221,-0.022907446432425576,-0.0839939702522271,-0.0032724923474893677
1592331050.0068772,-0.12714751573893746,9.732841614203542,0.537857919289823,-0.78,-1.0944444444444446,-1.2722222222222221,0.023293725723740784,-0.055166226131203755,-0.002415326322718216
1592331050.0168772,-0.12818809496501893,9.845135221929121,0.5333233168941393,-0.78,-1.0944444444444446,-1.2722222222222221,0.05400431841372751,-0.035832546364283055,-0.0027287158922717283
1592331050.0268772,-0.3358089584031873,9.624411747302814,0.53786769491726,-0.78,-1.0944444444444446,-1.2722222222222221,0.05070754894175637,0.0015078770712858552,0.009865563013136918
1592331050.0368772,-0.07935780359361749,9.657502218891146,0.44686889804934815,-0.78,-1.0944444444444446,-1.2722222222222221,0.12831417472589085,0.07009047660145121,0.08386257829568372
1592331050.0468771,-0.38827828681014276,9.745026635414447,0.588267632644364,-0.7588888888888888,-1.0877777777777777,-1.2633333333333334,0.17725361011507776,0.03670681610965752,0.05016426972444495
1592331050.0568771,-0.14872365988909428,9.876241219963031,0.2940427449168207,-0.7588888888888888,-1.0877777777777777,-1.2633333333333334,0.14079444652381579,-0.03805517433453972,-0.014590819469349777
1592331050.0668771,-0.2736466393382977,9.91,0.3437259562907803,-0.7588888888888888,-1.0877777777777777,-1.2633333333333334,0.09348655556892632,0.007524634189774167,-0.01105161050325793
1592331050.076877,-0.3956271604476915,9.888230534950205,0.21124740746277024,-0.7588888888888888,-1.0877777777777777,-1.2633333333333334,0.005250047343676443,-0.013510024540398801,-0.015623650582456433
1592331050.086877,-0.1605162652515929,9.739326967992676,0.49338048169808857,-0.7588888888888888,-1.0877777777777777,-1.2633333333333334,-0.04091386897676,-0.05368972948596386,-0.040415383421209344
1592331050.096877,-0.2649101077685275,9.94143827570356,0.5147303233055825,-0.7655555555555555,-1.1066666666666667,-1.2777777777777777,-0.0964110498737796,-0.03546180615245456,-0.032010777248322374
1592331050.106877,-0.29,9.54,0.59,-0.7655555555555555,-1.1066666666666667,-1.2777777777777777,-0.13199052468207118,-0.032724923474893676,-0.028361600344907853
1592331050.116877,-0.14772192320568617,9.790193144652468,0.6262547964255363,-0.7655555555555555,-1.1066666666666667,-1.2777777777777777,-0.13021740145165234,0.009046723670694128,0.012340284831422205
1592331050.126877,-0.3065957956408792,9.618680840871823,0.6773616817436484,-0.7655555555555555,-1.1066666666666667,-1.2777777777777777,-0.12104505662133758,0.029535976341082994,0.012969263940509755
1592331050.136877,-0.3452337085690071,9.610953258286198,0.6619065165723972,-0.7655555555555555,-1.1066666666666667,-1.2777777777777777,-0.10165724121636449,0.02363533687000423,-0.000517911993384558
1592331050.146877,-0.29616781554551935,9.591496553363442,0.7831747088186356,-0.7588888888888888,-1.0944444444444446,-1.2622222222222221,-0.0573481920181089,0.052105099730763806,0.023210037238979738
1592331050.156877,-0.27,9.650439888164026,0.6,-0.7588888888888888,-1.0944444444444446,-1.2622222222222221,-0.03500255374992169,0.05581370908796027,0.031258020393035615
1592331050.166877,-0.2631092514466192,9.528703460359177,0.6068907485533808,-0.7588888888888888,-1.0944444444444446,-1.2622222222222221,0.0008983253155436842,0.03941133870496613,0.018685553837533467
1592331050.176877,-0.2016621083066344,9.701662108306634,0.6738782527154802,-0.7588888888888888,-1.0944444444444446,-1.2622222222222221,0.050296104482153735,0.02120927257535795,-0.00024174385396264354
1592331050.186877,-0.2262438462139564,9.726243846213956,0.7312356411658982,-0.7588888888888888,-1.0944444444444446,-1.2622222222222221,0.06817244874653167,0.028359810281109118,-0.003817012706838228
1592331050.196877,-0.20223103393268158,9.778924135730726,0.7833068982019553,-0.7733333333333333,-1.1022222222222222,-1.2622222222222221,0.061077872943287585,0.01865715645045396,-0.008487603649172306
1592331050.206877,-0.22143116424267356,9.852862328485347,0.716403939694601,-0.7733333333333333,-1.1022222222222222,-1.2622222222222221,0.042228189090213336,0.00421116697892444,-0.013710472944233824
1592331050.216877,-0.2449877989263055,9.87088010411583,0.5458190987473565,-0.7733333333333333,-1.1022222222222222,-1.2622222222222221,0.021459216398920844,0.03199415380475859,0.00881200328069408
1592331050.226877,-0.2995333458224054,9.661399962532784,0.6118666167103785,-0.7733333333333333,-1.1022222222222222,-1.2622222222222221,-0.006901313214169269,0.04621491183389139,0.03305219314483899
1592331050.236877,-0.2916759085799925,9.684972274260023,0.64329636568003,-0.7733333333333333,-1.1022222222222222,-1.2622222222222221,-0.012901107305059903,0.01621594137943823,0.02019549152150192
1592331050.246877,-0.22,9.687512413591666,0.6796446305130952,-0.7655555555555555,-1.1022222222222222,-1.2566666666666666,-0.0034717327863914562,-0.012076668202556177,0.011766549822175528
1592331050.256877,-0.21408774857460716,9.622687387011542,0.6657001807815325,-0.7655555555555555,-1.1022222222222222,-1.2566666666666666,0.022367416174368646,-0.014767097067788205,0.004809227327614573
1592331050.266877,-0.11079496616407455,9.672649887213582,0.5923848984922236,-0.7655555555555555,-1.1022222222222222,-1.2566666666666666,0.05170263355874126,-0.02494457907028254,-0.006834042549250621
1592331050.276877,-0.14055926379398873,9.768881472412023,0.6796271574706743,-0.7655555555555555,-1.1022222222222222,-1.2566666666666666,0.06771285013638276,-0.01937059381472813,-0.01753463414154578
1592331050.286877,-0.16540799399660336,9.719184012006794,0.6630613373355978,-0.7655555555555555,-1.1022222222222222,-1.2566666666666666,0.07132695144451094,-0.007624764563311508,-0.021148735449673974
1592331050.296877,-0.2607154677971481,9.73,0.6185690644057038,-0.7588888888888888,-1.1211111111111112,-1.2622222222222221,0.0832413363317701,0.019064426167115803,-0.011791017461590593
1592331050.306877,-0.28924100564485045,9.73,0.5615179887102991,-0.7588888888888888,-1.1211111111111112,-1.2622222222222221,0.09672516806610472,0.03980878268147678,-0.0034932748558462023
1592331050.316877,-0.17099876958023758,9.690713406843026,0.4312841323174483,-0.7588888888888888,-1.1211111111111112,-1.2622222222222221,0.10705705791361612,0.050302728978007735,0.005391897420896897
1592331050.3268769,-0.2398364180938484,9.740109054604101,0.5203271638123033,-0.7588888888888888,-1.1211111111111112,-1.2622222222222221,0.11783946453939885,0.058928654278633905,0.0010848827765401355
1592331050.3368769,-0.2156775593272406,9.756214960448506,0.5686448813455187,-0.7588888888888888,-1.1211111111111112,-1.2622222222222221,0.12223166900816552,0.06244241785364726,0.00020644188278679768
1592331050.3468769,-0.17156601040207092,9.76,0.5773899826632151,-0.7733333333333333,-1.0877777777777777,-1.2622222222222221,0.12275140271641294,0.09477945696099209,0.007863582457780339
1592331050.3568769,-0.20405961013904597,9.757744661033863,0.5200765085489988,-0.7733333333333333,-1.0877777777777777,-1.2622222222222221,0.1133971975162469,0.11284760923098007,0.012048342470845528
1592331050.3668768,-0.28777260328654114,9.71123744261859,0.3154447475217883,-0.7733333333333333,-1.0877777777777777,-1.2622222222222221,0.11238256740713354,0.1229939103221137,0.013062972579958889
1592331050.3768768,-0.3190046888320546,9.719668229610685,0.38734583688547886,-0.7733333333333333,-1.0877777777777777,-1.2622222222222221,0.11341021084429283,0.12326387842209952,0.010980688895641718
1592331050.3868768,-0.26392863493568847,9.744030585027563,0.3980101950091874,-0.7733333333333333,-1.0877777777777777,-1.2622222222222221,0.11868906175352405,0.11539988786126057,0.007413200909036136
1592331050.3968768,-0.2772314347512617,9.780922855082911,0.4490771449170872,-0.7411111111111112,-1.1022222222222222,-1.271111111111111,0.11943771277188665,0.11180189729441145,0.006343648948533824
1592331050.4068768,-0.21979221127421408,9.800415577451572,0.4285454789194986,-0.7411111111111112,-1.1022222222222222,-1.271111111111111,0.10760692149196607,0.10046976315884543,0.0022043277988272104
1592331050.4168768,-0.21042093974126952,9.81915812051746,0.36294657818888665,-0.7411111111111112,-1.1022222222222222,-1.271111111111111,0.0902287200112093,0.10558099888847979,0.003226574944754079
1592331050.4268768,-0.257883098254841,9.781693521396127,0.4174597179058092,-0.7411111111111112,-1.1022222222222222,-1.271111111111111,0.07586771120491184,0.09745340869612695,0.0032724923474893677
1592331050.4368768,-0.2985387286786009,9.78770774573572,0.4277077457357202,-0.7411111111111112,-1.1022222222222222,-1.271111111111111,0.06854104694251197,0.09372080111731283,0.001590923085053495
1592331050.4468768,-0.27,9.8,0.43,-0.7466666666666667,-1.1022222222222222,-1.2622222222222221,0.04690572364734761,0.07963064712224129,0.002181661564992912
1592331050.4568768,-0.2856854780211809,9.823528217031772,0.3751008269258668,-0.7466666666666667,-1.1022222222222222,-1.2622222222222221,0.03663960228914217,0.059098404405830404,-0.002095889000926021
1592331050.4668767,-0.4041973350253807,9.83,0.2553191095600677,-0.7466666666666667,-1.1022222222222222,-1.2622222222222221,0.007863677523068054,0.025422465469258495,-0.009500990763726668
1592331050.4768767,-0.3075828613870578,9.848621297929625,0.28724259585925166,-0.7466666666666667,-1.1022222222222222,-1.2622222222222221,-0.020877140043780353,-0.01561145851884109,-0.012864379791219113
1592331050.4868767,-0.33851619789298915,9.834593520842803,0.3901421145217718,-0.7466666666666667,-1.1022222222222222,-1.2622222222222221,-0.044755066661352386,-0.0395514504456386,-0.012249676304229518
1592331050.4968767,-0.2902502463054187,9.760291954022989,0.5693743842364531,-0.7533055281882868,-1.1022222222222222,-1.2334538222952016,-0.07625351383170849,-0.06971307874294905,-0.009826576254906662
1592331050.5068767,-0.23240484826224692,9.750400808043707,0.6659919195629218,-0.7533333333333333,-1.1022222222222222,-1.2333333333333334,-0.0878763582550694,-0.08028426415278907,-0.006676148820563338
1592331050.5168767,-0.20224794605665894,9.77775205394334,0.540490414931075,-0.7533333333333333,-1.1022222222222222,-1.2333333333333334,-0.06817543023628052,-0.07769419843284787,-0.005535891537682115
1592331050.5268767,-0.19079823038317914,9.715587612682254,0.6588247746354923,-0.7533333333333333,-1.1022222222222222,-1.2333333333333334,-0.06955194979772446,-0.0644001399403389,0.0015721475735459003
1592331050.5368767,-0.15923438776933962,9.72538280611533,0.6853828061153302,-0.7533333333333333,-1.1022222222222222,-1.2333333333333334,-0.07233017584453971,-0.05236116040413946,0.00553766925134829
1592331050.5468767,-0.15955349276274386,9.691786028949025,0.7377674638137193,-0.7650098244877981,-1.0947917278511994,-1.2418253269002166,-0.06370654283990025,-0.039708265624978215,0.00029223830340386475
1592331050.5568767,-0.17976009362200115,9.709760093622002,0.7004798127559976,-0.7655555555555555,-1.0944444444444446,-1.2422222222222221,-0.06111269354600537,-0.020948227540165267,0.0
1592331050.5668766,-0.18733986797359473,9.702660132026406,0.6339411882376476,-0.7655555555555555,-1.0944444444444446,-1.2422222222222221,-0.05548193607226162,-0.01191857554986996,-0.004003276962528502
1592331050.5768766,-0.20857334561241941,9.709286672806211,0.6564333640310486,-0.7655555555555555,-1.0944444444444446,-1.2422222222222221,-0.04433353863473867,0.0014035423040146475,-0.009506229338076797
1592331050.5868766,-0.2173708338030286,9.71737083380303,0.733708338030286,-0.7655555555555555,-1.0944444444444446,-1.2422222222222221,-0.038004998616351926,0.006201827767497418,-0.006601344080464499
1592331050.5968766,-0.26674840263606864,9.710650319472787,0.8347974442177098,-0.7593224352040797,-1.0882113240929685,-1.2557273163170863,-0.028858172294468343,0.015794950937949134,-0.006474045845041522
