time,acc_x,acc_y,acc_z,mag_x,mag_y,mag_z,gyr_x,gyr_y,gyr_z
1592332840.1480753,-0.21233134975807796,9.694662699516156,0.4593253990323119,-0.5455555555555556,-1.2933333333333332,0.09,0.02890377011873416,-0.00930885542629268,0.0003278983582333209
1592332840.1580753,-0.22,9.70980698344615,0.4901930165538503,-0.5455555555555556,-1.2930974242119606,0.08972119831110514,0.041683172973183726,-0.007593705797780939,-0.0022027164048400386
1592332840.1680753,-0.21457378277153558,9.697286891385767,0.5189917602996255,-0.5455555555555556,-1.281111111111111,0.07555555555555556,0.05759406769205145,-0.005750108151748359,-0.002976538108223288
1592332840.1780753,-0.2077792831629511,9.688055179209261,0.5583310752555734,-0.5455555555555556,-1.281111111111111,0.07555555555555556,0.0723288389517357,-0.005484249502490803,-0.002818102680485671
1592332840.1880753,-0.2421867606700104,9.675626478659979,0.520933803350052,-0.5455555555555556,-1.281111111111111,0.07555555555555556,0.09251431147587631,-0.00013667644137648415,-0.0047385381566423
1592332840.1980753,-0.24478530357664946,9.670429392846701,0.5460941428710653,-0.5455555555555556,-1.281111111111111,0.07555555555555556,0.11505697406794846,0.0027036572094928726,-0.0018024381396619152
1592332840.2080753,-0.2202596238183413,9.719480752363317,0.48069233018224344,-0.5455555555555556,-1.281111111111111,0.07555555555555556,0.13289255169595698,2.83205652915953e-05,-1.8880376861063388e-05
1592332840.2180753,-0.22730641682706804,9.71,0.467306416827068,-0.5377777777777778,-1.3077777777777777,0.08444444444444445,0.14692790672978084,-0.004741614067613708,0.003063134597067516
1592332840.2280753,-0.21052344849502883,9.71,0.4007715530939302,-0.5377777777777778,-1.3077777777777777,0.08444444444444445,0.1561901353761887,-0.009243511964648432,0.0049372882078054965
1592332840.2380753,-0.16828836009846443,9.704144180049234,0.23342327980307115,-0.5377777777777778,-1.3077777777777777,0.08444444444444445,0.16205551400272686,-0.008779071605279765,0.003059568725520888
1592332840.2480752,-0.1349258997882851,9.681492589978829,0.3419407198306281,-0.5377777777777778,-1.3077777777777777,0.08444444444444445,0.1723350974760544,0.0024422446418278093,0.0008791310893514132
1592332840.2580752,-0.21714772994589507,9.68971477299459,0.40771818395671605,-0.5377777777777778,-1.3077777777777777,0.08444444444444445,0.1902731181418777,0.015895760141195266,-0.006296077176977898
1592332840.2680752,-0.17,9.88,0.47,-0.5455555555555556,-1.3077777777777777,0.08444444444444445,0.21380283336930533,0.031634092692397225,-0.007635815477475192
1592332840.2780752,-0.270910394632385,10.138110835104612,0.15610771082486108,-0.5455555555555556,-1.3077777777777777,0.08444444444444445,0.17126789147620866,0.028292908370871162,-0.011119356163251345
1592332840.2880752,-0.759163837859425,9.749971545527156,0.3456626896964856,-0.5455555555555556,-1.3077777777777777,0.08444444444444445,0.08404267972381971,0.003558541374069534,-0.005740202939062446
1592332840.2980752,-0.36,10.09,0.22,-0.5455555555555556,-1.3077777777777777,0.08444444444444445,0.06872233929727672,-0.014180800172453926,0.011999138607461015
1592332840.3080752,-0.2267342635121472,10.022844845018342,0.28641476731085885,-0.5457893841497273,-1.3080116063719496,0.08467827303861622,-0.02871616682856184,-0.003088843799077046,0.02322883139214714
1592332840.3180752,-0.4033314013861721,9.900299693303388,0.66,-0.5511111111111111,-1.3133333333333332,0.09,-0.1258409987450155,-0.00446202976240907,0.03008052353115864
1592332840.3280752,-0.4454487639267441,9.929711662602209,0.66,-0.5511111111111111,-1.3133333333333332,0.09,-0.1948094263225423,-0.03383672274467381,0.02520273946395454
1592332840.3380752,-0.2289472927302797,9.50773878861964,0.7233139186500803,-0.5511111111111111,-1.3133333333333332,0.09,-0.239127959905915,-0.0715121532076321,0.012207520988911525
1592332840.3480752,-0.02,9.5,0.94,-0.5511111111111111,-1.3133333333333332,0.09,-0.21380283336930533,-0.09599310885968812,0.00545415391248228
1592332840.3580751,-0.111165325720218,9.51844861147158,1.017669348559564,-0.5507226692043717,-1.3127506704732241,0.08983814920552527,-0.12966030006150725,-0.10022931467294907,0.0010590514533152394
1592332840.3680751,-0.15,9.8,0.94,-0.5377777777777778,-1.2933333333333332,0.08444444444444445,-0.08835729338221293,-0.09599310885968812,0.0
1592332840.3780751,-0.08038128108269696,9.492311329727968,0.9934630540533196,-0.5377777777777778,-1.2933333333333332,0.08444444444444445,-0.09955845979076533,-0.08212639277399535,0.004237689495281365
1592332840.388075,0.11,9.7,1.08,-0.5377777777777778,-1.2933333333333332,0.08444444444444445,-0.05235987755982988,-0.04908738521234052,0.017453292519943295
1592332840.398075,-0.27252268674460073,9.393687339013274,1.1071575193184071,-0.5377777777777778,-1.2933333333333332,0.08444444444444445,0.004479171217843582,0.00024159513546156888,0.008876081647928464
1592332840.408075,-0.03151872399445216,9.601449375866851,1.0822260748959778,-0.5377777777777778,-1.2933333333333332,0.08444444444444445,0.07246913878805686,0.03106371376729158,0.01975447645916259
1592332840.418075,-0.3111606937008479,10.073857109921356,0.8,-0.5377777777777778,-1.32,0.06888888888888889,0.05849822830376503,0.06421194947650322,0.016844571107798335
1592332840.428075,-0.14823682686740014,9.867953821656052,0.7608750723798495,-0.5377777777777778,-1.32,0.06888888888888889,-0.017006885655131844,0.07071166850947858,0.02438294192050416
1592332840.438075,-0.18,10.13,0.61,-0.5377777777777778,-1.32,0.06888888888888889,-0.074176493209759,0.074176493209759,0.017453292519943295
1592332840.448075,-0.3685297919849571,9.715234457633095,1.0624715007638972,-0.5377777777777778,-1.32,0.06888888888888889,-0.11119423130243106,0.038187025619661155,0.00408577598647838
1592332840.458075,0.23787544805869149,9.819797661719875,0.821011691400623,-0.5377777777777778,-1.3199662769533127,0.06881582228773278,-0.07319602083948122,0.014147692648788329,0.009751261995136906
1592332840.468075,-0.18,9.78,1.02,-0.5377777777777778,-1.3133333333333332,0.05444444444444444,-0.09490227807719166,0.007635815477475192,-0.0032724923474893677
1592332840.478075,-0.37488780438720065,9.784714982893943,1.1208520326021332,-0.5377777777777778,-1.3133333333333332,0.05444444444444444,-0.1179340866827475,-0.013759417663498011,0.006495371542061811
1592332840.488075,-0.6281154774972557,9.55,1.0713506037321625,-0.5377777777777778,-1.3133333333333332,0.05444444444444444,-0.21981717858067146,-0.036085640204440494,-0.00038331147101291487
1592332840.498075,-0.04273758047468051,9.546368790237342,1.1350836936677235,-0.5377777777777778,-1.3133333333333332,0.05444444444444444,-0.21232208325262167,-0.05321304621911768,0.004223140840323984
1592332840.508075,0.03786778130104737,9.506066109349476,1.1915074469107332,-0.5377777777777778,-1.3133333333333332,0.05444444444444444,-0.15956599733708537,-0.05057524192334087,0.014774358023431243
1592332840.518075,-0.01,9.74,1.27,-0.5488888888888889,-1.34,0.04777777777777778,-0.10035643198967394,-0.05017821599483697,0.008726646259971648
1592332840.528075,-0.1508543710726491,9.958633006283762,1.0001708742145299,-0.5488888888888889,-1.34,0.04777777777777778,-0.07688938010621241,-0.04247716231876138,0.004372642872643025
1592332840.538075,-0.23127288617977276,9.787961141115568,1.0106364430898864,-0.5488888888888889,-1.34,0.04777777777777778,-0.1418915563850187,-0.03403109451606865,0.006475559523603213
1592332840.548075,-0.10494136194101589,9.696088745337795,0.9575879570884761,-0.5488888888888889,-1.34,0.04777777777777778,-0.1614173701295692,-0.028085694439295452,0.012814063484345072
1592332840.558075,-0.04043103779751604,9.51868535394317,1.054353443303726,-0.5488888888888889,-1.34,0.04777777777777778,-0.13326943118374762,-0.024567202071067756,0.009295571116117375
1592332840.568075,0.07003667163508175,9.738717912319304,0.8912454160456148,-0.5433333333333333,-1.3544444444444443,-0.017777777777777778,-0.07185897782880893,-0.0019219546975960812,0.017725000151857618
1592332840.578075,0.011018423517865908,9.808814738814293,0.8867778917785609,-0.5433333333333333,-1.3544444444444443,-0.017777777777777778,-0.07487034859306707,0.023748792920776546,0.019154184663021365
1592332840.588075,0.07701465329874502,9.878563415831172,0.7852674752857043,-0.5433333333333333,-1.3544444444444443,-0.017777777777777778,-0.10825954421992379,0.03132679702640334,0.015480573652684404
1592332840.598075,-0.3773849893289068,9.849286815271519,0.884532250414987,-0.5433333333333333,-1.3544444444444443,-0.017777777777777778,-0.1368448768689396,0.047035384289919664,0.0193756327997921
1592332840.608075,-0.2862117619160541,9.82442138961347,0.6938973203699312,-0.5433333333333333,-1.3544444444444443,-0.017777777777777778,-0.1919969527152201,0.05155604624453282,0.010334308890565785
1592332840.618075,-0.25,9.61,1.08,-0.5433333333333333,-1.3611111111111112,-0.03111111111111111,-0.22689280275926282,0.0545415391248228,0.008726646259971648
1592332840.628075,-0.351065676899849,9.361222949169601,1.1577428283844993,-0.5433333333333333,-1.3611111111111112,-0.03111111111111111,-0.17940241137997828,0.05369349642162128,0.01381490247918071
1592332840.6380749,-0.11312149755574102,9.612312149755574,1.0980345773220461,-0.5433333333333333,-1.3611111111111112,-0.03111111111111111,-0.05150230013673836,0.04783262416654866,0.0033544574791370685
1592332840.6480749,-0.28203890923001257,9.652114141027743,0.9202697779477932,-0.5433333333333333,-1.3611111111111112,-0.03111111111111111,0.023842929653897615,0.06529449938876294,-0.003012447127340159
1592332840.6580749,-0.21327613530794032,9.843121846366833,0.8362263875985937,-0.5433333333333333,-1.3611111111111112,-0.03111111111111111,0.041344924766840506,0.08279649450170583,0.008655549614621769
1592332840.6680748,-0.7024908503767492,9.707109436670255,1.0156519555077144,-0.5433333333333333,-1.3466666666666667,-0.08888888888888889,-0.01845825022254032,0.07921404135084222,-0.004520978902927902
1592332840.6780748,-0.18906418027177635,9.948587838498387,0.6770608075080653,-0.5433333333333333,-1.3466666666666667,-0.08888888888888889,-0.035266631713989985,0.05765998854873057,0.007956431642063675
1592332840.6880748,-0.41298603677537526,9.919753324294108,0.7448490687219012,-0.5433333333333333,-1.3466666666666667,-0.08888888888888889,-0.07024652874431024,0.05522591938811031,-0.0003526342285526973
1592332840.6980748,-0.18322067397964226,9.817734954046843,0.5007550153177192,-0.5433333333333333,-1.3466666666666667,-0.08888888888888889,-0.08854389562398597,0.052010281332175376,0.018029808284820363
1592332840.7080748,-0.5479784563692064,9.792865105247554,0.509044964917482,-0.5433333333333333,-1.3466666666666667,-0.08888888888888889,-0.1265242109008009,0.06014892032006429,0.024359860830956183
1592332840.7180748,-0.33,9.78,0.6,-0.5633333333333334,-1.3822222222222222,-0.11666666666666667,-0.20725784867432664,0.044724062082354694,0.038179077387375956
1592332840.7280748,-0.42862145211867814,9.699309720993808,0.7972429042373562,-0.5633333333333334,-1.3822222222222222,-0.11666666666666667,-0.24050963718986165,0.02712017404471851,0.02742114580882051
1592332840.7380748,-0.15717648189067154,9.233764530694591,1.102941204726679,-0.5633333333333334,-1.3822222222222222,-0.11666666666666667,-0.19066441460095682,0.02369027916806286,0.036549250022875956
1592332840.7480748,-0.13737293892422653,9.782604211696412,1.009331810041376,-0.5633333333333334,-1.3822222222222222,-0.11666666666666667,-0.1021761449475926,0.017083866470958515,0.024860473422244463
1592332840.7580748,-0.3618563576854196,9.4286111282653,1.0006978323967146,-0.5633333333333334,-1.3822222222222222,-0.11666666666666667,-0.11159435353777536,-0.01587986359468116,-0.03447424069590696
1592332840.7680748,-0.15,9.77,0.95,-0.5488888888888889,-1.3755555555555556,-0.16666666666666666,-0.05235987755982988,0.006544984694978735,-0.01090830782496456
1592332840.7780747,-0.6004339622641509,9.66457928542754,0.729574869530309,-0.5488888888888889,-1.3755555555555556,-0.16666666666666666,-0.03563316329533345,0.03686215429937853,0.011045504647187015
1592332840.7880747,-0.48069459933089054,9.574471426295547,0.8762536698604884,-0.5488888888888889,-1.3755555555555556,-0.16666666666666666,-0.042081008813119616,0.002379400866810984,-0.012694490786321327
1592332840.7980747,0.25432690775848343,9.927663579052778,0.5803359202530781,-0.5488888888888889,-1.3755555555555556,-0.16666666666666666,-0.005636277643572975,0.01799857136804526,0.018543850216147226
1592332840.8080747,-0.2870208721058214,9.62408837125533,0.8535104360529107,-0.5488888888888889,-1.3755555555555556,-0.16666666666666666,-0.03617311966998093,0.04063425978854747,0.0037300558149386542
1592332840.8180747,-0.11,9.62,0.84,-0.5433333333333333,-1.3777777777777778,-0.22555555555555556,-0.04145156973486533,0.038179077387375956,-0.017453292519943295
1592332840.8280747,0.03764910227812922,9.869157860094344,0.7938596555380847,-0.5433333333333333,-1.3777777777777778,-0.22555555555555556,0.014919495285667508,0.07341099302520898,0.021805127762213498
1592332840.8380747,-0.36,9.66,0.41,-0.5433333333333333,-1.3777777777777778,-0.22555555555555556,0.011999138607461015,0.06763150851478027,-0.007635815477475192
1592332840.8480747,0.00717399905048266,9.830778604209526,0.5466228833676214,-0.5433333333333333,-1.3777777777777778,-0.22555555555555556,0.008273327438190401,0.047139547083791894,0.005404523614971957
1592332840.8580747,-0.5973189362504714,9.697679177668803,0.7683921161825726,-0.5433333333333333,-1.3777777777777778,-0.22555555555555556,-0.011054331428864382,0.04068215547254146,0.01550535101698659
1592332840.8680747,-0.34,9.8,0.57,-0.5111111111111111,-1.3722222222222222,-0.29333333333333333,-0.04799655442984406,-0.01854412330243975,0.0032724923474893677
1592332840.8780746,-0.043537644977393375,9.930792215451149,0.38689089836839,-0.5111111111111111,-1.3722222222222222,-0.29333333333333333,-0.035631632620342066,-0.03756707993244282,0.02134430114599228
1592332840.8880746,-0.25553307635214406,9.53727943112984,0.45818014221754017,-0.5111111111111111,-1.3722222222222222,-0.29333333333333333,-0.05179240632076357,-0.04842967956923452,0.03816103050656802
1592332840.8980746,0.01,9.97,0.35,-0.5111111111111111,-1.3722222222222222,-0.29333333333333333,-0.08290313946973066,-0.074176493209759,0.0370882466048795
1592332840.9080746,0.030655719392314568,9.680819928507598,0.5565571939231457,-0.5111111111111111,-1.3722222222222222,-0.29333333333333333,-0.10843928662384247,-0.09069988254477253,0.01530741520872531
1592332840.9180746,0.32,9.56,0.82,-0.5188888888888888,-1.36,-0.32666666666666666,-0.11890055529211369,-0.10690141668465267,-0.006544984694978735
1592332840.9280746,-0.15058997050147493,9.577758112094395,0.7400884955752212,-0.5188888888888888,-1.36,-0.32666666666666666,-0.10243512427726305,-0.0914045404353815,-0.028821744303306068
1592332840.9380746,0.02,9.37,0.74,-0.5188888888888888,-1.36,-0.32666666666666666,-0.042542400517361786,-0.06981317007977318,-0.009817477042468103
1592332840.9480746,-0.07052774559546163,9.54282569613679,0.7893787703247973,-0.5188888888888888,-1.36,-0.32666666666666666,-0.003939951269015307,-0.04198349736584897,0.012625807404244967
1592332840.9580746,0.013164263544572355,9.661057635642164,0.7705244961301222,-0.5188888888888888,-1.36,-0.32666666666666666,0.026870273995585114,-0.026351579737126207,0.03031440730028575
1592332840.9680746,-0.22817121929912976,9.478973557773074,0.9614343312166111,-0.5370073207972613,-1.329092086744541,-0.37569301183049797,0.03804559602763896,-0.04488052334669221,0.008748160141950127
1592332840.9780746,-0.08989888287458253,9.573194518023724,0.9418560405389842,-0.5377777777777778,-1.3277777777777777,-0.37777777777777777,0.07808946390520685,-0.07242181721007174,-0.008737676427275944
1592332840.9880745,-0.31622705846956173,9.678427941028984,0.9104716176913048,-0.5377777777777778,-1.3277777777777777,-0.37777777777777777,0.1354792741501402,-0.05592389446129151,-0.00015433652857355096
1592332840.9980745,-0.3988247639034628,9.47308499475341,0.8016159496327387,-0.5377777777777778,-1.3277777777777777,-0.37777777777777777,0.17182244535373348,-0.06530562378232192,-0.027944955638896617
1592332841.0080745,-0.09508757266061324,9.685979636032066,0.628486759621595,-0.5377777777777778,-1.3277777777777777,-0.37777777777777777,0.2236283089810156,-0.0599063825879954,-0.006880675942964043
1592332841.0180745,-0.64,10.12,0.68,-0.5377777777777778,-1.3166666666666667,-0.4066666666666667,0.24216443371421323,-0.03490658503988659,0.016362461737446838
1592332841.0280745,-0.3043038377411016,9.874368661761782,0.4507440843109962,-0.5377777777777778,-1.3166666666666667,-0.4066666666666667,0.18053772198812235,-0.05991452603018434,-0.002393494005276473
1592332841.0380745,0.09371379093198992,10.300665931989926,0.32152392947103275,-0.5377777777777778,-1.3166666666666667,-0.4066666666666667,0.09841381898406942,-0.05153917851865379,0.028766712091744934
1592332841.0480745,-0.5004698067632851,9.647143719806763,0.6787222222222222,-0.5377777777777778,-1.3166666666666667,-0.4066666666666667,-0.009249006652797556,-0.05892501891057215,-0.00032079383519068375
1592332841.0580745,-0.07692682926829275,9.62830454845089,0.9002175346077785,-0.5377777777777778,-1.3166666666666667,-0.4066666666666667,-0.03052744234680589,-0.07594871571901463,-0.0061039065130516915
1592332841.0680745,-0.27,9.47,1.02,-0.5244444444444445,-1.2722222222222221,-0.42777777777777776,0.028361600344907853,-0.044724062082354694,0.009817477042468103
1592332841.0780745,-0.29303160106683906,9.462322799644388,1.004645599288774,-0.5244444444444445,-1.2722222222222221,-0.42777777777777776,0.06855932740712592,-0.03048736708115246,0.01484219292524536
1592332841.0880744,-0.6276158580738596,9.694011327195614,0.5694191579600704,-0.5244444444444445,-1.2722222222222221,-0.42777777777777776,0.1644489749085046,-0.004737531010657582,0.03984700357996681
1592332841.0980744,-0.31093776198650647,9.779196375104796,0.4915625374266438,-0.5244444444444445,-1.2722222222222221,-0.42777777777777776,0.1573377409491953,-0.01383990738769676,0.012768586054302405
1592332841.1080744,0.03969509691639478,9.906149491107893,0.5513572617066793,-0.5244444444444445,-1.2722222222222221,-0.42777777777777776,0.1322624957598948,-0.008055840840253771,0.029044474510668866
1592332841.1180744,-0.6828210834374905,9.757742279669543,1.0538700728591897,-0.5487454738218388,-1.230707963702507,-0.4622042360624198,0.0011878326845341375,-0.01430393971419049,0.01044212007567889
1592332841.1280744,-0.47813587175591454,9.606755139375524,1.1819968373073704,-0.5511111111111111,-1.2266666666666666,-0.46555555555555556,-0.024325008955299557,-0.02701124444399351,0.012667078401350819
1592332841.1380744,-0.18231451499366463,9.646112910038012,1.1400295649725467,-0.5511111111111111,-1.2266666666666666,-0.46555555555555556,-0.0018547041194156913,-0.04522578588446872,0.007386566095525064
1592332841.1480744,-0.15177106005642887,9.674114469971785,1.13,-0.5511111111111111,-1.2266666666666666,-0.46555555555555556,0.02803470284922623,-0.04581489286485115,0.008084634527363294
1592332841.1580744,-0.10269116443372248,9.709847068453023,0.9956881919614009,-0.5511111111111111,-1.2266666666666666,-0.46555555555555556,0.07589777183518712,-0.03930327265768409,0.008726646259971648
1592332841.1680744,-0.1091973265436028,9.700802673456396,0.8252173774665817,-0.5511111111111111,-1.1754737958837258,-0.48581940024046966,0.12919231111623947,-0.04965286744611844,-0.009073233265116843
1592332841.1780744,-0.1436897134546598,9.59893085963602,0.8267379426909319,-0.5511111111111111,-1.1733333333333333,-0.4866666666666667,0.16470948827021642,-0.04944322046504041,0.0004724603746837173
1592332841.1880744,-0.28125420470927437,9.525749159058146,0.8380836136472849,-0.5511111111111111,-1.1733333333333333,-0.4866666666666667,0.19695004817489206,-0.06407773803279422,-0.00953619890797142
1592332841.1980743,-0.2039663380245051,9.740903462448948,0.7781470305142947,-0.5511111111111111,-1.1733333333333333,-0.4866666666666667,0.20264061035374278,-0.09076446500751904,-0.030439686759511544
1592332841.2080743,-0.2265458517839377,9.8284733628543,0.5287973782260109,-0.5511111111111111,-1.1733333333333333,-0.4866666666666667,0.19571876432661578,-0.09620336770060355,-0.0367114574847409
1592332841.2180743,-0.22207983193277311,9.608077731092436,0.95968487394958,-0.5461332866479925,-1.1076260504201683,-0.5075735294117647,0.20578316462277943,-0.07655867513918141,-0.014721632241086625
1592332841.2280743,-0.12676819493427383,9.797540878486695,0.5434818852196217,-0.5455555555555556,-1.1,-0.51,0.22816287393163728,-0.074176493209759,-0.00408912905064077
1592332841.2380743,-0.005935035727503063,9.872256383978137,0.2021948928174908,-0.5455555555555556,-1.1,-0.51,0.2095304982027868,-0.07324751541893197,-0.01066217451491625
1592332841.2480743,0.035067067640460164,9.692198195617928,0.3953353382023008,-0.5455555555555556,-1.1,-0.51,0.1761179597604713,-0.04822170848509799,-0.014046275310809953
1592332841.2580743,-0.04525297015357866,9.634477929102674,0.7894295373321742,-0.5455555555555556,-1.1,-0.51,0.17235126363444003,-0.020699949678804428,-0.02038057111530561
1592332841.2680743,-0.12001722192529249,9.876110220321872,0.4758002256666073,-0.5695658887107311,-1.0733218520498051,-0.4842111236481449,0.23171800744273757,0.018775064079184202,-0.01068488153071726
1592332841.2780743,-0.2581477270143042,9.867916903554454,0.2558799718008778,-0.5755555555555556,-1.0666666666666667,-0.4777777777777778,0.30156907919452286,0.044527046230022876,0.0089639484059558
1592332841.2880743,-0.34129543288426367,9.986787821024702,0.08466294016125292,-0.5755555555555556,-1.0666666666666667,-0.4777777777777778,0.29286824126482147,0.05375027164497683,0.012157392103430208
1592332841.2980742,-0.3759117507136061,10.053186251189343,0.28456850618458607,-0.5755555555555556,-1.0666666666666667,-0.4777777777777778,0.23159730890444954,0.03758233794075718,0.022363094886612228
1592332841.3080742,-0.3017358304929899,10.042607962331775,0.10694753856425032,-0.5755555555555556,-1.0666666666666667,-0.4777777777777778,0.19407182454102131,0.02447211150752617,0.024946865717863885
1592332841.3180742,-0.32493080719191086,9.48458225489181,0.40111226144873513,-0.5646488977848332,-1.006184291756297,-0.45695597657912596,0.10451511847219278,-0.02218786778703717,0.007685017114384563
1592332841.3280742,-0.22944063514976543,9.585839047275352,0.21817033561891014,-0.5633333333333334,-0.9988888888888889,-0.45444444444444443,0.11157494358822465,-0.023499904147206218,0.012824249152431268
1592332841.3380742,-0.15181327727261215,9.329784199994934,0.24010790000253288,-0.5633333333333334,-0.9988888888888889,-0.45444444444444443,0.09855859609349492,-0.030746944808727132,-0.007551629124691154
1592332841.3480742,-0.18317580295190633,9.97986766494194,0.08094518228856198,-0.5633333333333334,-0.9988888888888889,-0.45444444444444443,0.17523711825614172,0.02246358684342007,0.006814083511729454
1592332841.3580742,-0.422585833956031,9.84268808746608,-0.021566838400125847,-0.5633333333333334,-0.9988888888888889,-0.45444444444444443,0.23302783036305758,0.04799376589793458,-0.0070007595104600116
1592332841.3680742,-0.53,10.204421531163526,-0.10967156410594281,-0.5567031595437841,-0.9486890016251592,-0.4336067553915755,0.18875009118925037,0.05826105792290697,-0.01713139035399247
1592332841.3780742,-0.6599445916646591,9.986795952782462,-0.1633148638882197,-0.5555555555555556,-0.94,-0.43,0.13764360870834524,0.053589328732055776,-0.008003455146160458
1592332841.3880742,-0.6412151898734177,9.464381329113925,0.2024525316455696,-0.5555555555555556,-0.94,-0.43,0.08606861993665867,0.013088761191305975,0.004390076100126164
1592332841.3980742,-0.4596256958976586,9.450124768034113,0.2498752319658862,-0.5555555555555556,-0.94,-0.43,0.10865405920181335,-0.01800480229883014,0.0029688066426138394
1592332841.4080741,-0.1421781693587861,9.484941485337961,0.14614759934143193,-0.5555555555555556,-0.94,-0.43,0.20085328908742256,-0.04267396714558039,0.00615028481032293
1592332841.4180741,-0.18560906338753472,10.027390218782186,-0.15476982616023216,-0.5503218445810749,-0.9234265819141447,-0.4273831445127597,0.29494302878579126,-0.021755198754962554,-0.004740710203546985
1592332841.4280741,-0.26295496656730843,9.99744139208894,-0.17093692096995086,-0.5488888888888889,-0.9188888888888889,-0.4266666666666667,0.28511564312549054,0.006480130661507183,-0.0016981562910627183
1592332841.438074,-0.42565827486586877,9.957804632686752,-0.3241946966570367,-0.5488888888888889,-0.9188888888888889,-0.4266666666666667,0.20549135446890177,0.0467407259247785,0.006933421523093768
1592332841.448074,-0.3958894053152187,9.933903229650817,-0.18766821594565608,-0.5488888888888889,-0.9188888888888889,-0.4266666666666667,0.15308930581706892,0.040995633407804,-0.0037284286745506903
1592332841.458074,-0.3399308536003815,10.013494674932444,-0.13332180893339693,-0.5488888888888889,-0.9188888888888889,-0.4266666666666667,0.17312876883690612,0.038179077387375956,-0.000717163585503949
1592332841.468074,-0.43732217086712594,10.045334728641608,-0.1593305427167815,-0.5537773126750192,-0.8936320326605492,-0.39489191205682006,0.13643144040892247,0.031780145614817464,0.002981528036562724
1592332841.478074,-0.39799490364707757,10.196555183946488,-0.17,-0.5555555555555556,-0.8844444444444445,-0.38333333333333336,0.03730140942859715,0.01562777096197662,0.0008328464359433044
1592332841.488074,-0.31323705822644643,10.093901910122728,-0.09904632278305804,-0.5555555555555556,-0.8844444444444445,-0.38333333333333336,-0.050553318044386945,-0.003023414118155838,0.0007739845523955775
1592332841.498074,-0.2140235032226335,9.862851707089794,0.07435534387699635,-0.5555555555555556,-0.8844444444444445,-0.38333333333333336,-0.14156932513705078,-0.02032949646031083,-0.004710594317673135
1592332841.508074,-0.3628080420128547,9.848401787113968,0.5424196582536448,-0.5555555555555556,-0.8844444444444445,-0.38333333333333336,-0.18906402586694004,-0.005147844045865758,0.006021970751058778
1592332841.518074,-0.23860184083651617,9.560042577171123,0.7726200613612172,-0.5612955078301645,-0.864764608074357,-0.3636534969632459,-0.22572106977515927,0.0030390746404465,-0.004620611938304911
1592332841.528074,-0.16,9.45,0.77,-0.5633333333333334,-0.8577777777777778,-0.3566666666666667,-0.23343778745424157,0.002181661564992912,-0.01090830782496456
1592332841.538074,-0.061404813148111914,9.515042457444727,0.6881811778516924,-0.5633333333333334,-0.8577777777777778,-0.3566666666666667,-0.12036966595700044,0.04177619380455367,0.004435504497749531
1592332841.548074,-0.07268263867901201,9.39008379811523,0.5642275462263373,-0.5633333333333334,-0.8577777777777778,-0.3566666666666667,0.02931004200061802,0.04881696275580659,0.005037416213479251
1592332841.558074,-0.121632858407792,9.562655155759478,0.5573468566368832,-0.5633333333333334,-0.8577777777777778,-0.3566666666666667,0.12860717554774273,0.0398932086858147,0.0062110972241228414
1592332841.568074,-0.07625325160711617,9.97665510539692,0.23126625803558082,-0.5491673892460258,-0.8302328864969021,-0.35430567598544876,0.19303037549096666,0.01622717197557525,0.009044844648790169
1592332841.578074,-0.14045864304918554,10.06353866835363,0.14199865570140757,-0.5433333333333333,-0.8188888888888889,-0.35333333333333333,0.1986655938708732,-0.0008220478694600034,0.010136290151127514
1592332841.588074,-0.07817530942925882,10.093169946954983,0.20122003536334387,-0.5433333333333333,-0.8188888888888889,-0.35333333333333333,0.11759819206128827,-0.03659571432571351,0.016229376524439867
1592332841.598074,-0.031684668192219684,9.792508466819221,0.352437528604119,-0.5433333333333333,-0.8188888888888889,-0.35333333333333333,0.015349711474118552,-0.06537950458948816,0.006177447110505559
1592332841.608074,0.0771990708570748,9.8253703666938,0.20405864718378366,-0.5433333333333333,-0.8188888888888889,-0.35333333333333333,-0.06178428389010773,-0.06515693888464283,-0.005747061977626804
1592332841.618074,-0.07147798742138364,9.42810927672956,0.7716676493710692,-0.528062216107617,-0.7995990566037736,-0.3252023279175402,-0.12646519234588827,-0.04263609018952195,-0.01564274496526905
1592332841.628074,-0.07740895103805555,9.258770692945896,0.9799337825731314,-0.5222222222222223,-0.7922222222222223,-0.31444444444444447,-0.10126982697005515,-0.022483487037428897,-0.0059869287024064445
1592332841.638074,0.11525566515595842,9.497208744334843,0.6866051719541455,-0.5222222222222223,-0.7922222222222223,-0.31444444444444447,0.0315527238699652,0.012054916091887254,0.016103698412929284
1592332841.648074,0.06828543065141346,9.719086224827455,0.4637423182376855,-0.5222222222222223,-0.7922222222222223,-0.31444444444444447,0.13836750679175286,0.019017861715921597,0.006501308148095191
1592332841.658074,-0.03217335473515249,9.86623113964687,0.36789887640449437,-0.5222222222222223,-0.7922222222222223,-0.31444444444444447,0.20144773023843898,0.024227474244502747,0.010054553267106981
1592332841.668074,-0.06686946179006839,9.96282634552483,0.20212934879571812,-0.5265990682921994,-0.7630432484223743,-0.294748637129547,0.24510510331698243,0.02368997074487657,0.027446346934568794
1592332841.678074,-0.07379475703324809,10.026902173913044,0.10241048593350384,-0.5288888888888889,-0.7477777777777778,-0.28444444444444444,0.2479184963456683,0.01850611161596529,0.035922438642639845
1592332841.6880739,-0.14935300919552888,10.077852816474863,-0.1667650459776444,-0.5288888888888889,-0.7477777777777778,-0.28444444444444444,0.19575274030672207,0.012679308630091368,0.05289889608535839
1592332841.6980739,-0.1420989292144414,10.207406424713351,-0.13746991376859663,-0.5288888888888889,-0.7477777777777778,-0.28444444444444444,0.092485456839103,0.01950698587601641,0.0627092806144961
1592332841.7080739,-0.2157751862014896,9.793940611524892,0.0801136809094473,-0.5288888888888889,-0.7477777777777778,-0.28444444444444444,-0.04027222387123331,0.010588670031975105,0.045645773470700875
1592332841.7180738,-0.1841644149155991,9.666394443208189,0.3916711701688018,-0.5168207041004829,-0.7357095929893718,-0.2638575409818694,-0.18235221607730195,-0.011060123229032635,-0.003212709397143694
1592332841.7280738,-0.12827421251064175,9.760306887744761,0.46548425021283496,-0.51,-0.7288888888888889,-0.25222222222222224,-0.217446615912191,-0.017791106455464046,-0.029308089631719048
1592332841.7380738,-0.34938270912760705,9.588109161246916,0.3724366449876654,-0.51,-0.7288888888888889,-0.25222222222222224,-0.2088802729285353,-0.003645317221345524,-0.07184811135730203
1592332841.7480738,0.12268091261139358,9.742697709140112,0.36162366444268185,-0.51,-0.7288888888888889,-0.25222222222222224,-0.210766493442419,0.025206268099191773,-0.0647722829033461
1592332841.7580738,-0.18807613606434487,9.689295569197107,0.4334743410522904,-0.51,-0.7288888888888889,-0.25222222222222224,-0.1580474773134703,0.08401965037883544,-0.018108754546687394
1592332841.7680738,-0.5303121610927104,9.688401969692528,0.38307119617785856,-0.5138035778839484,-0.7105049291164718,-0.24271327751235128,-0.08855885264161023,0.11828500661477918,0.004223056557813241
1592332841.7780738,-0.5459874951342935,9.942626994939666,0.1604890035033087,-0.5166666666666667,-0.6966666666666667,-0.23555555555555555,-0.01584268235573276,0.10512189016362553,-0.005445263577912984
1592332841.7880738,-0.4139525136600031,9.888025937548003,0.08148164402800027,-0.5166666666666667,-0.6966666666666667,-0.23555555555555555,-0.0023027585988225317,0.11045662835741614,0.0055752509463119
1592332841.7980738,-0.513352380952381,9.824563408521303,0.06385914786967418,-0.5166666666666667,-0.6966666666666667,-0.23555555555555555,-0.04933939719612629,0.11002026319260244,0.01308996938995747
1592332841.8080738,-0.5058601978294822,9.882521324736695,-0.025042649473389134,-0.5166666666666667,-0.6966666666666667,-0.23555555555555555,-0.07881485020329045,0.08087941706192471,0.010770790893191749
1592332841.8180737,-0.3818622277655186,9.75392881128274,0.17283123860692698,-0.5080995021693477,-0.6894175274766275,-0.23028345432643618,-0.09907774346424542,0.027849622585340295,0.011314582899094008
1592332841.8280737,-0.3815959741193386,9.641400670980111,0.32918523843757486,-0.5022222222222222,-0.6844444444444444,-0.22666666666666666,-0.11475759409590322,0.002878036643969801,0.012631600883581354
1592332841.8380737,-0.2682670497504914,9.675722062603962,0.10398911235445335,-0.5022222222222222,-0.6844444444444444,-0.22666666666666666,-0.15805037805299513,-0.033664162923787495,0.005889298567589743
1592332841.8480737,-0.18847460844803038,9.759194826767917,-0.005338870431893697,-0.5022222222222222,-0.6844444444444444,-0.22666666666666666,-0.1864395994605466,-0.059820031487945305,-0.001340422391533733
1592332841.8580737,-0.2718456871589813,9.637305139165205,0.11597908089900918,-0.5022222222222222,-0.6844444444444444,-0.22666666666666666,-0.21640323368760833,-0.07911547469052117,-0.004846351002235914
1592332841.8680737,-0.20901971230687266,9.529131592967502,0.2954342035162493,-0.5057588942165394,-0.6723187118924998,-0.20999378440774286,-0.242860078065118,-0.10333660260908888,0.005954239095400874
1592332841.8780737,0.22113795177935117,9.606757600999584,0.017030403998334054,-0.51,-0.6577777777777778,-0.19,-0.16179154815380098,-0.12773517910975854,0.01640837365362438
1592332841.8880737,0.44283111695650057,9.540417458229822,-0.053085391397535195,-0.51,-0.6577777777777778,-0.19,-0.09479340222969129,-0.1550246475519984,0.017407754891193748
1592332841.8980737,0.31843509615384613,9.56236514423077,-0.15735625,-0.51,-0.6577777777777778,-0.19,-0.007584735228333292,-0.14706300035353453,0.016334010982662975
1592332841.9080737,0.3266752705251663,9.802814454482279,-0.46774744366127274,-0.51,-0.6577777777777778,-0.19,0.0994292312391791,-0.11485604540780142,-0.01013910589425153
1592332841.9180737,0.2251417757249166,10.037421734667694,-0.6261252245316911,-0.49537507484389703,-0.6480278276737091,-0.17415633108088843,0.14145523819011763,-0.07723603982520214,-0.03022625758319375
1592332841.9280736,0.03207750747595571,10.0478521781298,-0.5815493413076861,-0.48333333333333334,-0.64,-0.16111111111111112,0.12968212996829956,-0.05855534325075082,-0.026925085613638378
1592332841.9380736,-0.12039258635214828,9.876766638584668,-0.5910850884582982,-0.48333333333333334,-0.64,-0.16111111111111112,0.05398482026379807,-0.031024440509492292,-0.004854610523686419
1592332841.9480736,0.129172793245743,9.84931651093298,-0.6752068016885643,-0.48333333333333334,-0.64,-0.16111111111111112,0.01979974543542007,-0.06093645245023217,0.004677228663230903
1592332841.9580736,0.3863252649435456,9.858366379074477,-0.5806130638600587,-0.48333333333333334,-0.64,-0.16111111111111112,-0.006789662040843774,-0.09612646069932279,-0.0038066955988339648
1592332841.9680736,0.31618428221193134,9.766184282211931,-0.3641752928357396,-0.4859970035412694,-0.6417757801386241,-0.15533982566058296,-0.025739193817196918,-0.10015199407674626,-0.006330740893785615
1592332841.9780736,0.3270507096531629,9.651381473822727,-0.36991399567628536,-0.49,-0.6444444444444445,-0.14666666666666667,-0.03412652670797259,-0.0699732471132512,-0.019160977395417878
1592332841.9880736,0.3726227155296144,9.75,-0.45930628647976274,-0.49,-0.6444444444444445,-0.14666666666666667,0.009140078537214824,-0.030170431792679704,-0.03025163611272393
1592332841.9980736,0.08368037989786667,9.624869947024292,-0.24780675798215054,-0.49,-0.6444444444444445,-0.14666666666666667,0.10195412711132879,0.02819937876717393,-0.024018554912138772
1592332842.0080736,-0.026065771004611996,9.874652897533586,-0.3745554441548025,-0.49,-0.6444444444444445,-0.14666666666666667,0.1801119767210601,0.05819668624891118,-0.021770112617172203
1592332842.0180736,-0.10838560173026417,10.171174107832535,-0.5166877800092693,-0.48288377362377055,-0.6356860119813929,-0.13626602811679284,0.20095300516041656,0.07023851488048707,-0.012696643413386062
1592332842.0280735,-0.22057105073334937,10.088058427506612,-0.4020557826400577,-0.47555555555555556,-0.6266666666666667,-0.12555555555555556,0.18401402559401653,0.07830310684678905,-0.002243953536823378
1592332842.0380735,-0.2096488776312342,10.050760765132326,-0.6805852039479431,-0.47555555555555556,-0.6266666666666667,-0.12555555555555556,0.12143293291181614,0.0386127800445446,0.0022391138282338366
1592332842.0480735,-0.18804077055548882,10.129688013136288,-0.762820297168489,-0.47555555555555556,-0.6266666666666667,-0.12555555555555556,0.07711320417256065,0.016288498963015884,0.012132996812337827
1592332842.0580735,-0.3542295511169292,9.702306912714834,-0.6019226384020946,-0.47555555555555556,-0.6266666666666667,-0.12555555555555556,-0.04296240791041117,-0.028865305197177556,0.0020137138840258043
1592332842.0680735,-0.26735002778776684,9.753375069469417,-0.6599208865932198,-0.47343148045230493,-0.6319768544247932,-0.10856295472955056,-0.09134934853745828,-0.04738750219099163,-0.015696601710287604
1592332842.0780735,-0.3170417245039602,9.868533518412672,-0.7393974034457418,-0.4711111111111111,-0.6377777777777778,-0.09,-0.08527327151204557,-0.035055063435773054,-0.018638358541100748
1592332842.0880735,-0.22527188584650984,9.48030209538501,-0.42066460984702403,-0.4711111111111111,-0.6377777777777778,-0.09,-0.08891259482181776,-0.030576215404422766,-0.016891400381434066
1592332842.0980735,-0.27,9.53,-0.53,-0.4711111111111111,-0.6377777777777778,-0.09,-0.09053895494720585,-0.03599741582238304,-0.014180800172453926
1592332842.1080735,-0.6927608743652021,9.766010819165379,-0.33,-0.4711111111111111,-0.6377777777777778,-0.09,-0.05971468789843588,-0.049441899195285216,0.00468464733995017
1592332842.1180735,-0.4665809768637532,9.825956665442527,-0.29080058758722,-0.4711111111111111,-0.6271310237891214,-0.0933876035418452,-0.0016636871978361334,-0.07400183209291418,0.004663772298870268
1592332842.1280735,-0.20265220952455243,9.726932797691019,-0.24115020086586839,-0.4711111111111111,-0.6133333333333333,-0.09777777777777778,0.06544984694978735,-0.08508480103472357,0.016362461737446838
1592332842.1380734,-0.3943169884481784,9.673274631768855,-0.36309852707542345,-0.4711111111111111,-0.6133333333333333,-0.09777777777777778,0.043615578034912755,-0.08813144320889212,0.008238082606330707
1592332842.1480734,-0.25,9.7,-0.47,-0.4711111111111111,-0.6133333333333333,-0.09777777777777778,0.01854412330243975,-0.0916297857297023,-0.001090830782496456
1592332842.1580734,-0.42830503795721186,9.90594708994709,-0.5584389233954451,-0.4711111111111111,-0.6133333333333333,-0.09777777777777778,0.028046320888931654,-0.06335154724031442,-0.00954566017943609
1592332842.1680734,-0.5927546880490688,9.79669680222343,-0.504309810561288,-0.4741691779630635,-0.6245462451238255,-0.09421003311716662,0.016312490445810256,-0.04780653110118696,-0.01604224820965845
1592332842.1780734,-0.2514031277150304,9.818280625543007,-0.44393766290182446,-0.4777777777777778,-0.6377777777777778,-0.09,-0.001436300018803599,-0.03599741582238304,-0.010128449110675446
1592332842.1880734,-0.23974818771461276,9.832837489058958,-0.40295172475705276,-0.4777777777777778,-0.6377777777777778,-0.09,-0.02625979806156549,-0.04213801191702342,-0.00098350304161479
1592332842.1980734,-0.300312376800167,9.768213863314859,-0.499731685257763,-0.4777777777777778,-0.6377777777777778,-0.09,-0.03438061037256286,-0.051863171490529124,0.006544984694978735
1592332842.2080734,-0.3079204593194231,9.571810870826416,-0.3294626602916758,-0.4777777777777778,-0.6377777777777778,-0.09,-0.0068814407536445955,-0.05824602551416904,0.006918364067385848
1592332842.2180734,-0.3329272503082614,9.571787916152898,-0.32912577065351417,-0.47436203589532816,-0.6362251678312097,-0.08161590628853267,0.029133117652971934,-0.06113420563390696,0.005196981476460921
1592332842.2280734,-0.17287100575310183,9.787064300732423,-0.43,-0.46555555555555556,-0.6322222222222222,-0.06,0.04846455740574981,-0.04018827170242956,0.0017171870729380332
1592332842.2380733,-0.3000657692398685,9.59624027064752,-0.3647758404504483,-0.46555555555555556,-0.6322222222222222,-0.06,0.04686399393111829,-0.012075423728780649,0.0018967278625267219
1592332842.2480733,-0.3569110610751478,9.515509428651844,-0.3889487756825218,-0.46555555555555556,-0.6322222222222222,-0.06,0.0778015176276119,-0.0028208705965599317,-0.0011099425799100233
1592332842.2580733,-0.2095501403970389,9.62546704105877,-0.4649484556325721,-0.46555555555555556,-0.6322222222222222,-0.06,0.1447407379923075,-0.007537671336932871,0.005306937701668799
1592332842.2680733,-0.22485185185185186,9.710888888888888,-0.3249444444444444,-0.470417695473251,-0.6307921810699588,-0.0508477366255144,0.16323676642958077,-0.01621095746210011,0.011718350683818409
1592332842.2780733,-0.21,9.8,-0.57,-0.48444444444444446,-0.6266666666666667,-0.024444444444444446,0.12435470920459597,-0.028361600344907853,0.01090830782496456
1592332842.2880733,-0.21217413760295756,10.07331530160111,-0.6116576508005546,-0.48444444444444446,-0.6266666666666667,-0.024444444444444446,0.01566277861178325,-0.04641369779109503,0.005341473971919404
1592332842.2980733,-0.31,9.970772571101355,-0.5650271998472991,-0.48444444444444446,-0.6266666666666667,-0.024444444444444446,-0.07073545199446454,-0.05602407164611892,0.00015074660937725547
1592332842.3080733,-0.31,9.81,-0.49,-0.48444444444444446,-0.6266666666666667,-0.024444444444444446,-0.10581058590215622,-0.05017821599483697,0.014180800172453926
1592332842.3180733,-0.09036637931034483,9.63917025862069,-0.16219827586206897,-0.47803280651340996,-0.6285524425287357,-0.026707375478927202,-0.10983419987681718,-0.06747164538286268,-0.006154730578826986
1592332842.3280733,-0.13,9.91,-0.4,-0.46555555555555556,-0.6322222222222222,-0.03111111111111111,-0.07308566242726255,-0.05017821599483697,-0.0032724923474893677
1592332842.3380733,-0.1788117662237131,9.557250677331957,-0.2656895884402013,-0.46555555555555556,-0.6322222222222222,-0.03111111111111111,-0.0006064236668529531,-0.029554604156444744,0.0044588816516365915
1592332842.3480732,-0.1,9.63,-0.49,-0.46555555555555556,-0.6322222222222222,-0.03111111111111111,0.0370882466048795,-0.019634954084936207,0.016362461737446838
1592332842.3580732,-0.1590059960026649,9.822635576282478,-0.5882078614257162,-0.46555555555555556,-0.6322222222222222,-0.03111111111111111,0.07725349356491557,-0.025642735505816756,0.006132634671002394
1592332842.3680732,-0.19513902698254876,9.832964994685774,-0.5189165838104707,-0.4677175879894706,-0.630420528527293,-0.02426467507038015,0.05802085062502603,-0.037677587691401226,0.009994750601937132
1592332842.3780732,-0.06,10.11,-0.6,-0.4722222222222222,-0.6266666666666667,-0.01,0.042542400517361786,-0.04799655442984406,-0.0032724923474893677
1592332842.3880732,-0.08794191775845235,9.79838173520129,-0.473667945777798,-0.4722222222222222,-0.6266666666666667,-0.01,0.028521827958539914,-0.031762641357531,0.005967432137447064
1592332842.3980732,-0.043319269969187016,9.746490874614837,-0.7429817492296753,-0.4722222222222222,-0.6266666666666667,-0.01,0.04036534117752375,-0.020725784867432664,0.0028966094862442043
1592332842.4080732,-0.0757816937021045,9.62847473450811,-0.49079122418018434,-0.4722222222222222,-0.6266666666666667,-0.01,0.04971807015886267,-0.012206594619272008,-0.00549522926929002
1592332842.4180732,-0.22012604655442083,9.782809519428344,-0.6710896433281197,-0.4722222222222222,-0.6257721757086925,-0.011938063742277561,0.05668195205133876,0.009151978936043042,0.0015161634585678498
1592332842.4280732,-0.2817602028724463,9.84226311797886,-0.5174854244679338,-0.4722222222222222,-0.62,-0.024444444444444446,0.004610191005561939,-0.008562067676254236,-0.006627273986837441
1592332842.4380732,-0.1270679509043307,9.750524343669685,-0.6488737299738189,-0.4722222222222222,-0.62,-0.024444444444444446,-0.01809296640181269,-0.02781195347451152,0.0028213354468623057
1592332842.4480731,0.06149756313690738,9.853867966326982,-0.5143553389455029,-0.4722222222222222,-0.62,-0.024444444444444446,-0.02713012633790698,-0.04740739947908501,0.004811834856240459
1592332842.4580731,0.35,9.7,-0.54,-0.4722222222222222,-0.62,-0.024444444444444446,-0.032724923474893676,-0.05999569303730508,-0.002181661564992912
1592332842.4680731,0.00541854268124598,9.498501332353213,-0.08017550307819535,-0.46942244274965034,-0.6227997794725719,-0.02240824119166488,0.060168493944134434,-0.030500061683193424,0.004204755244484639
1592332842.4780731,-0.01,9.83,-0.35,-0.46,-0.6322222222222222,-0.015555555555555555,0.1341721862470641,-0.011999138607461015,0.0
1592332842.488073,0.03731070893722872,9.767543467776735,-0.5731576008325507,-0.46,-0.6322222222222222,-0.015555555555555555,0.14054495053269367,0.024342718033620307,0.0075529171003704786
1592332842.498073,-0.22427077512572846,9.914899284212767,-0.6557534392379127,-0.46,-0.6322222222222222,-0.015555555555555555,0.11532920996741287,0.039269908169872414,-0.006544984694978735
1592332842.508073,-0.02,9.84,-0.54,-0.46,-0.6322222222222222,-0.015555555555555555,0.07744898555724837,0.039269908169872414,-0.006544984694978735
1592332842.518073,0.08189673896180459,10.137069099258431,-0.6894836948090229,-0.4631608868479389,-0.6327969289218475,-0.015555555555555555,0.0056423390609721576,0.046228697114030506,-0.004081214638499648
1592332842.528073,0.03,10.1,-0.43,-0.4722222222222222,-0.6344444444444445,-0.015555555555555555,-0.025089107997418484,0.03490658503988659,-0.0032724923474893677
1592332842.538073,-0.22694398080534114,9.78578447736282,-0.49115689547256414,-0.4722222222222222,-0.6344444444444445,-0.015555555555555555,-0.06805533484999914,0.010727944087195221,-0.010403516947523053
1592332842.548073,-0.81,9.58,-0.45,-0.4722222222222222,-0.6344444444444445,-0.015555555555555555,-0.10471975511965977,-0.008726646259971648,-0.028361600344907853
1592332842.558073,0.07755482916270956,9.760994544691565,-0.6317244958809108,-0.4722222222222222,-0.6344444444444445,-0.015555555555555555,-0.055033216457887876,-0.028924928422217132,0.009478087656399512
1592332842.568073,-0.4430381187179973,9.674060307225488,-0.33145078702825714,-0.4722222222222222,-0.6357005288998462,-0.01199664959858398,0.014718768207705592,-0.05292918655156708,-0.007287961891135767
1592332842.578073,0.19,9.95,-0.51,-0.4722222222222222,-0.6411111111111111,0.0033333333333333335,0.06872233929727672,-0.074176493209759,-0.001090830782496456
1592332842.588073,-0.2366279274964076,10.043255854992815,-0.6939070259913782,-0.4722222222222222,-0.6411111111111111,0.0033333333333333335,-0.014122445799285867,-0.06268725412505113,-0.017992369229280478
1592332842.598073,-0.1299004715751558,9.805174056257258,-0.43885566008673194,-0.4722222222222222,-0.6411111111111111,0.0033333333333333335,-0.04552726343958425,-0.0643590161672909,-0.005752640204704526
1592332842.608073,-0.05705261404568074,9.58705261404568,-0.20768431572591559,-0.4722222222222222,-0.6411111111111111,0.0033333333333333335,-0.043193097011532455,-0.058717329935354265,-0.0052627832786295
1592332842.618073,-0.0471204320773191,9.672471179053094,-0.1094554815072171,-0.4713089008910366,-0.6391018041825028,0.004794647463230262,-0.006948193458048633,-0.036774134471844536,-0.001090830782496456
1592332842.628073,0.12,9.99,-0.31,-0.4666666666666667,-0.6288888888888889,0.012222222222222223,0.007635815477475192,-0.01854412330243975,-0.001090830782496456
1592332842.638073,-0.042426375446405463,9.88,-0.21907277056052998,-0.4666666666666667,-0.6288888888888889,0.012222222222222223,-0.015396403794312587,0.004675255228391338,-0.0030853330884460595
1592332842.648073,0.011811384574302364,9.88902176331835,-0.2909782366816503,-0.4666666666666667,-0.6288888888888889,0.012222222222222223,-0.03756256307401432,0.027614636865469944,0.0026084978389574335
1592332842.658073,-0.18111169796970403,9.843329812181777,-0.18999577461813114,-0.4666666666666667,-0.6288888888888889,0.012222222222222223,-0.07199471641535082,0.04484532951897389,-0.006060145407332475
1592332842.668073,-0.22768711969065675,9.605387728185605,0.1053742393813135,-0.46752079107673966,-0.6326470362932101,0.010855623166105466,-0.054464306958273326,0.0495905060195787,-0.003692495387001582
1592332842.678073,-0.27,9.58,0.19,-0.4722222222222222,-0.6533333333333333,0.0033333333333333335,0.0,0.05235987755982988,0.0
1592332842.688073,-0.20739113875841056,9.691043544496635,-0.00208708899327155,-0.4722222222222222,-0.6533333333333333,0.0033333333333333335,0.06307860212451291,0.05918944486976739,0.007578898954483438
1592332842.698073,-0.15703473671290044,9.766340002454893,-0.14674947833558366,-0.4722222222222222,-0.6533333333333333,0.0033333333333333335,0.09797176101846757,0.0591836554124512,0.008485744978043622
1592332842.708073,-0.15,9.9,-0.4,-0.4722222222222222,-0.6533333333333333,0.0033333333333333335,0.09490227807719166,0.04690572364734761,0.01308996938995747
1592332842.718073,-0.44797901474906787,9.780173227307221,0.0383832117992543,-0.4723056279627369,-0.6532242642880449,0.0033846599428808163,0.051212358273607164,0.024988328435238457,0.003285089792761871
1592332842.728073,-0.11865483837001159,9.834873117826683,-0.2306725808149942,-0.4866666666666667,-0.6344444444444445,0.012222222222222223,0.037042560815289324,0.009331588138850579,0.0044366903156570475
1592332842.7380729,-0.16,9.89,-0.21,-0.4866666666666667,-0.6344444444444445,0.012222222222222223,0.0272707695624114,0.01308996938995747,0.002181661564992912
1592332842.7480729,0.10716675418198188,8.695679243867676,0.21725752006601157,-0.4866666666666667,-0.6344444444444445,0.012222222222222223,0.12174411245380706,0.009070972712056643,-0.0038581255265702423
1592332842.7580729,-0.19165874030852853,9.174899888098473,0.28461393973303495,-0.4866666666666667,-0.6344444444444445,0.012222222222222223,0.40839497790726154,0.02258508418235883,0.0061269535074893865
1592332842.7680728,0.43621172081455,9.85676822633297,-0.6029006684284159,-0.4852700485344664,-0.635626198248614,0.012222222222222223,0.5864840764957815,0.04173186559736597,0.032058860469507997
1592332842.7780728,-0.44,9.92,-0.63,-0.4722222222222222,-0.6466666666666666,0.012222222222222223,0.5421428989007386,0.0545415391248228,0.00545415391248228
1592332842.7880728,-0.1845858398889403,10.047366959740861,-0.7608283202221194,-0.4722222222222222,-0.6466666666666666,0.012222222222222223,0.44744404738779775,0.020667735103440485,-0.01167961251522582
1592332842.7980728,-0.12195875558075261,10.056572177733683,-0.8218878888810148,-0.4722222222222222,-0.6466666666666666,0.012222222222222223,0.35907449918856055,-0.009031686176896814,-0.03001682454693564
1592332842.8080728,-0.05590813988243499,10.271927866892497,-0.8792786689249775,-0.4722222222222222,-0.6466666666666666,0.012222222222222223,0.24371237660901218,-0.020212919423315816,-0.044973702244494214
1592332842.8180728,-0.271337500813961,10.32805593540405,-0.96,-0.4722222222222222,-0.6464074652890828,0.013881111038759018,0.0847234637819685,-0.0019204076991322645,-0.037634514374156644
1592332842.8280728,0.11,11.31,-0.96,-0.4722222222222222,-0.6411111111111111,0.04777777777777778,-0.12326387842209952,0.04799655442984406,0.04036073895236887
1592332842.8380728,-0.6534621174109383,10.645515972570664,-1.358293471595027,-0.4722222222222222,-0.6411111111111111,0.04777777777777778,-0.6334968905958408,0.03514929595324687,0.07555643641573699
1592332842.8480728,-0.2838241164729365,9.198330398027474,0.01898555829517437,-0.4722222222222222,-0.6411111111111111,0.04777777777777778,-0.9485008674880522,-0.11779012874705742,0.02834789611880393
1592332842.8580728,0.20570579852678483,8.771015193786003,0.5622638139012103,-0.4722222222222222,-0.6411111111111111,0.04777777777777778,-0.8866724626150009,-0.19790879634718103,-0.0070222984233613145
1592332842.8680727,0.4454437328453797,8.737108874656908,0.40489478499542547,-0.4709057639524245,-0.641299176578225,0.047063129002744744,-0.6349353725184632,-0.1679170814142829,-0.014623918989863283
1592332842.8780727,0.03,8.94,0.83,-0.43333333333333335,-0.6466666666666666,0.02666666666666667,-0.2945243112740431,-0.10362892433716332,-0.0272707695624114
1592332842.8880727,0.028011558605743184,9.523328517247606,0.24734152067906812,-0.43333333333333335,-0.6466666666666666,0.02666666666666667,0.030971556315020382,-0.03890839932286483,-0.016580943106019815
1592332842.8980727,-0.18202233040277072,9.64235728644433,0.07168737436121,-0.43333333333333335,-0.6466666666666666,0.02666666666666667,0.18709506131167733,0.0015563935243684448,-0.009143491620387958
1592332842.9080727,-0.18472246644393647,9.805183557040424,-0.07870191274446595,-0.43333333333333335,-0.6466666666666666,0.02666666666666667,0.23081178438944858,0.010847759395738597,-0.0010302823532704936
1592332842.9180727,-0.16013832717894613,9.969077818807026,-0.25898560068772836,-0.43333333333333335,-0.6466666666666666,0.02666666666666667,0.2236605481570669,0.0054843322214523475,0.004333144821015756
1592332842.9280727,-0.11,10.05,-0.32,-0.4622222222222222,-0.6411111111111111,0.0033333333333333335,0.17453292519943295,0.004363323129985824,0.01090830782496456
1592332842.9380727,-0.1629171105361944,9.962833155785523,-0.2470828894638056,-0.4622222222222222,-0.6411111111111111,0.0033333333333333335,0.07333176753075532,0.011980822522187018,0.014953423558067825
1592332842.9480727,-0.1718546437206656,9.93006589863936,-0.27847674583985205,-0.4622222222222222,-0.6411111111111111,0.0033333333333333335,-0.008242746215794938,0.0244606119797975,0.016492473996831285
1592332842.9580727,-0.3586430195906316,9.696482264692975,-0.2127536607748474,-0.4622222222222222,-0.6411111111111111,0.0033333333333333335,-0.08903706597832756,0.020961486663012185,0.0012201827788887259
1592332842.9680727,-0.19129274228943063,9.570969556717074,-0.12071100825918683,-0.4622222222222222,-0.6411111111111111,0.0033333333333333335,-0.13923854531168123,0.016397715814525485,-0.009732867257479351
1592332842.9780726,-0.16,9.42,0.1,-0.4622222222222222,-0.6533333333333333,0.0033333333333333335,-0.09817477042468103,-0.001090830782496456,-0.002181661564992912
1592332842.9880726,-0.2194497351736374,9.5158961045738,0.15314478044198607,-0.4622222222222222,-0.6533333333333333,0.0033333333333333335,0.01397323295099786,-0.013926955108945541,-0.007321945832854665
1592332842.9980726,-0.12327973553421638,9.784598016506623,-0.11475880990397373,-0.4622222222222222,-0.6533333333333333,0.0033333333333333335,0.0881082522032734,-0.021279970178053515,-0.004184441306027289
1592332843.0080726,-0.14198737052706167,9.906025258945876,-0.18205051789175333,-0.4622222222222222,-0.6533333333333333,0.0033333333333333335,0.10561446233421348,-0.019519671528655032,-0.002622126863345846
1592332843.0180726,-0.15946981222516307,9.871060375549673,-0.11212075109934769,-0.4622222222222222,-0.6533333333333333,0.0033333333333333335,0.07510184544223167,-0.028101345029524917,0.0030989888039007437
1592332843.0280726,-0.13,9.84,-0.12,-0.4688888888888889,-0.6411111111111111,-0.0011111111111111111,0.04036073895236887,-0.028361600344907853,0.004363323129985824
1592332843.0380726,-0.08217396546734831,9.772173965467347,-0.12434793093469663,-0.4688888888888889,-0.6411111111111111,-0.0011111111111111111,-0.0030511853306777856,-0.022037922666740702,0.005296058682357757
1592332843.0480726,-0.11247422680412371,9.800824742268041,-0.17505154639175258,-0.4688888888888889,-0.6411111111111111,-0.0011111111111111111,-0.015170419851419783,-0.010458480698161897,0.0031825269221288353
1592332843.0580726,-0.13934933784846104,9.808048013545383,-0.1147947027876882,-0.4688888888888889,-0.6411111111111111,-0.0011111111111111111,-0.026818724853428618,-0.0050282965301398285,0.0021106853346025034
1592332843.0680726,-0.13089496281066698,9.782684888432,-0.04715970248533592,-0.4688888888888889,-0.6411111111111111,-0.0011111111111111111,-0.03511878813762445,0.0005050789926573963,0.001188456080802966
1592332843.0780725,-0.20929890100343165,9.740823161461275,0.0,-0.47444444444444445,-0.6533333333333333,0.012222222222222223,-0.04481385506844699,0.004632702088262717,0.004363323129985824
1592332843.0880725,-0.09087246427175188,9.74993288736371,0.0,-0.47444444444444445,-0.6533333333333333,0.012222222222222223,-0.045807572011895344,0.007613852918607762,0.004363323129985824
1592332843.0980725,-0.21689799656554093,9.717673497424157,-0.014571493989696623,-0.47444444444444445,-0.6533333333333333,0.012222222222222223,-0.04950146382809343,0.013005375369114528,0.0030187102849605412
1592332843.1080725,-0.17798580121703853,9.686643002028397,0.05503549695740365,-0.47444444444444445,-0.6533333333333333,0.012222222222222223,-0.040682567222782885,0.011962519440218995,0.00010985750172606295
1592332843.1180725,-0.1269395537525355,9.601565922920893,0.18265111561866126,-0.47444444444444445,-0.6533333333333333,0.012222222222222223,-0.02119358089995883,0.011034472472465468,0.002893998404986642
1592332843.1280725,-0.050454231671959136,9.68858530075015,0.1056067927654287,-0.4888888888888889,-0.6344444444444445,0.012222222222222223,0.048194750385907204,0.014434217899456647,0.008346519669467567
1592332843.1380725,-0.13081510705057217,9.831630214101144,-0.0922266057585825,-0.4888888888888889,-0.6344444444444445,0.012222222222222223,0.08192508122175723,0.01591788980654983,0.00545415391248228
1592332843.1480725,-0.1394481401910284,9.851103719617942,-0.2311037196179432,-0.4888888888888889,-0.6344444444444445,0.012222222222222223,0.06921844099397288,0.010727712124789908,0.0052735582123076274
1592332843.1580725,-0.13,9.87,-0.25,-0.4888888888888889,-0.6344444444444445,0.012222222222222223,0.04036073895236887,0.007635815477475192,0.002181661564992912
1592332843.1680725,-0.1384166332128998,9.785833667871001,-0.2163334671484009,-0.4888888888888889,-0.6344444444444445,0.012222222222222223,0.017407932468336072,0.004881478699391256,0.00034543704627028804
1592332843.1780725,-0.15,9.75,-0.13,-0.4622222222222222,-0.6533333333333333,0.02666666666666667,-0.006544984694978735,-0.00545415391248228,0.001090830782496456
1592332843.1880724,-0.1201230177096782,9.680369053129034,-0.13110715938710385,-0.4622222222222222,-0.6533333333333333,0.02666666666666667,-0.0019803743082291146,-0.009750381290213505,-0.0011176690833982956
