time,acc_x,acc_y,acc_z,mag_x,mag_y,mag_z,gyr_x,gyr_y,gyr_z
1592333211.3977213,-0.1413319977523149,9.780665998876156,-0.6413319977523149,-0.7266666666666667,-1.0144444444444445,-1.3722222222222222,-0.009743735165280454,0.02065313565991061,0.006327037072412563
1592333211.4077213,-0.16353868364376495,9.789115329089057,-0.6644233545547062,-0.7266666666666667,-1.0144444444444445,-1.3722222222222222,-0.025349313981769463,0.019924461963546372,0.0033689949736927555
1592333211.4177213,-0.19920210413611714,9.781595791727765,-0.7060105206805856,-0.7266666666666667,-1.0144444444444445,-1.3722222222222222,-0.04083657303506249,0.022472261747650553,0.004189249256075815
1592333211.4277213,-0.18715243013126256,9.799050810043754,-0.6585762150656314,-0.7266666666666667,-1.0144444444444445,-1.3722222222222222,-0.059629646190705196,0.016832049146317658,0.0022852021272638514
1592333211.4377213,-0.13755291891678822,9.782517639638929,-0.6337764594583941,-0.7266666666666667,-1.0144444444444445,-1.3722222222222222,-0.07225407003759478,0.006011114420412297,0.0040886912482480785
1592333211.4477212,-0.18,9.73,-0.56,-0.7477777777777778,-0.9822222222222222,-1.3433333333333333,-0.0839939702522271,0.0032724923474893677,-0.001090830782496456
1592333211.4577212,-0.1420896122161945,9.748955193891902,-0.5505224030540486,-0.7477777777777778,-0.9822222222222222,-1.3433333333333333,-0.08709550660004856,0.0001709559996679196,-0.001090830782496456
1592333211.4677212,-0.19566316086680313,9.752891226088797,-0.5680725159408013,-0.7477777777777778,-0.9822222222222222,-1.3433333333333333,-0.08934299621748214,0.0023393534858337913,0.004521015050826704
1592333211.4777212,-0.1097025770006188,9.810892268998144,-0.5338664989919556,-0.7477777777777778,-0.9822222222222222,-1.3433333333333333,-0.08726646259971647,0.005486597728797024,0.007376264946957241
1592333211.4877212,-0.10133021937441364,9.836009341876759,-0.6427071481326228,-0.7477777777777778,-0.9822222222222222,-1.3433333333333333,-0.08726646259971647,0.006399880270870378,7.000461037040377e-05
1592333211.4977212,-0.059427220878364884,9.75434366747298,-0.566229111648654,-0.7477777777777778,-1.0077777777777779,-1.3433333333333333,-0.09953982794657786,0.017864632629043843,0.004294766445135732
1592333211.5077212,-0.19904795721355495,9.670571225671868,-0.5103808171145781,-0.7477777777777778,-1.0077777777777779,-1.3433333333333333,-0.10360123053509111,0.023956736511813712,0.0032794157980074205
1592333211.5177212,-0.0926068376068376,9.986462148962149,-0.7094413919413919,-0.7477777777777778,-1.0077777777777779,-1.3433333333333333,-0.11274149027873245,0.029696169873676414,0.004363323129985824
1592333211.5277212,-0.22965164175591385,9.79985485073163,-0.6799419402926523,-0.7477777777777778,-1.0077777777777779,-1.3433333333333333,-0.1331605221095646,0.042545567183161666,0.0043696564615855835
1592333211.5377212,-0.1309273861362834,9.758719744223452,-0.6634878976893805,-0.7477777777777778,-1.0077777777777779,-1.3433333333333333,-0.1555962423197608,0.04344299599156951,0.006164514078401277
1592333211.5477211,-0.21,9.8,-0.65,-0.7066666666666667,-0.9955555555555555,-1.3577777777777778,-0.1810779098944117,0.038179077387375956,0.004363323129985824
1592333211.5577211,-0.15267420109119254,9.890083398285269,-0.6090530007794233,-0.7066666666666667,-0.9955555555555555,-1.3577777777777778,-0.2087709831588231,0.038179077387375956,0.0025766732419592823
1592333211.5677211,-0.21953203709806507,9.799665740784333,-0.6494651852549316,-0.7066666666666667,-0.9955555555555555,-1.3577777777777778,-0.24996068209807315,0.032710338665222334,0.003279784752325039
1592333211.577721,-0.15042017795772328,9.75030012711266,-0.5704802033802551,-0.7066666666666667,-0.9955555555555555,-1.3577777777777778,-0.2736544757336241,0.030556357425626797,0.0043567753721228085
1592333211.587721,-0.12570487790663792,9.76619674806224,-0.5133113817821551,-0.7066666666666667,-0.9955555555555555,-1.3577777777777778,-0.28351587765605846,0.03142665747803241,0.005246718698117461
1592333211.597721,-0.12081779582794905,9.799591102086026,-0.4387733062580764,-0.7266666666666667,-1.0144444444444445,-1.3955555555555557,-0.29933367283549095,0.029474733048977412,0.00527573853989748
1592333211.607721,-0.1595320287982278,9.780233985600885,-0.3807019568026583,-0.7266666666666667,-1.0144444444444445,-1.3955555555555557,-0.32044901135785053,0.030530499975095392,-0.003170396869046373
1592333211.617721,-0.19950518412584914,9.74049481587415,-0.449134072220236,-0.7266666666666667,-1.0144444444444445,-1.3955555555555557,-0.3357869648733913,0.03592994577398408,-0.005427165893122697
1592333211.627721,-0.11265264045733564,9.76911578651422,-0.42088421348577854,-0.7266666666666667,-1.0144444444444445,-1.3955555555555557,-0.35291475897493935,0.029645336585121456,-0.0033367941667284164
1592333211.637721,-0.18161171086599392,9.809784283814441,-0.30860400531956506,-0.7266666666666667,-1.0144444444444445,-1.3955555555555557,-0.3612407993888379,0.034660181700728446,-0.0032724923474893677
1592333211.647721,-0.2,9.71,-0.19,-0.7266666666666667,-1.0,-1.3955555555555557,-0.37742745074377376,0.032724923474893676,-0.002181661564992912
1592333211.657721,-0.1797429461108287,9.601962379257754,-0.10221943314692425,-0.7266666666666667,-1.0,-1.3955555555555557,-0.37669088347894053,0.03198835621006042,-0.002181661564992912
1592333211.667721,-0.16,9.35,0.07,-0.7266666666666667,-1.0,-1.3955555555555557,-0.3217950808364545,0.025089107997418484,0.0032724923474893677
1592333211.677721,-0.04158085569253084,9.286843123036016,0.10947304810248973,-0.7266666666666667,-1.0,-1.3955555555555557,-0.21587137760152308,0.017338593126569844,0.0024113240285061855
1592333211.687721,-0.09942675582322202,9.188702949251617,0.2500752811974139,-0.7266666666666667,-1.0,-1.3955555555555557,-0.04573277381736893,0.011724377935649845,-0.007573284238083568
1592333211.697721,-0.34,9.35,0.06,-0.7333333333333333,-0.9822222222222222,-1.3988888888888888,0.17998707911191522,0.001090830782496456,-0.014180800172453926
1592333211.707721,-0.1488448818262483,9.640555779624103,-0.16173993708155202,-0.7333333333333333,-0.9822222222222222,-1.3988888888888888,0.29342080971372303,-0.02142910102815656,-0.010010442429740404
1592333211.717721,-0.2284243386822937,10.006848677364587,-0.6353855632838601,-0.7333333333333333,-0.9822222222222222,-1.3988888888888888,0.45129519684339847,-0.05316833736398856,-0.005490984909656773
1592333211.727721,0.10713453503640921,9.762106959532051,-0.6300842783812821,-0.7333333333333333,-0.9822222222222222,-1.3988888888888888,0.46567442398286496,-0.05453234577956265,-0.01627052828484537
1592333211.737721,-0.3226484886070379,9.98464440754596,-0.8213637545761898,-0.7333333333333333,-0.9822222222222222,-1.3988888888888888,0.4303887724230024,-0.04546564894457041,-0.031791475043875896
1592333211.747721,-0.05,9.75,-0.85,-0.7266666666666667,-0.99,-1.3966666666666667,0.34797501961636945,-0.04690572364734761,-0.004363323129985824
1592333211.757721,-0.12020151436240537,10.35061295621169,-0.9904030287248107,-0.7266666666666667,-0.99,-1.3966666666666667,0.2850109086109913,-0.06817738277078617,0.005847073249264687
1592333211.767721,0.37453731100192733,10.31220608594153,-1.2278989657699722,-0.7266666666666667,-0.99,-1.3966666666666667,0.17874508540033154,-0.05258906484114921,-0.006384553598055209
1592333211.777721,-0.47049327354260095,10.067001921844971,-0.880690262652146,-0.7266666666666667,-0.99,-1.3966666666666667,0.012965145784240989,-0.02999461455685302,-0.037193678439798886
1592333211.787721,-0.011296565710003148,9.958317241987391,-0.8888103425472822,-0.7266666666666667,-0.99,-1.3966666666666667,-0.18701616414952943,-0.029819551975333508,0.006663094310188862
1592333211.797721,0.19,9.78,-0.72,-0.7333333333333333,-0.9933333333333333,-1.3688888888888888,-0.33161255787892263,-0.038179077387375956,0.0370882466048795
1592333211.807721,-0.20472762957622376,9.686335816710727,-0.5527425298405831,-0.7333333333333333,-0.9933333333333333,-1.3688888888888888,-0.34620852564311255,-0.02577250478781451,0.019573085287851573
1592333211.817721,0.037016178013362044,9.491228535144387,-0.3956142675721937,-0.7333333333333333,-0.9933333333333333,-1.3688888888888888,-0.3341578899350377,-0.02470634450436095,0.012936863992734457
1592333211.8277209,0.10748192541856925,9.067698820395737,-0.2869247050989346,-0.7333333333333333,-0.9933333333333333,-1.3688888888888888,-0.24173106403618802,-0.02202262514488261,0.011045647488266886
1592333211.8377209,0.28462066736689023,8.674884059141958,-0.26412539387573725,-0.7333333333333333,-0.9933333333333333,-1.3688888888888888,-0.12912291854406627,-0.01662166294382335,-0.0064082011953880014
1592333211.8477209,-2.8354056293931675,11.044146536112219,-1.6430387673040914,-0.7409086630447016,-0.9814292437868976,-1.3732176487239565,0.1057280512056077,0.01341418174966505,-0.08102918332513562
1592333211.8577209,-0.873646144650329,10.035493126120741,-0.9340047818290497,-0.7411111111111112,-0.9811111111111112,-1.3733333333333333,0.30985071197539493,0.055241809453813344,-0.02168490745024934
1592333211.8677208,1.8070273448985592,10.313022640399883,-1.599476624522199,-0.7411111111111112,-0.9811111111111112,-1.3733333333333333,0.25261921765606987,-0.037924411218219184,0.09086867386646676
1592333211.8777208,-0.3846120821833794,9.871604274290567,-0.9906163753449863,-0.7411111111111112,-0.9811111111111112,-1.3733333333333333,0.1901815724689904,0.012421184853173908,-0.013830801816510335
1592333211.8877208,0.06005512701025206,9.615983461896924,-0.481742251482282,-0.7411111111111112,-0.9811111111111112,-1.3733333333333333,0.15659248044461285,0.05151412625076508,-0.016846607260337154
1592333211.8977208,0.777441474654378,9.634929032258064,-0.7646451612903227,-0.7323485919098822,-0.9885255504352278,-1.3733333333333333,0.16380558469322357,0.023134862029661245,0.016920846453205855
1592333211.9077208,-0.1319867549668874,9.819682816312303,-0.7950435691878703,-0.7266666666666667,-0.9933333333333333,-1.3733333333333333,0.19889582657622815,0.02532483998945327,0.005652244828369575
1592333211.9177208,-0.6454548130703562,9.96750073594348,-0.6024992640565204,-0.7266666666666667,-0.9933333333333333,-1.3733333333333333,0.20641491938258297,0.04083181600798333,-0.014280024991939182
1592333211.9277208,-0.34568877914430884,10.18585759057885,-1.1091191414597084,-0.7266666666666667,-0.9933333333333333,-1.3733333333333333,0.1807824495789475,0.00435104681603684,-0.005508335449995516
1592333211.9377208,-0.5269618371055675,10.000786799933916,-1.0382731703287627,-0.7266666666666667,-0.9933333333333333,-1.3733333333333333,0.09497138985731514,-0.01775014879063011,-0.009434794213022998
1592333211.9477208,-0.0012237038740086081,9.779424646511092,-0.8126620875962755,-0.7326139019810706,-0.9883773039046634,-1.3753157451048015,-0.04295034916009734,-0.0472352990013074,-0.0060427373111881936
1592333211.9577208,-0.061924110545104494,9.416997312582728,-0.6382872728731299,-0.7333333333333333,-0.9877777777777778,-1.3755555555555556,-0.09269992087383203,-0.0645689040684435,-0.01121042914192489
1592333211.9677207,0.2862612752721617,9.543523846552619,-0.5166394504924832,-0.7333333333333333,-0.9877777777777778,-1.3755555555555556,-0.08193934608240673,-0.07861669474559262,0.016090574002753065
1592333211.9777207,-0.020067962094381164,9.528322006317604,-0.36902172872595007,-0.7333333333333333,-0.9877777777777778,-1.3755555555555556,-0.015935610369700544,-0.0853975260460739,-0.0023417308278977714
1592333211.9877207,-0.32529176201372995,9.76070366132723,-0.4958810068649886,-0.7333333333333333,-0.9877777777777778,-1.3755555555555556,0.03294271520435092,-0.06389722281543313,-0.00545415391248228
1592333211.9977207,-0.17103436577670722,9.936180411846523,-0.5787268039488415,-0.7471647574568496,-0.9877777777777778,-1.3734276441519377,0.06888727578326875,-0.047276081365949386,0.0039466706965588265
1592333212.0077207,-0.1397006775607812,9.703174571542448,-0.4785033878039059,-0.7477777777777778,-0.9877777777777778,-1.3733333333333333,0.07940852458466557,-0.0395246817205073,-0.005970135567590609
1592333212.0177207,-0.38276189003967637,9.886341526253414,-0.43871592724274744,-0.7477777777777778,-0.9877777777777778,-1.3733333333333333,0.08209244990534943,-0.03694817599582188,-0.01090830782496456
1592333212.0277207,-0.3054591961023142,9.95727161997564,-0.4999975639464069,-0.7477777777777778,-0.9877777777777778,-1.3733333333333333,0.07883743643143692,-0.0531525567861848,-0.006148512215688915
1592333212.0377207,-0.35909744812397715,9.861964520235185,-0.6245487240619886,-0.7477777777777778,-0.9877777777777778,-1.3733333333333333,0.06754848344946468,-0.07535034905757104,-0.013702000990368522
1592333212.0477207,-0.3697941157980763,9.804582888036714,-0.3856336832840888,-0.7372456919734848,-0.9877777777777778,-1.3733333333333333,0.031157801424412743,-0.08708446317199625,-0.013567426441766837
1592333212.0577207,0.07343594927403052,9.832968663848558,-0.3795308766770814,-0.7333333333333333,-0.9877777777777778,-1.3733333333333333,0.007942655490820317,-0.09863493020294331,0.0041246475103273
1592333212.0677207,0.04957941378574984,9.667016325853611,-0.5679416155249627,-0.7333333333333333,-0.9877777777777778,-1.3733333333333333,-0.010404183388744128,-0.08585933922462212,-0.0011183580858483214
1592333212.0777206,-0.16900735491490848,9.584648896762763,-0.39184007086487355,-0.7333333333333333,-0.9877777777777778,-1.3733333333333333,-0.032785681349851534,-0.07703430940054802,-0.0098940758862704
1592333212.0877206,-2.5265817454489525e-05,9.76971961960908,-0.432040916587711,-0.7333333333333333,-0.9877777777777778,-1.3733333333333333,-0.03711607528785928,-0.06237491145629891,0.0019562760280122087
1592333212.0977206,-0.044780425822047304,9.889131000712803,-0.5186955713267425,-0.7507244759868182,-0.9819807302266161,-1.3675362857821718,-0.034384918637534255,-0.03485928990043413,0.004695403297849668
1592333212.1077206,-0.1447633418043202,9.926259529860229,-0.4043511753494282,-0.7533333333333333,-0.9811111111111112,-1.3666666666666667,-0.04592647085467448,-0.026164951984697985,0.004281718730596397
1592333212.1177206,-0.22,9.771517321659033,-0.5144279677100995,-0.7533333333333333,-0.9811111111111112,-1.3666666666666667,-0.07803239797691745,-0.016191509614664226,0.0015331310995230704
1592333212.1277206,-0.22,9.733496967132176,-0.494008087647529,-0.7533333333333333,-0.9811111111111112,-1.3666666666666667,-0.11671668816340011,-0.023970399915336435,-0.005535580247518398
1592333212.1377206,-0.09577482144079594,9.563662232161194,-0.16704264883736852,-0.7533333333333333,-0.9811111111111112,-1.3666666666666667,-0.12570672902939295,-0.02350664043092533,-0.0023660346933946927
1592333212.1477206,0.002887383573243016,9.625817104149027,0.037197290431837414,-0.7533333333333333,-0.9811111111111112,-1.3666666666666667,-0.08973537934960049,-0.018073985395335012,0.012163548327430844
1592333212.1577206,-0.12299059098456432,9.66662382387307,-0.04558698727015559,-0.7533333333333333,-0.9811111111111112,-1.3666666666666667,-0.04183293453398545,-0.014279881229322956,0.008287322061301866
1592333212.1677206,-0.17055196467426084,9.756054332522718,-0.26073307308332266,-0.7533333333333333,-0.9811111111111112,-1.3666666666666667,0.07349536970119522,0.006194545009318157,-0.0072054099233038165
1592333212.1777205,-0.27067187881749327,9.917757146347421,-0.4062325922306377,-0.7533333333333333,-0.9811111111111112,-1.3666666666666667,0.10320330577873507,0.017634253697884926,-0.009817477042468103
1592333212.1877205,-0.07307682946616911,9.80514278760344,-0.4295823868245985,-0.7533333333333333,-0.9811111111111112,-1.3666666666666667,0.0884124278603482,0.028181793802449864,-0.0048691797544178975
1592333212.1977205,0.04689430358906818,9.830922621007574,-0.3978169245966414,-0.7578544616397761,-0.9856322394175538,-1.3824906157392163,0.03804079294507726,0.04385908391626712,-0.007008973896437057
1592333212.2077205,0.08344205679201841,9.563214888718342,-0.1666569455103607,-0.76,-0.9877777777777778,-1.39,0.01771440542942959,0.08608605476907949,-0.0035336052569756643
1592333212.2177205,0.18871891848394626,9.573478715699686,-0.1837989860786996,-0.76,-0.9877777777777778,-1.39,0.006702197049646084,0.09166472180851727,0.002648470778907465
1592333212.2277205,0.12042728501823932,9.610170914007295,-0.252521364250912,-0.76,-0.9877777777777778,-1.39,0.036701345474810604,0.10576397633707672,0.006820022868856824
1592333212.2377205,-0.17591857980384637,9.572434387156868,-0.19730316147060434,-0.76,-0.9877777777777778,-1.39,0.1376806238205156,0.1374515917916664,0.003351466161194844
1592333212.2477205,-0.1337272012284184,9.538372720122842,-0.10232725366091158,-0.7551939378050759,-0.9829717155828538,-1.373178782317766,0.274329091530474,0.16621187303738366,-0.0012683394806705733
1592333212.2577205,-0.23122470917956,9.71122470917956,-0.20876492494337157,-0.7533333333333333,-0.9811111111111112,-1.3666666666666667,0.30325095753401476,0.17016960206944715,-0.002181661564992912
1592333212.2677205,-0.37809886628439765,9.828441075589769,-0.6465779069462991,-0.7533333333333333,-0.9811111111111112,-1.3666666666666667,0.3986882690741056,0.18149267293013585,-0.012695941649918167
1592333212.2777205,-0.23809741031123782,9.86857020669993,-0.6890487051556189,-0.7533333333333333,-0.9811111111111112,-1.3666666666666667,0.34137970483396834,0.1613394966390377,0.00025942542487026807
1592333212.2877204,-0.29420485175202155,10.172614555256065,-1.1221832884097034,-0.7533333333333333,-0.9811111111111112,-1.3666666666666667,0.26648319760108163,0.14216083108814997,-2.646220227080394e-05
1592333212.2977204,-0.3430894528437725,9.856261699064076,-1.0513831893448524,-0.7533333333333333,-0.9857181425485961,-1.3866304695624352,0.16727868452861394,0.11867889439336667,-0.0010110210789174763
1592333212.3077204,-0.26133351915266384,9.65268814207215,-0.9304515409731624,-0.7533333333333333,-0.9877777777777778,-1.3955555555555557,0.12363689963576838,0.10821980430674055,0.0008304369566994402
1592333212.3177204,-0.35955394378966454,9.753106074342702,-0.8517171350861288,-0.7533333333333333,-0.9877777777777778,-1.3955555555555557,0.016020872478811954,0.08090878828570314,-0.0036113124980635173
1592333212.3277204,-0.5032405073262959,9.951746888293682,-0.8577721758311013,-0.7533333333333333,-0.9877777777777778,-1.3955555555555557,-0.032238887638608826,0.06177415797149026,-0.006191500180735852
1592333212.3377204,-0.5043195727416508,10.383845554358539,-1.0143195727416507,-0.7533333333333333,-0.9877777777777778,-1.3955555555555557,-0.16677366709300814,0.012773899251705065,-0.011030900332507598
1592333212.3477204,-0.4630183483300778,10.1071651349707,-1.0026036696660157,-0.7442933740362413,-0.9877777777777778,-1.3914464831477864,-0.4204704339228909,-0.05253341008816709,-0.0023625992656343547
1592333212.3577204,-0.15336382828993667,10.146557979513645,-1.0123598404879193,-0.7411111111111112,-0.9877777777777778,-1.39,-0.5722225001543213,-0.09074374693319176,0.003979327494455364
1592333212.3677204,-0.3236109400656815,9.873023399014778,-0.8367313218390805,-0.7411111111111112,-0.9877777777777778,-1.39,-0.8099048288811523,-0.12970245561925775,0.011815570280737025
1592333212.3777204,-0.3076014559549977,9.642940036398876,-0.509961237561748,-0.7411111111111112,-0.9877777777777778,-1.39,-0.8842185785893248,-0.14848380670339112,0.015721045296336274
1592333212.3877203,-0.0842171938490957,9.545970838976974,-0.3159708389769739,-0.7411111111111112,-0.9877777777777778,-1.39,-0.8739672609878474,-0.1484873521584822,0.01508033794624393
1592333212.3977203,-0.07585751488095238,9.289013206845238,-0.11828497023809523,-0.7411111111111112,-0.9782650256283069,-1.4082937541335978,-0.8250917424515939,-0.13608732879553745,0.011307223992819476
1592333212.4077203,-0.013703199455411846,9.229651623753654,0.0038129179513874956,-0.7411111111111112,-0.9733333333333334,-1.4177777777777778,-0.7837344640884455,-0.13538899132086393,0.002402640739647522
1592333212.4177203,-0.12450032765399735,9.290611074705112,0.11374071647007428,-0.7411111111111112,-0.9733333333333334,-1.4177777777777778,-0.6233400069050199,-0.13611244371932726,-0.002756355207092876
1592333212.4277203,0.28515202098485753,8.73086228687254,0.5901251937522356,-0.7411111111111112,-0.9733333333333334,-1.4177777777777778,-0.3910169886368394,-0.14650228085895345,0.008945982975317065
1592333212.4377203,0.48777428723845656,8.772734277754727,0.6375200047418648,-0.7411111111111112,-0.9733333333333334,-1.4177777777777778,-0.1286921694744669,-0.126130582494386,0.0045783728118412685
1592333212.4477203,0.1295665634674923,9.076811145510836,0.7670007739938081,-0.7492702958376333,-0.9688828689370486,-1.4326126590987271,0.19041835954360542,-0.0777731953254207,0.010194877475731197
1592333212.4577203,0.042282908272194414,9.334277784247506,0.607153837195761,-0.7533333333333333,-0.9666666666666667,-1.44,0.327434490937494,-0.03721392440319671,0.016985727072160763
1592333212.4677203,0.1873231861734068,9.596186199514399,0.0026768138265932176,-0.7533333333333333,-0.9666666666666667,-1.44,0.4489320450418596,0.06526820794681729,0.024874262491240036
1592333212.4777203,0.12647750964557022,9.610425603297466,-0.0569031129430372,-0.7533333333333333,-0.9666666666666667,-1.44,0.5172472330608239,0.1303091725025464,0.01924297230767017
1592333212.4877203,-0.12507400592047366,9.675626850148012,0.056298103848307884,-0.7533333333333333,-0.9666666666666667,-1.44,0.5934280912652999,0.17154040606182028,0.004223336525047484
1592333212.4977202,-0.30593947819913625,9.674060521800863,-0.09727651896113118,-0.7572929854660908,-0.9706263187994242,-1.442639768088505,0.6283515402396558,0.1861221391112531,-0.007602805955778041
1592333212.5077202,-0.459901369736447,10.048012149770171,-0.3516919594391703,-0.76,-0.9733333333333334,-1.4444444444444444,0.5792145914247252,0.1687096429991542,-0.014083138654126338
1592333212.5177202,-0.604013915032524,10.237197216993495,-0.47321808954228123,-0.76,-0.9733333333333334,-1.4444444444444444,0.4745377196190273,0.14987787267314054,-0.012871044286167348
1592333212.5277202,-0.6593274285302801,10.339522095004922,-0.5650973332373203,-0.76,-0.9733333333333334,-1.4444444444444444,0.3152366116391118,0.1222039441692914,-0.013016603223697538
1592333212.5377202,-0.5931842366126521,9.993973822095446,-0.6174342012097671,-0.76,-0.9733333333333334,-1.4444444444444444,0.16040813296786585,0.0958093948691906,-0.007597064514434513
1592333212.5477202,-0.5501947406315357,9.787900023999725,-0.42458943326361986,-0.7420491194386349,-0.9785690068303982,-1.4638912317192565,0.023403475803572785,0.056824815090886875,0.00956716228855962
1592333212.5577202,-0.5383295994969147,9.825620799434029,-0.2929119993711433,-0.7333333333333333,-0.9811111111111112,-1.4733333333333334,-0.01009079568564756,0.035950640820075784,0.01320324121039357
1592333212.5677202,-0.4551076112692543,9.641761153528957,-0.2448923887307457,-0.7333333333333333,-0.9811111111111112,-1.4733333333333334,-0.018277284891067943,0.004410277404004268,0.009672319268277588
1592333212.5777202,-0.20677500700476326,9.615349304193519,-0.357177080414682,-0.7333333333333333,-0.9811111111111112,-1.4733333333333334,-0.0026127674262176968,-0.003595044907252493,0.01090830782496456
1592333212.5877202,-0.17848212648945921,9.853377940727162,-0.24586312251756798,-0.7333333333333333,-0.9811111111111112,-1.4733333333333334,-0.0011108498992095485,-0.000782411959972099,0.018666948693327627
1592333212.5977201,-0.2895460678199862,9.970907864360028,-0.15727370851197792,-0.7490912361706593,-0.9850505868204427,-1.4641412233448932,-0.017503103190100164,0.0034708519761836682,0.025733703203013863
1592333212.6077201,-0.2892246931583424,9.897105764167375,-0.21596913355207195,-0.76,-0.9877777777777778,-1.4577777777777778,-0.022445167838571402,0.003985617393007669,0.02334714575257878
1592333212.6177201,-0.2467488558215321,9.796748855821532,-0.3657949344643328,-0.76,-0.9877777777777778,-1.4577777777777778,0.013818366136317154,0.009497517786997874,0.0002505881367693089
1592333212.62772,-0.28923655807505694,9.871526883849887,-0.4438172096247153,-0.76,-0.9877777777777778,-1.4577777777777778,0.0324750876891808,0.001099039826903795,-0.012836029082040928
1592333212.63772,-0.2846132968818099,9.797734062363801,-0.38850746860018226,-0.76,-0.9877777777777778,-1.4577777777777778,0.014355452384984861,-0.027599349974627783,-0.011833368114721004
1592333212.64772,-0.14235472522139997,9.676577702292855,-0.28342229770714544,-0.7639769770984135,-0.9813151899928559,-1.4577777777777778,0.0035601868908773687,-0.051183426552139304,-0.005568887660926345
1592333212.65772,-0.27425497898775814,9.86589119312991,-0.19163621414215237,-0.7688888888888888,-0.9733333333333334,-1.4577777777777778,0.024410826706228416,-0.05249473657284042,-0.001999192063553938
1592333212.66772,-0.3510318590267243,10.004249270626678,-0.3502551056132571,-0.7688888888888888,-0.9733333333333334,-1.4577777777777778,0.015407586991326418,-0.043539640590173165,0.0016713426898765863
1592333212.67772,-0.14914253759164908,9.943928171989562,-0.5274276127749472,-0.7688888888888888,-0.9733333333333334,-1.4577777777777778,-0.03057484679523961,-0.03244431955793485,0.016354870520369692
1592333212.68772,0.02687467588591183,9.784913473542687,-0.37848977239988474,-0.7688888888888888,-0.9733333333333334,-1.4577777777777778,-0.05563236990731925,-0.01572237778016173,0.026460225617679998
1592333212.69772,0.031058464322062634,9.685787251686833,-0.28842021938256246,-0.759941782786971,-0.9770174358458877,-1.4651459828028865,-0.046331874862978774,0.010218998494127718,0.014697782170581557
1592333212.70772,-0.10010275995117918,9.71971849285405,-0.27733690302767827,-0.75,-0.9811111111111112,-1.4733333333333334,-0.02469527681211621,0.025327940627894598,0.006357818249444677
1592333212.71772,0.11997981261970081,9.524534396190278,-0.3411537864278689,-0.75,-0.9811111111111112,-1.4733333333333334,0.1228995153060247,0.0505911382740645,-0.0004129222792275261
1592333212.72772,-0.2763545102878705,9.701322353276218,-0.6831772551439352,-0.75,-0.9811111111111112,-1.4733333333333334,0.22186437237285395,0.07083889325095467,-0.01329230779553908
1592333212.73772,-0.4234943557408726,9.784784907962981,-0.6395169327773823,-0.75,-0.9811111111111112,-1.4733333333333334,0.207621717785136,0.07208868325078582,-0.005166830437788309
1592333212.74772,-0.31073812154696134,9.923820994475138,-0.7101436464088398,-0.7425655003069368,-0.9845424186617557,-1.4767646408839779,0.12013674982308425,0.07205895562004655,0.003898062707838164
1592333212.75772,-0.17994744443552918,10.067684345663164,-0.8766841851881569,-0.7355555555555555,-0.9877777777777778,-1.48,0.054627532966097195,0.07200629749026934,0.005218753977512832
1592333212.76772,-0.5606225826242364,10.326029768732162,-0.8816444823814986,-0.7355555555555555,-0.9877777777777778,-1.48,-0.17186010026362353,0.033254960913447804,-0.00027633759079646967
1592333212.77772,-0.8214897679631398,10.423659042796064,-0.9088319289361173,-0.7355555555555555,-0.9877777777777778,-1.48,-0.26053047235982846,0.013616525828862094,0.004235906342723152
1592333212.78772,-0.2797858653507226,9.901207701797674,-0.747507490306662,-0.7355555555555555,-0.9877777777777778,-1.48,-0.4889374544587947,-0.028846985437982923,0.005939539005557349
1592333212.79772,-0.0790503391645841,9.838568368439843,-0.5439298464833988,-0.75366367170455,-0.9902248205006148,-1.4937034392478876,-0.5780749856036059,-0.0511909633885828,0.018193526939732706
1592333212.80772,0.18025159559707704,9.697593192119138,-0.5670021274627695,-0.7766666666666666,-0.9933333333333333,-1.511111111111111,-0.6224120417395314,-0.05575768780870308,0.0064411585109819865
1592333212.81772,0.2341380729835097,9.35241421895053,-0.34804876867569073,-0.7766666666666666,-0.9933333333333333,-1.511111111111111,-0.6150657700813603,-0.04614092440100036,0.011083725100470261
1592333212.82772,0.15020157149339639,9.465704186668578,-0.05926178022975329,-0.7766666666666666,-0.9933333333333333,-1.511111111111111,-0.5464770956947202,-0.03141449887649451,0.007679791555449305
1592333212.83772,-0.25297022570834005,9.419489354890347,0.2478425644309269,-0.7766666666666666,-0.9933333333333333,-1.511111111111111,-0.4425368168752451,-0.009509955134060217,-0.005946420333117036
1592333212.84772,-0.4497566756201612,9.273414441459945,0.5274087533575604,-0.7669800389740349,-0.9933333333333333,-1.5131504011516652,-0.28193175658439923,0.00044898312346393875,-0.008046535931684237
1592333212.85772,-0.18435835931878147,9.353731510354201,0.42059726553130244,-0.7555555555555555,-0.9933333333333333,-1.5155555555555555,-0.17177519124950447,-0.004770367765942565,-0.010090991501083989
1592333212.86772,-0.2374994873372296,9.42594765713114,0.2088795755152261,-0.7555555555555555,-0.9933333333333333,-1.5155555555555555,0.03897818671099346,0.011143379453910722,-0.011077586240765686
1592333212.8777199,-0.2631410438571564,9.493289760348585,0.07418205929714881,-0.7555555555555555,-0.9933333333333333,-1.5155555555555555,0.14021034845571667,0.02132797884303078,0.00011355716869978268
1592333212.8877199,-0.03870683618942326,9.368312327252626,0.06285480007370554,-0.7555555555555555,-0.9933333333333333,-1.5155555555555555,0.19504532772695438,0.04166316316857345,0.01528537940262364
1592333212.8977199,0.11170519052846166,9.427418221734358,0.08023114317076996,-0.7540194797274928,-0.9899539665115955,-1.5195493527085184,0.2299992671378811,0.07487009531997801,0.026667553995311587
1592333212.9077199,-0.0012228129531174498,9.408458882828143,0.11072590853644503,-0.75,-0.9811111111111112,-1.53,0.3135380423876315,0.11276547632996702,0.02840606307859105
1592333212.9177198,-0.16500531211940608,9.327024435749268,0.11297556425073205,-0.75,-0.9811111111111112,-1.53,0.49546785779636615,0.167882450092693,0.014069515137324271
1592333212.9277198,-0.2889599429454416,9.87554261262332,-0.39613693094021163,-0.75,-0.9811111111111112,-1.53,0.6400907640752866,0.2109866150647977,-0.014099762583120718
1592333212.9377198,-0.4247990562327959,10.050401887534408,-0.5952009437672041,-0.75,-0.9811111111111112,-1.53,0.6012503562709909,0.20072946451072132,-0.01875139401974305
1592333212.9477198,-0.417417176427836,9.923672097389618,-0.4575519350735873,-0.7613980915080183,-0.9956535037247896,-1.542577204422641,0.4793579599430879,0.1624376262016913,-0.02169779430886438
1592333212.9577198,-0.43440965079979676,10.04498560123902,-0.4398272148682332,-0.7822222222222223,-1.0222222222222221,-1.5655555555555556,0.3024491284069346,0.12656464267066223,-0.01585631287546714
1592333212.9677198,-0.64,10.05,-0.5,-0.7822222222222223,-1.0222222222222221,-1.5655555555555556,0.20180369476184434,0.11671889372712078,-0.002181661564992912
1592333212.9777198,-0.3036232221963161,10.174487448511696,-0.6365539752856143,-0.7822222222222223,-1.0222222222222221,-1.5655555555555556,-0.07808718981081433,0.02576656418634591,0.006996424340334578
1592333212.9877198,-0.22076462949116524,9.811372633898705,-0.41744126559364053,-0.7822222222222223,-1.0222222222222221,-1.5655555555555556,-0.17524942815447794,0.002181661564992912,0.0058455668861866865
1592333212.9977198,-0.1603406466512702,9.599515011547343,-0.33147228637413395,-0.7805465742879139,-1.0222222222222221,-1.5684879394405953,-0.18326146088916645,0.006705586224734276,0.008583679407993186
1592333213.0077198,0.12,9.45,-0.4,-0.7777777777777778,-1.0222222222222221,-1.5733333333333333,-0.14180800172453928,0.014180800172453926,0.006544984694978735
1592333213.0177197,0.02175339481151195,9.57478668423186,-0.15622441224158898,-0.7777777777777778,-1.0222222222222221,-1.5733333333333333,-0.0026623821127616104,0.05653193498638903,-0.0020541510960417914
1592333213.0277197,-0.06389504594108175,9.621236146632565,-0.30574926588993084,-0.7777777777777778,-1.0222222222222221,-1.5733333333333333,0.07549820979158181,0.06735164537426766,-0.00401603864954909
1592333213.0377197,-0.057199302500693536,9.686520627749376,-0.37280069749930644,-0.7777777777777778,-1.0222222222222221,-1.5733333333333333,0.10525205010736947,0.055837605873708576,0.0007112901470219726
1592333213.0477197,-0.1254275880328303,9.600148265819433,-0.3507069102462272,-0.778380843114759,-1.0306651369399582,-1.5745394640072956,0.1192413496588984,0.041747598739911365,-0.006342240927620379
1592333213.0577197,-0.1221903091968784,9.598362639533734,-0.4350664328756298,-0.78,-1.0533333333333332,-1.5777777777777777,0.15449493053025962,0.042153853338266004,-0.0001786083198644546
1592333213.0677197,0.03593415311384371,9.728888162960544,-0.36777632592108644,-0.78,-1.0533333333333332,-1.5777777777777777,0.1733215244886474,0.039835418549168826,0.01648374434422276
1592333213.0777197,0.14409099490277516,9.688818198980556,-0.33,-0.78,-1.0533333333333332,-1.5777777777777777,0.21483579678350248,0.04132430271134582,0.014693163205652187
1592333213.0877197,-0.007689171084056617,9.743083823615075,-0.3582072192772956,-0.78,-1.0533333333333332,-1.5777777777777777,0.27086242703183244,0.05339508764302272,0.002097340923740929
1592333213.0977197,0.043494235746215984,9.974154576111678,-0.49624813740098817,-0.78,-1.0531168361522842,-1.5810252354935124,0.29202996940867965,0.06563428983011535,-0.012211684217931758
1592333213.1077197,-0.19,9.95,-0.77,-0.78,-1.0522222222222222,-1.5944444444444446,0.27270769562411395,0.07090400086226964,-0.01308996938995747
1592333213.1177197,-0.05632507438321178,9.995044103320256,-0.7658126859580294,-0.78,-1.0522222222222222,-1.5944444444444446,0.19524038546539552,0.06114241672647991,-0.003962450931368086
1592333213.1277196,0.08770853789965274,9.97553179259969,-0.7852372170997485,-0.78,-1.0522222222222222,-1.5944444444444446,0.15296626928910212,0.06899191857747265,-0.008174974037867044
1592333213.1377196,0.32151857835218095,10.054810626458446,-0.7630389517142344,-0.78,-1.0522222222222222,-1.5944444444444446,0.11143058682106007,0.07231242768303736,-0.005868477720732594
1592333213.1477196,0.23753110047846893,9.975588516746411,-0.5085167464114833,-0.7806337054758108,-1.056341307814992,-1.6020489101541735,0.055810869489909584,0.05783490861647478,0.00952310930977528
1592333213.1577196,-0.27,10.14,-0.58,-0.7822222222222223,-1.0666666666666667,-1.6211111111111112,0.02617993877991494,0.030543261909900768,-0.01308996938995747
1592333213.1677196,-0.24563262938648528,9.889916159139444,-0.6836966437290728,-0.7822222222222223,-1.0666666666666667,-1.6211111111111112,-0.043779561206297696,0.02246762267865621,0.0022090984224503087
1592333213.1777196,0.0,9.87,-0.77,-0.7822222222222223,-1.0666666666666667,-1.6211111111111112,-0.07853981633974483,0.004363323129985824,0.008726646259971648
1592333213.1877196,-0.42609252701148126,9.666176437416823,-0.6883614914397853,-0.7822222222222223,-1.0666666666666667,-1.6211111111111112,-0.1345205001567255,-0.03122158331859998,-0.003102911995314564
1592333213.1977196,-0.31858434030847826,9.750867472246783,-0.4422831319383044,-0.7856519413607537,-1.0729544850873076,-1.615680722475103,-0.16331248195260462,-0.051083080079436564,0.004177356432088959
1592333213.2077196,-0.43,9.84,-0.42,-0.7955555555555556,-1.0911111111111111,-1.6,-0.15926129424448257,-0.05999569303730508,0.01308996938995747
1592333213.2177196,-0.15458846240629778,9.800587910848146,-0.5981760974753679,-0.7955555555555556,-1.0911111111111111,-1.6,-0.15493644978952803,-0.06188861412541085,0.010369305546221544
1592333213.2277195,-0.07311627132354691,9.851755846874925,-0.6833139825366992,-0.7955555555555556,-1.0911111111111111,-1.6,-0.17007383547842117,-0.05560763669288897,0.010107943082241135
1592333213.2377195,-0.19385717009512107,9.602337139588585,-0.47510857360760966,-0.7955555555555556,-1.0911111111111111,-1.6,-0.18548860719773644,-0.04711329185463068,0.0060114128470652416
1592333213.2477195,-0.33131392089691686,9.57153285580816,-0.3799271255060729,-0.797201944703969,-1.0948742863074847,-1.6044687705456937,-0.1790555075853622,-0.03425368323955026,0.005095854558293861
1592333213.2577195,-0.15,9.54,0.03,-0.8033333333333333,-1.1088888888888888,-1.6211111111111112,-0.1308996938995747,-0.019634954084936207,-0.004363323129985824
1592333213.2677195,-0.12182321892807436,9.395469656784222,-0.24856332554292168,-0.8033333333333333,-1.1088888888888888,-1.6211111111111112,-0.06028495038983388,0.005728372632600937,-0.010881180996598072
1592333213.2777195,-0.09922707863551312,9.490879911720961,0.10197380415487214,-0.8033333333333333,-1.1088888888888888,-1.6211111111111112,0.0269620942299178,0.02051047623435727,0.0009948473033860351
1592333213.2877195,-0.01,9.51,0.0,-0.8033333333333333,-1.1088888888888888,-1.6211111111111112,0.09926560120717749,0.031634092692397225,-0.001090830782496456
1592333213.2977195,-0.30365636285326175,9.697532717092404,-0.3291409071331544,-0.803536464602959,-1.1137640393599046,-1.6304551495138913,0.21435538652285502,0.06803035583001171,-0.009923188205666001
1592333213.3077195,-0.32,9.91,-0.37,-0.8044444444444444,-1.1355555555555557,-1.6722222222222223,0.26070855701665296,0.06981317007977318,-0.015271630954950384
1592333213.3177195,-0.49534363866222275,10.047143144466153,-0.670264337432479,-0.8044444444444444,-1.1355555555555557,-1.6722222222222223,0.1716816394628495,0.05077265044549861,0.007364549518892649
1592333213.3277194,-0.3,10.25,-0.52,-0.8044444444444444,-1.1355555555555557,-1.6722222222222223,0.08726646259971647,0.022907446432425576,0.006544984694978735
1592333213.3377194,-0.36357755261106783,9.788698363211223,-0.13065081839438816,-0.8044444444444444,-1.1355555555555557,-1.6722222222222223,0.012247402511193644,0.028742923498414997,-0.0023057935168592273
1592333213.3477194,-0.4459166592467278,9.625499955480366,-0.23,-0.8083888839422629,-1.143225299023536,-1.675070984081758,0.0042875642473976985,0.02054095261927215,0.0028573725216154604
1592333213.3577194,-0.47,9.77,-0.23,-0.8244444444444444,-1.1744444444444444,-1.6866666666666668,0.02617993877991494,0.01090830782496456,-0.0032724923474893677
1592333213.3677194,-0.3792238470191226,9.83562429696288,-0.12002249718785152,-0.8244444444444444,-1.1744444444444444,-1.6866666666666668,0.06198225663332506,0.02634681503010563,-0.012615108295664864
1592333213.3777194,-0.29,9.62,-0.41,-0.8244444444444444,-1.1744444444444444,-1.6866666666666668,0.07090400086226964,0.014180800172453926,-0.020725784867432664
1592333213.3877194,-0.5276184608491095,10.208729696426571,-0.6603170157947799,-0.8244444444444444,-1.1744444444444444,-1.6866666666666668,0.017020357215542608,0.0015583471456454914,-0.016345110110795723
1592333213.3977194,-0.20169404915912031,9.991420763260026,-0.4016940491591203,-0.8219186430932873,-1.1780752838867328,-1.6857194911599829,-0.020070086907423634,0.011057326881409094,0.003570530460378438
1592333213.4077194,0.09,10.0,-0.11,-0.8066666666666666,-1.2,-1.68,-0.05563236990731925,0.01854412330243975,0.01854412330243975
1592333213.4177194,0.010399904086961155,9.442160441199979,-0.45544013427825436,-0.8066666666666666,-1.2,-1.68,-0.08412483855865813,0.029085895244502266,-0.0023649295064439337
1592333213.4277194,-0.13936824783573015,9.481415182084854,-0.3970866423409888,-0.8066666666666666,-1.2,-1.68,-0.09644834359921033,0.033137233628998904,0.00013743671803507595
1592333213.4377193,-0.5057674675940562,9.916102592475498,-0.42865950047423335,-0.8066666666666666,-1.2,-1.68,-0.09753796389926854,0.023280684375630377,-0.0019180929827852242
1592333213.4477193,-0.22265644426025694,9.601601740571901,-0.5289059262329051,-0.8059635308744302,-1.2035156789611825,-1.6809375143896486,-0.10592563622712321,0.012570095622916059,-0.002241334032166361
1592333213.4577193,-0.20015483506699386,9.605798605832916,-0.35254598362613737,-0.8,-1.2333333333333334,-1.6888888888888889,-0.10829003534021396,-0.009977990178088767,-0.009221901296338417
1592333213.4677193,0.108524550725335,9.417969783722665,-0.3838251497582217,-0.8,-1.2333333333333334,-1.6888888888888889,-0.10835723109654169,-0.04019567229800596,-0.002090415657644771
1592333213.4777193,-0.21387832330681156,9.815817484960217,-0.46091257519891327,-0.8,-1.2333333333333334,-1.6888888888888889,-0.08778906855630257,-0.05636650558628252,-0.005064276638338509
1592333213.4877193,-0.24976878016583476,9.86336310383235,-0.4244666061631121,-0.8,-1.2333333333333334,-1.6888888888888889,-0.07126111620775422,-0.04659905264438926,-0.0024378882254250233
1592333213.4977193,-0.3494332443257677,9.97,-0.7933104138851803,-0.7995968699006083,-1.2350264797507788,-1.690501409286456,-0.049658797038124876,-0.050099061584918836,-0.018781586532194153
1592333213.5077193,-0.47,9.97,-0.58,-0.7944444444444444,-1.2566666666666666,-1.711111111111111,-0.07090400086226964,-0.04908738521234052,-0.02181661564992912
1592333213.5177193,-0.3388163159932877,9.726112043371629,-0.37611204337162774,-0.7944444444444444,-1.2566666666666666,-1.711111111111111,-0.17185731315231823,-0.06672217778115924,0.0017400912366194918
1592333213.5277193,-0.06836856485475987,9.675221455277537,-0.24428889847569746,-0.7944444444444444,-1.2566666666666666,-1.711111111111111,-0.1725190294558205,-0.07454771136431436,0.003508964508060752
1592333213.5377192,-0.3598156755890367,9.600947267190254,0.043468504568039745,-0.7944444444444444,-1.2566666666666666,-1.711111111111111,-0.07547800696916013,-0.04326694014914016,-0.0006091448062538311
1592333213.5477192,-0.0470091256991463,9.318682072416838,0.23523403002649396,-0.7963977038563438,-1.2622180355215384,-1.7144008111732574,-0.0053808110362025645,-0.03807815065351118,-0.007554252033626472
1592333213.5577192,-0.3178668182248745,9.650015155820782,-0.31839632471346024,-0.8155555555555556,-1.3166666666666667,-1.7466666666666666,0.10684861621767763,-0.032781030429037426,-0.014868962814438051
1592333213.5677192,-0.06,9.79,-0.09,-0.8155555555555556,-1.3166666666666667,-1.7466666666666666,0.14944381720201447,-0.020725784867432664,-0.007635815477475192
1592333213.5777192,-0.5254024035997039,10.155151791308311,-0.8529782992538589,-0.8155555555555556,-1.3166666666666667,-1.7466666666666666,0.1383930434099562,-0.014905742564102197,-0.00836075786912346
1592333213.5877192,-0.33,9.64,-0.4,-0.8155555555555556,-1.3166666666666667,-1.7466666666666666,0.1112647398146385,-0.011999138607461015,-0.00545415391248228
1592333213.5977192,-0.13419224962254656,9.254148842476095,-0.4943658782083543,-0.816196038136778,-1.319112145613152,-1.7458515070178382,0.05011158308782866,-0.008445566561613225,0.007635815477475192
1592333213.6077192,-0.21,9.51,0.15,-0.8277777777777777,-1.3633333333333333,-1.731111111111111,0.08835729338221293,0.016362461737446838,0.007635815477475192
1592333213.6177192,-0.12668876765981257,9.798005595188139,-0.4376388306056791,-0.8277777777777777,-1.3633333333333333,-1.731111111111111,0.1543695079263448,0.007481887642339869,0.013732352603597153
1592333213.6277192,-0.5683691396925428,9.677467774276712,-0.6366953117540343,-0.8277777777777777,-1.3633333333333333,-1.731111111111111,0.2174404983247803,0.00023174816108608928,-0.0063179235753528145
1592333213.6377192,-0.37827784363760575,9.846435130301996,-0.5681572866643895,-0.8277777777777777,-1.3633333333333333,-1.731111111111111,0.1988035977802427,-0.02232633777972352,-0.006030878989936704
1592333213.6477191,-0.23357402612515638,9.967800599307596,-0.8334017979227882,-0.8270446442136431,-1.3647996004616025,-1.7317526029797288,0.140210964273681,-0.035686316582840015,-0.009116512031448358
1592333213.6577191,-0.4127357614158786,9.865660417808057,-0.5614623281960887,-0.8011111111111111,-1.4166666666666667,-1.7544444444444445,-0.015359066832683184,-0.06437445061346424,-0.022022434249489742
1592333213.6677191,-0.62,9.77,-0.41,-0.8011111111111111,-1.4166666666666667,-1.7544444444444445,-0.10144726277217041,-0.06872233929727672,-0.01854412330243975
1592333213.677719,-0.04688380184459049,9.503172529960787,-0.10439084332026288,-0.8011111111111111,-1.4166666666666667,-1.7544444444444445,-0.11911679967791869,-0.07022722431118081,-0.007230978516168726
1592333213.687719,0.03299285868859554,9.326983336940057,-0.06084830123349924,-0.8011111111111111,-1.4166666666666667,-1.7544444444444445,-0.03632907936910616,-0.03746358115241669,0.015957147637999443
1592333213.697719,0.20627353386712832,9.731304912356633,-0.27538628002596843,-0.8011111111111111,-1.4166666666666667,-1.7544444444444445,0.07078219417891796,-0.005060170667300155,0.01955752658079017
1592333213.707719,-0.13,9.84,-0.31,-0.7944444444444444,-1.4555555555555555,-1.7455555555555555,0.1679879405044542,0.031634092692397225,-0.014180800172453926
1592333213.717719,-0.2452464860758014,10.122790684082872,-0.5133488208994477,-0.7944444444444444,-1.4555555555555555,-1.7455555555555555,0.17968266270173314,0.043487111422970834,0.002011188375290944
1592333213.727719,-0.71,10.37,-0.81,-0.7944444444444444,-1.4555555555555555,-1.7455555555555555,0.15271630954950383,0.030543261909900768,-0.01308996938995747
1592333213.737719,-0.7061922299766412,10.171995958785342,-0.6843435892291598,-0.7944444444444444,-1.4555555555555555,-1.7455555555555555,0.0517830336237312,0.001883195906286314,-0.01101315301288396
1592333213.747719,-0.7001815680486092,9.85944153852768,-0.48599174560410424,-0.7944444444444444,-1.4555555555555555,-1.7455555555555555,-0.10754271219519473,-0.043357447968223536,-0.007734845485745568
1592333213.757719,-0.16,9.62,-0.32,-0.7944444444444444,-1.5144444444444445,-1.711111111111111,-0.1778054175469223,-0.07308566242726255,-0.002181661564992912
1592333213.767719,-0.8451373422420193,9.505937002863506,-0.08066841658712483,-0.7944444444444444,-1.5144444444444445,-1.711111111111111,-0.16921028066143395,-0.0842127090688572,-0.011197096279817331
1592333213.777719,0.17923594016284797,9.27382029918576,-0.12673641355803825,-0.7944444444444444,-1.5144444444444445,-1.711111111111111,-0.07713068026737391,-0.08413029828033687,0.0006969254043065788
1592333213.787719,-0.01585290020391268,9.793983969635178,-0.3173983969635178,-0.7944444444444444,-1.5144444444444445,-1.711111111111111,0.02260586082471512,-0.06919235828659734,0.0010997281525501304
1592333213.797719,-0.5747428882921806,9.624623367184187,-0.30046233671841877,-0.7944444444444444,-1.5144444444444445,-1.711111111111111,0.0632494876937658,-0.07935326500386002,-0.020145804074453637
1592333213.807719,-0.4,9.95,-0.78,-0.7822222222222223,-1.5655555555555556,-1.7044444444444444,0.039269908169872414,-0.06981317007977318,-0.011999138607461015
1592333213.817719,0.0954243279793115,9.513261761844884,-0.21805214833092124,-0.7822222222222223,-1.5655555555555556,-1.7044444444444444,0.006269488391871313,-0.056757776834573954,-0.0073430311019886466
1592333213.827719,-0.4155180667668254,9.722766163326627,-0.28729087621909294,-0.7822222222222223,-1.5655555555555556,-1.7044444444444444,-0.006546540207286031,-0.03579781026095045,-0.003274047859796663
1592333213.837719,0.03,9.45,-0.16,-0.7822222222222223,-1.5655555555555556,-1.7044444444444444,0.004363323129985824,-0.044724062082354694,0.007635815477475192
1592333213.847719,0.020374403216349778,9.815772677778709,-0.4391423067258565,-0.7822222222222223,-1.5655555555555556,-1.7044444444444444,0.04426293276170308,-0.04262408262805379,-0.0007641023397284407
1592333213.857719,-0.23,9.63,-0.18,-0.7833333333333333,-1.6122222222222222,-1.6622222222222223,0.061086523819801536,-0.032724923474893676,-0.004363323129985824
1592333213.867719,-0.11116991790512895,10.034735369426919,-0.013802233191669087,-0.7833333333333333,-1.6122222222222222,-1.6622222222222223,0.09106538021356807,-0.022875541870827864,-0.006672602941369578
1592333213.877719,-0.23293985109717869,9.727459835423197,-0.2790399686520376,-0.7833333333333333,-1.6122222222222222,-1.6622222222222223,0.12308499414213293,-0.01912336000468525,-0.016257738562794947
1592333213.887719,-0.57,10.1,-0.35,-0.7833333333333333,-1.6122222222222222,-1.6622222222222223,0.09599310885968812,-0.006544984694978735,-0.02399827721492203
1592333213.897719,-0.09619189704137765,9.64441528561671,-0.10398425423302299,-0.7833333333333333,-1.6122222222222222,-1.6622222222222223,0.07015088567451234,-0.0025692580511055404,-0.009089302300397546
1592333213.907719,-0.0019649703074494473,9.833823197774938,-0.10080733669097196,-0.7566666666666667,-1.6577777777777778,-1.6244444444444444,0.06210093166842693,0.0033223476519889427,0.0069927804480579775
1592333213.917719,-0.02,9.41,-0.2,-0.7566666666666667,-1.6577777777777778,-1.6244444444444444,0.10144726277217041,0.03381575425739013,0.001090830782496456
1592333213.9277189,-0.06169193341869399,9.553281946222793,-0.3747177976952625,-0.7566666666666667,-1.6577777777777778,-1.6244444444444444,0.13609090312177174,0.046195272961272515,-0.007926694374738587
1592333213.9377189,-0.5902384788913955,9.69660731550113,-0.5955357718337093,-0.7566666666666667,-1.6577777777777778,-1.6244444444444444,0.1760295657739192,0.06370972050010722,-0.02092383410755156
1592333213.9477189,-0.2523155011279407,9.544541975507572,-0.5448473251691911,-0.7566666666666667,-1.6577777777777778,-1.6244444444444444,0.18063727560213474,0.05633738477496238,-0.010786872485477413
1592333213.9577188,-0.4,10.0,-0.4,-0.7655555555555555,-1.7255555555555555,-1.558888888888889,0.17998707911191522,0.0370882466048795,-0.002181661564992912
1592333213.9677188,-0.5383381619185579,10.009881297279897,-0.5284568646386609,-0.7655555555555555,-1.7255555555555555,-1.558888888888889,0.13579390381188366,0.029543070334142406,-0.009726837835730006
1592333213.9777188,-0.3245417455923066,9.923276992568846,-0.8054582544076934,-0.7655555555555555,-1.7255555555555555,-1.558888888888889,0.0435159308310425,0.019476328247703005,5.976284048064525e-05
1592333213.9877188,-0.51,9.71,-0.62,-0.7655555555555555,-1.7255555555555555,-1.558888888888889,-0.04145156973486533,0.017453292519943295,-0.01308996938995747
1592333213.9977188,-0.016922677400506403,9.723889502045056,-0.41165746932415764,-0.7655555555555555,-1.7255555555555555,-1.558888888888889,-0.0679659884073811,0.03487705336188224,-0.003241756740165894
1592333214.0077188,-0.56,9.65,-0.72,-0.7466666666666667,-1.731111111111111,-1.5177777777777777,-0.11344640137963141,0.05781403147231216,-0.006544984694978735
1592333214.0177188,0.3184533615752726,9.428254491252844,-0.3191523495724484,-0.7466666666666667,-1.731111111111111,-1.5177777777777777,-0.09856105819060157,0.09130605364762934,0.012992028240622944
1592333214.0277188,-0.20715466156715537,10.024796609769341,-0.7170720305970678,-0.7466666666666667,-1.731111111111111,-1.5177777777777777,-0.08049984535960554,0.10739806828038523,-0.0005676018236943572
1592333214.0377188,-0.2836800268255158,9.949538246084657,-0.15171643851828476,-0.7466666666666667,-1.731111111111111,-1.5177777777777777,-0.1268731861285616,0.11257282016143468,-0.007014081951675011
1592333214.0477188,0.18788709613791477,9.941265138664246,-1.0783044696043236,-0.7466666666666667,-1.731111111111111,-1.5177777777777777,-0.1719959873339828,0.07737703522120615,0.023669422868011387
1592333214.0577188,-0.59,9.94,0.21,-0.78,-1.7466666666666666,-1.5055555555555555,-0.25416357232167425,0.06654067773228381,0.0032724923474893677
1592333214.0677187,-0.04405213270142183,9.828959755803679,-0.752348783034782,-0.78,-1.7466666666666666,-1.5055555555555555,-0.2945389444767643,0.012033925322912142,0.007310029562998381
1592333214.0777187,-0.5229730624600903,9.725168980441312,-0.03692571482628953,-0.78,-1.7466666666666666,-1.5055555555555555,-0.354125702637397,-0.006268581388598701,0.007013017995739106
1592333214.0877187,-0.362800616954381,9.608600976844436,0.03539953728421427,-0.78,-1.7466666666666666,-1.5055555555555555,-0.3201589748695494,-0.024423664766317348,-0.006577706814316837
1592333214.0977187,-0.16374740463902238,9.293433390678452,0.1846894465207332,-0.78,-1.7466666666666666,-1.5055555555555555,-0.2749228558386337,-0.03618505571435546,-0.007482429194935154
1592333214.1077187,0.24,9.59,0.33,-0.7688888888888888,-1.761111111111111,-1.471111111111111,-0.19853120241435498,-0.030543261909900768,-0.00545415391248228
1592333214.1177187,-0.05012768007708984,9.920423191198909,-0.024600497871998694,-0.7688888888888888,-1.761111111111111,-1.471111111111111,-0.15193828345056112,-0.01999392176715499,-0.003695930555357983
1592333214.1277187,-0.5105561355224447,9.806734364619912,0.1662048021258423,-0.7688888888888888,-1.761111111111111,-1.471111111111111,-0.13190387522160335,0.014411865400368143,0.010019659116893042
1592333214.1377187,0.5476759242451746,9.438955850023193,-0.2571706903854299,-0.7688888888888888,-1.761111111111111,-1.471111111111111,-0.12209221602477295,0.040551795496512784,0.03266613684592632
1592333214.1477187,-0.036028922369456096,9.176711643573144,0.453426514188903,-0.7688888888888888,-1.761111111111111,-1.471111111111111,-0.10179089613962593,0.0885367334068603,0.017901540565819392
1592333214.1577187,-0.2,9.74,0.3,-0.76,-1.7666666666666666,-1.441111111111111,-0.05781403147231216,0.13199052468207118,-0.007635815477475192
1592333214.1677186,-0.6004877157360407,9.1264869035533,1.0498493401015228,-0.76,-1.7666666666666666,-1.441111111111111,0.03327682847871595,0.106894063266992,-0.017860299757692634
1592333214.1777186,0.018902820499452577,9.479268546999636,0.001876335957457842,-0.76,-1.7666666666666666,-1.441111111111111,0.17106616362963983,0.0665979177709983,-0.03270410891536113
1592333214.1877186,-0.7691897435897437,9.889579487179487,0.7192615384615385,-0.76,-1.7666666666666666,-1.441111111111111,0.2420917116620468,0.0196830625194463,-3.3564024076816745e-05
1592333214.1977186,-0.5830559884036963,10.023531436854503,-0.021099474542489505,-0.76,-1.7666666666666666,-1.441111111111111,0.29096060130109075,-0.0036706781953635068,-0.004369806052556196
1592333214.2077186,0.11,9.32,-1.04,-0.7944444444444444,-1.7522222222222221,-1.3733333333333333,0.3272492347489368,-0.039269908169872414,-0.001090830782496456
1592333214.2177186,0.011371038908945044,9.851079021259526,-0.8579157641395909,-0.7944444444444444,-1.7522222222222221,-1.3733333333333333,0.2817314434088811,-0.04837346643788355,0.006357535073149021
1592333214.2277186,-0.07901927499726207,9.941307633336983,-0.6524518125068448,-0.7944444444444444,-1.7522222222222221,-1.3733333333333333,0.18463248790449768,-0.039466039090599994,0.01301864905514744
1592333214.2377186,0.3448519607140297,10.443894185963151,-0.7784436160298229,-0.7944444444444444,-1.7522222222222221,-1.3733333333333333,0.10889336174822355,-0.03172551008323086,-0.007387682559498185
1592333214.2477186,0.26160154356299326,10.064261281002153,-0.78,-0.7944444444444444,-1.7522222222222221,-1.3733333333333333,0.0045515622490968355,-0.015855005116762126,0.0028835762396148736
1592333214.2577186,-0.6351735435017771,9.891332715190853,0.25250811312007415,-0.7780554267758718,-1.759870430467556,-1.3438331015299025,-0.07650403716683543,-0.022725725588115395,-0.002054456973975786
1592333214.2677186,-0.11116783505154648,9.89,-0.4389896907216495,-0.7777777777777778,-1.76,-1.3433333333333333,-0.11302482339639197,-0.023680834211537393,-0.012235702693446534
1592333214.2777185,-0.07109723778038853,9.766091363623945,-0.42499412584355617,-0.7777777777777778,-1.76,-1.3433333333333333,-0.1733747985532476,-0.030236585896898704,-0.00700499871448183
1592333214.2877185,0.23398391674550612,9.87417596972564,-0.32436802270577103,-0.7777777777777778,-1.76,-1.3433333333333333,-0.20364675502150417,-0.05026315012293485,0.004871792691514683
1592333214.2977185,-0.11930290734320825,9.840712456665617,-0.08427473999369683,-0.7777777777777778,-1.76,-1.3433333333333333,-0.22136149053170126,-0.05726889540662674,0.01573960870555653
1592333214.3077185,0.15,9.62,0.11,-0.7766666666666666,-1.7522222222222221,-1.298888888888889,-0.13526301702956053,-0.061086523819801536,0.01090830782496456
1592333214.3177185,-0.15350496695294255,9.567216527486444,0.1165979340641944,-0.7766666666666666,-1.7522222222222221,-1.298888888888889,-0.13526301702956053,-0.061086523819801536,0.01090830782496456
1592333214.3277185,0.509739429695182,9.269968187865116,0.1007120134189369,-0.7766666666666666,-1.7522222222222221,-1.298888888888889,-0.056363281423302256,-0.055826541446050974,0.01406429724921489
1592333214.3377185,-0.21503651978489435,9.652618990288145,0.3189605907376194,-0.7766666666666666,-1.7522222222222221,-1.298888888888889,0.033029084815161175,-0.04410173081965425,0.0018265440070985677
1592333214.3477185,-0.24395831987771535,9.82629464574049,0.011927059786001837,-0.7766666666666666,-1.7522222222222221,-1.298888888888889,0.19911883116501972,-0.014269266222480068,-0.010598265671408655
1592333214.3577185,-0.2549570886038097,9.98991417720762,-0.20306599683023832,-0.7943648681425662,-1.7272365260209523,-1.2811906874129895,0.2757551782309359,0.0026536340117481296,-0.010023763154381849
1592333214.3677185,-0.05511151223425592,10.039655836341757,-0.3554047332531087,-0.7955555555555556,-1.7255555555555555,-1.28,0.2781618495365963,0.0032724923474893677,-0.009817477042468103
1592333214.3777184,-0.12994734296921173,10.149973671484606,-0.4839842028907635,-0.7955555555555556,-1.7255555555555555,-1.28,0.2516624159097957,-0.016356717746436968,-0.008836016537771788
1592333214.3877184,-0.4711316813139317,10.031547327474428,-0.8845332084714018,-0.7955555555555556,-1.7255555555555555,-1.28,0.08657041166531557,-0.06358273628684986,0.01729566346435419
1592333214.3977184,0.2824513227200094,10.035193229567378,-0.47179972776232465,-0.7955555555555556,-1.7255555555555555,-1.28,0.020617779902106483,-0.08503341313729401,0.013005657085883353
1592333214.4077184,-0.5176504214707878,10.126503245809515,-0.33961147175661277,-0.7774005533486203,-1.6935173163668464,-1.2500976434238715,-0.06064051026470659,-0.1010234442044143,-0.020545159946660792
1592333214.4177184,-0.7744974814104102,9.915502518589589,-0.22083473254977215,-0.7766666666666666,-1.6922222222222223,-1.248888888888889,-0.10356481938592521,-0.1339445482569533,-0.012067430004494254
1592333214.4277184,-0.17990257403819532,9.814053418212012,-0.3866991419872682,-0.7766666666666666,-1.6922222222222223,-1.248888888888889,-0.1539660097363041,-0.1675219598153579,-0.018909504817241084
1592333214.4377184,-0.7326606027501367,9.864702781010283,-0.12496164533213011,-0.7766666666666666,-1.6922222222222223,-1.248888888888889,-0.17268384694803848,-0.14567244988412742,-0.015849467908511154
1592333214.4477184,-0.3381986013986014,9.712732867132868,-0.00013306693306694428,-0.7766666666666666,-1.6922222222222223,-1.248888888888889,-0.1761667521480656,-0.14289883250703572,-0.005468669263154461
1592333214.4577184,0.040791617810649106,9.88079161781065,-0.12013830011124141,-0.8002177725664692,-1.6932035183013807,-1.2243564869099277,-0.16226380917092292,-0.09472957386202596,-0.007961972602394084
1592333214.4677184,-0.14817703139335434,9.685762495512385,0.20544696637281107,-0.8033333333333333,-1.6933333333333334,-1.221111111111111,-0.1663019805739182,-0.07447429710602155,0.0025119697731356607
1592333214.4777184,0.5888884582375902,9.25591484178179,0.5542872567204673,-0.8033333333333333,-1.6933333333333334,-1.221111111111111,-0.0985078088751495,-0.027682145131171038,0.013691087485403111
1592333214.4877183,0.37321220404389593,9.56639506371347,0.5177139526470234,-0.8033333333333333,-1.6933333333333334,-1.221111111111111,-0.009598802237937423,0.019156035653998944,0.0006349330598765402
1592333214.4977183,-0.2857974351932055,9.49654046859485,0.5111216276170959,-0.8033333333333333,-1.6933333333333334,-1.221111111111111,0.10645331253459117,0.0690997156322519,0.001903059884778271
1592333214.5077183,-0.05953908844981676,9.791763517446839,0.13736807862205935,-0.7980190010919731,-1.6731388708161643,-1.198790915697398,0.2282262811041021,0.1287209458982922,-0.011241313215710574
1592333214.5177183,-0.4806415179579851,9.803114976281908,0.07180483397334539,-0.7977777777777778,-1.6722222222222223,-1.1977777777777778,0.2466167087105829,0.1616923167202246,-0.0029866636355634826
1592333214.5277183,-0.5015018555451768,10.063497260861881,0.1264992047663528,-0.7977777777777778,-1.6722222222222223,-1.1977777777777778,0.21969366658092288,0.18953170388120227,-0.0053995449038308834
1592333214.5377183,-0.7350967956483527,10.36654528611131,0.09724245231478182,-0.7977777777777778,-1.6722222222222223,-1.1977777777777778,0.12518445989102284,0.21344119235096046,-0.020537359454707558
1592333214.5477183,-0.703879804629433,10.126279271800614,0.027719840151354272,-0.7977777777777778,-1.6722222222222223,-1.1977777777777778,0.016571661007574054,0.20424275945536202,-0.016868591721163124
1592333214.5577183,-0.1071629669734705,10.008277015191567,-0.041385075957833056,-0.7950187727139222,-1.6602665336121816,-1.1683483904299854,-0.10544563232496826,0.18318220338549715,-0.014180800172453926
1592333214.5677183,-0.8816494270240115,9.636356430580415,0.5614167499593221,-0.7944444444444444,-1.6577777777777778,-1.1622222222222223,-0.10827820989398708,0.14941843607156005,-0.007696542557833134
1592333214.5777183,-0.38952058534454514,9.957190127771105,-0.019198427432565168,-0.7944444444444444,-1.6577777777777778,-1.1622222222222223,-0.14889119472740475,0.14821325239004673,-0.013302727255802036
1592333214.5877182,-0.7006732267109772,10.308024976633087,-0.055844843701318925,-0.7944444444444444,-1.6577777777777778,-1.1622222222222223,-0.2599289794873405,0.1440718522741309,-0.022434250858795114
1592333214.5977182,-0.49507285730676565,10.051773434810878,-0.4957410027919073,-0.7944444444444444,-1.6577777777777778,-1.1622222222222223,-0.40642159693807967,0.13412779706465017,0.005238507593029795
1592333214.6077182,-0.593862763915547,9.299191458733205,0.4377687140115163,-0.8123088611644274,-1.6267501066325443,-1.1490589677969716,-0.47627404521324085,0.12796272100102019,0.0224041672590233
1592333214.6177182,-0.36954266967073796,9.450251393335705,0.4305723546385233,-0.8155555555555556,-1.6211111111111112,-1.1466666666666667,-0.4210058365258117,0.11204107122057742,0.02513403647978385
1592333214.6277182,0.056855038176147996,8.913397677169588,0.7602925045703839,-0.8155555555555556,-1.6211111111111112,-1.1466666666666667,-0.2590462102031507,0.09968409124014405,0.01773688036989331
1592333214.6377182,-0.33964159407562133,9.73583038617645,0.5906225819467851,-0.8155555555555556,-1.6211111111111112,-1.1466666666666667,-0.07761463876620173,0.07904200603040731,-0.006042795004316249
1592333214.6477182,-0.04994499753573184,9.741347067520946,0.46619931000492854,-0.8155555555555556,-1.6211111111111112,-1.1466666666666667,-0.013932269243852421,0.06757415522356452,-0.011641900934541722
1592333214.6577182,-0.29492804295570196,9.64581556519839,0.7088646083726158,-0.8137982705335124,-1.6211111111111112,-1.1545744492658614,0.0457180792066038,0.06953464777558567,-0.030976454504541836
1592333214.6677182,-0.20958383353341337,9.439563025210084,0.509438175270108,-0.8133333333333334,-1.6211111111111112,-1.1566666666666667,0.08404844631531457,0.07254365178995728,-0.03982326798698756
1592333214.6777182,-0.3517275362318841,9.431929907773386,0.30989881422924903,-0.8133333333333334,-1.6211111111111112,-1.1566666666666667,0.2550446876525476,0.061468530172881314,-0.022453292905062098
1592333214.6877182,-0.250663521787816,9.808938365139495,-0.18030138422319114,-0.8133333333333334,-1.6211111111111112,-1.1566666666666667,0.372375916383919,0.038679103219583136,-0.010274075475214875
1592333214.6977181,-0.5280131060056112,9.778475543958093,-0.054149777315623204,-0.8133333333333334,-1.6211111111111112,-1.1566666666666667,0.3858833422267366,0.006622437982307397,-0.004432964742853321
1592333214.7077181,-0.3760211022263512,10.092575732439697,-0.34117256710574334,-0.8124333919506287,-1.6067120489878377,-1.1449674286915072,0.3307541968570677,-0.04916103863954051,0.014605130777118596
1592333214.7177181,-0.2631258789023263,10.05554984129535,-0.3385961669813974,-0.8122222222222222,-1.6033333333333333,-1.1422222222222222,0.30896952472588957,-0.0659439618697064,0.007985473880093083
1592333214.727718,-0.3259967619502614,9.962998380975131,-0.5152766940042998,-0.8122222222222222,-1.6033333333333333,-1.1422222222222222,0.2870602400490766,-0.08656483579336197,-0.003537433624412293
1592333214.737718,0.06704993725285918,10.236229962351716,-0.8662299623517155,-0.8122222222222222,-1.6033333333333333,-1.1422222222222222,0.21246965027387438,-0.09307989613203457,-0.019365119851404596
1592333214.747718,-0.5274972165700464,10.160261450454946,-0.7653050255307713,-0.8122222222222222,-1.6033333333333333,-1.1422222222222222,0.06539816786253735,-0.10333958007961858,-0.03012350543380133
1592333214.757718,-0.6214903489833403,10.048393000998937,-0.5591673379950376,-0.7954167785547285,-1.6017328148888101,-1.110211853331758,-0.13582707985193415,-0.16329311139342484,-0.016531395863721387
1592333214.767718,-0.40807116046778547,10.036965598535843,-0.6262040512454633,-0.7888888888888889,-1.6011111111111112,-1.0977777777777777,-0.2174505874774389,-0.20487251708793452,-0.012796493713666509
1592333214.777718,-0.4546224332820547,9.86706775466524,-0.8504481305598287,-0.7888888888888889,-1.6011111111111112,-1.0977777777777777,-0.34177645085044517,-0.3031685852543386,-0.01892402805024652
1592333214.787718,-0.2522794846382557,9.802864222001983,-0.6189791873141725,-0.7888888888888889,-1.6011111111111112,-1.0977777777777777,-0.3626217742657867,-0.4070074517743838,-0.006904991286228804
1592333214.797718,-0.11178745015573233,9.644412284008174,-0.36530600908603966,-0.7888888888888889,-1.6011111111111112,-1.0977777777777777,-0.35759137020234294,-0.4406042917372551,0.00020112645649457547
1592333214.807718,-0.13732848371596368,9.6367688868126,0.023970902295782137,-0.7801243548674142,-1.5914701236874889,-1.122318473037907,-0.3340994322079049,-0.40054561592285814,0.01078622271936882
1592333214.817718,-0.28638741220752006,9.679483916029646,0.23151643320010865,-0.7777777777777778,-1.5888888888888888,-1.1288888888888888,-0.3262146999945619,-0.35804929966832133,0.012027286621521787
1592333214.827718,0.07071367219078412,9.750797039207761,0.2466357619240097,-0.7777777777777778,-1.5888888888888888,-1.1288888888888888,-0.33505893720694835,-0.27312218596868576,0.012491478511464696
1592333214.837718,0.08183416125334353,9.5844105846389,0.6231438670233092,-0.7777777777777778,-1.5888888888888888,-1.1288888888888888,-0.3457266660662029,-0.1623766436019065,0.009850823035054926
1592333214.847718,0.10411501523508312,9.495967138504263,0.9442382458441008,-0.7777777777777778,-1.5888888888888888,-1.1288888888888888,-0.2994758171609735,-0.05749549558870508,0.015280592537727865
1592333214.857718,-0.023589283999615906,9.507198412444387,0.8628115097781903,-0.7868439152592402,-1.5888888888888888,-1.1130231482963295,-0.18714760478232567,0.06025346609581966,0.015184624255530316
1592333214.867718,-0.19620663529787066,9.478493101523247,0.7125289098014196,-0.7911111111111111,-1.5888888888888888,-1.1055555555555556,-0.11670506151606591,0.11083141752995752,0.009955407675345376
1592333214.877718,-0.2724017845072326,9.416899553873192,0.34117912667297545,-0.7911111111111111,-1.5888888888888888,-1.1055555555555556,0.02938571599343088,0.17511882092727646,0.001805349277474397
1592333214.887718,-0.23400272262122707,9.507014974416748,0.10097685771957003,-0.7911111111111111,-1.5888888888888888,-1.1055555555555556,0.13680384175265592,0.21206225598778072,-0.012656310004098085
1592333214.897718,-0.3215176076020123,9.76126207777689,-0.12468058771859776,-0.7911111111111111,-1.5888888888888888,-1.1055555555555556,0.18341117977825272,0.22443494925115717,-0.02870662795246742
1592333214.907718,-0.4006551577292233,9.940655157729223,-0.21557473711796116,-0.7895810994274649,-1.5934789239398275,-1.1407458242794175,0.1704743000116736,0.18824983552950575,-0.038250544009218686
1592333214.917718,-0.4346088193456614,9.947265686739371,-0.19453137347874191,-0.7888888888888889,-1.5955555555555556,-1.1566666666666667,0.14524273079817518,0.14560944441827475,-0.03539243317408526
1592333214.927718,-0.5129947866383472,9.823046920254875,-0.19299478663834718,-0.7888888888888889,-1.5955555555555556,-1.1566666666666667,0.07964202091298367,0.0037383965164181493,-0.01587528436731471
1592333214.937718,-0.4783957701062216,9.73919788505311,-0.2,-0.7888888888888889,-1.5955555555555556,-1.1566666666666667,0.05528238123725234,-0.0942391566234638,-0.002588059139095881
1592333214.947718,-0.3588795127678309,9.75661065453478,-0.26386557088347523,-0.7888888888888889,-1.5955555555555556,-1.1566666666666667,0.05126904677733343,-0.14553578065045833,0.001090830782496456
1592333214.957718,-0.2579100033087019,9.77395500165435,-0.3744049851108415,-0.7848588899917895,-1.586152224795657,-1.1398750045954193,0.04401556947420188,-0.16469090536666714,-0.0008873903001757868
1592333214.967718,-0.20951221418800078,9.793440297049052,-0.4760590189564198,-0.7822222222222223,-1.58,-1.1288888888888888,0.03462092679315115,-0.15602521266456215,-0.0019492124961568488
1592333214.9777179,-0.14894520667657085,9.822820938565062,-0.6755273966617146,-0.7822222222222223,-1.58,-1.1288888888888888,-0.0178912263322992,-0.09179479735991303,-0.005249009470995574
1592333214.9877179,-0.2205637608908354,9.776290826072776,-0.5540357825094349,-0.7822222222222223,-1.58,-1.1288888888888888,-0.05163802741754795,-0.04778619480589807,-0.009131254369716525
1592333214.9977179,-0.20156639273788815,9.747253114190311,-0.3450850778797513,-0.7822222222222223,-1.58,-1.1288888888888888,-0.06835955785234712,-0.030114851332055097,-0.007336176717753993
1592333215.0077178,-0.22752500656148844,9.771584380741302,-0.1546531159779534,-0.7743013877953074,-1.5760395827865425,-1.1368097233158037,-0.08283837228670411,-0.015573994449384164,-0.0035100886588966184
1592333215.0177178,-0.2870290082226134,9.732427479443466,-0.0018839671095464139,-0.7688888888888888,-1.5733333333333333,-1.1422222222222222,-0.08800356445445588,-0.007606171478249865,-0.001444559710253499
1592333215.0277178,-0.2316240341699861,9.686324806833996,0.002136823918990255,-0.7688888888888888,-1.5733333333333333,-1.1422222222222222,-0.07791516821877023,-0.006544984694978735,0.0011467674668126945
1592333215.0377178,-0.22074177342980075,9.686913924476599,-0.026913924476600244,-0.7688888888888888,-1.5733333333333333,-1.1422222222222222,-0.05498505047462757,0.0017511291166456338,0.0029358537296860364
1592333215.0477178,-0.22312154143609575,9.710635375691712,-0.04834255617041136,-0.7688888888888888,-1.5733333333333333,-1.1422222222222222,-0.04290399866727661,0.008455447647535532,0.0032724923474893677
1592333215.0577178,-0.22132978271339132,9.764002662964955,-0.14199467407008698,-0.7765913104242802,-1.5768882971188984,-1.1422222222222222,-0.028870751538211108,0.024360919194371757,-0.000217585187669836
1592333215.0677178,-0.30310813246226626,9.755737102951114,-0.17,-0.7833333333333333,-1.58,-1.1422222222222222,-0.030239062895336143,0.028200789427118785,-0.006401596598203182
1592333215.0777178,-0.35,9.782384286269934,-0.2931135744846364,-0.7833333333333333,-1.58,-1.1422222222222222,-0.03529671296851572,0.021776839148233654,-0.011168393110717312
1592333215.0877178,-0.38982069953443954,9.777245314551749,-0.3274246150173093,-0.7833333333333333,-1.58,-1.1422222222222222,-0.04624606857059333,0.008145225770077095,-0.014331044956606299
1592333215.0977178,-0.42,9.750632965998667,-0.219114278991333,-0.7833333333333333,-1.58,-1.1422222222222222,-0.05644701717156805,-0.012192372955652574,-0.015782523406417653
1592333215.1077178,-0.3389666686904256,9.744501851739422,-0.05996296521158398,-0.7888355965704033,-1.58,-1.12871666700396,-0.058140068746444284,-0.042003044929197667,-0.01734461342856592
1592333215.1177177,-0.17939370819663794,9.725757483278656,0.019696854098318964,-0.7955555555555556,-1.58,-1.1122222222222222,-0.0525582028634607,-0.06462347764714997,-0.01589967495395695
1592333215.1277177,-0.18591509831634803,9.644407002405217,0.0721522973542612,-0.7955555555555556,-1.58,-1.1122222222222222,-0.045544977905925016,-0.05189031911840712,-0.017042834608158135
1592333215.1377177,-0.19571984744954712,9.574299618623867,0.16712061020181151,-0.7955555555555556,-1.58,-1.1122222222222222,-0.030859478031777323,-0.03636385730882791,-0.01854412330243975
1592333215.1477177,-0.19353493709622577,9.624465317919077,0.06944151649098945,-0.7955555555555556,-1.58,-1.1122222222222222,0.0350385343941447,-0.012562311062195138,-0.02223773159677608
1592333215.1577177,-0.289132819242226,9.790173436151555,-0.2103468723031096,-0.7933718747003455,-1.5827296010690126,-1.1204110254292599,0.05901837595055684,-0.013607006357268645,-0.0218922914470946
1592333215.1677177,-0.31758321890241015,9.75758321890241,-0.11154126615843553,-0.7911111111111111,-1.5855555555555556,-1.1288888888888888,0.047469294586682746,-0.01466030808330699,-0.009506095188579193
1592333215.1777177,-0.25711022430163755,9.707832668226228,-0.05,-0.7911111111111111,-1.5855555555555556,-1.1288888888888888,0.04772696146364568,-0.014765618767280705,-0.0009332179681822575
1592333215.1877177,-0.2831629462662692,9.716845051988656,-0.0973722096997019,-0.7911111111111111,-1.5855555555555556,-1.1288888888888888,0.060455724924055564,-0.015271630954950384,0.001090830782496456
1592333215.1977177,-0.32284664126959817,9.754288339682601,-0.17430671746080365,-0.7911111111111111,-1.5855555555555556,-1.1288888888888888,0.07293240693570022,-0.018078342713899378,-0.002183666269610705
1592333215.2077177,-0.3,9.77843892780993,-0.2753167834297898,-0.7972574203810877,-1.5855555555555556,-1.1309376586455477,0.07451706632948452,-0.0203080843960815,-0.006042140943696197
1592333215.2177176,-0.3104142596533901,9.791321450288843,-0.378185618729097,-0.8044444444444444,-1.5855555555555556,-1.1333333333333333,0.06773046766185457,-0.019869479386569775,-0.005832827079376573
1592333215.2277176,-0.3654389271865575,9.826144980611806,-0.5871946359327876,-0.8044444444444444,-1.5855555555555556,-1.1333333333333333,0.04713472291437535,-0.036265952417966374,-0.008822405317245948
1592333215.2377176,-0.36432091805919065,9.872962754177573,-0.5901232132071673,-0.8044444444444444,-1.5855555555555556,-1.1333333333333333,0.03322314346949232,-0.04611791849675947,-0.009507731172600377
1592333215.2477176,-0.31638738619870693,9.733699696529884,-0.274885868848133,-0.8044444444444444,-1.5855555555555556,-1.1333333333333333,-0.005636942551322563,-0.056521413546781,-0.0056559410555169845
1592333215.2577176,-0.3210026709237712,9.705752003192828,-0.04,-0.8044444444444444,-1.591973038337819,-1.1455848913722,-0.011780389745788253,-0.05489554926210736,-0.0032724923474893677
1592333215.2677176,-0.3410889379642642,9.721088937964264,-0.03564424814294319,-0.8044444444444444,-1.5977777777777777,-1.1566666666666667,-0.006329183720661931,-0.052100539713487326,-0.00279735352683
1592333215.2777176,-0.3130841121495327,9.714178905206943,0.0,-0.8044444444444444,-1.5977777777777777,-1.1566666666666667,0.012417120496081152,-0.06293176093785628,0.003967186984673359
1592333215.2877176,-0.2775901826836883,9.701204908658156,-0.009036814936168897,-0.8044444444444444,-1.5977777777777777,-1.1566666666666667,0.020883587966628467,-0.06581778443235671,0.00647926712225809
1592333215.2977176,-0.22054637834713928,9.73667453284531,-0.16111635523020612,-0.8044444444444444,-1.5977777777777777,-1.1566666666666667,0.04217964832351002,-0.04817535632582878,0.00545415391248228
1592333215.3077176,-0.17,9.758380398420783,-0.19,-0.7948357326314591,-1.5957759628167392,-1.153463762729005,0.04690572364734761,-0.018270207444576504,0.005847209360947595
1592333215.3177176,-0.19949601366742598,9.705251993166288,-0.16541998861047838,-0.7777777777777778,-1.5922222222222222,-1.1477777777777778,0.05065949227544012,0.023150491730632716,0.008153742678446957
1592333215.3277175,-0.2559853589340899,9.799138507523178,-0.35307994325953695,-0.7777777777777778,-1.5922222222222222,-1.1477777777777778,0.05737610206677525,0.04655378303037974,0.010384389630858594
1592333215.3377175,-0.24719824920310196,9.861731290736952,-0.6320043769922451,-0.7777777777777778,-1.5922222222222222,-1.1477777777777778,0.045086876583540894,0.048883636144731166,0.007926544534211722
1592333215.3477175,-0.1832551325533324,9.898896626462502,-0.7459310843083345,-0.7777777777777778,-1.5922222222222222,-1.1477777777777778,0.009677524781886916,0.057427362181111566,0.002949001880633719
1592333215.3577175,-0.2875156445556946,9.962119315811432,-0.6211931581143095,-0.7842346915125389,-1.5892421081907941,-1.1413208640430168,-0.05109907377054894,0.07615223031539453,0.0009752400362494389
1592333215.3677175,-0.4263734726238224,9.798213786027423,-0.17641404719708983,-0.7922222222222223,-1.5855555555555556,-1.1333333333333333,-0.12484329883406599,0.06376857767919959,0.013484086826390643
1592333215.3777175,-0.35258810362891707,9.67465544337556,-0.011378226497761693,-0.7922222222222223,-1.5855555555555556,-1.1333333333333333,-0.15395748152090136,0.02824970161619572,0.02990345469410753
1592333215.3877175,-0.25070957606341193,9.67,-0.014009902168479683,-0.7922222222222223,-1.5855555555555556,-1.1333333333333333,-0.1408719764245413,0.003859309506909993,0.033671750365082756
1592333215.3977175,-0.21597374391591848,9.65701312804204,0.06493435978979618,-0.7922222222222223,-1.5855555555555556,-1.1333333333333333,-0.11487736982201158,0.006171827452565271,0.029745228732386296
1592333215.4077175,-0.2583410516635465,9.656682103327093,0.133317896672907,-0.7894418716677067,-1.5855555555555556,-1.1370404674060206,-0.08543662414649533,0.030372401989326468,0.024086232992864973
1592333215.4177175,-0.27,9.68,0.11,-0.7855555555555556,-1.5855555555555556,-1.1422222222222222,-0.06763150851478027,0.04690572364734761,0.019634954084936207
1592333215.4277174,-0.25425458248472504,9.72393635437882,-0.1262815682281059,-0.7855555555555556,-1.5855555555555556,-1.1422222222222222,-0.03497601164264222,0.061318575296851946,0.00899341103839988
1592333215.4377174,-0.24867738362057862,9.748677383620578,-0.29933869181028927,-0.7855555555555556,-1.5855555555555556,-1.1422222222222222,-0.03039898684389008,0.06050503966205063,-0.00022079649272418317
1592333215.4477174,-0.27,9.77,-0.31,-0.7855555555555556,-1.5855555555555556,-1.1422222222222222,-0.032724923474893676,0.061086523819801536,-0.00545415391248228
1592333215.4577174,-0.372294512043705,9.806106592997269,-0.29602526694810033,-0.7777687415500925,-1.5855555555555556,-1.1534698424523357,-0.0481887094053428,0.06059481024197022,-0.014788788672904212
1592333215.4677174,-0.47,9.8,-0.18,-0.7655555555555555,-1.5855555555555556,-1.1711111111111112,-0.062177354602297986,0.05126904677733343,-0.017453292519943295
1592333215.4777174,-0.3606897576928795,9.725448193845697,0.0491036123086071,-0.7655555555555555,-1.5855555555555556,-1.1711111111111112,-0.07028715527038372,-0.0060182984482790945,-0.007462793856407298
1592333215.4877174,-0.2898169775551759,9.75,-0.004018302244482412,-0.7655555555555555,-1.5855555555555556,-1.1711111111111112,-0.0527682593604902,-0.03383571890906033,-0.0028241812434886713
