time,acc_x,acc_y,acc_z,mag_x,mag_y,mag_z,gyr_x,gyr_y,gyr_z
1592333275.2476604,-0.16698147520266313,9.685345683198225,-0.3471275775976328,-0.8728161870220249,-1.568218105600592,-1.4575635559117357,0.023787965389735845,0.0014636425359200204,-0.0005831235786097474
1592333275.2576604,-0.21466178774345904,9.660676424513081,-0.34804391030886855,-0.8688888888888889,-1.58,-1.47,0.05288436595589378,0.014475946044815894,0.00793096134983716
1592333275.2676604,-0.22514835127010716,9.659901099153261,-0.42029670254021434,-0.8688888888888889,-1.58,-1.47,0.0852574155755826,0.020196552089389967,0.017507234563961742
1592333275.2776604,-0.17752872342935333,9.645194517186873,-0.40194517186873335,-0.8688888888888889,-1.58,-1.47,0.11616721185568905,0.021292418792197496,0.02185905271696233
1592333275.2876604,-0.12170360653169911,9.651703606531699,-0.3695060108861652,-0.8688888888888889,-1.58,-1.47,0.14281523788584508,0.02157689515216626,0.01774689887086507
1592333275.2976604,-0.15648341579622504,9.65681326736302,-0.37362653472603996,-0.8710866776617189,-1.575970720583145,-1.47,0.17259093856722607,0.022907446432425576,0.010572682960787987
1592333275.3076603,-0.20399524042836145,9.620669839714425,-0.3013396794288514,-0.8755555555555555,-1.5677777777777777,-1.47,0.20696298001876554,0.023416327734682094,-0.00014354041233942318
1592333275.3176603,-0.2061174044875682,9.633137659187385,-0.38643323226197696,-0.8755555555555555,-1.5677777777777777,-1.47,0.23801530767784315,0.023493491797391772,-0.009573697200160283
1592333275.3276603,-0.1853111305872042,9.655311130587204,-0.5428220858895705,-0.8755555555555555,-1.5677777777777777,-1.47,0.274894137341528,0.024953351668659068,-0.009509635226548858
1592333275.3376603,-0.19525465450211968,9.63474534549788,-0.5685590091234103,-0.8755555555555555,-1.5677777777777777,-1.47,0.2996735730067693,0.030182812736181952,-0.0008780860679856988
1592333275.3476603,-0.22342498167033262,9.613424981670333,-0.55,-0.8755555555555555,-1.574247187599517,-1.4570611803565212,0.3183889157306088,0.03752183784472604,0.009160237499818185
1592333275.3576603,-0.27814709565552453,9.636049031885175,-0.5981470956555246,-0.8755555555555555,-1.5866666666666667,-1.4322222222222223,0.35530962457096377,0.04487663758531057,0.01593147797341551
1592333275.3676603,-0.39552425217494935,9.736313431057086,-0.7047350732928137,-0.8755555555555555,-1.5866666666666667,-1.4322222222222223,0.3895409634332799,0.04396343153672405,0.010980249876571466
1592333275.3776603,-0.4706725484182963,9.858026467882334,-0.8773980326012597,-0.8755555555555555,-1.5866666666666667,-1.4322222222222223,0.4123388477804598,0.02282445878708692,0.0013794733926557525
1592333275.3876603,-0.4142983287898542,9.873719331515941,-0.9931403342420292,-0.8755555555555555,-1.5866666666666667,-1.4322222222222223,0.40611376621375445,-0.015433632966384316,0.0002073186155900279
1592333275.3976603,-0.3812868590251164,10.12207772463814,-1.0869302885376746,-0.8812540954472351,-1.5899908149368132,-1.4322222222222223,0.36595764474387704,-0.06228165948724262,0.002806281642804758
1592333275.4076602,-0.45,10.5,-1.19,-0.8888888888888888,-1.5944444444444446,-1.4322222222222223,0.3359758810089084,-0.08726646259971647,0.002181661564992912
1592333275.4176602,-0.1215721749980504,10.938982297434297,-1.9819316852530608,-0.8888888888888888,-1.5944444444444446,-1.4322222222222223,0.08377330308777295,-0.0841229337916691,-0.027871692017964307
1592333275.4276602,-0.17361045578937437,10.529845239218647,-1.6337246390487872,-0.8888888888888888,-1.5944444444444446,-1.4322222222222223,-0.25098084164657675,-0.05782381055359339,-0.015242293711106702
1592333275.4376602,-0.011581296236732068,9.75795110968157,-0.6158799051141846,-0.8888888888888888,-1.5944444444444446,-1.4322222222222223,-0.508825149771012,-0.05844569319412405,-0.002356588333085028
1592333275.4476602,0.036606297018668146,9.423056871304293,-0.2635494257143742,-0.8834657337750121,-1.5967040924085598,-1.4236355599585842,-0.617463952244251,-0.057370350632076926,0.003365733540965506
1592333275.4576602,0.09,9.34,-0.4,-0.8755555555555555,-1.6,-1.4111111111111112,-0.6414085001079161,-0.056723200689815706,-0.007635815477475192
1592333275.4676602,-0.2112943810640793,9.0392312613285,0.10202366990084231,-0.8755555555555555,-1.6,-1.4111111111111112,-0.5006210805474035,-0.006187344791345448,-0.011999138607461015
1592333275.4776602,-0.3316385814889336,9.099108400402415,0.18363053319919517,-0.8755555555555555,-1.6,-1.4111111111111112,-0.3056473009620116,0.021502068996978367,-0.010322150891663835
1592333275.4876602,-0.2,9.26,0.13,-0.8755555555555555,-1.6,-1.4111111111111112,-0.20725784867432664,0.030543261909900768,-0.008726646259971648
1592333275.4976602,0.041189985841163596,9.52956976444845,-0.22678497876174544,-0.8755555555555555,-1.5991729952374822,-1.4268242015989474,0.07662054247262684,0.03685903032834128,0.0031454580894814304
1592333275.5076602,0.33,9.9,-0.66,-0.8755555555555555,-1.5977777777777777,-1.4533333333333334,0.16907877128695067,0.0272707695624114,0.001090830782496456
1592333275.5176601,-0.40812499999999996,9.768125,-0.44125000000000003,-0.8755555555555555,-1.5977777777777777,-1.4533333333333334,0.298955811327935,0.031838623464115305,0.002045307717180856
1592333275.5276601,-0.13825023786869647,9.934666032350142,-0.6304562321598478,-0.8755555555555555,-1.5977777777777777,-1.4533333333333334,0.3063325804420169,0.02252108890741672,-0.017389669373447544
1592333275.5376601,-0.1504721115142863,9.83437768921143,-0.4554505978228541,-0.8755555555555555,-1.5977777777777777,-1.4533333333333334,0.2906244825393563,0.027729570398338566,-0.02493460986565214
1592333275.54766,-0.10990542244640605,9.91094577553594,-0.6469188734762505,-0.8733123160992013,-1.602638129933212,-1.448846854420625,0.2313446211986315,0.04623352611597316,-0.03453953584216132
1592333275.55766,-0.09,10.11,-0.7,-0.8688888888888889,-1.6122222222222222,-1.44,0.17344209441693648,0.05781403147231216,-0.03381575425739013
1592333275.56766,-0.4281247448771328,10.044724467303453,-0.773878683974202,-0.8688888888888889,-1.6122222222222222,-1.44,0.07530134288023926,0.07598118631183189,-0.025042977672875
1592333275.57766,-0.3355697375926982,9.997351682829436,-0.6829214204221334,-0.8688888888888889,-1.6122222222222222,-1.44,-0.028857078959033805,0.08601104268888556,-0.011319780645800715
1592333275.58766,-0.4623663518906318,9.73091587972658,-0.4478616302501086,-0.8688888888888889,-1.6122222222222222,-1.44,-0.12229825461827279,0.07711581862261256,-0.006286855746526751
1592333275.59766,-0.4884434814012279,9.693010276108867,-0.2674743097278309,-0.8712187968525997,-1.6114455862343187,-1.44,-0.18854393553177998,0.061954704647447845,-0.0049672033839158695
1592333275.60766,-0.56,9.68,-0.3,-0.8755555555555555,-1.61,-1.44,-0.19634954084936207,0.06763150851478027,0.0
1592333275.61766,-0.07943505848176745,9.69299747725709,-0.25486507147771575,-0.8755555555555555,-1.61,-1.44,-0.1510786874329481,0.06317437110222365,0.015770139204913217
1592333275.62766,-0.23727916726904727,9.830520456845454,-0.38140378776926415,-0.8755555555555555,-1.61,-1.44,-0.11731248734651022,0.05875173276372809,0.015434222618497273
1592333275.63766,-0.3134642015321155,9.962286387743076,-0.3666339496169711,-0.8755555555555555,-1.61,-1.44,-0.10399610347448751,0.06403466354787114,0.01780976502779137
1592333275.64766,-0.2417351598173516,9.746490541422048,-0.27752772341813436,-0.8765304051605421,-1.6146792781039356,-1.448578676523882,-0.12424370489796228,0.07620587963616467,0.015596816648101641
1592333275.65766,0.08845540520146888,9.648229035665778,0.04245007294129484,-0.8811111111111111,-1.6366666666666667,-1.488888888888889,-0.2159844949342983,0.09599310885968812,0.011999138607461015
1592333275.66766,-0.2823145714075129,9.46391420779795,-0.08801906493378867,-0.8811111111111111,-1.6366666666666667,-1.488888888888889,-0.21554712279046756,0.09468099242819593,0.011124394319799558
1592333275.67766,-0.37129523809523807,9.485257142857144,-0.09163809523809524,-0.8811111111111111,-1.6366666666666667,-1.488888888888889,-0.14283442154654546,0.07995062415177358,0.008905334731009162
1592333275.68766,-0.1543810181531176,9.610721783741122,-0.1456189818468824,-0.8811111111111111,-1.6366666666666667,-1.488888888888889,-0.01993844094431269,0.05878676066634062,0.0038684888819670096
1592333275.69766,-0.014309537304973002,9.616003997494108,-0.20723814921989203,-0.8802394187391651,-1.6387006155345405,-1.4949907354925105,0.03175052694375525,0.0512188349132067,-0.004698795655768347
1592333275.70766,-0.07261038760032724,9.687216927941273,-0.11740884869657506,-0.8777777777777778,-1.6444444444444444,-1.5122222222222221,0.05879598901200699,0.05670226538304748,-0.009555761588848162
1592333275.71766,-0.2562403345247273,9.8885425280912,-0.3087210035741818,-0.8777777777777778,-1.6444444444444444,-1.5122222222222221,0.04765068001185578,0.07302985568038313,-0.010199689552260062
1592333275.72766,-0.2565477273257305,9.81298677674386,-0.3430954546514611,-0.8777777777777778,-1.6444444444444444,-1.5122222222222221,0.010155138764431665,0.0857423420976025,-0.006404506428672492
1592333275.73766,-0.20663785687133623,9.904929676089871,-0.17304863653642238,-0.8777777777777778,-1.6444444444444444,-1.5122222222222221,-0.014998044841884429,0.10287064821252415,-0.0005625145233148501
1592333275.74766,-0.3067720634920635,9.662259047619047,-0.12387047619047618,-0.8750541093474427,-1.6487449735449735,-1.5159493474426806,-0.03779247310623975,0.09342484301355901,0.0013722997539291923
1592333275.75766,-0.3285073929597533,9.599834154773305,-0.1432227698488706,-0.8566666666666667,-1.6777777777777778,-1.541111111111111,0.00613133990922163,0.06687413648004796,0.00549033572816388
1592333275.76766,-0.10353297901335513,9.58,-0.10211978740801309,-0.8566666666666667,-1.6777777777777778,-1.541111111111111,0.05951536378364243,0.05144106545006154,0.010155394754889044
1592333275.77766,-0.052288014481707314,9.657056021341463,-0.0895360137195122,-0.8566666666666667,-1.6777777777777778,-1.541111111111111,0.09670345836410535,0.01788438684976373,0.0097075209670221
1592333275.78766,-0.3030387825233186,9.885904720994926,-0.2882942644411717,-0.8566666666666667,-1.6777777777777778,-1.541111111111111,0.09322685053267984,-6.32792525601365e-05,0.0057743210475264956
1592333275.7976599,-0.5909865786860566,10.003653864633717,-0.5392642301162753,-0.8600808268468988,-1.6807042007894053,-1.5445252712913433,0.05744281566676931,0.004708996884149552,0.002793657501935973
1592333275.8076599,-0.0753531864204884,10.01784395473496,-0.5533458010720667,-0.88,-1.6977777777777778,-1.5644444444444445,-0.040145795262028716,0.01388477507552916,-0.004371431270644285
1592333275.8176599,-0.11765697329376855,9.848524629080117,-0.42127952522255196,-0.88,-1.6977777777777778,-1.5644444444444445,-0.14902729463497696,0.024360290611700676,-0.010813661260928368
1592333275.8276598,-0.3922700466089603,10.002433177970133,-0.5552620565014744,-0.88,-1.6977777777777778,-1.5644444444444445,-0.22510605244302684,0.04466310297603712,-0.0016864142212417868
1592333275.8376598,-0.4203654577130187,9.70035219353817,-0.35,-0.88,-1.6977777777777778,-1.5644444444444445,-0.26127390503405423,0.04751093691705506,0.00864546885833631
1592333275.8476598,-0.2203733951847375,9.402366469569762,-0.3270017314037437,-0.8753538851320695,-1.7017269754155189,-1.5732720626935126,-0.23850661735734374,0.03827807212501194,0.004640886129066706
1592333275.8576598,0.27,9.26,-0.24,-0.8577777777777778,-1.7166666666666666,-1.6066666666666667,-0.16689710972195776,0.04690572364734761,0.009817477042468103
1592333275.8676598,0.14375152836106533,9.640356706182553,-0.3437515283610653,-0.8577777777777778,-1.7166666666666666,-1.6066666666666667,-0.05298378104124392,0.06617036007894149,0.006788509434285199
1592333275.8776598,-0.0667324478178368,9.770061669829222,-0.34006166982922204,-0.8577777777777778,-1.7166666666666666,-1.6066666666666667,-0.013453131175135845,0.07890230541144254,-0.0007303598512407488
1592333275.8876598,-0.1812482168330956,9.89946301202364,-0.45535561442836764,-0.8577777777777778,-1.7166666666666666,-1.6066666666666667,-0.018770203372910278,0.08173061308654794,-0.005368345744142432
1592333275.8976598,-0.03571203776553894,9.77285601888277,-0.19324275252678086,-0.8625212666518725,-1.715537264553787,-1.6186383290631914,-0.051076931690662436,0.09396137628501473,0.005622040051796477
1592333275.9076598,-0.45,9.98,-0.01,-0.8811111111111111,-1.711111111111111,-1.6655555555555555,-0.11017390903214205,0.07744898555724837,-0.006544984694978735
1592333275.9176598,-0.4591088120054291,9.722057671131143,-0.1614809598197137,-0.8811111111111111,-1.711111111111111,-1.6655555555555555,-0.15338968085253532,0.07115991268583619,-0.003208158221337883
1592333275.9276597,-0.19738366480015446,9.645707665572504,-0.31209499903456267,-0.8811111111111111,-1.711111111111111,-1.6655555555555555,-0.12526882497907652,0.04871057573756041,-0.0003483749979241433
1592333275.9376597,0.0,9.53,-0.21,-0.8811111111111111,-1.711111111111111,-1.6655555555555555,-0.08072147790473774,0.031634092692397225,-0.001090830782496456
1592333275.9476597,-0.15663848863272495,9.549915465898174,-0.04336151136727506,-0.8761322446365674,-1.7147991603515138,-1.6749600811185825,0.037585250485895894,0.03910270333619292,0.014547484179967466
1592333275.9576597,-0.19,9.65,-0.01,-0.8511111111111112,-1.7333333333333334,-1.7222222222222223,0.09490227807719166,0.02181661564992912,0.01090830782496456
1592333275.9676597,-0.43600774568339523,9.903869076434834,-0.151198967242214,-0.8511111111111112,-1.7333333333333334,-1.7222222222222223,0.08821306972219592,0.021540196747431094,-0.011169881899966937
1592333275.9776597,-0.12294570135746608,9.870811859966658,-0.26130554894022384,-0.8511111111111112,-1.7333333333333334,-1.7222222222222223,0.009569150025323936,0.032384451261619124,-0.01756099874581208
1592333275.9876597,-0.2413143601563283,10.070657180078165,-0.3242360958011825,-0.8511111111111112,-1.7333333333333334,-1.7222222222222223,-0.0640877896578681,0.054071691557999846,-0.008073700029887687
1592333275.9976597,-0.1812087768562659,9.98923137203683,-0.024505322275191012,-0.8492307915569197,-1.7344078016500142,-1.7254456271722647,-0.13408819947160772,0.06379561378638811,-0.014012969092746382
1592333276.0076597,-0.19,9.62,-0.13,-0.8355555555555556,-1.7422222222222221,-1.748888888888889,-0.1810779098944117,0.06763150851478027,-0.020725784867432664
1592333276.0176597,-0.24469636955369983,9.451225622524408,-0.142451245048818,-0.8355555555555556,-1.7422222222222221,-1.748888888888889,-0.12201565779564169,0.09481355192630314,0.0024715351838852386
1592333276.0276597,-0.303279439118615,9.538097009586494,-0.209311775647446,-0.8355555555555556,-1.7422222222222221,-1.748888888888889,-0.04919344037283649,0.10726796641890549,0.021167408232588437
1592333276.0376596,-0.23,9.685336732899595,-0.21067346579919113,-0.8355555555555556,-1.7422222222222221,-1.748888888888889,0.004124326267845753,0.1079187837446775,0.02788360662062771
1592333276.0476596,-0.2503850894433526,9.75906992238249,-0.3351244211999067,-0.8361400742492718,-1.7418568980386495,-1.7528343900714733,0.0012640177477310777,0.09592137762398247,0.02704071360838278
1592333276.0576596,-0.54,10.03,-0.55,-0.8444444444444444,-1.7366666666666666,-1.808888888888889,-0.0272707695624114,0.09490227807719166,0.039269908169872414
1592333276.0676596,-0.23030629471822495,10.156072031513787,-0.5909188841546749,-0.8444444444444444,-1.7366666666666666,-1.808888888888889,-0.126751485160574,0.06239071510505656,0.024706935752855454
1592333276.0776596,-0.06349176491174348,9.653583192983223,-0.19895798245805904,-0.8444444444444444,-1.7366666666666666,-1.808888888888889,-0.23435115155198533,0.039188141790651186,0.028670699686259186
1592333276.0876596,-0.07511782816645043,9.734069864260404,-0.38457351431946246,-0.8444444444444444,-1.7366666666666666,-1.808888888888889,-0.3567991463492265,0.013440877969815605,0.010519294202184372
1592333276.0976596,-0.4649604012160409,9.758435025076002,-0.35208663323199657,-0.8444444444444444,-1.7366666666666666,-1.808888888888889,-0.41615727696105526,0.009011166730126892,0.001659871722806943
1592333276.1076596,-0.09,9.98,-0.65,-0.8633333333333333,-1.7244444444444444,-1.8711111111111112,-0.4265148359561142,-0.01308996938995747,-0.01090830782496456
1592333276.1176596,0.033419541757482324,9.73844824836532,-0.6863965233108288,-0.8633333333333333,-1.7244444444444444,-1.8711111111111112,-0.3879426802390826,0.004242329114373743,0.010190491183577479
1592333276.1276596,0.060727355901189384,9.040164684354986,0.07838060384263493,-0.8633333333333333,-1.7244444444444444,-1.8711111111111112,-0.266103329015541,0.022804650850909443,0.0185206699416084
1592333276.1376595,-0.016684241124230698,9.656248220836758,-0.30298518533368085,-0.8633333333333333,-1.7244444444444444,-1.8711111111111112,-0.1229194389205639,0.04550651334287442,0.03153321659433463
1592333276.1476595,0.033583877648558226,9.48381934044926,0.07693229249641548,-0.8626204308498397,-1.7230186394774574,-1.8750594940966139,-0.058609988641340406,0.03598333946530447,0.02181661564992912
1592333276.1576595,-0.09,9.75,-0.56,-0.8488888888888889,-1.6955555555555555,-1.951111111111111,-0.01090830782496456,0.056723200689815706,0.02181661564992912
1592333276.1676595,-0.2130700473213764,9.588489805456565,-0.06234971081381083,-0.8488888888888889,-1.6955555555555555,-1.951111111111111,-0.014514607010025722,0.04699080041866459,-0.002097668168291952
1592333276.1776595,-0.13,9.93,-0.57,-0.8488888888888889,-1.6955555555555555,-1.951111111111111,0.007635815477475192,0.061086523819801536,-0.001090830782496456
1592333276.1876595,-0.2100962097242849,10.0783971502981,-0.47522416650524096,-0.8488888888888889,-1.6955555555555555,-1.951111111111111,-0.0013670543712283132,0.06775387802982238,-0.0019474173877912344
1592333276.1976595,-0.2897882467809849,9.673176298285226,-0.2093171416366632,-0.8487006638053199,-1.694285036241465,-1.952475742966986,-0.029775812828836408,0.06897642491983051,-0.008588054102215035
1592333276.2076595,-0.28,9.82,-0.64,-0.84,-1.6355555555555557,-2.0155555555555558,-0.044724062082354694,0.08072147790473774,-0.002181661564992912
1592333276.2176595,-0.46379076287442816,9.760686144311641,-0.44223845359303526,-0.84,-1.6355555555555557,-2.0155555555555558,-0.08643944643320227,0.07981838097241861,0.01043835618343751
1592333276.2276595,-0.35,9.607919102962054,-0.3146610842416805,-0.84,-1.6355555555555557,-2.0155555555555558,-0.11019855568159857,0.06184660654074122,0.0220831616831891
1592333276.2376595,-0.3370266056531951,9.805421154936422,-0.4662634648092654,-0.84,-1.6355555555555557,-2.0155555555555558,-0.09884073644383211,0.044482960826549005,0.02392366746390411
1592333276.2476594,-0.19265327609945734,9.754465862152749,-0.31339758645824894,-0.84,-1.6355555555555557,-2.0155555555555558,-0.10625188336377198,0.029660666986669245,0.010954160354009321
1592333276.2576594,-0.15420248624743826,9.713883480746414,-0.2277669614928271,-0.8365603314996585,-1.6149175445535062,-2.038486678891166,-0.1288511799329253,0.014291239288322845,0.0002496315239902975
1592333276.2676594,-0.14351708091903623,9.711089286113783,-0.19919953466520504,-0.8333333333333334,-1.5955555555555556,-2.06,-0.1520978898340909,0.004039800373692494,-0.007252161464373628
1592333276.2776594,-0.21750481260546142,9.890476269696034,-0.43281911733250944,-0.8333333333333334,-1.5955555555555556,-2.06,-0.16984546638312079,0.023759329872614598,0.0024372265970496187
1592333276.2876594,-0.06688204803545286,9.66997744628655,-0.22937640960709058,-0.8333333333333334,-1.5955555555555556,-2.06,-0.17787590093503677,0.035108194290273995,0.006338454987613344
1592333276.2976594,-0.025392118070668303,9.802745222173861,-0.22107842361413366,-0.8333333333333334,-1.5955555555555556,-2.06,-0.16429835310427404,0.05230642154257345,0.018105663107607705
1592333276.3076594,-0.05420565806816042,9.65066277537187,-0.12,-0.8533333333333334,-1.5444444444444445,-2.1044444444444443,-0.13575420923749507,0.08336190559787106,0.03279722105264528
1592333276.3176594,-0.16111811023622047,9.80667716535433,-0.13556535433070865,-0.8533333333333334,-1.5444444444444445,-2.1044444444444443,-0.12653774504459045,0.09114329237914641,0.04860295327428697
1592333276.3276594,-0.2540286936585596,9.92446075303127,-0.24503628069677846,-0.8533333333333334,-1.5444444444444445,-2.1044444444444443,-0.1448685879007332,0.06824366184548564,0.05313680669546882
1592333276.3376594,-0.3121392149413106,9.674964706352856,-0.007860785058689436,-0.8533333333333334,-1.5444444444444445,-2.1044444444444443,-0.1602090337847391,0.04127874779701975,0.04759038034116269
1592333276.3476593,-0.15278449879021777,9.775609790237757,-0.16721550120978224,-0.8533333333333334,-1.5444444444444445,-2.1044444444444443,-0.17942171601624193,0.015661838155015956,0.03935637367051861
1592333276.3576593,-0.18,9.48,0.2,-0.8844444444444445,-1.478888888888889,-2.098888888888889,-0.22907446432425577,-0.032724923474893676,0.020725784867432664
1592333276.3676593,-0.32535284276350074,9.578644579139354,0.45535284276350074,-0.8844444444444445,-1.478888888888889,-2.098888888888889,-0.228377440776613,-0.08490221305673129,-0.02058544074081269
1592333276.3776593,-0.09293423111574754,9.50266442221063,0.23026980890511642,-0.8844444444444445,-1.478888888888889,-2.098888888888889,-0.18043408748700812,-0.1328201436739845,-0.07080282655288735
1592333276.3876593,-0.051117705242334326,9.465888229475768,0.2770458951533135,-0.8844444444444445,-1.478888888888889,-2.098888888888889,-0.0872468470669511,-0.1347404540576726,-0.07365393023787109
1592333276.3976593,0.36374876360039565,9.50737487636004,0.18577527200791294,-0.8844444444444445,-1.478888888888889,-2.098888888888889,0.05123318207386146,-0.06957338152081965,-0.008486857701018133
1592333276.4076593,-0.06,9.83,0.26,-0.89,-1.431111111111111,-2.1466666666666665,0.14289883250703572,-0.04363323129985824,0.016362461737446838
1592333276.4176593,-0.15051948051948053,9.645367965367965,0.2603030303030303,-0.89,-1.431111111111111,-2.1466666666666665,0.1607676796107872,-0.04993266101349578,0.016456905961039606
1592333276.4276593,-0.20352045308521524,9.946471932037218,-0.2805918187659139,-0.89,-1.431111111111111,-2.1466666666666665,0.17857761453708734,-0.03830653090430853,0.021175194793838704
1592333276.4376593,-0.35913858978812085,9.91403959708232,-0.18516498784300103,-0.89,-1.431111111111111,-2.1466666666666665,0.1315786688083047,-0.05899162857964074,0.014303561260862697
1592333276.4476593,-0.17917352839016817,9.862621008111477,0.029079132868847446,-0.89,-1.431111111111111,-2.1466666666666665,0.09979491367787827,-0.08797093472797074,-0.0034579489590814867
1592333276.4576592,-0.35,9.81,-0.02,-0.8888888888888888,-1.3911111111111112,-2.151111111111111,0.06763150851478027,-0.1112647398146385,0.002181661564992912
1592333276.4676592,-0.5835847532908018,10.024119357183235,0.17465396107566825,-0.8888888888888888,-1.3911111111111112,-2.151111111111111,0.0007461307217754148,-0.1399299017259263,0.019168424179089382
1592333276.4776592,-0.37870039002481976,9.786800141827207,0.07765015955560808,-0.8888888888888888,-1.3911111111111112,-2.151111111111111,-0.04483862445480787,-0.17086233956625718,0.0203548946659097
1592333276.4876592,-0.5710909090909091,9.857454545454544,0.1491818181818182,-0.8888888888888888,-1.3911111111111112,-2.151111111111111,-0.05829994700269695,-0.20312260834431733,0.017264876293875724
1592333276.4976592,-0.45554545454545453,9.824441558441558,0.008876623376623372,-0.8888888888888888,-1.3911111111111112,-2.151111111111111,-0.06460197393248329,-0.22022811001088025,0.028968640592050364
1592333276.5076592,-0.2759132696873263,9.552861797242006,0.12530080315199274,-0.9044444444444445,-1.3222222222222222,-2.148888888888889,-0.08457219817724189,-0.2507355854816756,0.03470615583488933
1592333276.5176592,-0.06,9.75,-0.1,-0.9044444444444445,-1.3222222222222222,-2.148888888888889,-0.05999569303730508,-0.2650718801466388,0.031634092692397225
1592333276.5276592,0.21784689961623915,9.648122803474045,-0.04443062007675217,-0.9044444444444445,-1.3222222222222222,-2.148888888888889,-0.025646178599410825,-0.2610307608010042,0.02254157416471933
1592333276.5376592,0.3399587653629048,9.821666199607671,-0.2754165499019176,-0.9044444444444445,-1.3222222222222222,-2.148888888888889,-0.000563560240526713,-0.2439007058260382,-0.009112950319460165
1592333276.5476592,0.02931962848792985,10.157492293526563,-0.3593730733816406,-0.9044444444444445,-1.3222222222222222,-2.148888888888889,-0.026206621097385828,-0.22008929217324047,-0.03200854037022723
1592333276.5576591,0.43,9.81,0.0,-0.9511111111111111,-1.28,-2.101111111111111,-0.0545415391248228,-0.148352986419518,-0.006544984694978735
1592333276.5676591,-0.2731115531379394,9.677649589997564,0.2812446212551758,-0.9511111111111111,-1.28,-2.101111111111111,-0.043713646526821526,-0.12218557930768159,-0.020982174825647102
1592333276.5776591,-0.18077032002265647,9.749289153214388,-0.20535542339280657,-0.9511111111111111,-1.28,-2.101111111111111,-0.01688331721727947,-0.09017318217845031,-0.004757517431448717
1592333276.5876591,-0.6688546566321731,9.8964175682032,-0.12522342427093133,-0.9511111111111111,-1.28,-2.101111111111111,-0.00798317786682143,-0.06740908370564941,0.006067361409627659
1592333276.597659,-0.4386876763875823,9.822435324553151,-0.02658043273753527,-0.9511111111111111,-1.28,-2.101111111111111,-0.015156698642965807,-0.08534288564601035,-0.003796229657570863
1592333276.607659,-0.07,9.89,-0.14,-0.9244444444444444,-1.2155555555555555,-2.097777777777778,-0.02617993877991494,-0.0916297857297023,-0.00545415391248228
1592333276.617659,-0.5430172580957922,9.798657165018422,-0.09731433003684313,-0.9244444444444444,-1.2155555555555555,-2.097777777777778,-0.02954031947142744,-0.08487972823200293,0.0009443502091245739
1592333276.627659,-0.286922219602632,9.73461109801316,0.007309728443749062,-0.9244444444444444,-1.2155555555555555,-2.097777777777778,-0.03280885691487401,-0.07816241979708118,-0.005328557689759624
1592333276.637659,-0.21500503675761407,9.37502518378807,0.17811303770066655,-0.9244444444444444,-1.2155555555555555,-2.097777777777778,-0.0347700938358183,-0.09483293362510764,-0.027882782280618947
1592333276.647659,0.00024555005283991016,9.835182038583476,-0.028331917362564518,-0.9244444444444444,-1.2155555555555555,-2.097777777777778,0.011843964374222901,-0.035129186037545584,0.0040668307166742
1592333276.657659,-0.45,9.72,-0.1,-0.9433333333333334,-1.1622222222222223,-2.077777777777778,0.053450708342326333,0.008726646259971648,0.0
1592333276.667659,0.12250256450722002,9.705129803519293,-0.1892211788842421,-0.9433333333333334,-1.1622222222222223,-2.077777777777778,0.07859305383986114,0.041168382385823,0.0040552170157314195
1592333276.677659,0.04367125695868737,9.715625549370056,-0.06468795780837973,-0.9433333333333334,-1.1622222222222223,-2.077777777777778,0.10453214373104992,0.08909016035679962,0.01620904867691408
1592333276.687659,-0.22,9.95,-0.26,-0.9433333333333334,-1.1622222222222223,-2.077777777777778,0.05126904677733343,0.074176493209759,0.009817477042468103
1592333276.697659,-0.35901011176157527,10.130713145290049,-0.2391484832357637,-0.9433333333333334,-1.1622222222222223,-2.077777777777778,-0.018483747357054103,0.054463747041345136,0.007542929407651118
1592333276.707659,-0.83,9.73,-0.16,-0.9244444444444444,-1.1566666666666667,-2.057777777777778,-0.15707963267948966,0.014180800172453926,-0.001090830782496456
1592333276.717659,-0.8934272244196731,9.579360342003275,-0.06485916337049023,-0.9244444444444444,-1.1566666666666667,-2.057777777777778,-0.18648468943873808,-0.005710855870567067,-0.0036853946141948467
1592333276.727659,-0.40903583549343947,9.38283477191951,0.3332674166911628,-0.9244444444444444,-1.1566666666666667,-2.057777777777778,-0.17916682077064516,-0.023766357979585137,0.005280214485979612
1592333276.737659,-0.58,9.56,0.29,-0.9244444444444444,-1.1566666666666667,-2.057777777777778,-0.11890055529211369,-0.04363323129985824,0.008726646259971648
1592333276.747659,-0.43427395347127784,9.454017420706384,0.43572604652872216,-0.9244444444444444,-1.1566666666666667,-2.057777777777778,-0.056038128970483894,-0.05591669391442958,0.010171759508744747
1592333276.757659,0.21,9.55,0.18,-0.9255555555555556,-1.1122222222222222,-2.022222222222222,0.07744898555724837,-0.06763150851478027,0.014180800172453926
1592333276.767659,-0.3038797725426483,9.793416734362307,-0.09046303818034118,-0.9255555555555556,-1.1122222222222222,-2.022222222222222,0.1290791318828087,-0.08238297889351179,0.023769255918629415
1592333276.777659,-0.11295565657432022,10.104241930411412,-0.5404991851788319,-0.9255555555555556,-1.1122222222222222,-2.022222222222222,0.14745058802367117,-0.11911203493691196,0.013529644958806573
1592333276.787659,-0.6744788544788544,9.837365967365967,-0.5402630702630703,-0.9255555555555556,-1.1122222222222222,-2.022222222222222,0.07716129392230427,-0.17416023376325535,0.0003443581690997788
1592333276.797659,-0.44001046603475513,9.684844786729858,-0.36258807266982623,-0.9255555555555556,-1.1122222222222222,-2.022222222222222,0.005773756130489777,-0.20465271470899607,0.002638996247915152
1592333276.807659,-0.5,9.94,-0.34,-0.9344444444444444,-1.0855555555555556,-2.0244444444444443,-0.0818123086872342,-0.2498002491916884,-0.008726646259971648
1592333276.817659,-0.19331277092364124,9.531083694564856,-0.0759082194064688,-0.9344444444444444,-1.0855555555555556,-2.0244444444444443,-0.0966809251350135,-0.27210317386335736,-0.00036304950809579184
1592333276.827659,0.17042603729721534,9.721921968969525,-0.23371708697629756,-0.9344444444444444,-1.0855555555555556,-2.0244444444444443,-0.06222878964146862,-0.23894337640589447,0.014847360792616896
1592333276.837659,0.47175919597989946,9.468164824120604,0.05175919597989953,-0.9344444444444444,-1.0855555555555556,-2.0244444444444443,-0.033340787897381326,-0.22311219156647552,0.0071111203895326755
1592333276.8476589,0.57,9.718054095960031,-0.2648845723145835,-0.9344444444444444,-1.0855555555555556,-2.0244444444444443,0.03634423780689458,-0.16536645585520166,0.014420408966955262
1592333276.8576589,0.34444441095807843,9.63203700913173,-0.18324071004490522,-0.9093827123286754,-1.071980450659514,-1.9711882636984353,0.09042280699643401,-0.10228557942789686,0.0020756062892527734
1592333276.8676589,-0.20658704675385714,9.924879003837418,-0.5480499647583993,-0.9077777777777778,-1.0711111111111111,-1.9677777777777778,0.11134461504227058,-0.0999307440118229,-0.0062257400686031965
1592333276.8776588,-0.44865535323268413,10.000229053820444,-0.5504581076408898,-0.9077777777777778,-1.0711111111111111,-1.9677777777777778,0.11723388604018944,-0.11141141802317575,-0.009903309094646214
1592333276.8876588,-0.6366969233709154,10.04619912096312,-0.820362124976113,-0.9077777777777778,-1.0711111111111111,-1.9677777777777778,0.02271983938020948,-0.1542464535126063,-0.0016436462296932075
1592333276.8976588,-1.0771182923213756,10.12765787133116,-0.6613868959383338,-0.9077777777777778,-1.0711111111111111,-1.9677777777777778,-0.08613857008947794,-0.20028254692059017,-0.0002437148169846811
1592333276.9076588,-0.46,9.82,-0.24,-0.9311111111111111,-1.0377777777777777,-1.9533333333333334,-0.20507618710933373,-0.25416357232167425,0.008726646259971648
1592333276.9176588,-0.20942208176970178,10.092687734544736,-0.2178901836855619,-0.9311111111111111,-1.0377777777777777,-1.9533333333333334,-0.28788155470288485,-0.27345802690657933,0.011942388690789167
1592333276.9276588,-0.15671791669918572,9.382205832617915,0.20307656286583933,-0.9311111111111111,-1.0377777777777777,-1.9533333333333334,-0.3644940724268883,-0.2743355560308973,0.016093946925303405
1592333276.9376588,0.230633736961995,9.384406426087999,0.5097232945689965,-0.9311111111111111,-1.0377777777777777,-1.9533333333333334,-0.3524678404853348,-0.22814331516092104,0.04172646798505206
1592333276.9476588,0.3296039357772094,9.614874254049447,0.26229255470304064,-0.9311111111111111,-1.0377777777777777,-1.9533333333333334,-0.3465751356113243,-0.2048535416959981,0.03545657268292277
1592333276.9576588,0.39,9.642629340892984,0.14158043940467752,-0.9280116544609812,-1.019181037876998,-1.9337034412158438,-0.29586330412683115,-0.11966514185759138,0.028361600344907853
1592333276.9676588,0.37907683529859265,9.63336097375428,0.11723050589577785,-0.9277777777777778,-1.0177777777777777,-1.9322222222222223,-0.2888597087602363,-0.11032104048724789,0.025795222803676555
1592333276.9776587,0.06622227579556411,9.634115236258436,-0.12516875602700095,-0.9277777777777778,-1.0177777777777777,-1.9322222222222223,-0.24854242767947035,-0.04008960912190748,-0.01157627074385101
1592333276.9876587,0.10133064087575724,9.666387767031566,-0.09855510681262622,-0.9277777777777778,-1.0177777777777777,-1.9322222222222223,-0.09176687866203329,0.05851485749847765,-0.01021151053401979
1592333276.9976587,-0.14145864762479465,9.522404706828926,0.17879110932314193,-0.9277777777777778,-1.0177777777777777,-1.9322222222222223,-0.055778574656671256,0.07558697774765462,-0.018165702405417615
1592333277.0076587,-0.05642452515828056,9.343178940353216,0.3058280573142286,-0.9309345033137102,-1.0062031174793586,-1.9322222222222223,0.004290988799523714,0.1222163028422412,0.0007367924012396908
1592333277.0176587,-0.34530938446014126,9.908985671039353,-0.1579640766902119,-0.9311111111111111,-1.0055555555555555,-1.9322222222222223,0.09888813633136145,0.17204010718076082,0.0006678394070194246
1592333277.0276587,-0.13699047765320227,9.773014897865153,-0.15771233297496545,-0.9311111111111111,-1.0055555555555555,-1.9322222222222223,0.13291055190401546,0.19115825185743532,-0.008634584899968299
1592333277.0376587,-0.06565161549267509,9.933048364439093,-0.44652899859522377,-0.9311111111111111,-1.0055555555555555,-1.9322222222222223,0.10609455654053761,0.19554338121869352,0.00014251070427557556
1592333277.0476587,-0.7083783313390624,10.084008049602959,-0.65,-0.9311111111111111,-1.0055555555555555,-1.9322222222222223,0.05430317723252661,0.18859893480308593,0.016477252306247785
1592333277.0576587,-0.3844990010292426,9.996189986074953,-0.6244154507477144,-0.9187926244340847,-0.9818661580997355,-1.9066376729699368,-0.04817645532295543,0.1322546963312802,0.00956241931515677
1592333277.0676587,-0.6657357417494394,9.843508891380967,-0.4419681191925665,-0.9166666666666666,-0.9777777777777777,-1.9022222222222223,-0.11893961339526782,0.06500308166695297,-0.00013229075654434732
1592333277.0776587,-0.5721450968831239,9.579592903277678,-0.14107254844156192,-0.9166666666666666,-0.9777777777777777,-1.9022222222222223,-0.22957490227710797,-0.050194441200108214,-0.013818992712207469
1592333277.0876586,-0.5754321583775954,9.779012554321584,-0.2899384355383873,-0.9166666666666666,-0.9777777777777777,-1.9022222222222223,-0.26833541830615015,-0.08646519445492037,-0.012297655433139367
1592333277.0976586,-0.40042769072694584,9.674835602363215,-0.1710724377087079,-0.9166666666666666,-0.9777777777777777,-1.9022222222222223,-0.2787130090919958,-0.14444751520286359,-0.009817477042468103
1592333277.1076586,-0.07696741170448729,9.555310015355742,-0.2065500767787067,-0.9264750042654837,-0.9885669491364765,-1.8982988871826953,-0.22263526843950923,-0.18686286787323234,-0.0011510954143634337
1592333277.1176586,0.13567830154731914,9.659028427491904,-0.26713566030946384,-0.9277777777777778,-0.99,-1.8977777777777778,-0.15792199426971543,-0.18305310258873417,0.00877688963534392
1592333277.1276586,0.32695968763191224,9.625938159560995,-0.31565322921063743,-0.9277777777777778,-0.99,-1.8977777777777778,-0.03729027362295477,-0.1350556947164246,0.02723968848270751
1592333277.1376586,0.3687237460342958,9.604255250793141,-0.38893699048230995,-0.9277777777777778,-0.99,-1.8977777777777778,0.004665370366856353,-0.10005438475280341,0.028199121272891495
1592333277.1476586,0.4603005158107199,9.775751289526799,-0.33454922628392014,-0.9277777777777778,-0.99,-1.8977777777777778,0.03429142399802393,-0.04052080411966814,0.02266961156210868
1592333277.1576586,0.31025734456843546,9.841829879298565,-0.5024231382373037,-0.913253118753005,-0.9727519674080822,-1.8732674156734734,0.04263518696629424,0.03036625964788102,0.025181894446350946
1592333277.1676586,0.20956689124157846,9.714485081809432,-0.48491819056785374,-0.91,-0.9688888888888889,-1.8677777777777778,0.03856228550634728,0.06434746742945889,0.02161608756575508
1592333277.1776586,0.02866414548690284,9.752908903842947,-0.6008614648795951,-0.91,-0.9688888888888889,-1.8677777777777778,0.023182535258588204,0.10593043108378249,-0.007059763884393878
1592333277.1876585,-0.2969231503124553,9.832991461145829,-0.641752134713543,-0.91,-0.9688888888888889,-1.8677777777777778,0.027023702608478604,0.0984777760844853,-0.04098074795744664
1592333277.1976585,-0.30656318177430253,9.886757215947485,-0.5999223863307269,-0.91,-0.9688888888888889,-1.8677777777777778,0.04512012663869465,0.08287774045585497,-0.05127751311529198
1592333277.2076585,-0.2968241773184661,9.918412088659233,-0.5127032907261354,-0.9156080591061554,-0.9698235654065814,-1.8500189239416192,0.061709257071449045,0.089204786131165,-0.014910814273087089
1592333277.2176585,-0.4950282304889281,9.947087254234575,-0.3753986305209627,-0.9166666666666666,-0.97,-1.8466666666666667,0.036675335725652375,0.07508312371956946,-0.005272006618884785
1592333277.2276585,-0.4487772533730057,9.868300159031447,-0.3091153234494434,-0.9166666666666666,-0.97,-1.8466666666666667,-0.03360758257981938,0.026951964711034886,-0.002419128369770202
1592333277.2376585,-0.34244237011063994,9.966820346371627,-0.33585254329645337,-0.9166666666666666,-0.97,-1.8466666666666667,-0.0953245618315093,0.011400937746923086,-0.0030462836754243704
1592333277.2476585,-0.20405432394647494,9.66856401038546,-0.10799480726982225,-0.9166666666666666,-0.97,-1.8466666666666667,-0.13402316921985666,0.0011405031248989308,0.0003429134514977873
1592333277.2576585,-0.0264128710627691,9.540566831763297,0.14792722799520897,-0.9310904290713944,-0.9645910890982271,-1.8484696369672575,-0.16142265126446445,0.003807755466232086,0.004836754495138457
1592333277.2676585,-0.07301860088960777,9.623018600889608,0.03396279822078446,-0.9344444444444444,-0.9633333333333334,-1.8488888888888888,-0.17268054191148557,0.018729310170016823,0.013419247667003004
1592333277.2776585,-0.1025830125120308,9.702915062560153,0.0,-0.9344444444444444,-0.9633333333333334,-1.8488888888888888,-0.16583983152248083,0.033712428049968865,0.01572916220110576
1592333277.2876585,-0.26163111328231015,9.544009119035987,0.10435976768170223,-0.9344444444444444,-0.9633333333333334,-1.8488888888888888,-0.12697369781510368,0.05587015834690595,0.0009129039246881816
1592333277.2976584,-0.4460703689774769,9.691319627261711,0.044750741715766165,-0.9344444444444444,-0.9633333333333334,-1.8488888888888888,-0.09406096497901202,0.05039254411899804,-0.011042661747968542
1592333277.3076584,-0.5180830021539302,9.686837969844978,0.2667390710796954,-0.9191765514870208,-0.9633333333333334,-1.8300285505297185,-0.06615048309719551,0.04690572364734761,-0.011535643903106272
1592333277.3176584,-0.40677450352338246,9.787378683536195,0.2356454196028187,-0.9155555555555556,-0.9633333333333334,-1.8255555555555556,-0.059604232583128434,0.01911600584031646,-0.01502530305563584
1592333277.3276584,-0.19019366930445647,10.064709496043315,-0.049612661391087026,-0.9155555555555556,-0.9633333333333334,-1.8255555555555556,-0.06896863943803512,-0.0030191501921001188,-4.225208778516065e-05
1592333277.3376584,-0.20686928413749606,9.87565357931252,0.13155707978555659,-0.9155555555555556,-0.9633333333333334,-1.8255555555555556,-0.092749684692937,-0.0031462435625079113,0.006938265140292225
1592333277.3476584,0.04627527444041207,9.813668823118364,0.107767734373239,-0.9155555555555556,-0.9633333333333334,-1.8255555555555556,-0.16683893273592465,-0.0308623009605261,-0.0005859991255878893
1592333277.3576584,0.18786121320430255,9.49645142799339,0.44783052904879117,-0.9321421961463099,-0.9493656359937508,-1.8395232528951382,-0.18754528549369404,-0.007481553606692913,0.00031139270339599484
1592333277.3676584,0.0035111737467284077,9.335109724179585,0.6642319307429031,-0.9366666666666666,-0.9455555555555556,-1.8433333333333333,-0.16303648674521018,0.002739046007508717,0.0016482152250122612
1592333277.3776584,-0.12327306967984934,9.704614689265536,0.21520451977401134,-0.9366666666666666,-0.9455555555555556,-1.8433333333333333,-0.1155886204756527,-0.01063845559975037,-0.014133058350636192
1592333277.3876584,0.08495339165352071,9.705032267316794,0.23495339165352072,-0.9366666666666666,-0.9455555555555556,-1.8433333333333333,-0.07336638748666163,0.0051765575804100065,-0.007366040963719974
1592333277.3976583,-0.00912149637701512,9.66,0.3294669437735213,-0.9366666666666666,-0.9455555555555556,-1.8433333333333333,-0.042248416015063406,0.0010703658338162437,-0.005843968294229314
1592333277.4076583,0.05849072312083728,9.778993815413891,0.23100618458610844,-0.9280726688867745,-0.9495220160693519,-1.8387057960672375,-0.01667940983469218,0.0005941317279308418,-0.0037417519740699677
1592333277.4176583,-0.0003630059439569955,9.739757996037362,0.14331988866874235,-0.9222222222222223,-0.9522222222222222,-1.8355555555555556,-0.017470891544738736,0.020756583160824685,0.004009978966951013
1592333277.4276583,-0.03905650892306285,9.63542444530768,0.28646253684619427,-0.9222222222222223,-0.9522222222222222,-1.8355555555555556,-0.035014663605636306,0.02419379572731611,-0.009431599672456277
1592333277.4376583,-0.09662248509465782,9.449129670538492,0.44424784436684955,-0.9222222222222223,-0.9522222222222222,-1.8355555555555556,-0.012170462703849683,0.06163760078320053,0.008453154754015445
1592333277.4476583,-0.048881099763722624,9.617965085626135,0.24225869442112044,-0.9222222222222223,-0.9522222222222222,-1.8355555555555556,-0.0077944844841108,0.07845437918232566,0.00688901250088177
1592333277.4576583,0.15816245462639544,9.731988219984933,0.15370454078487777,-0.9152644035035652,-0.9522222222222222,-1.8184772732461247,0.014821432592144853,0.08891253304905175,-0.004077485271357549
1592333277.4676583,0.015433990160340583,9.822109408855694,0.1128037931122384,-0.91,-0.9522222222222222,-1.8055555555555556,0.05397403127501857,0.11723590452879702,0.005173556053088165
1592333277.4776583,-0.08072066616199848,9.907267221801666,0.0012914458743376253,-0.91,-0.9522222222222222,-1.8055555555555556,0.05329348337564403,0.11840592422571296,0.004661422988033681
1592333277.4876583,-0.21179760036180798,9.91377211418234,-0.12967091436324457,-0.91,-0.9522222222222222,-1.8055555555555556,0.022551168544833224,0.10268168425172697,0.001090830782496456
1592333277.4976583,-0.2659611510791367,9.911922302158274,-0.09231079136690648,-0.91,-0.9522222222222222,-1.8055555555555556,-0.021604727656206787,0.09167216332844677,0.008893959297977578
1592333277.5076582,-0.21493269112016797,9.837399036680253,0.015717549709769046,-0.9145889424066527,-0.9682835206455065,-1.8200872065099556,-0.0766712448993069,0.063989680291014,0.011928208336127882
1592333277.5176582,-0.24145491489035423,9.691036650820427,0.10145491489035424,-0.9166666666666666,-0.9755555555555555,-1.8266666666666667,-0.09262029052511055,0.040243977736883124,0.008927298234148076
1592333277.5276582,-0.23813600866442453,9.548323547853844,0.010123126033175639,-0.9166666666666666,-0.9755555555555555,-1.8266666666666667,-0.07570084575110886,-0.010122471911540958,-0.003021843149276792
1592333277.5376582,-0.14707697655555985,9.597467459735043,-0.05201189602564597,-0.9166666666666666,-0.9755555555555555,-1.8266666666666667,-0.04333506554929907,-0.01770115306968748,-0.002401125376588603
1592333277.5476582,-0.029560638249785293,9.600219680875107,0.029340957374677935,-0.9166666666666666,-0.9755555555555555,-1.8266666666666667,0.048499787217719074,-0.012556535731753886,0.013161859788225328
1592333277.5576582,0.05979533168765428,9.749590663375308,-0.2347661156766553,-0.9032716030094401,-0.9656855086502306,-1.8238466532651452,0.06121410497215863,-0.02070345901790183,0.009441107530224693
1592333277.5676582,-0.011369985961843826,9.823039375877386,-0.27255126228338666,-0.8955555555555555,-0.96,-1.8222222222222222,0.0685402371064906,-0.004588377739911047,0.015324875888319194
1592333277.5776582,-0.07744549125168237,9.854890982503365,-0.33716516054604884,-0.8955555555555555,-0.96,-1.8222222222222222,0.07227348532244822,-0.0002582674534832019,0.013654072153388055
1592333277.5876582,-0.11767407977568244,9.793600076971712,-0.3949927151771724,-0.8955555555555555,-0.96,-1.8222222222222222,0.06788522705261194,-0.0047689549301570735,0.004376247452146968
1592333277.5976582,-0.22167644359312022,9.757005866155872,-0.25791911089828007,-0.8955555555555555,-0.96,-1.8222222222222222,0.05714942957392178,-0.007436576382080871,0.006771974483690487
1592333277.6076581,-0.1772986748216106,9.81,-0.25692150866462793,-0.9026073167969193,-0.9708981764639257,-1.8170936685921395,0.04673781799173398,-0.022991955239224482,-0.0019303590605645746
1592333277.6176581,-0.257977323870521,9.922718971784663,-0.41797732387052106,-0.9077777777777778,-0.9788888888888889,-1.8133333333333332,0.05034489954568494,-0.033982437808238106,-0.003956409448787994
1592333277.6276581,-0.29228801515869257,9.775238038844149,-0.3919860255802937,-0.9077777777777778,-0.9788888888888889,-1.8133333333333332,0.05105873501585732,-0.035294266610027734,-0.002181661564992912
1592333277.637658,-0.28003245668464516,9.770097370053936,-0.36277743305808796,-0.9077777777777778,-0.9788888888888889,-1.8133333333333332,0.04372950098229993,-0.04036427942743974,0.002580902195043163
1592333277.647658,-0.25047435269133383,9.891932124479293,-0.435322020746549,-0.9077777777777778,-0.9788888888888889,-1.8133333333333332,0.03365673602337392,-0.04122229747226147,0.015730175480158093
1592333277.657658,-0.12228924246022323,9.902424602232248,-0.41114462123011164,-0.917205467162722,-0.9757463257605742,-1.8133333333333332,0.015444153705162361,-0.048338232369077694,0.011782319475437853
1592333277.667658,-0.015030732648391595,9.86878841581049,-0.29796020458522143,-0.9277777777777778,-0.9722222222222222,-1.8133333333333332,0.003953423483577323,-0.0474126719474279,0.0039048991567414296
1592333277.677658,0.0027383015597920238,9.789353800445655,-0.22,-0.9277777777777778,-0.9722222222222222,-1.8133333333333332,-0.009062348825617374,-0.01806744186369099,0.01090830782496456
1592333277.687658,-0.013753670511405011,9.731261011534215,-0.214584556837135,-0.9277777777777778,-0.9722222222222222,-1.8133333333333332,-0.02240734886022043,0.010314371489210777,0.005591708932342764
1592333277.697658,0.008862325140282937,9.769760926262546,-0.20556883742985854,-0.9277777777777778,-0.9722222222222222,-1.8133333333333332,-0.012273419658161441,0.04356803405183303,0.001090830782496456
1592333277.707658,-0.04505579723850954,9.839640627955362,-0.1609665216568943,-0.9244045142172626,-0.9649938003068322,-1.807068701006662,0.007241119187156349,0.0884086678601478,0.005821821863004066
1592333277.717658,-0.24911789752566593,9.771638595827223,-0.09865543833088897,-0.92,-0.9555555555555556,-1.798888888888889,0.00413413358061426,0.11745223835593635,0.0033366406496440296
1592333277.727658,-0.2945449303219606,9.801136953387795,-0.044544930321960594,-0.92,-0.9555555555555556,-1.798888888888889,-0.0025039310340360743,0.1277512239274523,0.0029254813056764635
1592333277.737658,-0.3751870450013215,9.788165829749405,0.05335287475072679,-0.92,-0.9555555555555556,-1.798888888888889,-0.01365578822572105,0.13136227680990994,0.007007567605313961
1592333277.747658,-0.2967664031620553,9.759601976284586,0.08079604743083005,-0.92,-0.9555555555555556,-1.798888888888889,-0.03547640399725707,0.12042556259554846,0.006544984694978735
1592333277.757658,-0.18267352528559022,9.785668381321397,0.14878749415458614,-0.9176787583227559,-0.967161763941776,-1.8064329243399322,-0.05877259838479519,0.08857321506091806,0.004266111007342343
1592333277.767658,-0.2631772575250836,9.77768115942029,0.24545150501672242,-0.9155555555555556,-0.9777777777777777,-1.8133333333333332,-0.06763150851478027,0.06981317007977318,0.002181661564992912
1592333277.777658,-0.39727434679334916,9.647601759879075,0.23066373353487366,-0.9155555555555556,-0.9777777777777777,-1.8133333333333332,-0.07266187902593262,0.03963094701285912,-0.019057680593205874
1592333277.787658,-0.27358749942720983,9.886770838106585,-0.06035833753379462,-0.9155555555555556,-0.9777777777777777,-1.8133333333333332,-0.06491670296747021,0.018069612161980653,-0.007640814014717993
1592333277.797658,-0.3869997327326181,9.902633538238327,0.005099652552403494,-0.9155555555555556,-0.9777777777777777,-1.8133333333333332,-0.06331543625428177,0.009682971372120567,0.017158771124104126
1592333277.807658,-0.34442590286425906,9.817499377334993,0.1678854296388543,-0.9102778469627785,-0.9777777777777777,-1.8133333333333332,-0.0840358103370352,-0.04250001705482892,0.010090252660307816
1592333277.817658,-0.12401348394874309,9.856683707639416,0.17551011296155733,-0.9011111111111111,-0.9777777777777777,-1.8133333333333332,-0.09926560120717749,-0.09926560120717749,0.001090830782496456
1592333277.827658,-0.16999679273018842,9.744998262728853,0.27499933181878927,-0.9011111111111111,-0.9777777777777777,-1.8133333333333332,-0.1287188195170254,-0.12708252961092276,-0.0065451887793159655
1592333277.837658,-0.03885429907662789,9.685572850461686,0.3057285046168605,-0.9011111111111111,-0.9777777777777777,-1.8133333333333332,-0.14905190821720102,-0.14152409008881192,-0.006885955976625847
1592333277.847658,-0.0020794198073950804,9.652772559743193,0.5594043514445369,-0.9011111111111111,-0.9777777777777777,-1.8133333333333332,-0.1215035828317031,-0.12683881012100748,-0.0005832203101755513
1592333277.857658,-0.14743722679678764,9.57958218969198,0.6783287587679171,-0.9106870884303029,-0.9665119221081405,-1.8093902838489602,-0.07992539432361118,-0.12327907043360731,-0.007189148161027521
1592333277.867658,-0.27144363929146537,9.579880837359099,0.56,-0.92,-0.9555555555555556,-1.8055555555555556,-0.05362118358780344,-0.11742828505000515,-0.012143616597574272
1592333277.877658,-0.04919464254652983,9.801845538354497,0.3871142807444773,-0.92,-0.9555555555555556,-1.8055555555555556,-0.014594439258528422,-0.07371162359467529,-0.0003257882159586733
1592333277.8876579,-0.042650053911585,9.873942733916378,0.2466251347789625,-0.92,-0.9555555555555556,-1.8055555555555556,-0.013069321101514384,-0.0623012443329565,0.0019751786805620505
1592333277.8976579,-0.18353573172716914,9.666071951815074,0.4768565847305877,-0.92,-0.9555555555555556,-1.8055555555555556,-0.007756565100151016,-0.06602251979262491,-0.007183892257313466
1592333277.9076579,-0.26012405237767056,9.835456581667815,0.3541488628532047,-0.9157146412435868,-0.9625679607933226,-1.8106200704494986,0.0022948042478087055,-0.06338132806761024,-0.004363323129985824
1592333277.9176579,-0.44329487771112136,9.896589755422243,0.3447858790955238,-0.9077777777777778,-0.9755555555555555,-1.82,0.022241621847281103,-0.06937557930948053,-0.006107393924686087
1592333277.9276578,-0.30727012462108455,9.927349757012943,0.24176682865803784,-0.9077777777777778,-0.9755555555555555,-1.82,0.015495171748033786,-0.07432104154132785,-0.007066308697632156
1592333277.9376578,-0.1351765271344927,9.768707069824346,0.32823472865507297,-0.9077777777777778,-0.9755555555555555,-1.82,-0.021688066728300488,-0.09007680798980457,-0.013385055179280007
1592333277.9476578,-0.08309946029298382,9.742977877943183,0.31145305735128404,-0.9077777777777778,-0.9755555555555555,-1.82,-0.04263219786782173,-0.09221618571858481,-0.012854930647723344
1592333277.9576578,-0.12832712448161945,9.785312082659733,0.33858930203134885,-0.910404356349039,-0.9736794280046547,-1.8151220683676579,-0.04619756921513159,-0.08046749765823323,-0.008486965580553365
1592333277.9676578,-0.38,9.58,0.63,-0.9155555555555556,-0.97,-1.8055555555555556,-0.04908738521234052,-0.09708393964218458,-0.0272707695624114
1592333277.9776578,-0.02990069061512929,9.598136677552333,0.41647197387440443,-0.9155555555555556,-0.97,-1.8055555555555556,0.014266179186534436,-0.03720612453916234,0.010106113004911956
1592333277.9876578,-0.06473567800111805,9.647632160999441,0.3796723622487422,-0.9155555555555556,-0.97,-1.8055555555555556,0.024959962413928213,-0.018709008620388014,0.01443909133943447
1592333277.9976578,0.028170948867972532,9.744109152104572,0.35218539029019824,-0.9155555555555556,-0.97,-1.8055555555555556,0.018500087063778807,-0.011999138607461015,0.0002772596723058605
1592333278.0076578,0.08420126671358198,9.86140042223786,0.22573305184142622,-0.9114150181145255,-0.9735035316808716,-1.8010965152344462,0.006704911797737423,-0.007621486009068013,-0.019947643556249995
1592333278.0176578,-0.0008966024485147599,9.802386115592673,0.2567172819588118,-0.9011111111111111,-0.9822222222222222,-1.79,0.016655874202597315,0.02196411125184255,-0.01616685342734652
1592333278.0276577,-0.10917424605074197,9.745832934418383,0.25916467209191,-0.9011111111111111,-0.9822222222222222,-1.79,0.023452600734448693,0.05436034320259864,-0.009362920701557063
1592333278.0376577,-0.15911511987804317,9.776530928073175,0.21782302397560865,-0.9011111111111111,-0.9822222222222222,-1.79,0.02317709282763685,0.07300906692722123,-0.009612180945646809
1592333278.0476577,-0.0924140381350914,9.791575934625557,0.24803008171805296,-0.9011111111111111,-0.9822222222222222,-1.79,0.02591660806912714,0.09355358559458116,-0.00986045399248711
1592333278.0576577,-0.15667386266230676,9.726673862662308,0.3762017841836249,-0.9045517494382538,-0.9748116165945303,-1.79,0.019686449858566234,0.11339726049006785,-0.003998142946442691
1592333278.0676577,-0.22638135225794673,9.80457202838692,0.37399790064577965,-0.9155555555555556,-0.9511111111111111,-1.79,0.0034072313435793943,0.13640584665979985,0.01567699296332395
1592333278.0776577,-0.2845692087018886,9.732451350705235,0.33834353334927086,-0.9155555555555556,-0.9511111111111111,-1.79,-0.02071850918518747,0.12705662116669156,0.01595802246884207
1592333278.0876577,-0.32476746375447185,9.620930144982113,0.40764545283374126,-0.9155555555555556,-0.9511111111111111,-1.79,-0.016990341553317988,0.09983956592600375,-0.004674079479810177
1592333278.0976577,-0.26375893374541237,9.68979911145451,0.30510044427274485,-0.9155555555555556,-0.9511111111111111,-1.79,0.013485150601580438,0.08671009043800469,-0.008067765082288353
1592333278.1076577,-0.2137696233606822,9.612495639253181,0.35688481168034114,-0.9155555555555556,-0.9544463825541415,-1.7883323642784847,0.04425098584726853,0.07594504991998131,-0.008386831928735914
1592333278.1176577,-0.3825818597458482,9.659036509110468,0.3133270579797844,-0.9155555555555556,-0.9688888888888889,-1.781111111111111,0.0834783199045184,0.033908948792069904,-0.015541362146220546
1592333278.1276577,-0.3853332351063307,9.814266735425567,0.07839988212759687,-0.9155555555555556,-0.9688888888888889,-1.781111111111111,0.09632762815667294,0.003970595118046809,-0.010021087002139915
1592333278.1376576,-0.2955919796308084,9.876272013579461,0.016272013579461068,-0.9155555555555556,-0.9688888888888889,-1.781111111111111,0.08558352109171151,-0.024146637607788617,-0.0017379112323510002
1592333278.1476576,-0.26,9.9,0.04,-0.9155555555555556,-0.9688888888888889,-1.781111111111111,0.07199483164476608,-0.0370882466048795,-0.001090830782496456
1592333278.1576576,-0.06475734222037076,9.858854405332224,0.04933972089148094,-0.9128144599504733,-0.9637982827651647,-1.7842437918026337,0.028568133396624014,-0.04844347468586792,0.003978885370355746
1592333278.1676576,0.0,9.82,0.14,-0.9077777777777778,-0.9544444444444444,-1.79,0.01090830782496456,-0.05126904677733343,0.0032724923474893677
1592333278.1776576,-0.05499554378549056,9.69777876804767,0.15221231952331238,-0.9077777777777778,-0.9544444444444444,-1.79,0.0013341017965552773,-0.04205585848924414,-0.0043020192788750895
1592333278.1876576,-0.09694109558769368,9.665935865641957,0.16219240307412774,-0.9077777777777778,-0.9544444444444444,-1.79,0.0211317762982054,-0.01351580774316078,0.002921327705131447
1592333278.1976576,-0.22,9.61,0.33,-0.9077777777777778,-0.9544444444444444,-1.79,0.032724923474893676,-0.004363323129985824,0.001090830782496456
1592333278.2076576,-0.3583856161908204,9.631614383809179,0.2567712323816408,-0.9066716459864274,-0.9579471951170542,-1.7887095129100912,0.08050626846340604,-0.004554090392598775,-0.003458371174358569
1592333278.2176576,-0.3,9.69,0.14,-0.9011111111111111,-0.9755555555555555,-1.7822222222222222,0.11780972450961724,0.00545415391248228,0.001090830782496456
1592333278.2276576,-0.3858777473581864,9.734358928434357,0.0017554947163728463,-0.9011111111111111,-0.9755555555555555,-1.7822222222222222,0.14518376336802016,-0.005557423208473807,0.0025538776004910245
1592333278.2376575,-0.25281635840124933,9.839759894587868,-0.12604802108242644,-0.9011111111111111,-0.9755555555555555,-1.7822222222222222,0.1477718239749075,-0.01504298822346718,0.0032724923474893677
1592333278.2476575,-0.1258672587710485,9.866552465538721,-0.11310493107744243,-0.9011111111111111,-0.9755555555555555,-1.7822222222222222,0.1253731408777691,-0.012601785023366605,0.0025203570046733207
1592333278.2576575,-0.08,9.87480459332572,-0.07631265067884788,-0.9053879936274303,-0.9712786730392364,-1.7822222222222222,0.08969788994912949,0.0016515407812140222,0.001413816904937197
1592333278.2676575,-0.08,9.91,-0.02,-0.9155555555555556,-0.9611111111111111,-1.7822222222222222,0.0643590161672909,0.01854412330243975,0.002181661564992912
1592333278.2776575,-0.1171033382425135,9.838413352970054,0.0028966617574865,-0.9155555555555556,-0.9611111111111111,-1.7822222222222222,0.01437607334124987,0.04306162954372828,-0.0017227843448057675
1592333278.2876575,-0.15537334263782276,9.79952922862204,0.0414123141338773,-0.9155555555555556,-0.9611111111111111,-1.7822222222222222,-0.013398088536315104,0.053882789524571297,-0.0036532203386747215
1592333278.2976575,-0.24,9.78,0.1,-0.9155555555555556,-0.9611111111111111,-1.7822222222222222,-0.02617993877991494,0.056723200689815706,-0.004363323129985824
1592333278.3076575,-0.266711671359099,9.72534233427182,0.4246576657281802,-0.9165905923840401,-0.962922425560959,-1.7876561655717658,-0.03723761810952132,0.02982585988900887,-0.006544984694978735
1592333278.3176575,-0.19,9.71,0.44,-0.92,-0.9688888888888889,-1.8055555555555556,-0.030543261909900768,0.01308996938995747,-0.006544984694978735
1592333278.3276575,-0.19102523952334194,9.727008413174447,0.42307571857002574,-0.92,-0.9688888888888889,-1.8055555555555556,-0.022907446432425576,-0.00860563262715668,-0.005780485412264653
1592333278.3376575,-0.15499227202472954,9.731255795981454,0.37125579598145286,-0.92,-0.9688888888888889,-1.8055555555555556,-0.020042540393542883,-0.017316306428632883,-0.004498623238633954
