time,acc_x,acc_y,acc_z,mag_x,mag_y,mag_z,gyr_x,gyr_y,gyr_z
1592176813.5131867,-0.07732845163576238,9.514397070981458,2.0970686193456953,-0.37777777777777777,-0.4722222222222222,-0.057777777777777775,0.005134389887189236,-0.03439859569591782,0.0
1592176813.5231867,-0.09496193336592862,9.522480966682965,2.1436833833903752,-0.37777777777777777,-0.4722222222222222,-0.057777777777777775,0.0006890359839007267,-0.0407625337509646,0.0020421933979635227
1592176813.5331867,-0.1264045485594889,9.51359545144051,2.2520227427974446,-0.36775277588031235,-0.48862677078171113,-0.06415732443980124,-0.014707872144146775,-0.05794890053317694,0.0005883043662421117
1592176813.5431867,-0.11566642147848474,9.490888561971314,2.27,-0.3655555555555556,-0.4922222222222222,-0.06555555555555556,-0.017453292519943295,-0.061086523819801536,0.0
1592176813.5531867,-0.09217111575145324,9.462171115751454,2.183882273265986,-0.3655555555555556,-0.4922222222222222,-0.06555555555555556,-0.01659929372685165,-0.06535651778525975,0.0017079975861832876
1592176813.5631866,-0.1387947000997293,9.492529800066487,2.200662250083108,-0.3655555555555556,-0.4922222222222222,-0.06555555555555556,-0.011926898329824537,-0.06742779041380827,0.0012945488834684516
1592176813.5731866,-0.1195182382511315,9.487807295300453,2.2160963523497736,-0.3655555555555556,-0.4922222222222222,-0.06555555555555556,-0.007583263422925684,-0.07428159731885801,0.0037508663041275567
1592176813.5831866,-0.12694158995815902,9.49347079497908,2.2267353974895396,-0.3655555555555556,-0.486983579730358,-0.06031691306369131,-0.006188871803876211,-0.08147868790532056,0.0047194360210883485
1592176813.5931866,-0.10751110213968512,9.508122224465078,2.2706111223253935,-0.3655555555555556,-0.48444444444444446,-0.057777777777777775,-0.00920297643563484,-0.08290313946973066,0.0034773258831004555
1592176813.6031866,-0.09151642569096095,9.493032851381923,2.1781971082915317,-0.3655555555555556,-0.48444444444444446,-0.057777777777777775,-0.01351913464322646,-0.08475396827010984,0.0004962491469205992
1592176813.6131866,-0.09,9.473687762173993,2.2334050702170343,-0.3655555555555556,-0.48444444444444446,-0.057777777777777775,-0.01596018928765515,-0.08063632824672051,-0.0008896945576006112
1592176813.6231866,-0.07758115989875647,9.47,2.274837680202487,-0.3655555555555556,-0.48444444444444446,-0.057777777777777775,-0.016362461737446838,-0.07827596181570749,-0.0044775440488309184
1592176813.6331866,-0.025800844816840945,9.46263347413614,2.326832629319299,-0.371285075671891,-0.47052989559048697,-0.04222622317629589,-0.015558898420211378,-0.07423473228830653,-0.008955674646685119
1592176813.6431866,-0.01,9.427705619562662,2.2996320244533273,-0.37333333333333335,-0.46555555555555556,-0.03666666666666667,-0.0002998566348028694,-0.06515942896365505,-0.011578862256603106
1592176813.6531866,-0.01,9.460021344717182,2.209957310565635,-0.37333333333333335,-0.46555555555555556,-0.03666666666666667,0.020735098257251203,-0.0571562733163778,-0.012872268902949107
1592176813.6631866,-0.01787781954887218,9.493633458646617,2.1978778195488724,-0.37333333333333335,-0.46555555555555556,-0.03666666666666667,0.03110446564142197,-0.05219502268217441,-0.014808643002529896
1592176813.6731865,-0.04362513908330641,9.505906284770827,2.223625139083307,-0.37333333333333335,-0.46555555555555556,-0.03666666666666667,0.028214993408148297,-0.04998049532969189,-0.013983079507308847
1592176813.6831865,-0.052307816018012224,9.494615632036025,2.24,-0.3870083270790894,-0.4749571137557629,-0.04264947643043494,0.01837641113967574,-0.048248298105122676,-0.008894533853868257
1592176813.6931865,-0.04103358149849517,9.476550372247743,2.2534496277522575,-0.39111111111111113,-0.4777777777777778,-0.044444444444444446,0.016362461737446838,-0.046040385367806615,-0.00616868868094711
1592176813.7031865,-0.007227250555525443,9.452409083518509,2.1789090022221016,-0.39111111111111113,-0.4777777777777778,-0.044444444444444446,0.021330704956669222,-0.03700890700756173,-0.0027072420569116966
1592176813.7131865,-0.015935300356764055,9.481870600713528,2.2057735512486745,-0.39111111111111113,-0.4777777777777778,-0.044444444444444446,0.03333707612691656,-0.03316831342413809,-0.003050797372867161
1592176813.7231865,-0.013967888256893945,9.526192670458636,2.2320642234862125,-0.39111111111111113,-0.4777777777777778,-0.044444444444444446,0.03336541055324767,-0.03140892084032599,-0.0032724923474893677
1592176813.7331865,-0.03888098693759071,9.61498222060958,2.2761012336719886,-0.3870998629253346,-0.49302052088372844,-0.04925794226737623,-0.010896671241145468,-0.030543261909900768,-0.006422919305529568
1592176813.7431865,-0.09311833436464893,9.56160302842791,2.317438940050231,-0.38555555555555554,-0.4988888888888889,-0.051111111111111114,-0.05207094021755832,-0.02797772701454074,-0.0063530480297951785
1592176813.7531865,-0.18210973544355546,9.403150440927408,2.3084106172983705,-0.38555555555555554,-0.4988888888888889,-0.051111111111111114,-0.09455861828298638,-0.022390411880609817,-0.005167255797141931
1592176813.7631865,-0.19763043276804745,9.39,2.2976304327680475,-0.38555555555555554,-0.4988888888888889,-0.051111111111111114,-0.06353141616578051,-0.023481317839360277,-0.00545415391248228
1592176813.7731864,-0.22215508208173246,9.406616311561299,2.2723061473978343,-0.38555555555555554,-0.4988888888888889,-0.051111111111111114,-0.027470704404575216,-0.02701920790535821,-0.002433223222046103
1592176813.7831864,-0.16746873617757047,9.479343761309261,2.2038437412039085,-0.3679722188713302,-0.4849687473472105,-0.055506945282167444,0.01862934925484599,-0.03520656460164996,0.0014385333685614126
1592176813.7931864,-0.11089208694538157,9.513821582610923,2.195286330443695,-0.35888888888888887,-0.4777777777777778,-0.057777777777777775,0.03455218265729134,-0.0390128173773457,0.002181661564992912
1592176813.8031864,-0.06599857310299138,9.47099500586047,2.212999286551496,-0.35888888888888887,-0.4777777777777778,-0.057777777777777775,0.04385186440731166,-0.039597079579462326,0.008290936548245243
1592176813.8131864,-0.06,9.388107307289054,2.354416282992205,-0.35888888888888887,-0.4777777777777778,-0.057777777777777775,0.06906987160975644,-0.03551910514650059,0.013908950243662017
1592176813.8231864,-0.08990839290442149,9.369969464301475,2.42,-0.35888888888888887,-0.4777777777777778,-0.057777777777777775,0.11171189283013047,-0.0289220049121189,0.015815380882202742
1592176813.8331864,-0.12,9.436851052450626,2.388990335026932,-0.36233440721922977,-0.48524306749351637,-0.057777777777777775,0.16879561450171693,-0.024562048833380774,0.018617548211281816
1592176813.8431864,-0.1541163180695952,9.524116318069595,2.3054138910886475,-0.3655555555555556,-0.4922222222222222,-0.057777777777777775,0.1890090073245159,-0.023600502799988307,0.019981482268717574
1592176813.8531864,-0.18337902673063744,9.573447566826593,2.119451679232351,-0.3655555555555556,-0.4922222222222222,-0.057777777777777775,0.16281266245343268,-0.028745148111474467,0.01525667782564954
1592176813.8631864,-0.16756204653155204,9.59,2.0474793178228157,-0.3655555555555556,-0.4922222222222222,-0.057777777777777775,0.11137303144114107,-0.03979276280559928,0.0073789003107160335
1592176813.8731863,-0.15738976560686935,9.59,2.0604409375725226,-0.3655555555555556,-0.4922222222222222,-0.057777777777777775,0.08593127711478217,-0.04425079493269651,0.004599956704814917
1592176813.8831863,-0.15632474365375015,9.539402050769999,2.134273205576251,-0.3704748006195835,-0.4830864813890276,-0.053561282008611016,0.022292301487912423,-0.05667653278814126,-0.001957873476352947
1592176813.8931863,-0.17630660181729066,9.487170757455793,2.156738679636542,-0.37333333333333335,-0.4777777777777778,-0.051111111111111114,0.0011850955396310887,-0.0625095432774186,-0.0050748328587943555
1592176813.9031863,-0.2221873417721519,9.458281012658228,2.070782278481013,-0.37333333333333335,-0.4777777777777778,-0.051111111111111114,0.007652661218673237,-0.07143229435262805,-0.008539133829258966
1592176813.9131863,-0.2613956517620311,9.482558260704813,2.026279130352406,-0.37333333333333335,-0.4777777777777778,-0.051111111111111114,0.0373167516795096,-0.08554152700582425,-0.011187370777610606
1592176813.9231863,-0.19161725067385446,9.499303447297489,2.048606894594978,-0.37333333333333335,-0.4777777777777778,-0.051111111111111114,0.05771359890345982,-0.09619660474264781,-0.00996944126837412
1592176813.9331863,-0.09962427509597321,9.514812137547986,2.0988728252879194,-0.37333333333333335,-0.4932835543212902,-0.051111111111111114,0.06973119962156059,-0.09829772611199993,-0.009210583807560433
1592176813.9431863,-0.16521278353435456,9.554507989708972,2.109295206174617,-0.37333333333333335,-0.51,-0.051111111111111114,0.06898344145143671,-0.09414943052885932,-0.013919698018293932
1592176813.9531863,-0.19,9.537672597545379,2.0547416365635307,-0.37333333333333335,-0.51,-0.051111111111111114,0.06269458691458898,-0.09451672180900825,-0.012450532897698223
1592176813.9631863,-0.20261712633987716,9.551542815849693,2.0363085631699387,-0.37333333333333335,-0.51,-0.051111111111111114,0.056554905587758865,-0.09283780560746394,-0.010220150335055318
1592176813.9731863,-0.2053277983535483,9.57,2.04,-0.37333333333333335,-0.51,-0.051111111111111114,0.049444957746842655,-0.09010081131630826,-0.006249870077882004
1592176813.9831862,-0.1909474341951105,9.556421151292666,2.058105131609779,-0.37534501462330877,-0.4954153106476781,-0.05412863304607427,0.03227719124322775,-0.08638232989410329,-0.004650365925129974
1592176813.9931862,-0.15316582190300032,9.54670854452425,2.08670854452425,-0.37777777777777777,-0.4777777777777778,-0.057777777777777775,0.002444772182280064,-0.08545754762678708,-0.014221913662995064
1592176814.0031862,-0.11450252798844349,9.511753791982665,2.051753791982665,-0.37777777777777777,-0.4777777777777778,-0.057777777777777775,-0.011712175065343007,-0.08548029613356883,-0.014671949785338527
1592176814.0131862,-0.08175751879699249,9.477838345864662,2.096889097744361,-0.37777777777777777,-0.4777777777777778,-0.057777777777777775,-0.010628423611034547,-0.07646170168173702,-0.01308996938995747
1592176814.0231862,-0.07,9.447500400776617,2.1534997595340304,-0.37777777777777777,-0.4777777777777778,-0.057777777777777775,0.003654082018807084,-0.06403188934279347,-0.011617374064355436
1592176814.0331862,-0.03561796007146742,9.475870814883866,2.1528089800357337,-0.3811204761041629,-0.491626099415659,-0.05491260778373339,0.03667459862346441,-0.05328830818737765,-0.006535790634549864
1592176814.0431862,0.003580729473262851,9.582096352633686,2.0979036473663144,-0.38555555555555554,-0.51,-0.051111111111111114,0.07828273175329337,-0.040374942946405,0.013223481796828754
1592176814.0531862,-0.006206128133704736,9.618618384401115,2.0179387186629527,-0.38555555555555554,-0.51,-0.051111111111111114,0.07372679138299167,-0.028813732992360425,0.03738723754916266
1592176814.0631862,-0.04564575645756458,9.558708487084871,2.0334686346863466,-0.38555555555555554,-0.51,-0.051111111111111114,0.04147169576406267,-0.012127945194324065,0.05468242132920426
1592176814.0731862,-0.1181297976273552,9.483747383112352,2.105003489183531,-0.38555555555555554,-0.51,-0.051111111111111114,0.016020673167076352,0.006273228526554986,0.0552228326002829
1592176814.0831861,-0.20392124132174969,9.453986873553625,2.1779081148753745,-0.3877704853075694,-0.5055701404959723,-0.051111111111111114,0.007407626208736413,0.023762928580297903,0.04038937641591026
1592176814.0931861,-0.2774236267151121,9.44752545776163,2.2449490844767412,-0.39111111111111113,-0.4988888888888889,-0.051111111111111114,0.020163707410161217,0.03911828076153907,0.013663154891244393
1592176814.1031861,-0.34517141168357796,9.45935917643582,2.1567510590089647,-0.39111111111111113,-0.4988888888888889,-0.051111111111111114,0.027200866555415638,0.040113633703196316,-0.009328155993497796
1592176814.1131861,-0.39525167109607795,9.472525167109609,2.1075755013288235,-0.39111111111111113,-0.4988888888888889,-0.051111111111111114,0.033319754370301866,0.034873641370446615,-0.021585087541104973
1592176814.123186,-0.448125,9.519375,2.1125,-0.39111111111111113,-0.4988888888888889,-0.051111111111111114,0.05897303917871465,0.013635384781205698,-0.029997846518652536
1592176814.133186,-0.3536214781971162,9.599040603288762,2.019472820584436,-0.39387688285289796,-0.5034985084585336,-0.05986938829343605,0.07625350082822746,-0.01421473272935105,-0.019205979538483665
1592176814.143186,-0.214286344069291,9.666122089103263,1.86122529951766,-0.3977777777777778,-0.51,-0.07222222222222222,0.06291224109414165,-0.053383638175185134,-0.020169110966474522
1592176814.153186,-0.191561634238767,9.676876731522466,1.812822023373563,-0.3977777777777778,-0.51,-0.07222222222222222,0.045785054198412764,-0.06759562569472108,-0.025600151607012723
1592176814.163186,-0.1804586720652896,9.630688008097934,1.7835093157878088,-0.3977777777777778,-0.51,-0.07222222222222222,-0.020150401218360182,-0.09574294205574356,-0.031559042651213856
1592176814.173186,-0.14835570868480458,9.599353094926933,1.8629381014613284,-0.3977777777777778,-0.51,-0.07222222222222222,-0.04729678719566447,-0.10774821344511742,-0.03483601864318119
1592176814.183186,0.0008917081017841486,9.582356683240715,2.080573267037145,-0.3977777777777778,-0.5057537129115076,-0.06967444996912678,-0.07205736537783697,-0.1191576295544701,-0.029230093396619805
1592176814.193186,-0.053208766767833565,9.53518684984825,2.13,-0.3977777777777778,-0.4988888888888889,-0.06555555555555556,-0.07998066927866174,-0.11654388264891055,-0.016753248207102393
1592176814.203186,-0.06462879044076203,9.520742419118475,2.0494318566114305,-0.3977777777777778,-0.4988888888888889,-0.06555555555555556,-0.080640492541943,-0.11972941945314353,-0.01543360168053987
1592176814.213186,-0.034866774655492164,9.585293095757917,1.9498401295865906,-0.3977777777777778,-0.4988888888888889,-0.06555555555555556,-0.07140581836147852,-0.11997394691779441,-0.012518395263485634
1592176814.223186,0.016231360797198245,9.643747337256743,1.9050106509730296,-0.3977777777777778,-0.4988888888888889,-0.06555555555555556,-0.06612958296722991,-0.11467503831109545,-0.0002779359797840022
1592176814.233186,0.05727167500560078,9.625445075050408,1.8854566499887984,-0.39444315834017873,-0.5037392444344875,-0.06737443888515504,-0.07923719535019605,-0.10441961577098467,0.0137848231405881
1592176814.243186,0.039398636374360065,9.4804897728077,1.9848109090051196,-0.38555555555555554,-0.5166666666666667,-0.07222222222222222,-0.11069869779559942,-0.07403312334896943,0.015074835168653867
1592176814.253186,-0.00016917421976667124,9.415028195703295,2.0650281957032943,-0.38555555555555554,-0.5166666666666667,-0.07222222222222222,-0.11835206422675669,-0.04681345342408445,0.0010293173003210216
1592176814.263186,-0.07229113691771305,9.446431960573571,2.165155058064854,-0.38555555555555554,-0.5166666666666667,-0.07222222222222222,-0.1085832297142945,-0.023623390813408713,-0.020197283687206184
1592176814.273186,-0.19714722141402385,9.452570555717195,2.293573610707012,-0.38555555555555554,-0.5166666666666667,-0.07222222222222222,-0.09275140225147782,-0.015076720726757007,-0.03135368856195334
1592176814.283186,-0.33461023829211456,9.446406825528076,2.39511877020221,-0.39649343924093977,-0.5093747442097438,-0.06629753522597241,-0.07440203106342032,-0.015131125915049032,-0.030236340191575256
1592176814.293186,-0.35973982970671714,9.46201986754967,2.450879848628193,-0.4122222222222222,-0.4988888888888889,-0.057777777777777775,-0.058944078498644824,-0.020505451497458214,-0.023348113172374473
1592176814.303186,-0.23966413526293168,9.420167932368534,2.2842023212494627,-0.4122222222222222,-0.4988888888888889,-0.057777777777777775,-0.0200658783530753,-0.030570739779446958,-0.01091746711481329
1592176814.313186,-0.18731362619243908,9.448457582538374,2.1762564283751424,-0.4122222222222222,-0.4988888888888889,-0.057777777777777775,-0.0051611159882243105,-0.0340463990418492,-0.013267684921985904
1592176814.323186,-0.0377602997755691,9.543039836486052,2.052320054504649,-0.4122222222222222,-0.4988888888888889,-0.057777777777777775,0.006544984694978735,-0.03557853977467185,-0.03153804607372358
1592176814.333186,0.03382033967669327,9.599101698383466,2.055281358706773,-0.416891526271514,-0.505680603869677,-0.06626742150376282,0.002794374987942118,-0.028655568861492228,-0.04196629365228641
1592176814.343186,0.04,9.63,2.08,-0.42444444444444446,-0.5166666666666667,-0.08,-0.0032724923474893677,-0.01854412330243975,-0.039269908169872414
1592176814.353186,-0.03264991896272285,9.520967044840626,2.205299837925446,-0.42444444444444446,-0.5166666666666667,-0.08,-0.014351702888242135,0.010001050132013023,0.008226608486363737
1592176814.363186,-0.03270249935341281,9.42702687451506,2.265946250969881,-0.42444444444444446,-0.5166666666666667,-0.08,0.0034200960048984836,0.03110354025848498,0.03767804568494553
1592176814.3731859,0.0028416611068034694,9.403579169446598,2.2839479236164957,-0.42444444444444446,-0.5166666666666667,-0.08,0.03419435949931616,0.055230121507621244,0.056332773869003684
1592176814.3831859,0.0009928252131775651,9.406115097103791,2.2338849028962096,-0.4201470852167671,-0.5179200631080726,-0.08250679288281182,0.05415386210167569,0.08114054279383248,0.05271616671702934
1592176814.3931859,-0.21219197463105258,9.499567996097085,2.1069440175631176,-0.3977777777777778,-0.5244444444444445,-0.09555555555555556,0.061988857340114674,0.1024438449235752,0.016264727343883977
1592176814.4031858,-0.3049963526722755,9.53999562320673,2.0400029178621795,-0.3977777777777778,-0.5244444444444445,-0.09555555555555556,0.0659953419133827,0.11344512822207756,0.0032728106368778314
1592176814.4131858,-0.33,9.57,2.02,-0.3977777777777778,-0.5244444444444445,-0.09555555555555556,0.06544984694978735,0.12217304763960307,0.001090830782496456
1592176814.4231858,-0.30375880861597426,9.554397021539936,2.0980853612281156,-0.3977777777777778,-0.5244444444444445,-0.09555555555555556,0.06224697283262241,0.1139260420243376,0.013902327251156248
1592176814.4331858,-0.2641134138324741,9.514822682766495,2.1677659758502577,-0.39720252030738834,-0.5224310432980813,-0.09325452567399771,0.0574542833832295,0.10904439363033068,0.0237545829837841
1592176814.4431858,-0.17591038081288907,9.495303460270963,2.161820761625778,-0.39555555555555555,-0.5166666666666667,-0.08666666666666667,0.052227468037897413,0.10734752493445156,0.0241306867368545
1592176814.4531858,-0.17300572827643554,9.51167621379406,2.0563008731001986,-0.39555555555555555,-0.5166666666666667,-0.08666666666666667,0.053595735874641434,0.10861017662455492,0.0170875993990223
1592176814.4631858,-0.14107188838690043,9.593005454247525,1.9192265736557503,-0.39555555555555555,-0.5166666666666667,-0.08666666666666667,0.045243572189564374,0.09820732758303406,0.004236771540340645
1592176814.4731858,-0.034141348847231204,9.67,1.8540235581412052,-0.39555555555555555,-0.5166666666666667,-0.08666666666666667,0.02382379756595129,0.07617082615297865,-0.005780118249950965
1592176814.4831858,0.061215110268780154,9.665015506547208,1.8449844934527913,-0.39804780228195114,-0.5191589133930623,-0.09040503675626005,-0.008434486292468072,0.056862514665957244,-0.006544984694978735
1592176814.4931858,0.14,9.63,1.88,-0.41555555555555557,-0.5366666666666666,-0.11666666666666667,-0.05235987755982988,0.05017821599483697,-0.006544984694978735
1592176814.5031857,0.19,9.553898728791022,1.8761012712089782,-0.41555555555555557,-0.5366666666666666,-0.11666666666666667,-0.09497132167227547,0.08955859391684348,0.010057737149394216
1592176814.5131857,0.14326791112817314,9.520653582225634,1.956078506646192,-0.41555555555555557,-0.5366666666666666,-0.11666666666666667,-0.11330381185750846,0.1375480874054763,0.0188400070299728
1592176814.5231857,0.09,9.51,2.02,-0.41555555555555557,-0.5366666666666666,-0.11666666666666667,-0.11562806294462433,0.16253378659197193,0.022907446432425576
1592176814.5331857,-0.04199820298460817,9.541579420267208,2.1787346667708416,-0.41218732366243893,-0.5376022866369768,-0.11666666666666667,-0.10032217040872517,0.19563754769700833,0.04169238092135987
1592176814.5431857,-0.2,9.5,2.37,-0.39555555555555555,-0.5422222222222223,-0.11666666666666667,-0.0839939702522271,0.20289452554434081,0.06981317007977318
1592176814.5531857,-0.22312877374025689,9.462821934350643,2.2915945767921837,-0.39555555555555555,-0.5422222222222223,-0.11666666666666667,-0.07813157809871614,0.17641334789809918,0.08791558415603683
1592176814.5631857,-0.18403236650019208,9.464623511333077,2.1497044275835573,-0.39555555555555555,-0.5422222222222223,-0.11666666666666667,-0.07432311419324958,0.14433280039291016,0.07204472678116294
1592176814.5731857,-0.15,9.51,2.11,-0.39555555555555555,-0.5422222222222223,-0.11666666666666667,-0.07308566242726255,0.12762720155208535,0.05781403147231216
1592176814.5831857,-0.18060782362397612,9.48,2.150911735435964,-0.39555555555555555,-0.5422222222222223,-0.11675108661444113,-0.07320169315315085,0.105727706812236,0.03692248842503908
1592176814.5931857,-0.20826801090181135,9.47608933696727,2.221731989098189,-0.39555555555555555,-0.5422222222222223,-0.12222222222222222,-0.08541393668241731,0.09566397321199437,0.017648195547770258
1592176814.6031857,-0.2044579147904399,9.49891582958088,2.1821683408382406,-0.39555555555555555,-0.5422222222222223,-0.12222222222222222,-0.09272061651219875,0.08126028105535774,-0.0011565753464571017
1592176814.6131856,-0.2210412418128164,9.555972505458122,2.08,-0.39555555555555555,-0.5422222222222223,-0.12222222222222222,-0.09695536183372495,0.0618815968548113,-0.012211306385434164
1592176814.6231856,-0.19749591157172977,9.585024530569623,2.0850081768565407,-0.39555555555555555,-0.5422222222222223,-0.12222222222222222,-0.11618864159946388,0.04171758775537562,-0.015544784628915419
1592176814.6331856,-0.2055148058493882,9.617070995125511,2.1181006068242865,-0.39584286677498864,-0.5412166329542064,-0.12610092368456927,-0.15118237510664387,0.027195894086741813,-0.015375226782156996
1592176814.6431856,-0.2917259297231802,9.51172592972318,2.250964442166092,-0.3977777777777778,-0.5344444444444445,-0.15222222222222223,-0.22115066504666672,0.003626892888088401,-0.0059358976868474425
1592176814.6531856,-0.23336652259509855,9.496645923378063,2.2633416306487746,-0.3977777777777778,-0.5344444444444445,-0.15222222222222223,-0.27087425767589096,-0.017081988937080003,-0.005085565619747626
1592176814.6631856,-0.2255377228006994,9.50072574962812,2.3020431117722278,-0.3977777777777778,-0.5344444444444445,-0.15222222222222223,-0.2970343977649908,-0.03158131469008118,-0.01734773651531121
1592176814.6731856,-0.30391650337905385,9.404616307433919,2.471117287159595,-0.3977777777777778,-0.5344444444444445,-0.15222222222222223,-0.29752225293792256,-0.029330554004746847,-0.00898645303969528
1592176814.6831856,-0.2809130508762974,9.299989110090182,2.6054565254381488,-0.40171860170532964,-0.5350507250486832,-0.15434420433705784,-0.2893665767523464,-0.009617092337213182,0.022509052831685333
1592176814.6931856,-0.31,9.22,2.62,-0.4122222222222222,-0.5366666666666666,-0.16,-0.2814343418840856,0.00545415391248228,0.009817477042468103
1592176814.7031856,-0.21937805313952102,9.169856725842966,2.525454247587275,-0.4122222222222222,-0.5366666666666666,-0.16,-0.15650526666786715,-0.003204648469440619,-0.026096466115783125
1592176814.7131855,-0.22156512605042017,9.403076418067227,2.372891281512605,-0.4122222222222222,-0.5366666666666666,-0.16,0.00129607769837322,-0.010422189170054767,-0.033552499664660555
1592176814.7231855,-0.1651410341205307,9.572993619421856,2.374576897638408,-0.4122222222222222,-0.5366666666666666,-0.16,0.07143403181751215,-0.02169354016188338,-0.008646244014419007
1592176814.7331855,-0.15464466615502687,9.510710667689946,2.4265025326170377,-0.4127382962394474,-0.5386277479321224,-0.1612385776413405,0.0700457355374689,-0.036933202966415696,0.013620432948684296
1592176814.7431855,-0.21134618025358173,9.42,2.492836545063396,-0.4177777777777778,-0.5577777777777778,-0.17333333333333334,0.0412889961536959,-0.058579715092469765,0.034093717134039456
1592176814.7531855,-0.22960695278550852,9.407008690981886,2.474017381963771,-0.4177777777777778,-0.5577777777777778,-0.17333333333333334,0.05071889119079971,-0.06780300771499699,0.048932583216865395
1592176814.7631855,-0.19192478695813264,9.404992589848092,2.391924786958133,-0.4177777777777778,-0.5577777777777778,-0.17333333333333334,0.07061037783022678,-0.07954698577656631,0.05634591631209787
1592176814.7731855,-0.21757814834737912,9.510343075727691,2.3844803060187676,-0.4177777777777778,-0.5577777777777778,-0.17333333333333334,0.0628179919383096,-0.0777120602214868,0.042431237617107376
1592176814.7831855,-0.3967250115154307,9.54803500690926,2.4426199907876556,-0.41646778238395005,-0.5568316699933467,-0.17369722094272994,0.03321089838637713,-0.08590400440081396,0.004720568955114787
1592176814.7931855,-0.2982221172660414,9.509644423453208,2.48,-0.3977777777777778,-0.5433333333333333,-0.17888888888888888,-0.023206852654893396,-0.13662535950199892,0.0069934316255334155
1592176814.8031855,-0.12167371157026963,9.475278951928379,2.456394759641891,-0.3977777777777778,-0.5433333333333333,-0.17888888888888888,-0.07914378416174246,-0.16441115880665308,-0.0005758443262794046
1592176814.8131855,0.058493609540552105,9.429484962227397,2.3891545113317814,-0.3977777777777778,-0.5433333333333333,-0.17888888888888888,-0.10447911620090028,-0.18274224702098163,0.002422300483752405
1592176814.8231854,0.2676827792123951,9.380487411233053,2.420243705616527,-0.3977777777777778,-0.5433333333333333,-0.17888888888888888,-0.09809501794816863,-0.18178305030622477,0.00545415391248228
1592176814.8331854,0.28837911297285196,9.43189556486426,2.454862661081444,-0.40210014318350584,-0.5456746145947694,-0.18231076150175693,-0.08694280261088315,-0.16144592068705396,0.004393285833984943
1592176814.8431854,0.28,9.39,2.48,-0.42444444444444446,-0.5577777777777778,-0.2,-0.07963064712224129,-0.12762720155208535,-0.001090830782496456
1592176814.8531854,0.2584182263698452,9.381581773630154,2.4029383243835043,-0.42444444444444446,-0.5577777777777778,-0.2,-0.056445957581287995,-0.08287857146503651,-0.005719113018662927
1592176814.8631854,0.1924370453892242,9.44205036368862,2.2827562954610774,-0.42444444444444446,-0.5577777777777778,-0.2,-0.022390476905915127,-0.05387055917676469,-0.012642649424585397
1592176814.8731854,0.11638600704766029,9.525297950666378,2.2954209894285094,-0.42444444444444446,-0.5577777777777778,-0.2,0.013746310355688159,-0.032344119445797286,0.003745142022130528
1592176814.8831854,0.10010552290658788,9.639366862560474,2.3195779083736485,-0.4243154720030593,-0.5577777777777778,-0.20009379813918923,0.041394015917483054,-0.020679741813526845,0.021105640062155692
1592176814.8931854,0.11256055904087875,9.546712732468576,2.305605590408787,-0.4122222222222222,-0.5577777777777778,-0.2088888888888889,0.023148987360308404,-0.007983051870876421,0.062588787596415
1592176814.9031854,0.10371168107316611,9.437783760804875,2.3759279202682912,-0.4122222222222222,-0.5577777777777778,-0.2088888888888889,-0.018622750092581433,0.01880553419351697,0.08007484211425403
1592176814.9131854,0.07295080034890025,9.372555458638818,2.3541851528796056,-0.4122222222222222,-0.5577777777777778,-0.2088888888888889,-0.03367164393642287,0.030898806038682586,0.08223517630286332
1592176814.9231853,0.20222757375075257,9.315544852498496,2.3502083082480434,-0.4122222222222222,-0.5577777777777778,-0.2088888888888889,-0.022133028817302263,0.04586033867469387,0.08009390542084031
1592176814.9331853,0.16014148103552078,9.399717037928959,2.459632149307646,-0.4122222222222222,-0.5577777777777778,-0.2088888888888889,-0.012033091618571832,0.06973291750805671,0.05897585491440396
1592176814.9431853,0.21193978614339062,9.329945260130355,2.3260109479739293,-0.40444444444444444,-0.5644444444444444,-0.2222222222222222,0.03598547343541535,0.08114467359207185,0.034697972792961454
1592176814.9531853,0.3052386996685706,9.427462332228568,2.2663441694285784,-0.40444444444444444,-0.5644444444444444,-0.2222222222222222,0.053069739351744284,0.10607096684840475,0.015392218999283901
1592176814.9631853,0.2941975073278841,9.539292948549912,2.0697643161833046,-0.40444444444444444,-0.5644444444444444,-0.2222222222222222,0.04896128316706515,0.13556663935254884,-0.011770200097310494
1592176814.9731853,0.10597671945166627,9.687317812967777,2.134752028677224,-0.40444444444444444,-0.5644444444444444,-0.2222222222222222,0.02948113493906064,0.14849927702847604,-0.021231453214096897
1592176814.9831853,0.08119357125974946,9.670795714173167,2.2256235720475854,-0.40444444444444444,-0.5644444444444444,-0.2222222222222222,-0.01737818134812403,0.14940041772630655,-0.017626890422775
1592176814.9931853,0.021781478564194892,9.523681557330933,2.3731592213345336,-0.4177777777777778,-0.5644444444444444,-0.19333333333333333,-0.09717725004624149,0.1499516604876565,0.00567958654611939
1592176815.0031853,0.035284746918692454,9.316605933648367,2.478678813270327,-0.4177777777777778,-0.5644444444444444,-0.19333333333333333,-0.1433311898532817,0.14682979829077558,0.02210485388075977
1592176815.0131853,0.07148656603951303,9.362973132079025,2.4685134339604873,-0.4177777777777778,-0.5644444444444444,-0.19333333333333333,-0.14211734486423847,0.14204375289419457,0.02205236681958444
1592176815.0231853,0.08447727140895996,9.38223863570448,2.46335795355672,-0.4177777777777778,-0.5644444444444444,-0.19333333333333333,-0.11731327301290613,0.13065549662585046,0.009198926908894879
1592176815.0331852,0.11691641369709391,9.398458206848547,2.4876873102728205,-0.4177777777777778,-0.5644444444444444,-0.19333333333333333,-0.10581294814906045,0.12888621587756652,-0.003186038329092783
1592176815.0431852,-0.10058143053324956,9.472621558084864,2.495533831436352,-0.3977777777777778,-0.5644444444444444,-0.2088888888888889,-0.11134949165114835,0.14093971433539482,-0.02411474116760949
1592176815.0531852,-0.2721177598684962,9.44,2.52,-0.3977777777777778,-0.5644444444444444,-0.2088888888888889,-0.10483785104373908,0.11419848463801845,-0.02721690168308125
1592176815.0631852,-0.21442579756931257,9.42322778199772,2.541564280288644,-0.3977777777777778,-0.5644444444444444,-0.2088888888888889,-0.09093641631521099,0.09137383096600647,-0.012657966428146542
1592176815.0731852,-0.10291300527240774,9.299028998242532,2.699028998242531,-0.3977777777777778,-0.5644444444444444,-0.2088888888888889,-0.06600005509491298,0.06417880862150062,0.00940482093362388
1592176815.0831852,-0.128042618629174,9.290652460456942,2.690652460456942,-0.3977777777777778,-0.5644444444444444,-0.2088888888888889,-0.033105468132759316,0.05321394630078273,0.03407576115523914
1592176815.0931852,0.09,9.29,2.7,-0.4122222222222222,-0.5788888888888889,-0.2311111111111111,0.015271630954950384,0.0370882466048795,0.04036073895236887
1592176815.1031852,0.10816651273255047,9.36213906847869,2.5966386066763425,-0.4122222222222222,-0.5788888888888889,-0.2311111111111111,0.06672401329776,0.017403291911177066,0.014971627302352995
1592176815.1131852,-0.02011145104895105,9.489888548951049,2.390111451048951,-0.4122222222222222,-0.5788888888888889,-0.2311111111111111,0.07694661115331455,0.012219932250693592,-0.0076722877479563885
1592176815.1231852,-0.0936913616398243,9.41,2.4857715959004394,-0.4122222222222222,-0.5788888888888889,-0.2311111111111111,0.06045941057990425,-0.005336989423164651,-0.03553616848711954
1592176815.1331851,-0.04456339677891655,9.41,2.608591508052709,-0.4122222222222222,-0.5788888888888889,-0.2311111111111111,0.030091575980617555,-0.021414078328669373,-0.04893374257504013
1592176815.1431851,-0.27113784345416764,9.41738513045486,2.6540918956361117,-0.4122222222222222,-0.5644444444444444,-0.24444444444444444,0.022212850927468584,-0.03348039494386115,-0.05818638987195261
1592176815.1531851,-0.20166283123333864,9.453123561712502,2.6073931964729202,-0.4122222222222222,-0.5644444444444444,-0.24444444444444444,0.03883848706839884,-0.060098664440888724,-0.03870119186362065
1592176815.1631851,-0.049666858127512925,9.39852383687536,2.51,-0.4122222222222222,-0.5644444444444444,-0.24444444444444444,0.05292346302155048,-0.0892350957522747,-0.015359975090695359
1592176815.173185,0.08855146347894875,9.383563109782896,2.510712621956579,-0.4122222222222222,-0.5644444444444444,-0.24444444444444444,0.06092851299712823,-0.12817134652864884,0.011607922794831924
1592176815.183185,0.1991509185198207,9.429646216049925,2.519929243209985,-0.4122222222222222,-0.5644444444444444,-0.24444444444444444,0.07299304200571984,-0.13520898845032728,0.020656319551275622
1592176815.193185,0.21,9.45,2.49,-0.3977777777777778,-0.56,-0.2288888888888889,0.08835729338221293,-0.13199052468207118,0.017453292519943295
1592176815.203185,0.31072324761509745,9.384937266694319,2.535660514309415,-0.3977777777777778,-0.56,-0.2288888888888889,0.07882802007614062,-0.12410434069183614,0.015861724711927157
1592176815.213185,0.2934064404664779,9.333296779766762,2.493296779766761,-0.3977777777777778,-0.56,-0.2288888888888889,0.05405805456890083,-0.10416167086776153,-0.024184776454862694
1592176815.223185,0.14,9.41,2.57,-0.3977777777777778,-0.56,-0.2288888888888889,0.05126904677733343,-0.08835729338221293,-0.056723200689815706
1592176815.233185,0.06696600313129054,9.44319727130396,2.589918362782375,-0.3977777777777778,-0.56,-0.2288888888888889,0.06285708051597169,-0.08835729338221293,-0.07265674708044333
1592176815.243185,0.049098837209302325,9.411802325581396,2.5737790697674416,-0.4177777777777778,-0.5644444444444444,-0.2644444444444444,0.08070245178643838,-0.08816069015978624,-0.0849960124826599
1592176815.253185,0.05076399276640396,9.43489272398473,2.3972789176397047,-0.4177777777777778,-0.5644444444444444,-0.2644444444444444,0.10606060195031565,-0.08457449163737966,-0.07223172099801436
1592176815.263185,0.15119818905627974,9.484393359873026,2.2792012072958134,-0.4177777777777778,-0.5644444444444444,-0.2644444444444444,0.13979896349936224,-0.069116091943325,-0.06331339896261862
1592176815.273185,0.18,9.59,2.26,-0.4177777777777778,-0.5644444444444444,-0.2644444444444444,0.17016960206944715,-0.05235987755982988,-0.038179077387375956
1592176815.283185,0.28424944139752184,9.612339166013754,2.2153216679724905,-0.4177777777777778,-0.5644444444444444,-0.2644444444444444,0.15961002709410282,-0.041800302584485576,-0.025994952415824835
1592176815.293185,0.38,9.22,2.33,-0.4122222222222222,-0.5722222222222222,-0.24333333333333335,0.10362892433716332,-0.00545415391248228,0.011999138607461015
1592176815.303185,0.34080740621666256,9.31976296599395,2.251614812433325,-0.4122222222222222,-0.5722222222222222,-0.24333333333333335,0.1514339788153768,0.02408392852934067,0.014719751463944709
1592176815.313185,0.27338379926639295,9.491386692776455,2.116767598532786,-0.4122222222222222,-0.5722222222222222,-0.24333333333333335,0.2336737310806533,0.07489873480707251,0.019400062568472643
1592176815.323185,-0.05226287603781045,9.815693311289222,2.0822628760378104,-0.4122222222222222,-0.5722222222222222,-0.24333333333333335,0.29504977077023004,0.10362892433716332,0.015420261206772404
1592176815.333185,-0.18793731804622077,9.65740646227941,2.2179373180462205,-0.4122222222222222,-0.5722222222222222,-0.24333333333333335,0.22845073478686811,0.10362892433716332,0.017064681848336895
1592176815.343185,-0.27,9.41,2.35,-0.38555555555555554,-0.5788888888888889,-0.24333333333333335,0.062177354602297986,0.10035643198967394,0.04036073895236887
1592176815.353185,-0.149202349923462,9.26132596913657,2.359292126928964,-0.38555555555555554,-0.5788888888888889,-0.24333333333333335,0.02061918843748535,0.07704331438502296,0.05759217370363265
1592176815.363185,-0.0647457102739237,9.539757966634141,2.0584987743639784,-0.38555555555555554,-0.5788888888888889,-0.24333333333333335,0.09215281026086572,0.06454917622540238,0.052304400147654556
1592176815.373185,0.005695886304335758,9.656012879586966,2.040569588630434,-0.38555555555555554,-0.5788888888888889,-0.24333333333333335,0.16524708660916806,0.051959528794877675,0.03793054746280118
1592176815.383185,0.08331205240659524,9.601681563315383,2.0483312052406593,-0.38555555555555554,-0.5788888888888889,-0.24333333333333335,0.1576271373208348,0.031639664025989056,0.03454390333465308
1592176815.393185,0.12,9.47,2.05,-0.4122222222222222,-0.5911111111111111,-0.2644444444444444,0.09381144729469522,0.01308996938995747,0.02181661564992912
1592176815.403185,0.2453264549411575,9.498921489601805,2.06928099306787,-0.4122222222222222,-0.5911111111111111,-0.2644444444444444,0.06121138112361783,0.007831894201074023,-0.004473760294488122
1592176815.413185,0.18888761287126485,9.552224774257471,1.961112387128735,-0.4122222222222222,-0.5911111111111111,-0.2644444444444444,0.06332885669089831,0.010848889246233695,-0.02957377373961203
1592176815.4231849,0.1700007833000431,9.59,1.9800133161007323,-0.4122222222222222,-0.5911111111111111,-0.2644444444444444,0.06435739271647294,0.028363480130065486,-0.0316332382445983
1592176815.4331849,0.17821427172678495,9.59,2.119642619355344,-0.4122222222222222,-0.5911111111111111,-0.2644444444444444,0.04733429330209296,0.04807443734671599,-0.022673712237029887
1592176815.4431849,0.15150117211240702,9.561501172112408,2.235496483662779,-0.40483363721432775,-0.5731674046633674,-0.2781661023162485,0.022908298816621663,0.09795472902295034,0.05284772544805719
1592176815.4531848,0.11307762934398384,9.523077629343984,2.295383555984024,-0.40444444444444444,-0.5722222222222222,-0.2788888888888889,0.02181661564992912,0.10035643198967394,0.056723200689815706
1592176815.4631848,0.1285146448533116,9.473713387866722,2.225941420586754,-0.40444444444444444,-0.5722222222222222,-0.2788888888888889,0.015757712290034562,0.10338588366962123,0.07893917967609576
1592176815.4731848,0.06498410041841005,9.488575971309025,2.1735600717274357,-0.40444444444444444,-0.5722222222222222,-0.2788888888888889,0.04262700673513628,0.11578686912835705,0.0868004503003346
1592176815.4831848,0.12883059530118351,9.497647843922353,2.1241129364658775,-0.40444444444444444,-0.5722222222222222,-0.2788888888888889,0.04889531386747063,0.1292326490824686,0.08893496331376285
1592176815.4931848,0.179533714511041,9.48031085699264,2.11,-0.41210133339175137,-0.5864421588386494,-0.271231999941582,0.00937092177536962,0.16314988804733305,0.0550840869272632
1592176815.5031848,0.15039548829240434,9.499736341138398,2.001450123738816,-0.4122222222222222,-0.5866666666666667,-0.27111111111111114,-0.01172591176526233,0.17115977033113355,0.013636423074354843
1592176815.5131848,0.14085123784261716,9.518297524314765,1.926809902740937,-0.4122222222222222,-0.5866666666666667,-0.27111111111111114,-0.008007238054256257,0.17724828368175072,0.0031102180069455757
1592176815.5231848,0.13079480921195719,9.602846717092385,1.9844363355162997,-0.4122222222222222,-0.5866666666666667,-0.27111111111111114,-0.006631684930440199,0.1788095480939573,0.014231228129412816
1592176815.5331848,0.13756453159553025,9.61756453159553,2.035387189573181,-0.4122222222222222,-0.5866666666666667,-0.27111111111111114,-0.01892242057433587,0.18054657311333305,0.03507552836192179
1592176815.5431848,0.1113138189244384,9.524379396414794,2.116934422509644,-0.4122222222222222,-0.5845417643647732,-0.31254670599803347,-0.03646721315053786,0.17064732011124842,0.0508391005397123
1592176815.5531847,0.13816541770746602,9.529388472569154,2.1387769451383107,-0.4122222222222222,-0.5844444444444444,-0.31444444444444447,-0.03913649358069115,0.16504898462991802,0.06253440514429748
1592176815.5631847,0.1580134302019114,9.475959709394266,1.995892558384709,-0.4122222222222222,-0.5844444444444444,-0.31444444444444447,-0.05498959149994945,0.15980304711631577,0.0544258635116261
1592176815.5731847,0.10630737383110858,9.514743855140743,2.150026649534823,-0.4122222222222222,-0.5844444444444444,-0.31444444444444447,-0.07136559304434109,0.1416904234190521,0.023189764142973888
1592176815.5831847,0.08527651894140036,9.5052765189414,2.1773617405293,-0.4122222222222222,-0.5844444444444444,-0.31444444444444447,-0.08111607560937455,0.11874726588605515,0.014013664857457805
1592176815.5931847,0.13590909090909092,9.509318181818182,2.226590909090909,-0.38737373737373737,-0.5782323232323232,-0.27406565656565657,-0.10127372151131869,0.09906726833763269,0.010982682651043863
1592176815.6031847,0.15843741326672217,9.482343880099917,2.2945309464335275,-0.38555555555555554,-0.5777777777777777,-0.27111111111111114,-0.09851567396647704,0.10119158511582341,0.02599238128067638
1592176815.6131847,0.16871958940037987,9.427682463597721,2.2825608211992403,-0.38555555555555554,-0.5777777777777777,-0.27111111111111114,-0.08295621597881839,0.10144726277217041,0.03868468539680839
1592176815.6231847,0.1961452352927046,9.402569843138197,2.28,-0.38555555555555554,-0.5777777777777777,-0.27111111111111114,-0.060757458673711295,0.11475660892618803,0.048916747194237345
1592176815.6331847,0.19278893333596075,9.428844266656156,2.2655778666719213,-0.38555555555555554,-0.5777777777777777,-0.27111111111111114,-0.04129531913959927,0.12615815791724244,0.04939161064566017
1592176815.6431847,0.1812243029020747,9.466327091293776,2.2775513941958505,-0.38555555555555554,-0.5777777777777777,-0.29061266021761173,-0.02246194434792036,0.14033894370258815,0.05387378547848137
1592176815.6531847,0.13615223351072409,9.513847766489276,2.227382680212869,-0.38555555555555554,-0.5777777777777777,-0.29333333333333333,-0.029335273684872036,0.14563444119895677,0.045932050307383426
1592176815.6631846,0.10425778319579895,9.528580738934734,2.1856770442610656,-0.38555555555555554,-0.5777777777777777,-0.29333333333333333,-0.04739150340973279,0.14149125777123842,0.03442791449912401
1592176815.6731846,0.11678742662020254,9.454456580209088,2.205181139930304,-0.38555555555555554,-0.5777777777777777,-0.29333333333333333,-0.06299678519618913,0.132476662169745,0.015328293844487174
1592176815.6831846,0.11308539999211449,9.467658400031542,2.265316800063084,-0.38555555555555554,-0.5777777777777777,-0.29333333333333333,-0.06922117621841323,0.12637409877722366,-0.007611773589393515
1592176815.6931846,0.09349943517007656,9.496500564829924,2.3395016944897704,-0.395639234062731,-0.5713608914550298,-0.29883352160997445,-0.06910406845776375,0.10545541895728416,-0.007362799714917399
1592176815.7031846,0.07284413623926786,9.5,2.375733795641098,-0.3977777777777778,-0.57,-0.3,-0.08182224030064214,0.09021877619785718,-0.012004104414164992
1592176815.7131846,0.12970030871526955,9.474414153407743,2.337356922346236,-0.3977777777777778,-0.57,-0.3,-0.08678495315813385,0.07719336175858595,-0.0028563654016327284
1592176815.7231846,0.08246551089855605,9.387807872712223,2.4286305527453327,-0.3977777777777778,-0.57,-0.3,-0.07023149912008539,0.06450839968933056,0.011461247570915926
1592176815.7331846,0.07,9.384094421662168,2.45,-0.3977777777777778,-0.57,-0.3,-0.047322391469062405,0.053721308646480566,0.01725572597456935
1592176815.7431846,0.03676215695714974,9.39,2.4666189215214254,-0.3996243246134917,-0.57,-0.2944603594928583,-0.015702947652170035,0.037488314177612614,0.015824858627320245
1592176815.7531846,0.005401787729673604,9.439196424540652,2.4044047672791296,-0.4,-0.57,-0.29333333333333333,0.008768849410195087,0.025962422660268568,0.01437721471698858
1592176815.7631845,0.04046076142373851,9.45,2.2928941725830274,-0.4,-0.57,-0.29333333333333333,0.036040608292972204,0.022232843453151668,0.02565611962396129
1592176815.7731845,0.04177452976536746,9.491127351173162,2.30290188093853,-0.4,-0.57,-0.29333333333333333,0.0495269062540663,0.037070029075086504,0.04002597531708703
1592176815.7831845,0.05993550987505039,9.4867096600833,2.31664516995835,-0.4,-0.57,-0.29333333333333333,0.04619491761549112,0.043260241330564476,0.04181752492281288
1592176815.7931845,0.09271424592244128,9.495142830614961,2.3351428306149606,-0.3899047795900261,-0.5758888785724847,-0.309317432315792,0.032896358550054364,0.04307223550546179,0.03649609000418662
1592176815.8031845,0.061273908500295314,9.469019126800237,2.3554904365998817,-0.38666666666666666,-0.5777777777777777,-0.31444444444444447,0.016779347319308642,0.03831803924799656,0.028147607008902235
1592176815.8131845,0.09000724746338781,9.403989853551257,2.2559811565951917,-0.38666666666666666,-0.5777777777777777,-0.31444444444444447,0.01047150116659647,0.0292328419347965,0.017451711368711608
1592176815.8231845,0.2033218608789305,9.437687012713353,2.253843506356676,-0.38666666666666666,-0.5777777777777777,-0.31444444444444447,0.029757887243127605,0.03507353877136511,-0.006402727958809945
1592176815.8331845,0.25949679943101,9.485396159317212,2.26,-0.38666666666666666,-0.5777777777777777,-0.31444444444444447,0.04970755276994261,0.0454540109740416,-0.015216740287907976
1592176815.8431845,0.21566219900045436,9.545743222777526,2.295743222777525,-0.3779294344321605,-0.5674519578642705,-0.31444444444444447,0.05297752765646151,0.05984680446503113,-0.01589370021308917
1592176815.8531845,0.19859376170616588,9.525624953175337,2.3357812851184976,-0.37444444444444447,-0.5633333333333334,-0.31444444444444447,0.02955466842048198,0.06139331742348945,-0.004959857167772887
1592176815.8631845,0.19499285134665173,9.449899918853124,2.3149642567332585,-0.37444444444444447,-0.5633333333333334,-0.31444444444444447,0.02454135321483255,0.06163271900816233,0.00601282585464419
1592176815.8731844,0.21213729977116705,9.365241800152555,2.304758199847445,-0.37444444444444447,-0.5633333333333334,-0.31444444444444447,0.04383575472660091,0.06620202927425478,0.02251604536447261
1592176815.8831844,0.2089244827224031,9.409839827749185,2.3376887931939923,-0.37444444444444447,-0.5633333333333334,-0.31444444444444447,0.0742239256164341,0.07065188730939878,0.02629725951526589
1592176815.8931844,0.16639568609828834,9.497046039462395,2.2927913721965765,-0.3781782571001902,-0.5775218214251672,-0.3062300566018038,0.10298447012022376,0.07381879482783577,0.0382677555710096
1592176815.9031844,0.13376214870493608,9.544356776942596,2.1382161152870207,-0.38,-0.5844444444444444,-0.3022222222222222,0.09205077423631905,0.07949031762003571,0.04806141830842215
1592176815.9131844,0.0974357504538072,9.55,2.02044831374797,-0.38,-0.5844444444444444,-0.3022222222222222,0.07592456334735376,0.0771692693233494,0.046423228776299265
1592176815.9231844,0.09,9.53547211082756,2.004842629724146,-0.38,-0.5844444444444444,-0.3022222222222222,0.07044441764159699,0.07001916728915458,0.04423014599345182
1592176815.9331844,0.15893180209234642,9.537232950523087,2.032977267364115,-0.38,-0.5844444444444444,-0.3022222222222222,0.050713098901341125,0.06264157762133374,0.023117559850079804
1592176815.9431844,0.18240732560905168,9.570694505793211,2.077592674390948,-0.38,-0.5698816440714439,-0.31678502259522273,0.01936724076422091,0.056157566882888366,-0.016104978082593015
1592176815.9531844,0.17803221305656866,9.531806721660587,2.0980322130565687,-0.38,-0.5633333333333334,-0.3233333333333333,-0.002234370055548024,0.03505095930960872,-0.035156376290718945
1592176815.9631844,0.17083429206172887,9.52916570793827,2.086251438092593,-0.38,-0.5633333333333334,-0.3233333333333333,-0.010453272093701407,0.02754379100116929,-0.037588158423001415
1592176815.9731843,0.12403397243553883,9.525613588974215,2.0771932055128923,-0.38,-0.5633333333333334,-0.3233333333333333,-0.02185506073624708,0.021644306215436216,-0.027978536389604083
1592176815.9831843,0.10464199029126214,9.503925970873786,2.133580097087379,-0.38,-0.5633333333333334,-0.3233333333333333,-0.029842959138128164,0.024817062213676955,-0.019322531676357127
1592176815.9931843,0.05630797086539649,9.446307970865396,2.2236920291346034,-0.384161145631867,-0.5633333333333334,-0.31431751779762146,-0.024012731250227733,0.026319002759346816,-0.0036969113034378467
1592176816.0031843,-0.025190862639014128,9.437247144574693,2.2189551397655545,-0.38666666666666666,-0.5633333333333334,-0.3088888888888889,-0.0020260452259059317,0.02170263907921516,0.004401315320223809
1592176816.0131843,-0.09660944439902994,9.563493555682715,2.1266094443990298,-0.38666666666666666,-0.5633333333333334,-0.3088888888888889,0.038926272248554626,-0.0014831541563805062,-0.005838986909048442
1592176816.0231843,-0.011239455499318207,9.61,2.1650084356005452,-0.38666666666666666,-0.5633333333333334,-0.3088888888888889,0.02372234888483759,-0.03531955735373887,-0.028500484691224452
1592176816.0331843,0.07648535867189335,9.558649673934642,2.2413503260653576,-0.38666666666666666,-0.5633333333333334,-0.3088888888888889,-0.00766486120924172,-0.055307901101845934,-0.03151625451331727
1592176816.0431843,0.11912764801738186,9.401276480173818,2.29,-0.3800224515661778,-0.5603132355603839,-0.31251300621642825,-0.01887368336828686,-0.060303211329600384,-0.03320071767279952
1592176816.0531843,0.08168158675771542,9.37371642979514,2.29,-0.37444444444444447,-0.5577777777777778,-0.31555555555555553,0.04623929639589314,-0.06321988592563654,-0.04204040199689337
1592176816.0631843,0.05640360869367112,9.501972934797466,2.2628072173873424,-0.37444444444444447,-0.5577777777777778,-0.31555555555555553,0.10318373495734735,-0.07509023235886433,-0.03918382264951501
1592176816.0731843,-0.04308966931311543,9.530052213718617,2.3231418830317336,-0.37444444444444447,-0.5577777777777778,-0.31555555555555553,0.10366879376923939,-0.08398257898591965,-0.02620841694568357
1592176816.0831842,-0.08510650617630544,9.446597592644581,2.3746804814710836,-0.37444444444444447,-0.5577777777777778,-0.31555555555555553,0.07570880881168737,-0.09258120025343078,-0.030334137521748815
1592176816.0931842,-0.11521529600752262,9.33981546056498,2.3749077302824904,-0.37444444444444447,-0.5639264802552817,-0.3122017178405534,0.07319973316183462,-0.11353363194136301,-0.043653361429488606
1592176816.1031842,-0.18442595947949267,9.337540767583594,2.36,-0.37444444444444447,-0.57,-0.3088888888888889,0.15471865154260886,-0.14490153385800023,-0.043901491941971106
1592176816.1131842,-0.12169133192389008,9.47398872445384,2.177279774489077,-0.37444444444444447,-0.57,-0.3088888888888889,0.22952955369933534,-0.17620722360977636,-0.0510845510847336
1592176816.1231842,-0.0384875301689461,9.526162510056315,2.045406275140788,-0.37444444444444447,-0.57,-0.3088888888888889,0.26472962430981367,-0.21437413734308267,-0.05110406191240235
1592176816.1331842,0.010928463628131598,9.524418351946876,2.014535768185934,-0.37444444444444447,-0.57,-0.3088888888888889,0.26750733355200246,-0.23279049972852173,-0.0500513200746516
1592176816.1431842,0.0942608695652174,9.501391304347827,1.9535652173913043,-0.37444444444444447,-0.5657101449275362,-0.3045990338164251,0.2719393713338339,-0.2756861379345826,-0.055556486026797754
1592176816.1531842,0.10852197471402769,9.515652468392535,1.9250432721252257,-0.37444444444444447,-0.5633333333333334,-0.3022222222222222,0.28749564393529037,-0.29590927561265673,-0.06450136268872744
1592176816.1631842,0.09971363856981072,9.526412123173165,1.7661257617429758,-0.37444444444444447,-0.5633333333333334,-0.3022222222222222,0.31895561471934625,-0.32438894384096384,-0.0982684819835721
1592176816.1731842,0.10314638362883448,9.487946769589515,1.7310931532183491,-0.37444444444444447,-0.5633333333333334,-0.3022222222222222,0.33174631873955923,-0.3343614093490346,-0.10930705094317712
1592176816.1831841,0.13085659725379647,9.482337910339183,1.8514813130853869,-0.37444444444444447,-0.5633333333333334,-0.3022222222222222,0.3612720058148265,-0.34823004607283925,-0.11381758341001258
1592176816.1931841,0.21754686110617108,9.550985239196159,1.911310332562689,-0.37444444444444447,-0.5660656826130772,-0.3022222222222222,0.39565024164213614,-0.35348290999101634,-0.10042735635995328
1592176816.2031841,0.42385891814636273,9.640705409268186,1.8085891814636275,-0.37444444444444447,-0.57,-0.3022222222222222,0.4109173113445052,-0.3211975959203181,-0.09193757858730067
1592176816.213184,0.26735323383084575,9.673273631840797,1.5775323383084576,-0.37444444444444447,-0.57,-0.3022222222222222,0.3891476405839695,-0.2757207764720843,-0.10252832492079375
1592176816.223184,0.10811426402201765,9.652704754674007,1.4595285660055044,-0.37444444444444447,-0.57,-0.3022222222222222,0.35578951725485713,-0.260259237636969,-0.10958382310064069
1592176816.233184,0.08030995577218161,9.598760176911274,1.4963948009748171,-0.37444444444444447,-0.57,-0.3022222222222222,0.3328937892902837,-0.2647124248690201,-0.11797877915837131
1592176816.243184,0.1468986301369863,9.539309589041096,1.6124164383561643,-0.37099604261796043,-0.5774715372907153,-0.2872791476407915,0.3184096202599833,-0.2671405734826499,-0.1023868715338605
1592176816.253184,0.29101814021899003,9.622395407746364,1.6060477610720705,-0.36777777777777776,-0.5844444444444444,-0.2733333333333333,0.31525009614147576,-0.23605703367513992,-0.05373805641677257
1592176816.263184,0.3438731813022392,9.791385305953977,1.4048586317201528,-0.36777777777777776,-0.5844444444444444,-0.2733333333333333,0.2976584658822189,-0.18381511736044798,-0.009937748705980378
1592176816.273184,0.4398436911487759,9.90876836158192,1.351075329566855,-0.36777777777777776,-0.5844444444444444,-0.2733333333333333,0.2092229875190274,-0.13522994287589163,0.02141356292012534
1592176816.283184,0.5718004570139775,9.901657714336588,1.3937789714217883,-0.36777777777777776,-0.5844444444444444,-0.2733333333333333,0.14723101401572702,-0.11172166703352854,0.024033271074193736
1592176816.293184,0.4658939220911052,9.681108996320264,1.595420631899505,-0.36777777777777776,-0.5878781598499908,-0.2637189301978034,0.014346618631714263,-0.023073264891685916,-0.015446307829396586
1592176816.303184,0.24074584284316922,9.61161477013368,1.6792541571568307,-0.36777777777777776,-0.59,-0.2577777777777778,-0.010122372604351079,0.0017006219062624074,-0.02287348023101429
1592176816.313184,0.23050607234121026,9.621962117020997,1.523290919149609,-0.36777777777777776,-0.59,-0.2577777777777778,-0.0018433399336978112,0.02628356468685881,-0.010121256704781917
1592176816.323184,0.19304540331669617,9.658263564643375,1.490436322653357,-0.36777777777777776,-0.59,-0.2577777777777778,0.0004264268459026558,0.04296979332193514,-0.008062242323377848
1592176816.333184,0.23443702254167764,9.71,1.5421851127083883,-0.36777777777777776,-0.59,-0.2577777777777778,-0.02602797040762721,0.06071076949896529,0.005808048925311164
1592176816.343184,0.231697632302636,9.680941713059227,1.603209470789456,-0.3756189028252882,-0.5876937867507322,-0.2605452336768991,-0.06810598954130717,0.07388858529312317,0.020335151991468577
1592176816.353184,0.19242950694241287,9.601401309719378,1.6610281972230347,-0.38666666666666666,-0.5844444444444444,-0.2644444444444444,-0.09851124717909017,0.07963064712224129,0.0317462516105336
1592176816.363184,0.11793849793021882,9.575206150206979,1.6179384979302187,-0.38666666666666666,-0.5844444444444444,-0.2644444444444444,-0.09236081652565516,0.08019855001264849,0.030453311913264863
1592176816.373184,0.09557999575181138,9.610695994902175,1.57,-0.38666666666666666,-0.5844444444444444,-0.2644444444444444,-0.0739487294106335,0.07681499535522912,0.0261293246023315
1592176816.383184,0.12765095596442588,9.64,1.5967783458754905,-0.38666666666666666,-0.5844444444444444,-0.2644444444444444,-0.06561090090951899,0.07308566242726255,0.02274639247269394
1592176816.393184,0.14549380276630142,9.64,1.6509876055326027,-0.3793415963115981,-0.5844444444444444,-0.2626131768556773,-0.0721261153926146,0.07398458380282942,0.01563189707255376
1592176816.403184,0.19089691087702687,9.603953603976802,1.7057474257308556,-0.36,-0.5844444444444444,-0.2577777777777778,-0.09185807392825955,0.07972848492162296,0.0016199398738477372
1592176816.413184,0.20354055972224885,9.578229720138875,1.676506819097309,-0.36,-0.5844444444444444,-0.2577777777777778,-0.09926560120717749,0.08784061710207972,0.0015396923854372798
1592176816.423184,0.18351027023657387,9.579469189290279,1.6175513511828694,-0.36,-0.5844444444444444,-0.2577777777777778,-0.09581940146113517,0.09490227807719166,-0.00011580493236863559
1592176816.433184,0.1688586204020352,9.57409425306531,1.6711413795979648,-0.36,-0.5844444444444444,-0.2577777777777778,-0.08483579063472887,0.0960553614596868,-0.003594600874989072
1592176816.443184,0.1195247332686712,9.609311348205626,1.7076721629485936,-0.36232783705140637,-0.5836684987606423,-0.2577777777777778,-0.07597726332790543,0.0988095895027585,-0.0009120234088379681
1592176816.453184,0.008422080007906896,9.661955474290233,1.7035333942823256,-0.38,-0.5777777777777777,-0.2577777777777778,-0.08145116016966186,0.10215266002968108,0.01660005589987688
1592176816.4631839,-0.04560252278613654,9.62049684651733,1.7121987386069317,-0.38,-0.5777777777777777,-0.2577777777777778,-0.10439456983449238,0.09099559031282788,0.02745641719039395
1592176816.4731839,-0.0728993727130162,9.59,1.728993727130162,-0.38,-0.5777777777777777,-0.2577777777777778,-0.12593607170724014,0.07129779476629057,0.029768703627933144
1592176816.4831839,-0.08870627516448984,9.59,1.8203146420504763,-0.38,-0.5777777777777777,-0.2577777777777778,-0.12822601762535993,0.051623772992904354,0.02547815633640215
1592176816.4931839,-0.10628365615495437,9.575134624619817,1.8848653753801825,-0.3789676822652651,-0.5790165590594596,-0.25901655905945964,-0.12496279454427353,0.02955915687964728,0.010252237804795568
1592176816.5031838,-0.08343928798474252,9.500158931977113,1.95,-0.37444444444444447,-0.5844444444444444,-0.2644444444444444,-0.12369105691034989,0.0037516812036273526,-0.003970818220327214
1592176816.5131838,-0.06497804168986207,9.474978041689862,1.95,-0.37444444444444447,-0.5844444444444444,-0.2644444444444444,-0.10686309220364458,-0.0147429825241432,-0.010374868834031364
1592176816.5231838,-0.02212453389640146,9.463982209443373,1.9619466283301137,-0.37444444444444447,-0.5844444444444444,-0.2644444444444444,-0.06464898632498134,-0.027048722108550423,-0.01810973163812201
1592176816.5331838,0.029393131663773865,9.47,2.004422142325812,-0.3777842245915641,-0.5844444444444444,-0.26319202688927457,-0.028884863729935786,-0.026107410569072783,-0.015813881773881426
1592176816.5431838,0.05539300768658567,9.47,2.072021819985123,-0.3870286249552305,-0.5844444444444444,-0.2597253767528997,0.002879977189651814,-0.01986788824558236,-0.011276047356797483
1592176816.5531838,0.0655730320840158,9.47885393583197,2.0790112245881107,-0.39222222222222225,-0.5844444444444444,-0.2577777777777778,0.03714463264542381,-0.014913739874682913,-0.01210699727308747
1592176816.5631838,0.046857528885575844,9.51190411852404,1.956764349608647,-0.39222222222222225,-0.5844444444444444,-0.2577777777777778,0.06976087484704914,-0.009744853245031118,-0.019707577882373192
1592176816.5731838,-0.03031894397000625,9.572479431368464,1.7943209747969173,-0.39222222222222225,-0.5844444444444444,-0.2577777777777778,0.0906523038758911,0.0031501686602311866,-0.021973730727224743
1592176816.5831838,-0.13118859416929846,9.629492871355811,1.7183042771865131,-0.39222222222222225,-0.5844444444444444,-0.2577777777777778,0.09538286571305156,0.01734265421279,-0.015382269262103678
1592176816.5931838,-0.21572826390830305,9.66,1.6940452893486162,-0.38494424253719756,-0.5844444444444444,-0.2577777777777778,0.08817370933662644,0.02302393996301368,-0.010675320763788352
1592176816.6031837,-0.3,9.66,1.68,-0.36777777777777776,-0.5844444444444444,-0.2577777777777778,0.07744898555724837,0.020725784867432664,-0.015271630954950384
1592176816.6131837,-0.3507512898250093,9.628659911706825,1.696568533588639,-0.36777777777777776,-0.5844444444444444,-0.2577777777777778,0.03503837707873775,-0.00770004342685148,-0.01952088710347841
1592176816.6231837,-0.29,9.59,1.68,-0.36777777777777776,-0.5844444444444444,-0.2577777777777778,0.016362461737446838,-0.01854412330243975,-0.020725784867432664
1592176816.6331837,-0.23446060583658307,9.548649158149592,1.8298639732382131,-0.36777777777777776,-0.5844444444444444,-0.2577777777777778,-0.01883883127698155,-0.044871416069625594,-0.009522769067926302
1592176816.6431837,-0.15382542220835446,9.518755801708334,1.8887093880416552,-0.36860724330555444,-0.5836149789166677,-0.25667182374074216,-0.023460456242125206,-0.04840371736866738,-0.002322445490234956
1592176816.6531837,-0.008339333567928972,9.51,1.9552767777386784,-0.37444444444444447,-0.5777777777777777,-0.24888888888888888,-0.003940638381821442,-0.04666418950553939,0.014148644832548164
1592176816.6631837,0.02,9.51,1.96,-0.37444444444444447,-0.5777777777777777,-0.24888888888888888,0.0032724923474893677,-0.042542400517361786,0.022907446432425576
1592176816.6731837,0.08565729385807379,9.478685412283854,1.8956572938580738,-0.37444444444444447,-0.5777777777777777,-0.24888888888888888,0.03380290877200951,-0.016132026603189673,0.04855730604328963
1592176816.6831837,0.09827200411515073,9.526544008230301,1.8753823967078793,-0.37444444444444447,-0.5777777777777777,-0.24888888888888888,0.05796238670319823,-0.005537579932498313,0.05940856463604883
1592176816.6931837,0.19318619953761337,9.595265516628134,1.8342034501155968,-0.3726892722350663,-0.580995593494971,-0.25122911850139307,0.08101111161597147,0.001435946905929,0.06648519532008498
1592176816.7031837,0.37,9.61,1.79,-0.36777777777777776,-0.59,-0.2577777777777778,0.09708393964218458,0.00545415391248228,0.07853981633974483
1592176816.7131836,0.2830267297909254,9.593141706119328,1.7327967771341195,-0.36777777777777776,-0.59,-0.2577777777777778,0.10578550195850016,0.009512395983500132,0.03584691216044658
1592176816.7231836,0.23,9.56,1.64,-0.36777777777777776,-0.59,-0.2577777777777778,0.10144726277217041,0.019634954084936207,0.009817477042468103
1592176816.7331836,0.22305411764705885,9.59,1.6392611764705882,-0.36777777777777776,-0.59,-0.2577777777777778,0.10808362058681237,0.030645415004355726,0.0010800508077047264
1592176816.7431836,0.1969788449660284,9.590431593576282,1.6682736256948734,-0.3688327842975774,-0.5891368128474367,-0.2577777777777778,0.11553390383291717,0.0495111012150227,-0.009346681483932341
1592176816.7531836,0.10022323462414578,9.629776765375853,1.6002232346241458,-0.39222222222222225,-0.57,-0.2577777777777778,0.10979224249867632,0.06702521532359773,0.007993130890967197
1592176816.7631836,0.06290979029656285,9.663862762129297,1.5435451048517186,-0.39222222222222225,-0.57,-0.2577777777777778,0.0944753665139712,0.08670649648144028,0.024563792912808892
1592176816.7731836,0.1001938640632609,9.626602045312247,1.550387728126522,-0.39222222222222225,-0.57,-0.2577777777777778,0.06488886199365203,0.10371351349229324,0.03490658503988659
1592176816.7831836,0.12244244226097675,9.61267267321707,1.611981980348791,-0.39222222222222225,-0.57,-0.2577777777777778,0.04072762527823916,0.11848344036344545,0.03890302184400213
1592176816.7931836,0.13,9.589802350011672,1.6800988249941637,-0.39210143611824416,-0.5700768638843496,-0.2576350305639855,0.02837238047947925,0.13778964290083823,0.05124748650819064
1592176816.8031836,0.1416833903907449,9.581683390390745,1.69,-0.38,-0.5777777777777777,-0.24333333333333335,0.03582473206847822,0.17744910438729916,0.048237745086864
1592176816.8131835,0.1422640052933392,9.61773599470666,1.6296976179973532,-0.38,-0.5777777777777777,-0.24333333333333335,0.04929734728201071,0.18041102108850035,0.04342326923018804
1592176816.8231835,0.12194904278616338,9.664936303482705,1.5080509572138365,-0.38,-0.5777777777777777,-0.24333333333333335,0.052047914391877836,0.16702425815187646,0.03252621231249952
1592176816.8331835,0.15881543897798314,9.702203859744495,1.48,-0.38,-0.5777777777777777,-0.24333333333333335,0.038103943785776445,0.14962711472572723,0.021335808040008963
1592176816.8431835,0.18921717858113618,9.709804294645284,1.48,-0.38,-0.5777777777777777,-0.24333333333333335,0.01903513058045392,0.12392567084029253,0.01967765036998092
1592176816.8531835,0.2851504833040422,9.69,1.534371704745167,-0.39222222222222225,-0.5844444444444444,-0.25,-0.023756962057194894,0.07075338857167232,0.00755086391499826
1592176816.8631835,0.3610673474349623,9.662039387308534,1.5662134694869925,-0.39222222222222225,-0.5844444444444444,-0.25,-0.051163013675742844,0.03959840391682114,0.0027430163994767434
1592176816.8731835,0.4459608699736941,9.59680782600526,1.615113913942127,-0.39222222222222225,-0.5844444444444444,-0.25,-0.06614627128109651,0.01401736514893023,-0.006754614004035152
1592176816.8831835,0.4521587796100338,9.587679898300836,1.7016005084958192,-0.39222222222222225,-0.5844444444444444,-0.25,-0.06661917317399217,0.0051225746355769005,-0.01696472235962121
1592176816.8931835,0.3620411451898802,9.58017009543249,1.73914952283755,-0.39222222222222225,-0.5844444444444444,-0.25,-0.06334240351828331,0.007580151877358544,-0.025975838912820567
1592176816.9031835,0.48,9.6,1.75,-0.37444444444444447,-0.5844444444444444,-0.24333333333333335,-0.06326818538479445,0.007635815477475192,-0.02617993877991494
1592176816.9131835,0.40659976990924196,9.558720184072605,1.634899654863863,-0.37444444444444447,-0.5844444444444444,-0.24333333333333335,-0.043726990039235795,0.024624441692983973,-0.017592898780896312
1592176816.9231834,0.338422692974645,9.63965295027417,1.5228075643248817,-0.37444444444444447,-0.5844444444444444,-0.24333333333333335,-0.02036104136001733,0.035347043052100034,-0.008151987994486742
1592176816.9331834,0.38786131257739254,9.691990093755528,1.5538811250663365,-0.37444444444444447,-0.5844444444444444,-0.24333333333333335,-0.010230036075366992,0.038618651511297224,0.0015141958518042964
1592176816.9431834,0.4917357155492659,9.699409693967803,1.6429163276136565,-0.37444444444444447,-0.5844444444444444,-0.24333333333333335,-0.028035798347177975,0.036190593019686634,0.011226429818246649
1592176816.9531834,0.5008739111809225,9.565663763149127,1.8173782664572327,-0.37444444444444447,-0.5777777777777777,-0.25,-0.10096698361856518,0.05444257565814479,0.03324378072699931
1592176816.9631834,0.4505043986908382,9.504100879738168,1.8593530790835866,-0.37444444444444447,-0.5777777777777777,-0.25,-0.1230521740472602,0.08415065326520471,0.049479700435849726
1592176816.9731834,0.3084450766947056,9.515759772389906,1.8185865907966354,-0.37444444444444447,-0.5777777777777777,-0.25,-0.0922272058443021,0.11392437525367385,0.05157354563232867
1592176816.9831834,0.1276438829500054,9.58,1.8447122340999893,-0.37444444444444447,-0.5777777777777777,-0.25,-0.04920705739407212,0.12846101983405192,0.04093754473380556
1592176816.9931834,0.12009556203433754,9.58,1.859808875931325,-0.37444444444444447,-0.5777777777777777,-0.25,-0.028622205366641295,0.12763762575295468,0.03929075657161109
1592176817.0031834,0.07,9.59,1.87,-0.36,-0.57,-0.27111111111111114,-0.038179077387375956,0.11562806294462433,0.028361600344907853
1592176817.0131834,0.10442349628729952,9.487435338283602,1.8495528197200983,-0.36,-0.57,-0.27111111111111114,-0.04378721889534467,0.10192979136381491,0.027473536959362048
1592176817.0231833,0.09650573391961464,9.533754778266346,1.7765057339196146,-0.36,-0.57,-0.27111111111111114,-0.025604021005493964,0.09836535307481692,0.02686118679097356
1592176817.0331833,0.1416204327775807,9.574861298332742,1.8183795672224194,-0.36,-0.57,-0.27111111111111114,0.002267643331530944,0.09546282347326274,0.022377161046000196
1592176817.0431833,0.149059772969138,9.597179318907413,1.810940227030862,-0.36,-0.57,-0.27111111111111114,0.017686259768117114,0.0930283050885386,0.019942642661276065
1592176817.0531833,0.16479444457282832,9.482191666859244,1.9273972222864142,-0.37444444444444447,-0.59,-0.2288888888888889,0.009443867562483357,0.0957091898546906,0.011909448132473785
1592176817.0631833,0.15687976173985316,9.450826984346863,1.9016539686937248,-0.37444444444444447,-0.59,-0.2288888888888889,0.01118724862348076,0.09315119170470791,0.004953843520344066
1592176817.0731833,0.1779728193957761,9.458516431480254,1.8481087224168955,-0.37444444444444447,-0.59,-0.2288888888888889,0.05449830466299168,0.08593967599685617,0.004820410050826392
1592176817.0831833,0.165485943044309,9.606990628696206,1.875485943044309,-0.37444444444444447,-0.59,-0.2288888888888889,0.11171947263960823,0.07990079919120274,0.010087629111429559
1592176817.0931833,0.1425892093531071,9.591726139568738,1.8525892093531071,-0.37444444444444447,-0.59,-0.2288888888888889,0.1416912269543923,0.07573805553637163,0.005924885456598437
1592176817.1031833,0.09208071619377663,9.514720477462518,1.798881909850071,-0.4,-0.5633333333333334,-0.23444444444444446,0.14221791972489262,0.07216082021448969,-0.002713544280661111
1592176817.1131833,0.07,9.524209292412618,1.6539225158662498,-0.4,-0.5633333333333334,-0.23444444444444446,0.16206108808650393,0.06683410263657426,-0.01548218702457548
1592176817.1231833,0.07521939953810625,9.66568129330254,1.399122401847575,-0.4,-0.5633333333333334,-0.23444444444444446,0.2083058523822216,0.06706216034654885,-0.012520621221726064
1592176817.1331832,0.101381201605965,9.859134463722398,1.3646592701462577,-0.4,-0.5633333333333334,-0.23444444444444446,0.23761227986123215,0.06979508471854201,-0.005114657466625015
1592176817.1431832,0.14648766848293662,9.776439274447949,1.462389948379696,-0.4,-0.5633333333333334,-0.23444444444444446,0.21957098825624444,0.08701631761421211,0.017846986394268446
1592176817.1531832,0.18087793617173184,9.70535329255813,1.5664025797853354,-0.4,-0.59,-0.24333333333333335,0.12607622236958532,0.08766822602078587,0.04631242426603977
1592176817.1631832,0.21,9.8,1.53,-0.4,-0.59,-0.24333333333333335,0.09272061651219875,0.08290313946973066,0.044724062082354694
1592176817.1731832,0.21556436263762738,9.799300358975595,1.4833069120871178,-0.4,-0.59,-0.24333333333333335,0.02968646028195971,0.04824280408489,0.02989812460658511
1592176817.1831832,0.19129601514285152,9.629455409428791,1.5820322574284758,-0.4,-0.59,-0.24333333333333335,-0.07189195798045865,0.035533140071235134,0.02448345892503018
1592176817.1931832,0.1995660232269259,9.30692509414989,1.72262239485774,-0.4,-0.59,-0.24333333333333335,-0.12692115225703612,0.02560984274267198,0.013658043657506743
1592176817.2031832,0.23,9.35,1.7,-0.39222222222222225,-0.5777777777777777,-0.2288888888888889,-0.05126904677733343,0.015271630954950384,-0.001090830782496456
1592176817.2131832,0.29748078975453573,9.572442369263609,1.5612980256136606,-0.39222222222222225,-0.5777777777777777,-0.2288888888888889,0.12554801637943955,0.010630710599685712,0.0028616845434622207
1592176817.2231832,0.35,9.73,1.43,-0.39222222222222225,-0.5777777777777777,-0.2288888888888889,0.2181661564992912,0.02399827721492203,0.007635815477475192
1592176817.2331831,0.3186607732154643,9.846651933038661,1.3653569071381428,-0.39222222222222225,-0.5777777777777777,-0.2288888888888889,0.20701461036167929,0.04894611980069899,0.004582453600183116
1592176817.2431831,0.3018832376647533,9.804708094161883,1.4324670493409868,-0.39222222222222225,-0.5777777777777777,-0.2288888888888889,0.13563894665241694,0.06084206375224273,0.0073276714351547464
1592176817.2531831,0.35,9.75,1.54,-0.41333333333333333,-0.57,-0.24333333333333335,0.02181661564992912,0.06981317007977318,0.014180800172453926
1592176817.263183,0.43761943661229546,9.50928746475533,1.6664291549184431,-0.41333333333333333,-0.57,-0.24333333333333335,-0.06646206111023506,0.06069700504635271,0.014180800172453926
1592176817.273183,0.42,9.43,1.64,-0.41333333333333333,-0.57,-0.24333333333333335,-0.09817477042468103,0.05781403147231216,0.014180800172453926
1592176817.283183,0.35827881713940857,9.42387266143633,1.6774182257091128,-0.41333333333333333,-0.57,-0.24333333333333335,-0.04917935205622389,0.06900396718427249,0.012996093427625548
1592176817.293183,0.32452866626433313,9.49981050090525,1.6267929993964998,-0.41333333333333333,-0.57,-0.24333333333333335,0.034576373379958864,0.0745263227075373,0.01115530825320395
1592176817.303183,0.19756828608399013,9.73,1.4814890012939654,-0.41333333333333333,-0.5777777777777777,-0.21333333333333335,0.1461713248545251,0.08290313946973066,0.01308996938995747
1592176817.313183,0.17678089691322071,9.73,1.407123587652883,-0.41333333333333333,-0.5777777777777777,-0.21333333333333335,0.14160637909371046,0.0818496904480042,0.012855869607351592
1592176817.323183,0.15695335172082983,9.72739249310469,1.3182525482671783,-0.41333333333333333,-0.5777777777777777,-0.21333333333333335,0.09338926870404538,0.07118942990261108,0.011287554329894854
1592176817.333183,0.23413196976433973,9.69517936860827,1.5168866162738994,-0.41333333333333333,-0.5777777777777777,-0.21333333333333335,-0.01718565337997818,0.05119392544714533,0.01557211627570281
1592176817.343183,0.2788910626945309,9.642960426856382,1.5914851044908849,-0.41333333333333333,-0.5777777777777777,-0.21333333333333335,-0.04973538428989288,0.05038018217439745,0.018827089366694277
1592176817.353183,0.29932860906695735,9.53533569546652,1.67,-0.4066666666666667,-0.59,-0.2288888888888889,-0.05023604281064388,0.05159668251522143,0.023489480518516397
1592176817.363183,0.3640255223259118,9.50672128738335,1.6550638058147793,-0.4066666666666667,-0.59,-0.2288888888888889,0.003797027334678493,0.0460592857707099,0.018738846763454133
1592176817.373183,0.2852177008221191,9.59765167868461,1.47,-0.4066666666666667,-0.59,-0.2288888888888889,0.06728035649372126,0.04867005087999332,0.007114147562041198
1592176817.383183,0.23761114426376248,9.672388855736237,1.4714333134417426,-0.4066666666666667,-0.59,-0.2288888888888889,0.09359935939117611,0.04467194533491407,0.002181661564992912
1592176817.393183,0.19850272266149485,9.711497277338506,1.494898366403103,-0.4066666666666667,-0.59,-0.2288888888888889,0.07226902432187465,0.043818731932142016,0.002181661564992912
1592176817.403183,0.14747339594993875,9.704104590549857,1.551684402700041,-0.4,-0.57,-0.24333333333333335,0.019875739212139837,0.04245053060159555,-0.0029968826001906643
1592176817.413183,0.11912559800398287,9.63737679401195,1.563004784031863,-0.4,-0.57,-0.24333333333333335,-0.013662264158076563,0.04173771711892488,0.0007630596908254559
1592176817.423183,0.1090051277136148,9.60801025542723,1.4904974361431926,-0.4,-0.57,-0.24333333333333335,-0.018821026098955,0.04445275275369429,0.00910647932009621
1592176817.433183,0.09243850381516461,9.570812834605055,1.502844921117692,-0.4,-0.57,-0.24333333333333335,-0.002341494088803555,0.0387822424153227,0.016362461737446838
1592176817.443183,0.13719918894402647,9.585733062981342,1.5550657204346976,-0.4,-0.57,-0.24333333333333335,0.014747722525664296,0.029830747998220497,0.016362461737446838
1592176817.453183,0.17,9.59,1.5910331801448474,-0.41333333333333333,-0.5844444444444444,-0.1988888888888889,0.03552644862811158,0.01700248263759785,0.01504622601377766
1592176817.463183,0.17116610951008646,9.590583054755044,1.6065016714697407,-0.41333333333333333,-0.5844444444444444,-0.1988888888888889,0.04773254194443432,0.00789982796288494,0.01014509093534606
1592176817.473183,0.18896864570112348,9.599742161425281,1.5505156771494384,-0.41333333333333333,-0.5844444444444444,-0.1988888888888889,0.06133965624859831,-0.005566657214169734,-0.0023222906921022304
1592176817.483183,0.15017910555988614,9.590179105559885,1.569820894440114,-0.41333333333333333,-0.5844444444444444,-0.1988888888888889,0.0710407625628977,-0.009924932664390148,-0.007635815477475192
1592176817.493183,0.16538603774268984,9.60538603774269,1.5546139622573103,-0.41333333333333333,-0.5844444444444444,-0.1988888888888889,0.08265249537553448,-0.019048437017176206,-0.007635815477475192
1592176817.503183,0.15,9.64,1.54,-0.40444444444444444,-0.5866666666666667,-0.21333333333333335,0.08290313946973066,-0.02181661564992912,-0.008726646259971648
1592176817.5131829,0.1776193895870736,9.658412926391383,1.3650771992818673,-0.40444444444444444,-0.5866666666666667,-0.21333333333333335,0.0758732540534842,-0.02382515434028525,-0.006718107569615515
1592176817.5231829,0.25072744360902255,9.660242481203008,1.2402424812030075,-0.40444444444444444,-0.5866666666666667,-0.21333333333333335,0.0730944792926098,-0.021869516842012594,-0.005480604508524017
1592176817.5331829,0.33942269736842107,9.689807565789474,1.2698075657894736,-0.40444444444444444,-0.5866666666666667,-0.21333333333333335,0.07416949610441075,-0.02831961771281835,-0.008705654943926897
1592176817.5431828,0.3998792930018681,9.704969823250467,1.3074245581261676,-0.40444444444444444,-0.5866666666666667,-0.21333333333333335,0.061112858001646536,-0.026728645943893795,-0.010359600660985705
1592176817.5531828,0.45,9.64,1.5,-0.4177777777777778,-0.5988888888888889,-0.2288888888888889,0.02617993877991494,-0.02181661564992912,-0.015271630954950384
1592176817.5631828,0.4332458048477315,9.598114512119329,1.5502625854568055,-0.4177777777777778,-0.5988888888888889,-0.2288888888888889,0.01064534574307468,-0.011764820155503068,-0.013444031774145646
1592176817.5731828,0.252100965690508,9.570233440632279,1.4809337625291146,-0.4177777777777778,-0.5988888888888889,-0.2288888888888889,0.024885392615358482,0.008510198666532895,-0.017402363674428295
1592176817.5831828,0.1406875329278222,9.659437473059056,1.4303125149671918,-0.4177777777777778,-0.5988888888888889,-0.2288888888888889,0.05327343985030035,0.013062697314261166,-0.014201254229226155
1592176817.5931828,0.13230604522381173,9.690775819104752,1.3761423165666822,-0.4177777777777778,-0.5988888888888889,-0.2288888888888889,0.058486389967727426,0.017286370744458372,-0.007466558005252484
1592176817.6031828,0.09,9.7,1.31,-0.4122222222222222,-0.5788888888888889,-0.22,0.04690572364734761,0.017453292519943295,0.001090830782496456
1592176817.6131828,0.09,9.7,1.3012020551610948,-0.4122222222222222,-0.5788888888888889,-0.22,0.030590706257275196,0.026090654667628686,0.002050537687794833
1592176817.6231828,0.11992165481577247,9.709973884938591,1.1703394957983193,-0.4122222222222222,-0.5788888888888889,-0.22,0.009865905134350362,0.025094805419992868,0.004357625707411441
1592176817.6331828,0.12,9.700214228916225,1.2385003975864166,-0.4122222222222222,-0.5788888888888889,-0.22,-0.00832937751622697,0.03149388019460499,0.004363323129985824
1592176817.6431828,0.08431628020248057,9.707136743959504,1.311367439595039,-0.4122222222222222,-0.5788888888888889,-0.22,-0.02585360225518111,0.03552658269130846,0.0028063271304213278
1592176817.6531827,0.05071806900726392,9.681077103510896,1.3882048274818402,-0.4175783141646489,-0.598170819881625,-0.213572689669088,-0.05691324592866998,0.02657158466845502,0.002181661564992912
1592176817.6631827,0.05,9.632122118147207,1.4666046109644717,-0.4177777777777778,-0.5988888888888889,-0.21333333333333335,-0.06930389828397872,0.014690071968248388,9.259487196262937e-05
1592176817.6731827,0.059270828519939006,9.620729171480061,1.432916685920244,-0.4177777777777778,-0.5988888888888889,-0.21333333333333335,-0.07284704161841184,0.003056604530778849,-0.0030338715386386576
1592176817.6831827,0.0877459583194239,9.601502694453718,1.494740569411989,-0.4177777777777778,-0.5988888888888889,-0.21333333333333335,-0.06198807577154243,-0.005889310548258085,-0.007307978404114866
1592176817.6931827,0.09,9.6,1.555096403082058,-0.4177777777777778,-0.5988888888888889,-0.21333333333333335,-0.04681257135420043,-0.00955002731931581,-0.00913833678964373
1592176817.7031827,0.07149501535195785,9.590747507675978,1.5892524923240212,-0.40544112134574967,-0.5916925059702058,-0.19996862219863623,-0.021184222412845583,-0.011917598169149996,-0.01082676738665354
