time,acc_x,acc_y,acc_z,mag_x,mag_y,mag_z,gyr_x,gyr_y,gyr_z
1592176918.3630867,-0.41,9.61,1.87,-0.3233333333333333,-0.4033333333333333,-0.09222222222222222,0.022907446432425576,-0.016362461737446838,0.004363323129985824
1592176918.3730867,-0.42953485113835377,9.561162872154116,1.8895348511383536,-0.3233333333333333,-0.4033333333333333,-0.09222222222222222,0.015449220498804797,-0.031278913604688395,0.0011669405870054902
1592176918.3830867,-0.4745694052971185,9.54456940529712,1.8254305947028815,-0.3233333333333333,-0.4033333333333333,-0.09222222222222222,0.010306342225082404,-0.044413499669448,-0.0005923859869165337
1592176918.3930867,-0.4380055390779989,9.526663589401112,1.860661743041779,-0.3233333333333333,-0.4033333333333333,-0.09222222222222222,0.018180177364008277,-0.05970393206688111,-0.0032724923474893677
1592176918.4030867,-0.3638590874270786,9.567856062540512,1.926569700064819,-0.3233333333333333,-0.4033333333333333,-0.09222222222222222,0.022673579134769885,-0.0713867766708613,-0.0032724923474893677
1592176918.4130867,-0.31727337903840125,9.552269794327193,1.9045467580768023,-0.3233333333333333,-0.4033333333333333,-0.08444444444444445,0.02528765415678133,-0.08225845099880101,-0.007933243685186395
1592176918.4230866,-0.3,9.635913480684987,1.859862604540024,-0.3233333333333333,-0.4033333333333333,-0.08444444444444445,0.01788407510643993,-0.08563771018582766,-0.010093931618020148
1592176918.4330866,-0.30238907533850246,9.69044369864599,1.754778150677005,-0.3233333333333333,-0.4033333333333333,-0.08444444444444445,-0.00890906154532142,-0.09267221649807897,-0.014653615542522463
1592176918.4430866,-0.3169320350152454,9.617699026261434,1.7938349562309432,-0.3233333333333333,-0.4033333333333333,-0.08444444444444445,-0.07122596063527203,-0.10127675541704662,-0.025928941481540572
1592176918.4530866,-0.2839287892200256,9.59294659191502,1.835089013474968,-0.3233333333333333,-0.4033333333333333,-0.08444444444444445,-0.12162729964528356,-0.11117701843687032,-0.023228869748861385
1592176918.4630866,-0.3,9.55,1.94,-0.3422222222222222,-0.41,-0.07555555555555556,-0.14944381720201447,-0.11453723216212788,-0.016362461737446838
1592176918.4730866,-0.3597866680179381,9.440213331982061,2.0195733360358763,-0.3422222222222222,-0.41,-0.07555555555555556,-0.14897839901616633,-0.1142812521599114,-0.016129752644522766
1592176918.4830866,-0.3492070969130341,9.45158580617393,2.0031716123478636,-0.3422222222222222,-0.41,-0.07555555555555556,-0.12010237062733539,-0.10020280119870999,-0.004070276960804128
1592176918.4930866,-0.3392974353734546,9.47,2.043512823132727,-0.3422222222222222,-0.41,-0.07555555555555556,-0.02981268281384398,-0.07185945583313637,0.012382328168125449
1592176918.5030866,-0.3307262695412282,9.47,2.086368652293859,-0.3422222222222222,-0.41,-0.07555555555555556,0.005716145006518875,-0.05689994938245726,0.017057173933962666
1592176918.5130866,-0.28446277573529416,9.476363511029412,2.0325620404411766,-0.31555555555555553,-0.4033333333333333,-0.09888888888888889,0.06094224941759451,-0.03845855264529957,0.01647966589045588
1592176918.5230865,-0.3111183429250023,9.573355028775007,1.9754615419749704,-0.31555555555555553,-0.4033333333333333,-0.09888888888888889,0.08398687043554191,-0.03344977739099625,0.010542330958570675
1592176918.5330865,-0.31926671632108794,9.6,1.860733283678912,-0.31555555555555553,-0.4033333333333333,-0.09888888888888889,0.07318761412818063,-0.03086321727360459,0.007635815477475192
1592176918.5430865,-0.31,9.597382517794458,1.8686912588972286,-0.31555555555555553,-0.4033333333333333,-0.09888888888888889,0.04569225082830935,-0.035192108056130884,0.006993388690925525
1592176918.5530865,-0.31,9.564843971218558,1.8524219856092785,-0.31555555555555553,-0.4033333333333333,-0.09888888888888889,0.030607280333667455,-0.03874151287839957,-0.0009927721591790045
1592176918.5630865,-0.322267430934035,9.605668577335088,1.8634011464010525,-0.35,-0.39555555555555555,-0.09222222222222222,0.00937989419991244,-0.04388056964586124,-0.00885031543297315
1592176918.5730865,-0.34475635161451024,9.64048729677098,1.8861949187083917,-0.35,-0.39555555555555555,-0.09222222222222222,-0.02285174643209657,-0.04591866035992084,-0.009921244537537793
1592176918.5830865,-0.3890517880636288,9.547629470159073,1.853792847745485,-0.35,-0.39555555555555555,-0.09222222222222222,-0.05360585915760498,-0.04695744058577383,-0.01075315700968591
1592176918.5930865,-0.3683049831097963,9.501271262667652,1.93,-0.35,-0.39555555555555555,-0.09222222222222222,-0.05579871238947291,-0.0482739009199469,-0.007682039892492332
1592176918.6030865,-0.33477003338063926,9.52642247496452,1.93,-0.35,-0.39555555555555555,-0.09222222222222222,-0.037508234662455044,-0.05376104423805226,-0.008596563778843226
1592176918.6130865,-0.32642630949309187,9.591429476202762,1.8285705237972367,-0.3377777777777778,-0.41555555555555557,-0.10666666666666667,-0.024232174711645075,-0.06498274282521901,-0.004597220626708868
1592176918.6230865,-0.2772818822878739,9.61108724708485,1.8045637645757477,-0.3377777777777778,-0.41555555555555557,-0.10666666666666667,-0.028219571633078915,-0.07350076333317959,-0.007398614959808312
1592176918.6330864,-0.22871448796602173,9.63,1.710642756016989,-0.3377777777777778,-0.41555555555555557,-0.10666666666666667,-0.0453784575947235,-0.08088507678282994,-0.0033192348840871393
1592176918.6430864,-0.1701897242754426,9.629430827173673,1.741897242754426,-0.3377777777777778,-0.41555555555555557,-0.10666666666666667,-0.07533975897019933,-0.08828485840426907,-0.0053610232265544535
1592176918.6530864,-0.18708485226883648,9.57874544319349,1.9108485226883647,-0.3377777777777778,-0.41555555555555557,-0.10666666666666667,-0.0817901629614934,-0.081834454412975,0.0029323533336807804
1592176918.6630864,-0.17,9.58,1.9918071115440819,-0.35555555555555557,-0.4211111111111111,-0.10666666666666667,-0.08321290778253895,-0.07271957260303456,0.008951932305650409
1592176918.6730864,-0.17,9.58,2.0599074525085244,-0.35555555555555557,-0.4211111111111111,-0.10666666666666667,-0.09488641393179177,-0.05892361079028122,0.01744175495965247
1592176918.6830864,-0.17019973827398582,9.489201046904057,1.9613981679179007,-0.35555555555555557,-0.4211111111111111,-0.10666666666666667,-0.09996424680580235,-0.04339356257638116,0.01618815721128169
1592176918.6930864,-0.17982918933810868,9.450683242647564,2.0288043253667607,-0.35555555555555557,-0.4211111111111111,-0.10666666666666667,-0.0810568638550831,-0.03183905077316383,0.007784875899850904
1592176918.7030864,-0.24572385738214886,9.523939339554916,2.054646446518306,-0.35555555555555557,-0.4211111111111111,-0.10666666666666667,-0.061901906125813325,-0.027153242268843792,-0.009391416132027847
1592176918.7130864,-0.34,9.58669729854537,2.04,-0.3211111111111111,-0.42777777777777776,-0.12,-0.06337825073966652,-0.03526685388109715,-0.015822058475631
1592176918.7230864,-0.33883507823417564,9.52860209388101,2.04,-0.3211111111111111,-0.42777777777777776,-0.12,-0.08414645815479047,-0.041476984385292556,-0.006519570044551508
1592176918.7330863,-0.2907915053492474,9.470949806419098,2.04,-0.3211111111111111,-0.42777777777777776,-0.12,-0.09043534713926948,-0.042525132549372395,-0.005471421880471674
1592176918.7430863,-0.29988687565909306,9.47,2.148755632250024,-0.3211111111111111,-0.42777777777777776,-0.12,-0.06357668416807166,-0.03930692802386568,0.0020952819056752952
1592176918.7530863,-0.29185885355319985,9.4944234393404,2.1744234393404005,-0.3211111111111111,-0.42777777777777776,-0.12,-0.04373083645703568,-0.02950123370599303,0.019942887862955425
1592176918.7630863,-0.12,9.48,2.15,-0.3288888888888889,-0.41555555555555557,-0.12,-0.02617993877991494,-0.004363323129985824,0.04036073895236887
1592176918.7730863,-0.12752184883168172,9.495043697663364,2.089825209346546,-0.3288888888888889,-0.41555555555555557,-0.12,-0.01797487453303152,0.012867311788469366,0.04528377750049893
1592176918.7830863,-0.13975126861326015,9.5,1.9432335080276184,-0.3288888888888889,-0.41555555555555557,-0.12,-0.011016837366256114,0.028117408877001857,0.04158723166147977
1592176918.7930863,-0.03417166697918621,9.538483030189386,1.9688622726420402,-0.3288888888888889,-0.41555555555555557,-0.12,-0.019304002611829275,0.029411062193265943,0.013116099829196908
1592176918.8030863,-0.11953333467896576,9.556278788123448,2.0432545465555174,-0.3288888888888889,-0.41555555555555557,-0.12,-0.024962175040974748,0.03566752224278261,-0.005758264579334128
1592176918.8130863,-0.2106871539059997,9.559411010937716,2.150490824218571,-0.35333333333333333,-0.4211111111111111,-0.14888888888888888,-0.031634092692397225,0.012918639416705544,-0.015228798461637402
1592176918.8230863,-0.2778696627156652,9.501826003386572,2.1984783305111897,-0.35333333333333333,-0.4211111111111111,-0.14888888888888888,-0.031634092692397225,-0.0038321602758481527,-0.011041098538498977
1592176918.8330863,-0.29952078827205,9.470718817591926,2.1219168469118,-0.35333333333333333,-0.4211111111111111,-0.14888888888888888,-0.022051848156810654,-0.010751486153710202,-0.0034554509639527836
1592176918.8430862,-0.2525087568721149,9.479498248625578,2.110501751374423,-0.35333333333333333,-0.4211111111111111,-0.14888888888888888,0.007194133895706289,-0.01919709340943182,0.008124587831153112
1592176918.8530862,-0.16712186067654078,9.540275010417062,2.087396871093602,-0.35333333333333333,-0.4211111111111111,-0.14888888888888888,0.021054740655888825,-0.025388064803030894,0.0062610273807882115
1592176918.8630862,-0.06761964341570222,9.605237722865185,2.025714732561777,-0.3422752232996211,-0.44021148298752305,-0.1358202133945018,0.01521976787114073,-0.026283835549783623,0.006441087925110055
1592176918.8730862,-0.006489051931674886,9.574326034621118,1.9932445259658373,-0.3411111111111111,-0.44222222222222224,-0.13444444444444445,-0.007222042590495453,-0.021315656333790085,0.021137832033353315
1592176918.8830862,0.027894395044459987,9.523509341592566,1.93421120991108,-0.3411111111111111,-0.44222222222222224,-0.13444444444444445,-0.026045778255061998,-0.021740053693219782,0.02087890878085134
1592176918.8930862,0.020547127880573942,9.47273563940287,1.939452872119426,-0.3411111111111111,-0.44222222222222224,-0.13444444444444445,-0.028301917951498643,-0.01872317048266738,0.007320855809298464
1592176918.9030862,-0.08162864304140213,9.520814321520701,1.9980735103093727,-0.3411111111111111,-0.44222222222222224,-0.13444444444444445,-0.02361047239292618,-0.01141743137446724,-0.005332835184975447
1592176918.9130862,-0.1738611619776927,9.522046279340769,2.0738611619776925,-0.33013939293047,-0.44222222222222224,-0.14142644692303424,-0.017899721418842794,-0.015581211164372716,-0.016672041946869172
1592176918.9230862,-0.1619511515601783,9.501951151560178,2.0890244242199105,-0.3288888888888889,-0.44222222222222224,-0.14222222222222222,-0.016468880546604763,-0.029159817390847755,-0.018437704493281824
1592176918.9330862,-0.1956400207752963,9.517820010387648,1.991989942867935,-0.3288888888888889,-0.44222222222222224,-0.14222222222222222,-0.003727361418532261,-0.03345905429118874,-0.019516054096202412
1592176918.9430861,-0.06246868091378038,9.584181282240236,1.970831245394252,-0.3288888888888889,-0.44222222222222224,-0.14222222222222222,0.00681974222000253,-0.03481591023350074,-0.010633550299940765
1592176918.9530861,-0.13189469416126043,9.575110055607043,1.9551100556070435,-0.3288888888888889,-0.44222222222222224,-0.14222222222222222,0.007635815477475192,-0.03084598261651224,0.003988571197004676
1592176918.9630861,-0.07382691345672837,9.589149574787394,1.9691495747873937,-0.3469745984103163,-0.4358390306264243,-0.16243566227558223,-0.006986446477389758,-0.03571911482234642,0.01812667180238483
1592176918.973086,0.06870582196803049,9.583695189910545,1.881732658747617,-0.3477777777777778,-0.43555555555555553,-0.16333333333333333,-0.01795203686253434,-0.03324642345303394,0.024046108041137965
1592176918.983086,0.15864694708276797,9.53676526458616,1.812706105834464,-0.3477777777777778,-0.43555555555555553,-0.16333333333333333,-0.043806224925174636,-0.01465585179789499,0.021611355930910656
1592176918.993086,0.14271826046294134,9.53,1.9309721767594108,-0.3477777777777778,-0.43555555555555553,-0.16333333333333333,-0.0638720317632463,0.00025430614291026797,-0.0028385319602044178
1592176919.003086,0.08352260737035444,9.551179022236116,2.013537066708351,-0.3477777777777778,-0.43555555555555553,-0.16333333333333333,-0.0727014055718394,0.0014115705850484641,-0.008085166654867632
1592176919.013086,-0.07646841361313475,9.54050451234098,2.147225182124606,-0.36510710014135045,-0.45613412586229807,-0.16333333333333333,-0.09121703253593394,0.003217458588320252,-0.0012834489395883598
1592176919.023086,-0.18317403424930306,9.50315213062525,2.186847869374751,-0.3655555555555556,-0.45666666666666667,-0.16333333333333333,-0.09725705635537647,-0.0007469866708493251,0.002928648235842237
1592176919.033086,-0.21048339751703335,9.470966795034068,2.0572509627555005,-0.3655555555555556,-0.45666666666666667,-0.16333333333333333,-0.08161789622073373,-0.007372163031594017,0.012668125476547588
1592176919.043086,-0.21747134786117836,9.552184826472962,2.0798853914447135,-0.3655555555555556,-0.45666666666666667,-0.16333333333333333,-0.06931151117754035,-0.009265810724217676,0.01634995988344244
1592176919.053086,-0.14436987259661246,9.549747949038645,2.082436987259661,-0.3655555555555556,-0.45666666666666667,-0.16333333333333333,-0.06627484366034479,-0.008167483621353226,0.02735325304663256
1592176919.063086,-0.10319841072758879,9.531599205363793,2.138805562453439,-0.35995502579808514,-0.46226719642413705,-0.1642667549595784,-0.09769775204673808,-0.004886661861493932,0.02137941652329657
1592176919.073086,-0.17902019937040925,9.474685860440713,2.205314139559287,-0.35888888888888887,-0.4633333333333333,-0.16444444444444445,-0.12948822411083816,-0.004363323129985824,-0.003638415711371145
1592176919.083086,-0.3213976530637776,9.45190682312908,2.1714409387744893,-0.35888888888888887,-0.4633333333333333,-0.16444444444444445,-0.12929121864486798,-0.024668381985654207,-0.021294249439150235
1592176919.093086,-0.309392820804051,9.498728615035139,2.184364307517569,-0.35888888888888887,-0.4633333333333333,-0.16444444444444445,-0.11168079957146065,-0.055143856540633,-0.02665601087835948
1592176919.103086,-0.3131747384734599,9.49023789228981,2.17682526152654,-0.35888888888888887,-0.4633333333333333,-0.16444444444444445,-0.09793226027241583,-0.08264363923708717,-0.03230076315977805
1592176919.113086,-0.2951359362224039,9.504864063777596,2.111983851185609,-0.36441423639502135,-0.447678182065958,-0.17089068320159898,-0.08729611928288737,-0.11731760195504454,-0.03942699939764608
1592176919.123086,-0.330408514458868,9.525153192922074,2.0797957427705662,-0.3655555555555556,-0.4444444444444444,-0.17222222222222222,-0.08672661746030359,-0.13594768871669255,-0.046972566669371815
1592176919.133086,-0.3548490924440692,9.600603630223722,1.9766700084423807,-0.3655555555555556,-0.4444444444444444,-0.17222222222222222,-0.09635635458933856,-0.1717553702674505,-0.0575824774285182
1592176919.143086,-0.2957436637716828,9.62,1.9887545258773693,-0.3655555555555556,-0.4444444444444444,-0.17222222222222222,-0.12293939388850791,-0.1924241298616076,-0.05044993629719061
1592176919.153086,-0.26714523479294633,9.594290469585893,2.1156928868634832,-0.3655555555555556,-0.4444444444444444,-0.17222222222222222,-0.1634625597321629,-0.197050659528843,-0.03747977423763012
1592176919.163086,-0.0855235315578256,9.518933236045239,2.2323429405326527,-0.3655555555555556,-0.46092277757509426,-0.18870055535287203,-0.2192819796835172,-0.19934361465783848,-0.017359769997547576
1592176919.173086,-0.02477462758289284,9.520064392119172,2.2349678039404135,-0.3655555555555556,-0.4633333333333333,-0.19111111111111112,-0.23349398017883727,-0.19193704908535503,-0.009233429153060344
1592176919.183086,-0.07850082171769432,9.513908941505873,2.1736812952705584,-0.3655555555555556,-0.4633333333333333,-0.19111111111111112,-0.2702486287995636,-0.17557409127772905,-0.026090900854336532
1592176919.193086,-0.029766466013445222,9.478785096005977,2.253644711982073,-0.3655555555555556,-0.4633333333333333,-0.19111111111111112,-0.29835238009744564,-0.1581195142497275,0.0024160854569561033
1592176919.203086,-0.028774094969440528,9.41367771509168,2.348838348221282,-0.3655555555555556,-0.4633333333333333,-0.19111111111111112,-0.3132161779558548,-0.15244184961825513,0.02428675503116757
1592176919.213086,0.08378454868428978,9.242461612573011,2.472523032456193,-0.36097094264132257,-0.45874872041910036,-0.1765931702160401,-0.29301730033631707,-0.141873456826289,0.02938362609069298
1592176919.2230859,0.14,9.224323287158368,2.4435150692624483,-0.35888888888888887,-0.45666666666666667,-0.17,-0.18634757005699026,-0.1205224564897314,0.00015789683687109438
1592176919.2330859,0.20085116899807226,9.338883149621866,2.2830848697543376,-0.35888888888888887,-0.45666666666666667,-0.17,-0.043192067864418274,-0.09130481725923092,-0.02143368449391657
1592176919.2430859,0.16778810580836107,9.481882630410654,2.284753052164262,-0.35888888888888887,-0.45666666666666667,-0.17,0.0303277592691856,-0.046566831620118085,-0.043802677313472996
1592176919.2530859,0.11964380283623953,9.507857521134495,2.3485699154620168,-0.35888888888888887,-0.45666666666666667,-0.17,0.049593656674895306,-0.01858355607673983,-0.04752913805037605
1592176919.2630858,0.06289328411284587,9.50742134317743,2.4764774613066005,-0.37867913736203773,-0.4682109782760035,-0.19143943584591128,0.06073659496919678,0.012321470662098518,-0.027195404818404465
1592176919.2730858,0.04598280578350918,9.505982805783509,2.514017194216491,-0.38555555555555554,-0.4722222222222222,-0.1988888888888889,0.061515353740548485,0.023140617373428138,-0.012838042468325817
1592176919.2830858,0.012066705123498875,9.493016676280876,2.4711167339661233,-0.38555555555555554,-0.4722222222222222,-0.1988888888888889,0.043669613300889636,0.04969094888039444,0.02100028020068607
1592176919.2930858,0.08676120572935224,9.446619397135324,2.435539799045108,-0.38555555555555554,-0.4722222222222222,-0.1988888888888889,0.026046703979002883,0.07388981296135547,0.04237348615191143
1592176919.3030858,0.09635142522452167,9.43591214369387,2.4240878563061306,-0.38555555555555554,-0.4722222222222222,-0.1988888888888889,0.012787807985387777,0.09252894378587177,0.04239131981507693
1592176919.3130858,0.08,9.459913098435772,2.4133623005214093,-0.3796553782412528,-0.4626344340864802,-0.21290181001035796,-0.010832471903918825,0.12678938697889602,0.03347742263690656
1592176919.3230858,0.02879393344550383,9.462684847635073,2.4612060665544964,-0.37666666666666665,-0.4577777777777778,-0.22,-0.03639210017939821,0.1611712422809975,0.01458407515327029
1592176919.3330858,-0.08807149100611862,9.467005106500437,2.4099489349956293,-0.37666666666666665,-0.4577777777777778,-0.22,-0.044070677678430335,0.17824843425336195,0.029358387934397073
1592176919.3430858,-0.07574563871693867,9.456436409679235,2.393563590320765,-0.37666666666666665,-0.4577777777777778,-0.22,-0.04842295754312014,0.18142896158475505,0.04039841466383523
1592176919.3530858,-0.10107946660230496,9.444324503710854,2.4,-0.37666666666666665,-0.4577777777777778,-0.22,-0.05575012144716636,0.1810779098944117,0.043308871552308455
1592176919.3630857,-0.10843031875463306,9.452627872498146,2.368430318754633,-0.37666666666666665,-0.4760180380528787,-0.2242092908327156,-0.05724071862962129,0.17763419188480697,0.05436647250924794
1592176919.3730857,-0.10382839500483848,9.446171604995161,2.301600617483065,-0.37666666666666665,-0.4866666666666667,-0.22666666666666666,-0.045827484593850526,0.18090330961225873,0.0713090222451536
1592176919.3830857,-0.07011641443538999,9.446647264260768,2.2268218859138535,-0.37666666666666665,-0.4866666666666667,-0.22666666666666666,-0.029124800927306425,0.18688509169692194,0.08795981953480736
1592176919.3930857,-0.1166465022866407,9.456664650228664,2.2266586009146563,-0.37666666666666665,-0.4866666666666667,-0.22666666666666666,-0.01781844249562641,0.18871372537188688,0.08581444110829653
1592176919.4030857,-0.07337835999300305,9.48736487143107,2.272837845717284,-0.37666666666666665,-0.4866666666666667,-0.22666666666666666,-0.02303274642512842,0.18632568984260134,0.07942427315794864
1592176919.4130857,-0.050598606878537226,9.51,2.3231992039305926,-0.37988877832369344,-0.4673339967245061,-0.23504415697493625,-0.03641169271605272,0.1837177420974785,0.07681632541282579
1592176919.4230857,-0.13230811680846172,9.477307426994711,2.385769602207404,-0.38222222222222224,-0.4533333333333333,-0.2411111111111111,-0.05428991313241065,0.18254633015954097,0.08848325687243361
1592176919.4330857,-0.12103043478260869,9.42103043478261,2.3905152173913042,-0.38222222222222224,-0.4533333333333333,-0.2411111111111111,-0.08517507123426059,0.17154144034699975,0.08144103099264101
1592176919.4430857,-0.1,9.393559958681568,2.386440041318434,-0.38222222222222224,-0.4533333333333333,-0.2411111111111111,-0.11011726245286507,0.15245878784913797,0.043266513842694435
1592176919.4530857,-0.1264483950617284,9.395289679012347,2.405869037037037,-0.38222222222222224,-0.4533333333333333,-0.2411111111111111,-0.10575561880435576,0.1341172191492636,0.01579367832676913
1592176919.4630857,-0.10205933971323554,9.441948077750919,2.431985165071691,-0.38222222222222224,-0.4746402934607842,-0.25842301621466496,-0.0737676709707347,0.12108626245622046,0.018965082338805648
1592176919.4730856,0.033732242589974745,9.497661931357326,2.4123380686426734,-0.38222222222222224,-0.4888888888888889,-0.27,-0.053624327164930354,0.11286565804653853,0.03556875327507725
1592176919.4830856,0.10598865441343316,9.47101701837985,2.36101701837985,-0.38222222222222224,-0.4888888888888889,-0.27,-0.056230161017554604,0.10166914176319147,0.0555707121020277
1592176919.4930856,0.13254870398863772,9.431176944017043,2.383920463960232,-0.38222222222222224,-0.4888888888888889,-0.27,-0.06848682106867807,0.10529704719692982,0.07394097498116035
1592176919.5030856,0.11964619298211547,9.42508845175447,2.460884517544711,-0.38222222222222224,-0.4888888888888889,-0.27,-0.0819473889423943,0.11461442087936222,0.07352494333231355
1592176919.5130856,0.0010466536797966303,9.4519896325156,2.592461121933503,-0.3828330453476556,-0.4846131270108554,-0.2779407006306336,-0.09304616937127973,0.11470283588444828,0.07242890212354072
1592176919.5230856,-0.07332610284582558,9.42328271992078,2.6666738971541744,-0.38333333333333336,-0.4811111111111111,-0.28444444444444444,-0.10691324754217156,0.10034460113215506,0.08363824722974088
1592176919.5330856,-0.05146367450223081,9.344391023506693,2.6514636745022306,-0.38333333333333336,-0.4811111111111111,-0.28444444444444444,-0.12987956578483012,0.08614028048334409,0.08524446315498241
1592176919.5430856,-0.12192342278385157,9.269038288608074,2.6809617113919257,-0.38333333333333336,-0.4811111111111111,-0.28444444444444444,-0.1407171709420428,0.08518970747374258,0.057822911348055894
1592176919.5530856,-0.18,9.291250131206047,2.6997499737587907,-0.38333333333333336,-0.4811111111111111,-0.28444444444444444,-0.1133236127860396,0.08947539779674368,0.011876350013869205
1592176919.5630856,-0.1680380818504201,9.387847672598319,2.6182284911025206,-0.3760232722419234,-0.4824402131277311,-0.2797925873862745,-0.04420664843334269,0.07618568355841458,-0.023967121573902517
1592176919.5730855,-0.1308391834971379,9.433608381034668,2.5602797278323792,-0.3711111111111111,-0.48333333333333334,-0.27666666666666667,-0.010182108349501966,0.06378385298766592,-0.02757437372338919
1592176919.5830855,0.07366782598779864,9.462110724670733,2.4697993044073208,-0.3711111111111111,-0.48333333333333334,-0.27666666666666667,-0.0030860329891494176,0.044450032751852414,-0.010404034150041173
1592176919.5930855,0.15314746188474646,9.387410152461014,2.4628686547118663,-0.3711111111111111,-0.48333333333333334,-0.27666666666666667,-0.022785793853802097,0.037461994580596944,0.009230837054159578
1592176919.6030855,0.16562819437027995,9.358592951407429,2.49266343733313,-0.3711111111111111,-0.48333333333333334,-0.27666666666666667,-0.023894095344475348,0.038162642946950064,0.020369511162706248
1592176919.6130855,0.15141185671828564,9.410735179102142,2.648955732832786,-0.36706209917096827,-0.47995915671654765,-0.2894885378104524,0.017265566565477064,0.05134924237685999,0.046791811770232845
1592176919.6230855,0.12254581983681168,9.439816720652752,2.677087621468695,-0.36444444444444446,-0.4777777777777778,-0.29777777777777775,0.03804132025054833,0.05396613472050868,0.05735858312026159
1592176919.6330855,0.12434685381229928,9.387387415249197,2.5930405614368977,-0.36444444444444446,-0.4777777777777778,-0.29777777777777775,0.05876236786140579,0.05772066144363553,0.0806281078760611
1592176919.6430855,0.05871802113488196,9.381142177975477,2.518718021134882,-0.36444444444444446,-0.4777777777777778,-0.29777777777777775,0.04991378150450504,0.06739757384721672,0.07936621263190935
1592176919.6530855,0.07517625269260966,9.408621786483604,2.395512854065589,-0.36444444444444446,-0.4777777777777778,-0.29777777777777775,0.044648892195927756,0.06422703515139085,0.06851518839494973
1592176919.6630855,0.15894044542524463,9.44788089085049,2.3323511135631114,-0.36494113585695803,-0.4777777777777778,-0.3002612348403457,0.04337676459507953,0.05878928278022081,0.05058991838198204
1592176919.6730855,0.1540971804250197,9.459398120283346,2.3918056391499607,-0.3655555555555556,-0.4777777777777778,-0.30333333333333334,0.027061153693030804,0.05536975033840488,0.012933357220110651
1592176919.6830854,0.14,9.411940313504823,2.4036887057877814,-0.3655555555555556,-0.4777777777777778,-0.30333333333333334,-0.0013350400854910405,0.05245523756593638,-0.023744751129721634
1592176919.6930854,0.12345002783964365,9.396549972160356,2.489299832962138,-0.3655555555555556,-0.4777777777777778,-0.30333333333333334,-0.02490001446533762,0.05044183849533032,-0.049612782805960806
1592176919.7030854,0.1186466855264164,9.397029971710376,2.591616713816041,-0.3655555555555556,-0.4777777777777778,-0.30333333333333334,-0.02800888810550289,0.04752495089290498,-0.051830809200722444
1592176919.7130854,0.11278625149363886,9.38,2.62,-0.36890267332068133,-0.4787340971392423,-0.297117257483814,-0.011489107935838998,0.04831402015381444,-0.04113410401089495
1592176919.7230854,0.09505599290386961,9.383033595742322,2.6119104113538087,-0.37333333333333335,-0.48,-0.28888888888888886,0.006373238413667617,0.049957606687011984,-0.03706381509162257
1592176919.7330854,0.12138094986528608,9.41465476253368,2.5027618997305723,-0.37333333333333335,-0.48,-0.28888888888888886,0.056327126942227454,0.04850431025553883,-0.010852466785911305
1592176919.7430854,0.12595475524308297,9.425190951048616,2.4651909510486165,-0.37333333333333335,-0.48,-0.28888888888888886,0.0726027356205486,0.04738865045406155,0.0012574670079212205
1592176919.7530854,0.12891183402233125,9.43,2.4489118340223315,-0.37333333333333335,-0.48,-0.28888888888888886,0.07601678285734584,0.04535482045295444,0.013275384914726358
1592176919.7630854,0.0805663430420712,9.457207119741101,2.396679611650485,-0.3703103200287666,-0.4817274361740381,-0.297957928802589,0.08320355920950556,0.041756225710688766,0.02781406683563536
1592176919.7730854,0.10413535600225438,9.456691715198197,2.3762406068006765,-0.3655555555555556,-0.48444444444444446,-0.31222222222222223,0.08876737956474594,0.03236404558498643,0.04090205578722974
1592176919.7830853,0.12456996323696273,9.369139926473926,2.420516044115645,-0.3655555555555556,-0.48444444444444446,-0.31222222222222223,0.08782125993773923,0.0278068030068851,0.03802896623898358
1592176919.7930853,0.013195949800342277,9.358579577866514,2.4837571306332005,-0.3655555555555556,-0.48444444444444446,-0.31222222222222223,0.10045638332706042,0.028322864340224223,0.004728203848802914
1592176919.8030853,-0.12313893319845932,9.42745204839902,2.4886262304011204,-0.3655555555555556,-0.48444444444444446,-0.31222222222222223,0.13398048556447698,0.02688567060429862,-0.0376449722090809
1592176919.8130853,-0.08976962843295637,9.476912439418417,2.4192626817447493,-0.3686277508526297,-0.48444444444444446,-0.3149103931071621,0.179378821999013,0.009334903372873873,-0.05652212832748478
1592176919.8230853,0.08496985655879705,9.540100478137344,2.3749899521862656,-0.37444444444444447,-0.48444444444444446,-0.32,0.18922735541603236,-0.014722927424346697,-0.04362884711405096
1592176919.8330853,0.0460407095907838,9.551665135345253,2.269370980281292,-0.37444444444444447,-0.48444444444444446,-0.32,0.15410180110312907,-0.012567258759854568,-0.0362244634338363
1592176919.8430853,0.06273055841451447,9.52899135929534,2.18848703894301,-0.37444444444444447,-0.48444444444444446,-0.32,0.12220526682114405,-0.022357318267864423,-0.017595537334396505
1592176919.8530853,0.13672418729837554,9.488916143317999,2.223817741042625,-0.37444444444444447,-0.48444444444444446,-0.32,0.0976803806854554,-0.03589800898183791,-0.0028560414025998126
1592176919.8630853,0.17394864325744863,9.347640502802141,2.220922964886173,-0.37242732553026064,-0.48679774984432556,-0.31562957568593514,0.08603029363108364,-0.0326689019592299,0.004089294335117481
1592176919.8730853,0.20164784608950231,9.342550769087783,2.2092550769087786,-0.36777777777777776,-0.4922222222222222,-0.3055555555555556,0.1572987721131405,-0.01089107270873942,0.029144632228230626
1592176919.8830853,0.13791953502775064,9.571046902170028,2.1213691908244208,-0.36777777777777776,-0.4922222222222222,-0.3055555555555556,0.25913304824683114,0.009442633068568152,0.03509400702683657
1592176919.8930852,0.013283279507790952,9.768705358195234,1.973433440984418,-0.36777777777777776,-0.4922222222222222,-0.3055555555555556,0.29349900079596664,0.03378299410518013,0.025821788544451125
1592176919.9030852,-0.007174305964541744,9.729629373895737,2.0143486119290834,-0.36777777777777776,-0.4922222222222222,-0.3055555555555556,0.205113426128553,0.04310202699179214,0.019132171943234383
1592176919.9130852,-0.03764169802445908,9.482340075258703,2.130292509407338,-0.3699349979094805,-0.4922222222222222,-0.31706072959130344,0.047539903725976766,0.033654226898164046,0.016555896923242306
1592176919.9230852,0.09988778975343274,9.292044884098628,2.189206161720557,-0.37444444444444447,-0.4922222222222222,-0.3411111111111111,-0.04029862510742825,0.018618477386487076,0.03547693723405177
1592176919.9330852,0.18980144316916073,9.313907937430384,2.2652978352462587,-0.37444444444444447,-0.4922222222222222,-0.3411111111111111,0.009507354416256407,0.021729978888667352,0.022784385252328454
1592176919.9430852,0.205172635854758,9.49414326051419,2.19827364145242,-0.37444444444444447,-0.4922222222222222,-0.3411111111111111,0.07658483705208746,0.030129668071825377,-0.0068086278013244125
1592176919.9530852,0.21,9.61,2.15,-0.37444444444444447,-0.4922222222222222,-0.3411111111111111,0.09817477042468103,0.03381575425739013,-0.014180800172453926
1592176919.9630852,0.21199770843162363,9.662363011390443,2.2125456628698523,-0.37444444444444447,-0.495899290812009,-0.3391311511012259,0.013207014790357439,0.062336748087264776,-0.017433368334322446
1592176919.9730852,0.1439248835085583,9.505392792750603,2.271057906198047,-0.37444444444444447,-0.5066666666666667,-0.3333333333333333,-0.09064684520466398,0.08886361643467336,-0.0015227238609433758
1592176919.9830852,0.16427590693917843,9.362827720817535,2.300068651425751,-0.37444444444444447,-0.5066666666666667,-0.3333333333333333,-0.1382045867593011,0.0917802696208824,0.019153547576007308
1592176919.9930851,0.1661040100547796,9.391687969835662,2.2833759396713225,-0.37444444444444447,-0.5066666666666667,-0.3333333333333333,-0.13201936758378768,0.09830217068562616,0.033220581627171765
1592176920.0030851,0.1695923038973853,9.422789738529847,2.3519743463246177,-0.37444444444444447,-0.5066666666666667,-0.3333333333333333,-0.08588531046026827,0.1067679984470619,0.05265719487147944
1592176920.0130851,0.17097529921059332,9.452378087598676,2.434268525592055,-0.3710094290241349,-0.5045528110233993,-0.3333333333333333,-0.04373961993996421,0.11604049253574009,0.07365767497853726
1592176920.023085,0.16069740146944908,9.421976948897914,2.475775216544213,-0.36,-0.49777777777777776,-0.3333333333333333,-0.04307932760072058,0.13034579020043707,0.06692545541751595
1592176920.033085,0.18589520660392628,9.345942839965778,2.4459428399657783,-0.36,-0.49777777777777776,-0.3333333333333333,-0.054330647359556936,0.1442213390297507,0.049061405243649714
1592176920.043085,0.07103281422497826,9.39286754515773,2.41,-0.36,-0.49777777777777776,-0.3333333333333333,-0.04986541534201202,0.15723603300590214,0.019987521006862102
1592176920.053085,-0.0008679931240244219,9.545220011459959,2.41,-0.36,-0.49777777777777776,-0.3333333333333333,-0.03025789707695431,0.1650474972971743,-0.004079273044381493
1592176920.063085,0.011537302185380557,9.569421627731726,2.437503767897513,-0.35788432554634514,-0.49613225320271287,-0.3333333333333333,-0.027481619672215723,0.15865196619811822,-0.01067752354298575
1592176920.073085,-0.02,9.483042750540484,2.5439131041216263,-0.35,-0.49,-0.3333333333333333,-0.07550475218614425,0.11918492138911989,-0.003841528839090838
1592176920.083085,0.0022778785665480764,9.395148080955634,2.5240091416723605,-0.35,-0.49,-0.3333333333333333,-0.10795994121420759,0.09035508944717098,0.011529502839759445
1592176920.093085,0.03635719060351413,9.373642809396486,2.476357190603514,-0.35,-0.49,-0.3333333333333333,-0.09914112233159658,0.0665252090184564,0.031353468348619004
1592176920.103085,0.07748711190356215,9.377032055506028,2.47,-0.35,-0.49,-0.3333333333333333,-0.05896012470035778,0.04997403669142694,0.05544286242380636
1592176920.113085,0.15796590980564817,9.361101641612679,2.4735593433549283,-0.352175154272456,-0.49,-0.33590397020078133,-0.01650108829232665,0.0492353084255654,0.0668734363520151
1592176920.123085,0.006506554079444726,9.344454121443887,2.4760262163177793,-0.3622222222222222,-0.49,-0.3477777777777778,0.028333002778470912,0.06151999637615642,0.027890029850129384
1592176920.133085,-0.03743602534044994,9.418077019005338,2.434401656108146,-0.3622222222222222,-0.49,-0.3477777777777778,0.06999502055491176,0.061296288506114883,0.003962403231475628
1592176920.143085,-0.12685838488547066,9.48,2.4377211168700885,-0.3622222222222222,-0.49,-0.3477777777777778,0.10225813614768943,0.04780833550867096,-0.005796850959850753
1592176920.153085,-0.11239605248058755,9.466198026240294,2.526562368511647,-0.3622222222222222,-0.49,-0.3477777777777778,0.10197000033263079,0.023163203127575787,-0.001051087206000726
1592176920.163085,-0.03315618620528095,9.420418660687393,2.5645249489642246,-0.3605492899612909,-0.49,-0.3477777777777778,0.08229360158360424,-0.011965772276508177,0.006441344636362644
1592176920.173085,0.05515936626281454,9.36,2.5450531220876047,-0.35,-0.49,-0.3477777777777778,0.05986658259054175,-0.05281674555018768,-0.004374912571663792
1592176920.183085,0.11985040353145762,9.37353279529139,2.5023360235430507,-0.35,-0.49,-0.3477777777777778,0.06880393151369613,-0.07932687115345002,-0.014246073945589445
1592176920.193085,0.1141816415735794,9.41418164157358,2.347309373482273,-0.35,-0.49,-0.3477777777777778,0.08674674186264555,-0.08633827632922896,-0.022907446432425576
1592176920.203085,0.14515076487753117,9.442726147316296,2.2827261473162967,-0.35,-0.49,-0.3477777777777778,0.11053841955712693,-0.08293603126359671,-0.023436415926740773
1592176920.213085,0.10795595978937292,9.439594702409446,2.2551013243976383,-0.3480949594879705,-0.48836710813254613,-0.352948602024715,0.13352729586105014,-0.07589010882387702,-0.02375320146228839
1592176920.223085,0.04,9.5,2.24,-0.3422222222222222,-0.48333333333333334,-0.3688888888888889,0.148352986419518,-0.0643590161672909,-0.019634954084936207
1592176920.233085,0.0,9.512168758884899,2.1747791725899335,-0.3422222222222222,-0.48333333333333334,-0.3688888888888889,0.14621519148045542,-0.07081195716903535,-0.019113627227339954
1592176920.243085,0.01861624834874505,9.471383751651254,2.1839351764483865,-0.3422222222222222,-0.48333333333333334,-0.3688888888888889,0.12567784844869787,-0.08957549754585106,-0.025657527793260786
1592176920.253085,0.07213384585058151,9.426401537551744,2.2478661541494187,-0.3422222222222222,-0.48333333333333334,-0.3688888888888889,0.11289410513188014,-0.11241481047109077,-0.040433740539330736
1592176920.263085,0.08894363989718514,9.45511065136982,2.2412776628424553,-0.34314497871955085,-0.4846819774448136,-0.3675402447774086,0.11987615506285498,-0.12899677512622215,-0.045002804873995064
1592176920.2730849,0.24800602828657548,9.527199397171342,2.2487975886853695,-0.3566666666666667,-0.5044444444444445,-0.3477777777777778,0.13050620571700852,-0.13521984410710003,-0.051531372232377554
1592176920.2830849,0.30466419486553714,9.507220162387947,2.207220162387948,-0.3566666666666667,-0.5044444444444445,-0.3477777777777778,0.11662121197309613,-0.13681379166853364,-0.05976572110906674
1592176920.2930849,0.26,9.46032926483111,2.174835367584445,-0.3566666666666667,-0.5044444444444445,-0.3477777777777778,0.10521129467890279,-0.12069842896187404,-0.06360374821775798
1592176920.3030849,0.24022676825244466,9.435931969524267,2.1919773231747555,-0.3566666666666667,-0.5044444444444445,-0.3477777777777778,0.11621329899284953,-0.10322227591899588,-0.055225721489151815
1592176920.3130848,0.15561446217653954,9.462740961139664,2.202740961139663,-0.355996653943638,-0.5032871497410313,-0.34820414951061424,0.14275031979568692,-0.09122565411981338,-0.04418587562109596
1592176920.3230848,0.08242294105423564,9.519691764216942,2.2403082357830573,-0.34444444444444444,-0.48333333333333334,-0.35555555555555557,0.1778054175469223,-0.06544984694978735,-0.03490658503988659
1592176920.3330848,0.1031666145670522,9.5412222569553,2.174889027821194,-0.34444444444444444,-0.48333333333333334,-0.35555555555555557,0.1794810482018731,-0.06760422922043838,-0.021501539800280252
1592176920.3430848,0.1679796160227542,9.498762739985779,2.045505095994311,-0.34444444444444444,-0.48333333333333334,-0.35555555555555557,0.18740250488590618,-0.07281573416536961,0.028141210641423622
1592176920.3530848,0.22451972148593585,9.465480278514065,2.0226929619812477,-0.34444444444444444,-0.48333333333333334,-0.35555555555555557,0.19576202768431453,-0.06037364516742748,0.03291389953995488
1592176920.3630848,0.19922996236194238,9.491925094095144,1.9884599247238848,-0.3445727840507874,-0.4834616729396763,-0.35555555555555557,0.20293652458230452,-0.04237440436550696,0.023620285873248673
1592176920.3730848,0.14752702702702702,9.599978378378378,1.8875486486486486,-0.3511111111111111,-0.49,-0.35555555555555557,0.19963382596206763,-0.03381575425739013,-0.0002626838451903627
1592176920.3830848,0.10727817717165444,9.624556354343309,1.79550359454489,-0.3511111111111111,-0.49,-0.35555555555555557,0.17316480783215757,-0.036784802383051034,-0.016852943485548735
1592176920.3930848,0.09728186169960662,9.612718138300393,1.73,-0.3511111111111111,-0.49,-0.35555555555555557,0.13727623806707,-0.048578599690251904,-0.026666803251158562
1592176920.4030848,0.07868086394832459,9.599625555106984,1.7775403714170368,-0.3511111111111111,-0.49,-0.35555555555555557,0.11270556565744544,-0.0626090408657385,-0.03406269949811879
1592176920.4130847,0.038962193792668236,9.534151224829326,1.9431134186219952,-0.3511111111111111,-0.4905765590040732,-0.35324931953926275,0.11096635870219843,-0.07707863752381289,-0.035585827614220626
1592176920.4230847,0.04451531938948558,9.574838439796496,1.97,-0.3511111111111111,-0.4955555555555556,-0.3333333333333333,0.11833751641654452,-0.09535957604683518,-0.04382663331603811
1592176920.4330847,0.09395155043308842,9.586048449566912,1.9601211239172789,-0.3511111111111111,-0.4955555555555556,-0.3333333333333333,0.11934481514696015,-0.10276682976696332,-0.05126904677733343
1592176920.4430847,0.11367655420773314,9.551617228961335,1.9402210481425322,-0.3511111111111111,-0.4955555555555556,-0.3333333333333333,0.11912519282910809,-0.09485405285353411,-0.04886274767534613
1592176920.4530847,0.13,9.472943498497614,2.032943498497614,-0.3511111111111111,-0.4955555555555556,-0.3333333333333333,0.13430406539427922,-0.07253809403824059,-0.03641310506418986
1592176920.4630847,0.13,9.489417899016084,2.0494178990160843,-0.3511111111111111,-0.4955555555555556,-0.3333333333333333,0.1594631618864917,-0.057262928310825856,-0.026529174299392097
1592176920.4730847,0.0834479011645761,9.562364585547918,1.9792603878770698,-0.3388888888888889,-0.4955555555555556,-0.3333333333333333,0.18768198029048094,-0.059044627122979094,-0.004916687905789839
1592176920.4830847,0.053634252021262346,9.57,1.8649600214410147,-0.3388888888888889,-0.4955555555555556,-0.3333333333333333,0.17989732567012498,-0.07193124410864433,0.012783287434133435
1592176920.4930847,0.1383885974697966,9.566777194939593,1.8164456101208137,-0.3388888888888889,-0.4955555555555556,-0.3333333333333333,0.16133951964664828,-0.09303599971605314,0.016822526112234514
1592176920.5030847,0.12736697247706422,9.548683486238533,1.851316513761468,-0.3388888888888889,-0.4955555555555556,-0.3333333333333333,0.14973103594933235,-0.10064365073699182,2.7520960108855762e-05
1592176920.5130847,0.11063661747108097,9.54031830873554,1.8596816912644596,-0.3388888888888889,-0.4955555555555556,-0.3333333333333333,0.15155603457359437,-0.10246864936125384,-0.013659968721856298
1592176920.5230846,0.13485242575170633,9.528981276517248,1.8028149787862018,-0.34444444444444444,-0.4955555555555556,-0.3411111111111111,0.18566936978876852,-0.09959897768732895,-0.012841408474244736
1592176920.5330846,0.02149687220732797,9.580478105451297,1.7460500446827525,-0.34444444444444444,-0.4955555555555556,-0.3411111111111111,0.21227430551679916,-0.0848693643922466,-0.03032782526742381
1592176920.5430846,0.02723739495798319,9.653813025210084,1.6113813025210084,-0.34444444444444444,-0.4955555555555556,-0.3411111111111111,0.20965607223290342,-0.07458612766852211,-0.02185270931552643
1592176920.5530846,0.01,9.733100230346702,1.6268997696532987,-0.34444444444444444,-0.4955555555555556,-0.3411111111111111,0.16251767958732816,-0.05810305556364044,-0.015773396363613926
1592176920.5630846,0.01,9.683554426791092,1.6764455732089067,-0.34444444444444444,-0.4955555555555556,-0.3411111111111111,0.10757082379764886,-0.06801150496833672,-0.019376468874412564
1592176920.5730846,0.06433578437057828,9.56088562083923,1.7379643246503214,-0.3322222222222222,-0.4955555555555556,-0.30333333333333334,0.07938913150397844,-0.08910061494509476,-0.023949974091269467
1592176920.5830846,0.14808598183881955,9.482910281876656,1.7557420544835414,-0.3322222222222222,-0.4955555555555556,-0.30333333333333334,0.11469280349322028,-0.08432631663421926,-0.028276372741205428
1592176920.5930846,0.203797612010876,9.63632935335146,1.6,-0.3322222222222222,-0.4955555555555556,-0.30333333333333334,0.16651055405892295,-0.060340699382675805,-0.0179640834798048
1592176920.6030846,0.22904196433701712,9.681916071325965,1.5980839286740343,-0.3322222222222222,-0.4955555555555556,-0.30333333333333334,0.175447567516112,-0.020490866913009453,0.00035929242815865533
1592176920.6130846,0.22100859972036543,9.697982800559268,1.582017199440731,-0.3322222222222222,-0.4955555555555556,-0.30333333333333334,0.14652953086026912,0.01806651529478104,-0.005774836559444378
1592176920.6230845,-0.04062771652102301,9.621733998261428,1.5788191426087752,-0.3388888888888889,-0.4955555555555556,-0.3322222222222222,0.10047710860732854,0.04568608130564251,-0.01732448096073465
1592176920.6330845,-0.12253034523927966,9.564217242065467,1.5632524126952543,-0.3388888888888889,-0.4955555555555556,-0.3322222222222222,0.08536081888245854,0.043988014488394796,-0.016546473635936813
1592176920.6430845,-0.13586484810911345,9.614711717296961,1.4935337879727217,-0.3388888888888889,-0.4955555555555556,-0.3322222222222222,0.08822880122556424,0.03445550994259884,-0.015074835072925293
1592176920.6530845,-0.0445809758501725,9.644445342533269,1.5345809758501725,-0.3388888888888889,-0.4955555555555556,-0.3322222222222222,0.085903144545756,0.022225787405445337,0.010302388689871014
1592176920.6630845,-0.21822375554460327,9.578295712173485,1.7082237555446032,-0.3388888888888889,-0.4955555555555556,-0.3322222222222222,0.06966758261013295,0.014108006437633809,0.0030865833851496556
1592176920.6730845,-0.34,9.48,1.83,-0.3377777777777778,-0.5022222222222222,-0.3388888888888889,0.07853981633974483,-0.009817477042468103,-0.022907446432425576
1592176920.6830845,-0.18467891604125847,9.47029243225258,1.8397075677474215,-0.3377777777777778,-0.5022222222222222,-0.3388888888888889,0.12407386534458986,-0.04264434958084476,-0.010200269965957192
1592176920.6930845,0.0006207289293849675,9.57625284738041,1.69749430523918,-0.3377777777777778,-0.5022222222222222,-0.3388888888888889,0.16597679889948141,-0.035656375902342864,0.024492288137348172
1592176920.7030845,-0.12082519930001945,9.651202799922224,1.553006999805561,-0.3377777777777778,-0.5022222222222222,-0.3388888888888889,0.16641347908803816,-0.03333975922684793,0.016928472047804614
1592176920.7130845,-0.2676216216216216,9.667513513513514,1.5937837837837838,-0.3377777777777778,-0.5022222222222222,-0.3388888888888889,0.14506280492420437,-0.056469656237667885,0.009811580659860014
1592176920.7230844,-0.23579893096781532,9.621210053451609,1.5303195723871261,-0.3422222222222222,-0.5011111111111111,-0.3322222222222222,0.12081822414641033,-0.09013552247766433,0.009720340626831265
1592176920.7330844,-0.04575088316771291,9.630838183343077,1.456647266627697,-0.3422222222222222,-0.5011111111111111,-0.3322222222222222,0.11972343986491618,-0.12100348253372006,0.0005422410672947921
1592176920.7430844,0.12687495526447642,9.641406246272041,1.424218738816119,-0.3422222222222222,-0.5011111111111111,-0.3322222222222222,0.1279510439739259,-0.14352947027313864,-0.005147358568219921
1592176920.7530844,0.23,9.65,1.45,-0.3422222222222222,-0.5011111111111111,-0.3322222222222222,0.12326387842209952,-0.1407171709420428,-0.0032724923474893677
1592176920.7630844,0.4493687475765801,9.631719271035285,1.4957018224117875,-0.3422222222222222,-0.5011111111111111,-0.3322222222222222,0.11329328748150666,-0.09784362989749357,-0.011248965099963646
1592176920.7730844,0.29,9.59,1.59,-0.3422222222222222,-0.5011111111111111,-0.3111111111111111,0.10799224746714915,-0.056723200689815706,-0.022907446432425576
1592176920.7830844,0.13362828507232838,9.591309737194214,1.5321415768347177,-0.3422222222222222,-0.5011111111111111,-0.3111111111111111,0.11829046554039255,-0.02791368530420439,-0.02616063423374014
1592176920.7930844,-0.1,9.61,1.42,-0.3422222222222222,-0.5011111111111111,-0.3111111111111111,0.1407171709420428,-0.0370882466048795,-0.04145156973486533
1592176920.8030844,-0.1765916892137463,9.734461494972338,1.285964543875944,-0.3422222222222222,-0.5011111111111111,-0.3111111111111111,0.15533817109065015,-0.05379796106043075,-0.016386998051538447
1592176920.8130844,-0.054469419530273455,9.802765290234865,1.2620670599328963,-0.3422222222222222,-0.5011111111111111,-0.3111111111111111,0.1383831791557184,-0.07997188308444195,-0.027986802934759955
1592176920.8230844,0.07,9.78,1.26,-0.3422222222222222,-0.49333333333333335,-0.30333333333333334,0.0818123086872342,-0.1090830782496456,-0.025089107997418484
1592176920.8330843,0.29044055878049935,9.715198216055501,1.4456387748359998,-0.3422222222222222,-0.49333333333333335,-0.30333333333333334,0.018174103657850896,-0.1087418879617134,-0.012936195660790595
1592176920.8430843,0.5587589359529253,9.516897339882313,1.5305490444001362,-0.3422222222222222,-0.49333333333333335,-0.30333333333333334,0.001007545059181792,-0.05661901396332526,-0.010772928738404672
1592176920.8530843,0.54,9.47,1.69,-0.3422222222222222,-0.49333333333333335,-0.30333333333333334,0.032724923474893676,0.01090830782496456,-0.008726646259971648
1592176920.8630843,0.5067505154639176,9.494937113402061,1.69,-0.3422222222222222,-0.49333333333333335,-0.30333333333333334,0.0835023092026318,0.06984634483037488,-0.007819907229119181
1592176920.8730843,0.33,9.57,1.63,-0.3422222222222222,-0.49333333333333335,-0.28555555555555556,0.14289883250703572,0.13962634015954636,-0.0032724923474893677
1592176920.8830843,0.1080106365962892,9.647213691618683,1.408010636596289,-0.3422222222222222,-0.49333333333333335,-0.28555555555555556,0.15132153967182044,0.1701586536318909,0.007255891608491502
1592176920.8930843,-0.07,9.64,1.31,-0.3422222222222222,-0.49333333333333335,-0.28555555555555556,0.1407171709420428,0.16689710972195776,0.009817477042468103
1592176920.9030843,-0.05232584543021653,9.657674154569783,1.2481404590057579,-0.3422222222222222,-0.49333333333333335,-0.28555555555555556,0.1320413906053487,0.13701386634001142,0.021385184158060237
1592176920.9130843,0.10439578531445505,9.720042805400066,1.2228449127428382,-0.3422222222222222,-0.49333333333333335,-0.28555555555555556,0.11967171554565992,0.1153037230708692,0.03694241937481906
1592176920.9230843,0.16,9.74,1.23,-0.3422222222222222,-0.49333333333333335,-0.3088888888888889,0.10144726277217041,0.10035643198967394,0.0370882466048795
1592176920.9330842,0.17842840982546865,9.730785795087266,1.2944994343891403,-0.3422222222222222,-0.49333333333333335,-0.3088888888888889,0.06928362003604024,0.09834620431866581,0.03809336044038357
1592176920.9430842,0.28506686407488774,9.682242334511415,1.1949331359251123,-0.3422222222222222,-0.49333333333333335,-0.3088888888888889,0.04257673318932975,0.09921668105698339,0.04964009434270181
1592176920.9530842,0.26138895501071174,9.68,1.256759104975006,-0.3422222222222222,-0.49333333333333335,-0.3088888888888889,0.031048300203629788,0.11799148636340145,0.016887753494883244
1592176920.9630842,0.33994803118129124,9.695989606236258,1.2440103937637417,-0.3422222222222222,-0.49333333333333335,-0.3088888888888889,0.028799066441649986,0.13808670544287227,0.02399260829620428
1592176920.9730842,0.29161579672432264,9.758615031379152,1.2693075156895761,-0.3498204670306308,-0.5009315781417418,-0.2806668367433713,0.015573784235832918,0.16208055667064813,0.01658907669810874
1592176920.9830842,0.26111368258643664,9.711856137644062,1.2603712275288121,-0.35,-0.5011111111111111,-0.28,-0.019389461695495776,0.15203042518274584,0.015312125596524229
1592176920.9930842,0.22253017641597028,9.700632544103993,1.2225301764159702,-0.35,-0.5011111111111111,-0.28,-0.047293388904544,0.139363507672956,0.0040314907854032776
1592176921.0030842,0.2532982390599263,9.67336140875206,1.3132350693677937,-0.35,-0.5011111111111111,-0.28,-0.06724875729708725,0.13272387030993096,0.005451856997658975
1592176921.0130842,0.2577022749024516,9.635404549804903,1.4214886254877421,-0.35,-0.5011111111111111,-0.28,-0.08172404961118593,0.12712591569886125,0.0056506688889064
1592176921.0230842,0.22255674397260758,9.579068092767129,1.5832616753150481,-0.3472866046179612,-0.50343687858143,-0.28,-0.08221762072848372,0.11907779748533728,0.005124428754851683
1592176921.0330842,0.16991331703397222,9.531965326813587,1.7079479902203833,-0.3422222222222222,-0.5077777777777778,-0.28,-0.05338451882896349,0.10732072883707224,0.0047920909271715086
1592176921.0430841,0.12308073022312374,9.525639756592291,1.625142799188641,-0.3422222222222222,-0.5077777777777778,-0.28,-0.016701216692416837,0.09806365171900766,0.0018740605601599357
1592176921.0530841,0.14330970678206373,9.675663657390135,1.2429381481757815,-0.3422222222222222,-0.5077777777777778,-0.28,0.05800708158169675,0.07267636689602516,0.005037126610422156
1592176921.0630841,0.1858524061834271,9.740193368656797,1.148295187633146,-0.3422222222222222,-0.5077777777777778,-0.28,0.07391002708973256,0.044309943224084616,0.0062363320783112505
1592176921.073084,0.18253827585066632,9.773096293112,1.1287308620746668,-0.340282030650074,-0.5053525383125925,-0.2833953352512594,0.066634949953773,0.020006109249662812,0.0003544541742733845
1592176921.083084,0.18301434006438397,9.783424474267319,1.1564388143317028,-0.3377777777777778,-0.5022222222222222,-0.2877777777777778,0.031543885606491545,-0.005708402903343844,-0.006918536889444578
1592176921.093084,0.2255938319093168,9.703907478639751,1.2693110256322975,-0.3377777777777778,-0.5022222222222222,-0.2877777777777778,-0.03083601167635759,-0.025661722678865805,-0.0030509620193968513
1592176921.103084,0.20623758623303767,9.595915775907816,1.411287241300887,-0.3377777777777778,-0.5022222222222222,-0.2877777777777778,-0.06115673194157695,-0.03166919675328493,-0.0018765580723069386
1592176921.113084,0.1512357714085576,9.55,1.525955285739303,-0.3377777777777778,-0.5022222222222222,-0.2877777777777778,-0.04583928071084357,-0.03773786750517889,-0.01172953510894429
1592176921.123084,0.03383716564992961,9.603081417175035,1.502084702017832,-0.3318798425361072,-0.5022222222222222,-0.2877777777777778,-0.012536389404161699,-0.04836892648649683,-0.014180800172453926
1592176921.133084,0.027986084495415547,9.62,1.4713426103363896,-0.33,-0.5022222222222222,-0.2877777777777778,0.011918320842892086,-0.07874432098156489,-0.012145594675844189
1592176921.143084,0.12662636194525645,9.655136858889184,1.4085104969439277,-0.33,-0.5022222222222222,-0.2877777777777778,0.011173551026129656,-0.10563491663449935,0.00045758075741978745
1592176921.153084,0.2427423900789177,9.65143813416009,1.4,-0.33,-0.5022222222222222,-0.2877777777777778,0.004370625055319614,-0.12309239847031334,0.005917480290504308
1592176921.163084,0.4466678247274938,9.603333043818127,1.4388891301515612,-0.33,-0.5022222222222222,-0.2877777777777778,0.0015756339365360066,-0.12120339395970903,0.009090272311408777
1592176921.173084,0.49,9.59,1.4,-0.3377777777777778,-0.4888888888888889,-0.28,0.025089107997418484,-0.09708393964218458,0.00545415391248228
1592176921.183084,0.49,9.59,1.4,-0.3377777777777778,-0.4888888888888889,-0.28,0.025089107997418484,-0.09708393964218458,0.00545415391248228
1592176921.193084,0.3104320857617677,9.669783957119117,1.2319223837277344,-0.3377777777777778,-0.4888888888888889,-0.28,0.07271339660302739,-0.06083209110797003,-0.0015549630289262615
1592176921.203084,0.05651248069994852,9.72119274318065,1.1959637159032424,-0.3377777777777778,-0.4888888888888889,-0.28,0.07117411201009702,-0.0489572771146341,-0.009507294846210105
1592176921.213084,-0.0027522867369258325,9.744045038775104,1.310225193875522,-0.3377777777777778,-0.4888888888888889,-0.28,0.031211040577183158,-0.06331731506708425,-0.013739554891226365
1592176921.223084,0.11431063590320764,9.684425060964172,1.405574939035828,-0.36067696283790823,-0.4951341211780154,-0.28,-0.00802459403435819,-0.08820689746678714,-0.0008274844652814972
1592176921.233084,0.03616964144684884,9.610141367872375,1.458901042489338,-0.3622222222222222,-0.4955555555555556,-0.28,-0.01743787167725913,-0.08563792684731387,0.0015240789269582058
1592176921.243084,0.008898975489560368,9.562202049020879,1.4711010245104397,-0.3622222222222222,-0.4955555555555556,-0.28,-0.008106325551730569,-0.09078906372991286,-0.0007305213540152638
1592176921.253084,0.052831822210102936,9.534300906673938,1.47,-0.3622222222222222,-0.4955555555555556,-0.28,0.021488377387338664,-0.09630201274342187,-0.010435284809935589
1592176921.263084,0.11431287747442226,9.563945548421513,1.47,-0.3622222222222222,-0.4955555555555556,-0.28,0.049878402233938204,-0.08597528489811118,-0.007555676709831654
1592176921.273084,0.26290183528182354,9.620967278427274,1.45361308862909,-0.34219377499111026,-0.4955555555555556,-0.2918349915456571,0.07091796486418783,-0.05122715477157888,0.0008022176612180847
1592176921.283084,0.2985992631429786,9.647198526285958,1.4156029474280856,-0.3377777777777778,-0.4955555555555556,-0.29444444444444445,0.07683779880452186,-0.01564500515859502,0.00874790022519671
1592176921.293084,0.21987896856297418,9.625963690568891,1.2818063497007586,-0.3377777777777778,-0.4955555555555556,-0.29444444444444445,0.07744898555724837,0.013563268651760168,0.0054475526716244015
1592176921.303084,0.15265294412967081,9.675238231848716,1.2657823519567764,-0.3377777777777778,-0.4955555555555556,-0.29444444444444445,0.08605692322457081,0.028242891752258643,0.0026417355965213368
1592176921.313084,0.12700511995605862,9.69,1.2829948800439415,-0.3377777777777778,-0.4955555555555556,-0.29444444444444445,0.09048357565722996,0.02983450115156176,5.537928997588785e-05
1592176921.3230839,0.1278058265011828,9.682194173498816,1.3524466120094625,-0.3412470340005257,-0.5050960101681123,-0.27623084927501795,0.08822385139757558,0.025195013212245907,0.0014636199665985863
1592176921.3330839,0.0884608843537415,9.621845238095238,1.4281547619047619,-0.3422222222222222,-0.5077777777777778,-0.27111111111111114,0.08001651923577745,0.03306070641984582,-0.0023495530374689822
1592176921.3430839,0.04868026475753073,9.594340132378765,1.338210860461975,-0.3422222222222222,-0.5077777777777778,-0.27111111111111114,0.08281038275251039,0.039177151452652166,-0.004980718912595597
1592176921.3530838,0.07083178239083751,9.636247673586256,1.2560443808160344,-0.3422222222222222,-0.5077777777777778,-0.27111111111111114,0.10417332463892175,0.04960960971293724,-0.007135766778040167
1592176921.3630838,0.08,9.697844898649363,1.1648151592652871,-0.3422222222222222,-0.5077777777777778,-0.27111111111111114,0.11986646541811238,0.049377552517992855,-0.007635815477475192
1592176921.3730838,0.22231662269129288,9.78226352242744,1.0232625329815304,-0.35408194077982996,-0.5077777777777778,-0.26518125183230723,0.10883037391533637,0.05284790920773767,0.00012635216715460324
1592176921.3830838,0.277253914548745,9.796208985758124,0.9789550712093792,-0.35555555555555557,-0.5077777777777778,-0.2644444444444444,0.08251878662969452,0.06428743281119663,0.0071864882962359945
1592176921.3930838,0.3328406607369759,9.775369504447267,0.96,-0.35555555555555557,-0.5077777777777778,-0.2644444444444444,0.027329954409187257,0.09239816305191924,0.014490668189906162
1592176921.4030838,0.2398205956225332,9.736606865207511,1.0852242554718337,-0.35555555555555557,-0.5077777777777778,-0.2644444444444444,-0.013328853633798043,0.12167166470728231,0.01618228743884289
1592176921.4130838,0.18422344322344322,9.71373792873793,1.175048285048285,-0.35555555555555557,-0.5077777777777778,-0.2644444444444444,-0.02247322095210714,0.13221290450393075,0.017072028454239573
1592176921.4230838,0.08269435435624548,9.68,1.2963471771781228,-0.35176310477170075,-0.5176381498158003,-0.2705123656986121,-0.03134018422532262,0.14920218508025804,0.02524593703337298
1592176921.4330838,0.01866559263521289,9.64333256616801,1.282666513233602,-0.35,-0.5222222222222223,-0.2733333333333333,-0.04312439451505644,0.14442584496997163,0.0243618037909991
1592176921.4430838,0.014433720045644732,9.637216860022823,1.1789639596804868,-0.35,-0.5222222222222223,-0.2733333333333333,-0.04533124903417506,0.12921220481915893,0.02605639565877066
1592176921.4530838,0.08533903188628505,9.698079139454476,1.1109604302727623,-0.35,-0.5222222222222223,-0.2733333333333333,-0.032053159454785415,0.11168380657702669,0.03202235804774988
1592176921.4630837,0.12173073598063512,9.737596103970953,1.1058653679903176,-0.35,-0.5222222222222223,-0.2733333333333333,-0.025351332376059067,0.09154591919383404,0.03445556665284091
1592176921.4730837,0.17434252566926203,9.75633464652418,1.1416732326209014,-0.3577423457517759,-0.5095529291738616,-0.2719256341057377,-0.040582343034466124,0.07035643676752268,0.037670596009810604
1592176921.4830837,0.24769409955447003,9.732746228826018,1.1395596716195127,-0.3622222222222222,-0.5022222222222222,-0.27111111111111114,-0.07693454327696254,0.06658871010746803,0.039269908169872414
1592176921.4930837,0.28364306531801814,9.685892336704955,1.13,-0.3622222222222222,-0.5022222222222222,-0.27111111111111114,-0.11400387893194103,0.07507264632303227,0.03257288414244561
1592176921.5030837,0.246782274241947,9.660396060942656,1.173217725758053,-0.3622222222222222,-0.5022222222222222,-0.27111111111111114,-0.13173130340127567,0.08115888442898783,0.02316666771322108
1592176921.5130837,0.19699415237878962,9.637976609515158,1.2590760190757353,-0.3622222222222222,-0.5022222222222222,-0.27111111111111114,-0.1378797351545079,0.08268242180714308,0.019313445738885885
1592176921.5230837,0.20214699378751183,9.597853006212487,1.5200579130251657,-0.37436921600973405,-0.5022222222222222,-0.2812336059340377,-0.13436630060132532,0.07499303696386739,0.02286736009536216
1592176921.5330837,0.27527010776014527,9.531982126435427,1.702522341955717,-0.38222222222222224,-0.5022222222222222,-0.2877777777777778,-0.12358820310168399,0.06803935149356458,0.02547236104887448
1592176921.5430837,0.36638580769277596,9.506311899572623,1.696807096153612,-0.38222222222222224,-0.5022222222222222,-0.2877777777777778,-0.09022049435871801,0.08343767032779016,0.025661532172363177
1592176921.5530837,0.45831119336653314,9.501204933701858,1.6508444033167333,-0.38222222222222224,-0.5022222222222222,-0.2877777777777778,-0.0489963110890031,0.10683517975114186,0.023433197941567774
1592176921.5630836,0.4698071157184302,9.504756679331399,1.6352433206686008,-0.38222222222222224,-0.5022222222222222,-0.2877777777777778,-0.034970672887658316,0.11591355841689835,0.023352194909896
1592176921.5730836,0.3934369575508916,9.540396086476251,1.5996039135237494,-0.38222222222222224,-0.5022222222222222,-0.2877777777777778,-0.002758664055592268,0.14257177262274612,0.02668447168562697
1592176921.5830836,0.2778984816254676,9.598655835105992,1.5309238612191007,-0.37382808870632533,-0.5022222222222222,-0.281699267300749,0.03991178043109053,0.17579806646822504,0.027747412925671972
1592176921.5930836,0.1259035510081252,9.659517755040627,1.374939061089377,-0.35,-0.5022222222222222,-0.2644444444444444,0.08150997490731267,0.20234246274913667,0.0238011529642783
1592176921.6030836,0.13220043153271172,9.63,1.3384676735763272,-0.35,-0.5022222222222222,-0.2644444444444444,0.07325281331044003,0.18549906546474257,0.022871006951481424
1592176921.6130836,0.15,9.613906224737267,1.4390105092966854,-0.35,-0.5022222222222222,-0.2644444444444444,0.07223345638991042,0.15546040593509194,0.016123836992302507
1592176921.6230836,0.17114786930237733,9.614098579534918,1.4970492897674592,-0.35,-0.5069217487338616,-0.26992722537469044,0.07834315690148813,0.13527185679241985,0.012705490276303386
1592176921.6330836,0.20449745397571484,9.63633163598381,1.4934923619271445,-0.35,-0.5155555555555555,-0.28,0.08419404847174022,0.12046278334891578,0.011799060387947891
1592176921.6430836,0.18,9.616329492691316,1.361271883061049,-0.35,-0.5155555555555555,-0.28,0.08548519127069269,0.10919341817505651,0.011308698060933679
1592176921.6530836,0.17335553799254827,9.629933386022355,1.2201332279552897,-0.35,-0.5155555555555555,-0.28,0.09342361550807657,0.1192375218745807,0.01562313045288929
1592176921.6630836,0.15175166970248938,9.694744990892532,1.1148411252782837,-0.35,-0.5155555555555555,-0.28,0.1057098038231824,0.12591799047779115,0.020770932589557846
1592176921.6730835,0.14,9.74926284729921,1.0407371527007898,-0.35214031636657894,-0.5125591126423451,-0.2663019752538949,0.11714824171654056,0.12972845223133608,0.02248719629657543
1592176921.6830835,0.1305433563071005,9.7894566436929,1.0052716781535502,-0.35555555555555557,-0.5077777777777778,-0.24444444444444444,0.1226680215048455,0.12766566649392685,0.022074505600912012
1592176921.6930835,0.07467972120809824,9.80733986060405,0.9520195818121474,-0.35555555555555557,-0.5077777777777778,-0.24444444444444444,0.08186326601635346,0.0873872939218732,0.01600241155052592
1592176921.7030835,0.05743885182939155,9.774388518293916,0.9735395189003437,-0.35555555555555557,-0.5077777777777778,-0.24444444444444444,0.05203970648722328,0.06383950993653253,0.00976411519703367
1592176921.7130835,0.08946443163960188,9.7,1.1049330539549502,-0.35555555555555557,-0.5077777777777778,-0.24444444444444444,0.00017526433609602564,0.013905583966020402,-0.0047991983111740355
1592176921.7230835,0.12385134667312885,9.693851346673128,1.1591892266149693,-0.3685360459122835,-0.5077777777777778,-0.2533258325832583,-0.01308996938995747,-0.02062997936666435,-0.011748541325987412
1592176921.7330835,0.13301629450814725,9.6813224703279,1.1726449406558037,-0.37666666666666665,-0.5077777777777778,-0.2588888888888889,-0.01238004065378114,-0.0325287889841684,-0.010198379088788229
1592176921.7430835,0.185602631841292,9.67801315920646,1.065178945269664,-0.37666666666666665,-0.5077777777777778,-0.2588888888888889,-0.001872496784349165,-0.05463397319571523,-0.011302729442760855
1592176921.7530835,0.18419960851713932,9.70580039148286,1.047401174448582,-0.37666666666666665,-0.5077777777777778,-0.2588888888888889,0.008792395036010116,-0.06959543096482915,-0.009751728266429633
1592176921.7630835,0.18939247830279654,9.724088717454196,1.1163548698167791,-0.37666666666666665,-0.5077777777777778,-0.2588888888888889,0.008413177047643832,-0.07673789432391413,-0.008081825363471814
1592176921.7730834,0.20954940659195345,9.716126483520116,1.2277470329597673,-0.3687088278400388,-0.5061862100124522,-0.2716214310114935,-0.004490945535329965,-0.08119316512200289,-0.009817477042468103
1592176921.7830834,0.202233022908028,9.672233022908028,1.303689302789296,-0.36,-0.5044444444444445,-0.28555555555555556,-0.027101310521675536,-0.07385878222527553,-0.011755553594851345
1592176921.7930834,0.19583120266880952,9.654168797331192,1.2616879733119049,-0.36,-0.5044444444444445,-0.28555555555555556,-0.04108610011847336,-0.05745413992259963,-0.012453883852946181
1592176921.8030834,0.19421617969150473,9.684702921850972,1.2315676406169904,-0.36,-0.5044444444444445,-0.28555555555555556,-0.04030764361930034,-0.04765454830166306,-0.005059052451232748
1592176921.8130834,0.18071971981710283,9.719280280182899,1.2678408405486916,-0.36,-0.5044444444444445,-0.28555555555555556,-0.04012521119298832,-0.04632105362953596,0.0005061607646848036
1592176921.8230834,0.1877427206901864,9.721128639654907,1.3266140810352798,-0.36,-0.5034587377394341,-0.27914846197298826,-0.057181245425722706,-0.05174430012087063,0.001090830782496456
1592176921.8330834,0.2154847747209847,9.644182703348184,1.4258172966518166,-0.36,-0.5022222222222222,-0.27111111111111114,-0.09212537651188457,-0.0637969925730207,0.005278903552992425
1592176921.8430834,0.316382687270193,9.557872437576602,1.474645406262767,-0.36,-0.5022222222222222,-0.27111111111111114,-0.10281274771121718,-0.069890530432544,0.00931074182760529
1592176921.8530834,0.46444898346950414,9.519258502755083,1.5129659889796694,-0.36,-0.5022222222222222,-0.27111111111111114,-0.07758886289419256,-0.06797471190105546,0.012160908211439446
1592176921.8630834,0.5072550095555262,9.51,1.5669933205926319,-0.36,-0.5022222222222222,-0.27111111111111114,-0.03619723668569831,-0.057571691140096026,0.010010011802617338
1592176921.8730834,0.4484287463094981,9.543257002952402,1.5525858716785483,-0.3660047366441836,-0.5022222222222222,-0.27480633366137797,0.016765975651876472,-0.03239461862572557,0.0011890189065060022
1592176921.8830833,0.39286550841541923,9.593820677887226,1.4885379663383231,-0.37444444444444447,-0.5022222222222222,-0.28,0.05226846030546803,-0.009290125125358012,-0.003793456478663022
1592176921.8930833,0.3937131885817545,9.656286811418246,1.3063969280289127,-0.37444444444444447,-0.5022222222222222,-0.28,0.10591086952380144,0.023817822135309225,-0.0064326892144755295
1592176921.9030833,0.3689709590824046,9.68,1.2327967135768323,-0.37444444444444447,-0.5022222222222222,-0.28,0.11859548116617025,0.030767763811773055,-0.004363323129985824
1592176921.9130833,0.39491703976823805,9.69309388991309,1.1743646299710297,-0.37444444444444447,-0.5022222222222222,-0.28,0.12354111089645008,0.031296601656911914,-0.0034111085846646482
1592176921.9230833,0.4452729512448133,9.699454097510374,1.2063647562240662,-0.3709291436145689,-0.503393989165514,-0.26418114626556016,0.11475512957141674,0.02945243112740431,-0.002181661564992912
1592176921.9330833,0.4474337306174513,9.686150595926177,1.233849404073823,-0.36777777777777776,-0.5044444444444445,-0.25,0.10684358573871573,0.02987233597320366,-0.0016217884372604463
1592176921.9430833,0.4107779772591263,9.650388988629564,1.2119449431478158,-0.36777777777777776,-0.5044444444444445,-0.25,0.08691199155549412,0.034297521532963074,0.001657462212303113
1592176921.9530833,0.33697378134450984,9.644820565332317,1.1744616959969518,-0.36777777777777776,-0.5044444444444445,-0.25,0.08549320342470307,0.03547157371703035,-0.0004866955335616318
1592176921.9630833,0.2722180472859703,9.66556390542806,1.19,-0.36777777777777776,-0.5044444444444445,-0.25,0.09284364159206757,0.028964429542009777,-0.0017572218865731393
1592176921.9730833,0.2533117773858515,9.693344111307074,1.1833117773858515,-0.37000718531582727,-0.5044444444444445,-0.2477705924619505,0.10036348615699167,0.011974449021848955,-0.0021851886486517775
1592176921.9830832,0.2449105068998497,9.724552534499248,1.1012529034021041,-0.37444444444444447,-0.5044444444444445,-0.24333333333333335,0.1036484487028563,-0.01612816934913089,-0.005970282755191014
1592176921.9930832,0.23595819397993312,9.731277591973244,0.9738327759197325,-0.37444444444444447,-0.5044444444444445,-0.24333333333333335,0.09743234880515586,-0.035068750351866414,-0.009678113377279593
1592176922.0030832,0.21066337667267723,9.71,0.9053316883363386,-0.37444444444444447,-0.5044444444444445,-0.24333333333333335,0.08297281101918687,-0.041960803541366234,-0.012508372413961922
1592176922.0130832,0.2,9.729428257832769,0.9077713031331072,-0.37444444444444447,-0.5044444444444445,-0.24333333333333335,0.06969479175618078,-0.0408469651818209,-0.01308996938995747
1592176922.0230832,0.1897990614847792,9.766800625676813,0.9370015641920346,-0.3721775692188398,-0.5063335071324483,-0.25353427184855415,0.059166183887337846,-0.03854999397880118,-0.012719052798532252
1592176922.0330832,0.17916622751747052,9.775416886241263,0.9562506587237942,-0.36777777777777776,-0.51,-0.2733333333333333,0.03458912066597732,-0.04326942942404157,-0.011999138607461015
1592176922.0430832,0.21200538681672798,9.747994613183272,0.917994613183272,-0.36777777777777776,-0.51,-0.2733333333333333,0.0044910497269118575,-0.05471771735956407,-0.011519055541052443
1592176922.0530832,0.24439247716787496,9.7024300913285,0.9690645890217494,-0.36777777777777776,-0.51,-0.2733333333333333,-0.023498616942175088,-0.06805963469092531,-0.01090830782496456
1592176922.0630832,0.23539887187751812,9.67634971796938,1.0955519742143434,-0.36777777777777776,-0.51,-0.2733333333333333,-0.046142757394964914,-0.0733801252090001,-0.011306491825344007
1592176922.0730832,0.19124752617753948,9.658748515706524,1.1700039581159367,-0.37486204566626286,-0.5054160619545096,-0.26791595200684476,-0.06245038612052495,-0.06626721445058639,-0.01077179206585108
1592176922.0830832,0.16,9.64,1.22,-0.38666666666666666,-0.49777777777777776,-0.2588888888888889,-0.06654067773228381,-0.056723200689815706,-0.008726646259971648
1592176922.0930831,0.14141869862059356,9.651453253448516,1.2199308903441548,-0.38666666666666666,-0.49777777777777776,-0.2588888888888889,-0.05749698075303007,-0.037084477257881325,-0.0012455867951393278
1592176922.1030831,0.12526243734405018,9.684737562655949,1.13526243734405,-0.38666666666666666,-0.49777777777777776,-0.2588888888888889,-0.04610116759821769,-0.032724923474893676,-0.002583939589557871
1592176922.1130831,0.1307468797594794,9.70074687975948,1.13,-0.38666666666666666,-0.49777777777777776,-0.2588888888888889,-0.04153304167811169,-0.031552620749150856,-0.0038910836114918477
1592176922.123083,0.15300976104455855,9.716990238955443,1.142039044178234,-0.3890075919235455,-0.501456374610016,-0.2588888888888889,-0.04822962729336663,-0.027154233130650116,-0.0017474587815690832
1592176922.133083,0.1508903089855471,9.705445154492773,1.1563354634783205,-0.39444444444444443,-0.51,-0.2588888888888889,-0.05890486225480862,-0.02181661564992912,-0.0032724923474893677
1592176922.143083,0.1358397252432742,9.67919862621637,1.1316794504865484,-0.39444444444444443,-0.51,-0.2588888888888889,-0.06344301802308809,-0.015463197574337853,-0.0019110456170055253
1592176922.153083,0.12598367865519938,9.6540163213448,1.1440979280688037,-0.39444444444444443,-0.51,-0.2588888888888889,-0.06806071929765074,0.006160283475408908,0.0008762253910612169
1592176922.163083,0.10993676724966366,9.653291178166443,1.2336705746684604,-0.39444444444444443,-0.51,-0.2588888888888889,-0.06252257120165579,0.02691865534000071,0.0029134805020258024
1592176922.173083,0.09,9.64238297046359,1.3447659409271782,-0.3925910229727641,-0.51,-0.2567706929212542,-0.054903608414991784,0.03210291243117842,0.004883206637078373
1592176922.183083,0.06910078153398763,9.645820156306797,1.368359687386405,-0.38666666666666666,-0.51,-0.25,-0.04680763412905605,0.03754419682153639,0.00563308426166495
1592176922.193083,0.036162705968079356,9.63616270596808,1.349301647744635,-0.38666666666666666,-0.51,-0.25,-0.03902880900319836,0.03524899047131967,0.005200490820287619
1592176922.203083,0.04135515705861115,9.63,1.3,-0.38666666666666666,-0.51,-0.25,-0.02791812623451274,0.026001525128041953,0.0069578698569659
