time,acc_x,acc_y,acc_z,mag_x,mag_y,mag_z,gyr_x,gyr_y,gyr_z
1592234232.697705,-9.603334272631209,-0.4766657273687918,1.4366699542092285,0.28,-0.04555555555555556,-0.20444444444444446,-0.007275791369268366,0.07344522545870326,-0.161084314931567
1592234232.707705,-9.59,-0.483595481721294,1.4124158139754708,0.28,-0.04555555555555556,-0.20444444444444446,0.058304347239352954,0.11587926567580631,-0.0507173545400059
1592234232.717705,-9.592533892275446,-0.47506778455089127,1.4726694613772282,0.28,-0.04555555555555556,-0.20444444444444446,0.05517393276424174,0.11301647103488116,0.022206753944328514
1592234232.727705,-9.609064852812873,-0.49201441173619415,1.5079855882638058,0.28,-0.047010408476140214,-0.2057873856019072,-0.035047719445583936,0.18677520694637956,-0.011559662141368476
1592234232.737705,-9.646080576435104,-0.5201352515918993,1.4663510796189017,0.28,-0.06,-0.21777777777777776,0.030130159430389734,0.08623464645715016,-0.04706832725922594
1592234232.747705,-9.599090390712314,-0.5302274023219214,1.3874246744064047,0.28,-0.06,-0.21777777777777776,-0.015618911388818631,0.043022392932477574,-0.06216991536675374
1592234232.757705,-9.703635409210213,-0.4922734430923407,1.3052278692436172,0.28,-0.06,-0.21777777777777776,0.02107263313771536,-0.039221340041976,0.022066327664419003
1592234232.767705,-9.752754595856434,-0.45,1.272415134714522,0.28,-0.06,-0.21777777777777776,0.01804576398083817,-0.01694761218637865,-0.0781980630131792
1592234232.777705,-9.727152271046965,-0.4537969719373815,1.2885431868591084,0.28,-0.06,-0.2191489065329433,-0.03180019463770841,-0.12231972368715145,-0.05109070721772763
1592234232.787705,-9.661741744519471,-0.4836236240865785,1.3859409397835538,0.28,-0.06,-0.23222222222222222,0.017293870390968694,0.004568604346061029,0.026164652417548073
1592234232.797705,-9.582933809534998,-0.48466904767499236,1.4111985713950046,0.28,-0.06,-0.23222222222222222,0.04546364530162524,0.01839971810897691,0.021338520145196715
1592234232.807705,-9.587202451095923,-0.5032147065755362,1.401190195616309,0.28,-0.06,-0.23222222222222222,0.019803604802192315,0.0597548001682975,0.02589482651552923
1592234232.817705,-9.584536776867738,-0.4668051653016082,1.4254632231322613,0.28,-0.06,-0.23222222222222222,0.033129161916361644,0.12554659959745942,-0.013030559642671392
1592234232.827705,-9.609194831013916,-0.4863220675944334,1.401724652087475,0.2805108239452176,-0.0593870112657389,-0.2302810912303954,0.019434353990739544,0.10843194118713156,0.06182603335624545
1592234232.837705,-9.717793035801863,-0.4525418622574091,1.2996651019407273,0.28555555555555556,-0.05333333333333334,-0.2111111111111111,0.0041441328627539985,-0.025607124605262738,0.1111518583555376
1592234232.847705,-9.760385705365291,-0.45759642634132286,1.2039463951198424,0.28555555555555556,-0.05333333333333334,-0.2111111111111111,-0.037004098747792744,-0.04065216509254109,0.13464474510326926
1592234232.8577049,-9.73760844973441,-0.45760844973440884,1.1204337989376354,0.28555555555555556,-0.05333333333333334,-0.2111111111111111,-0.007668596197921054,-0.082050143276001,0.10340809709435614
1592234232.8677049,-9.739986187845304,-0.5000138121546961,1.2544751381215469,0.28555555555555556,-0.05333333333333334,-0.2111111111111111,0.08022427602873797,-0.027276796251817455,0.04811106152855916
1592234232.8777049,-9.668531110801782,-0.5695103702672606,1.4104896297327394,0.28555555555555556,-0.05333333333333334,-0.21143753093293738,0.01937606398413492,-0.05663900446641728,0.014287620809353462
1592234232.8877048,-9.64,-0.56,1.42,0.28555555555555556,-0.05333333333333334,-0.21777777777777776,0.056723200689815706,-0.03381575425739013,0.016362461737446838
1592234232.8977048,-9.651808846967837,-0.5032764612128655,1.4185323857549708,0.28555555555555556,-0.05333333333333334,-0.21777777777777776,0.05711782988048396,0.0062434122938187795,-0.0034437852433377124
1592234232.9077048,-9.602903885967208,-0.5152692573114723,1.362365371344264,0.28555555555555556,-0.05333333333333334,-0.21777777777777776,0.033031279158567455,-0.026964413878737624,-0.038837890067569186
1592234232.9177048,-9.585677434214315,-0.5018924780714382,1.3870323026429436,0.28555555555555556,-0.05333333333333334,-0.21777777777777776,0.002069105063453574,-0.051320593300173814,0.034819801799767444
1592234232.9277048,-9.609828410203258,-0.5099428034010863,1.4594852306097772,0.28555555555555556,-0.05333333333333334,-0.21777777777777776,0.07583406356445938,0.05054530177264374,0.05765181276436447
1592234232.9377048,-9.618145076981563,-0.48913989735791674,1.4455647690553126,0.2911111111111111,-0.05333333333333334,-0.22555555555555556,0.022716405905487222,0.10777521132923275,-0.013846200633344696
1592234232.9477048,-9.650164879718893,-0.4574587800702766,1.3596702405622128,0.2911111111111111,-0.05333333333333334,-0.22555555555555556,0.0972680707775127,0.09616981971174042,-0.00980062169701372
1592234232.9577048,-9.682124245121862,-0.45,1.2978757548781368,0.2911111111111111,-0.05333333333333334,-0.22555555555555556,-0.011428593401852892,0.0011826891117493396,0.2045297350312268
1592234232.9677048,-9.711475757383027,-0.40509614365367086,1.3075710742224766,0.2911111111111111,-0.05333333333333334,-0.22555555555555556,0.01857513528232755,-0.08360998597627106,0.058177942371278955
1592234232.9777048,-9.81383379116542,-0.18981718291181207,1.3900609390293959,0.28971375846813946,-0.054870421240602166,-0.2229005855339094,0.04962947689513271,-0.016867079898993862,0.013875604518268676
1592234232.9877048,-9.91,0.02,1.46,0.28,-0.06555555555555556,-0.20444444444444446,0.04581489286485115,-0.1265363707695889,0.13308135546456762
1592234232.9977047,-9.928109773389364,1.1134832040011344,1.433818608368352,0.28,-0.06555555555555556,-0.20444444444444446,0.12405290209542194,-0.13154155426668135,0.05635072257194297
1592234233.0077047,-9.25,2.2,1.01,0.28,-0.06555555555555556,-0.20444444444444446,0.10471975511965977,-0.148352986419518,0.02945243112740431
1592234233.0177047,-9.942378557085776,0.590690627345192,0.9937340526945622,0.28,-0.06555555555555556,-0.20444444444444446,-0.04957833982085513,-0.16928524214799884,-0.07970317299906468
1592234233.0277047,-9.831785084071964,0.3439821106220717,0.8916477699125814,0.28,-0.06555555555555556,-0.20444444444444446,-0.21012069593048438,-0.10896585979466993,-0.10754288793137033
1592234233.0377047,-9.68,-0.01,1.07,0.2911111111111111,-0.04555555555555556,-0.23444444444444446,-0.13853550937704992,-0.1810779098944117,0.15926129424448257
1592234233.0477047,-10.155113719735876,-0.5733308877476155,1.412883345561262,0.2911111111111111,-0.04555555555555556,-0.23444444444444446,-0.25634763483483114,-0.2516897953967318,0.03621350115714023
1592234233.0577047,-10.02,-0.7,1.7,0.2911111111111111,-0.04555555555555556,-0.23444444444444446,-0.13199052468207118,-0.31525009614147576,0.14398966328953217
1592234233.0677047,-9.312034948542024,-0.3623194682675815,1.6204376072041167,0.2911111111111111,-0.04555555555555556,-0.23444444444444446,-0.1691742423687292,-0.12408735743198196,0.18708346660552466
1592234233.0777047,-9.477409453246453,-0.37764495749677507,1.698586974498065,0.29098027541648747,-0.04589572836157694,-0.23373793169347698,-0.18465672822157211,-0.16336772208880787,0.13171981045056683
1592234233.0877047,-9.37,-0.28,1.64,0.28555555555555556,-0.06,-0.20444444444444446,-0.10690141668465267,-0.15271630954950383,0.07526732399225547
1592234233.0977046,-9.830179242699595,-0.5759426423361299,1.5340215091239513,0.28555555555555556,-0.06,-0.20444444444444446,-0.1376425103118102,-0.07218484242385265,-0.02471690737741559
1592234233.1077046,-9.584923613854867,-0.6013630975898855,1.5121464945783396,0.28555555555555556,-0.06,-0.20444444444444446,-0.13998140249050117,-0.10081916950454568,0.03753987420528883
1592234233.1177046,-9.425966855107257,-0.46477348408580504,1.5522210175791837,0.28555555555555556,-0.06,-0.20444444444444446,-0.05894101772409604,-0.08559224473568045,0.00873990889707007
1592234233.1277046,-9.466568380701618,-0.49725470456129484,1.7714692557887401,0.28555555555555556,-0.06,-0.20444444444444446,-0.014651623789447968,-0.0519323053453479,0.04594299980217446
1592234233.1377046,-9.57,-0.43,1.82,0.2911111111111111,-0.03888888888888889,-0.22555555555555556,-0.06326818538479445,-0.03381575425739013,0.09926560120717749
1592234233.1477046,-9.456200704816244,-0.27849862952396937,1.8711987469933433,0.2911111111111111,-0.03888888888888889,-0.22555555555555556,-0.0720165542916626,-0.10821032819750895,0.03997931123958791
1592234233.1577046,-9.62,0.04,1.58,0.2911111111111111,-0.03888888888888889,-0.22555555555555556,-0.05017821599483697,-0.08835729338221293,0.12435470920459597
1592234233.1677046,-9.726379257575095,-0.1517025928031131,1.5365948143937738,0.2911111111111111,-0.03888888888888889,-0.22555555555555556,0.07496403192169034,0.017798842299978572,-0.015623142601445896
1592234233.1777046,-9.580193989721948,-0.16941803083415582,1.4999030051390259,0.29105363267497836,-0.038870926877597405,-0.22553040873974747,0.013202828035391538,-0.08385289694543452,-0.14751712707677192
1592234233.1877046,-9.64,0.01,1.47,0.2733333333333333,-0.03333333333333333,-0.21777777777777776,0.04799655442984406,-0.04036073895236887,0.11017390903214205
1592234233.1977046,-9.523588816247043,-0.23863240135392033,1.454616775629434,0.2733333333333333,-0.03333333333333333,-0.21777777777777776,0.05314283580682971,-0.0495339445381003,-0.053543823725577415
1592234233.2077045,-9.515571517801375,-0.2471538621694774,1.5867197584842807,0.2733333333333333,-0.03333333333333333,-0.21777777777777776,0.029206693274674525,0.030949001904264684,-0.02726236632715169
1592234233.2177045,-10.112300931233532,-0.3815828958748165,1.4646768840885778,0.2733333333333333,-0.03333333333333333,-0.21777777777777776,0.029020938760314106,-0.12480151563444253,0.052822700129808414
1592234233.2277045,-9.666639344262295,-0.4405170239596469,1.692843631778058,0.2734051422166176,-0.033405142216617625,-0.2180793750875718,0.0767247454475581,0.05951630523440468,-0.018040319047598227
1592234233.2377045,-9.436422470722903,-0.43871488949546533,1.8687148894954653,0.2788888888888889,-0.03888888888888889,-0.2411111111111111,0.08814684958152175,0.029392496425610017,-0.115367337386899
1592234233.2477045,-9.58412414148754,-0.24129931319003306,1.6703577037575301,0.2788888888888889,-0.03888888888888889,-0.2411111111111111,0.01617539350171059,0.05437111679141901,0.037895611222617614
1592234233.2577045,-9.72,-0.3389999285493129,1.7519284540452997,0.2788888888888889,-0.03888888888888889,-0.2411111111111111,0.13049453263411084,-0.015583263489688397,0.004581426933997964
1592234233.2677045,-9.718062538441698,-0.21387492311660483,1.5393541794805659,0.2788888888888889,-0.03888888888888889,-0.2411111111111111,0.14374866805604283,0.044724062082354694,-0.10947165736253903
1592234233.2777045,-9.693096962361858,-0.2638060752762842,1.531032320787286,0.2788888888888889,-0.03888888888888889,-0.2411111111111111,0.2109239413196371,0.044724062082354694,-0.12853491058599142
1592234233.2877045,-9.64,-0.12,1.42,0.28888888888888886,-0.05333333333333334,-0.23444444444444446,0.08944812416470939,-0.08617563181722002,0.07526732399225547
1592234233.2977045,-9.899746192893401,-0.4720761421319797,1.37993654822335,0.28888888888888886,-0.05333333333333334,-0.23444444444444446,0.06152659375096349,-0.04096498722211469,-0.15271534053738742
1592234233.3077044,-9.561411919533747,-0.5738823087046437,1.3267061477721376,0.28888888888888886,-0.05333333333333334,-0.23444444444444446,0.21776829755624866,-0.1035004405083921,-0.0010651955413210359
1592234233.3177044,-9.674091073002645,-0.5281821460052889,1.5264546438015867,0.28888888888888886,-0.05333333333333334,-0.23444444444444446,0.19331516237730503,0.0011704643142581555,-0.03437082882016379
1592234233.3277044,-9.632077490183509,-0.4441549803670166,1.501246494110105,0.28888888888888886,-0.05333333333333334,-0.23444444444444446,0.16398414834717517,-0.07582344751483279,-0.10036561038795604
1592234233.3377044,-9.44,-0.36,1.64,0.28,-0.03888888888888889,-0.23444444444444446,0.07199483164476608,-0.0643590161672909,0.03381575425739013
1592234233.3477044,-9.371442297282666,0.0021440944029446785,1.4759773194760204,0.28,-0.03888888888888889,-0.23444444444444446,0.18476228327055236,-0.051997625375645846,-0.08720227871638998
1592234233.3577044,-9.930887037257468,-0.37767432448518035,1.719547672896084,0.28,-0.03888888888888889,-0.23444444444444446,0.08582517921848679,0.01643948599886535,-0.0037779543246471113
1592234233.3677044,-9.30785371919058,0.07660971060706336,1.1023598660329303,0.28,-0.03888888888888889,-0.23444444444444446,0.09352140789645727,-0.07499592342093703,0.09729010431928477
1592234233.3777044,-9.442440085835187,-0.024330064376391305,1.3462976555762791,0.28,-0.03888888888888889,-0.23444444444444446,0.009105110703290134,-0.023612090346835278,0.03306031297665758
1592234233.3877044,-9.497927947456267,-0.2655415862831379,1.7177079314156893,0.3055555555555556,-0.03333333333333333,-0.22,0.10896835102712216,-0.08618248896778304,-0.00907425650282341
1592234233.3977044,-9.865131300296484,-0.22067556120288015,1.5377318932655655,0.3055555555555556,-0.03333333333333333,-0.22,0.12228416360876461,-0.10186954965705045,0.027263146221491796
1592234233.4077044,-9.427720201193122,0.04658977658205639,1.4895197099075914,0.3055555555555556,-0.03333333333333333,-0.22,0.019464509382718546,-0.03616717149825546,-0.133839309963829
1592234233.4177043,-10.343669387262786,-0.5931364586683822,1.7557003859761982,0.3055555555555556,-0.03333333333333333,-0.22,0.16423779304068273,-0.05326137429246958,-0.06769396199798529
1592234233.4277043,-9.407742843357994,-0.1378208427146992,1.5196108073335477,0.3055555555555556,-0.03333333333333333,-0.22,0.1807935360284698,-0.05142184729382658,0.005887117947734971
1592234233.4377043,-9.02,0.03,1.79,0.30333333333333334,-0.03888888888888889,-0.23222222222222222,0.13199052468207118,-0.04036073895236887,0.025089107997418484
1592234233.4477043,-9.02,0.3165494395599817,1.4556923205133547,0.30333333333333334,-0.03888888888888889,-0.23222222222222222,-0.08160372406033825,0.0950892724452566,-0.04159397453679714
1592234233.4577043,-9.582184927770003,-0.24844533529425716,1.941050359370923,0.30333333333333334,-0.03888888888888889,-0.23222222222222222,0.09926102125489195,-0.004665832859761806,0.1032897491136663
1592234233.4677043,-10.054773475868327,0.10878562553006846,1.4227370268830988,0.30333333333333334,-0.03888888888888889,-0.23222222222222222,0.12324808642994252,-0.08863548201789426,0.002681992324681186
1592234233.4777043,-9.889321117926668,-0.23039170825033034,1.7784595964576635,0.30333333333333334,-0.03888888888888889,-0.23222222222222222,0.05195827902358645,0.026872054032910528,-0.16967690912612904
1592234233.4877043,-9.82,-0.31,1.89,0.28888888888888886,-0.02666666666666667,-0.2111111111111111,0.04363323129985824,0.1854412330243975,-0.13744467859455345
1592234233.4977043,-9.712452629505615,0.07130431357100653,1.4402564506598385,0.28888888888888886,-0.02666666666666667,-0.2111111111111111,-0.08434784031304485,-0.011862919045494746,0.004401009109747472
1592234233.5077043,-9.465631952153327,-0.2940959652024195,1.9428159760766635,0.28888888888888886,-0.02666666666666667,-0.2111111111111111,-0.12351871286239546,0.17617699285304125,-0.14676125966433354
1592234233.5177042,-9.674677057610838,-0.44612876917151856,2.047338528805419,0.28888888888888886,-0.02666666666666667,-0.2111111111111111,-0.05199932340118772,0.31817925888471454,-0.08768002489203151
1592234233.5277042,-9.712530192395695,-0.1816259127355206,1.5864447583613537,0.28888888888888886,-0.02666666666666667,-0.2111111111111111,0.01014617388894766,0.23219561939142144,0.04511862851807594
1592234233.5377042,-9.48760477484931,-0.4207242642713627,1.8407242642713628,0.2788888888888889,-0.03333333333333333,-0.23222222222222222,-0.0025766864459253244,0.04150631110707287,0.05670796180570141
1592234233.5477042,-9.900092999700744,-0.4591630026933082,1.877768007182155,0.2788888888888889,-0.03333333333333333,-0.23222222222222222,-0.024180881700323245,0.10354776678809612,-0.0022783123714160804
1592234233.5577042,-9.9097481641767,-0.3722665224097051,1.6460440597592136,0.2788888888888889,-0.03333333333333333,-0.23222222222222222,-0.04313875281711336,0.09512204629174494,0.10093676370888566
1592234233.5677042,-9.464356931103996,-0.20530582236452036,1.5624968575833038,0.2788888888888889,-0.03333333333333333,-0.23222222222222222,0.02188744915360457,0.03783587897256277,-0.059115991627889455
1592234233.5777042,-9.51470169012402,-0.3617542253100552,1.6166139788585192,0.2788888888888889,-0.03333333333333333,-0.23222222222222222,-0.011291020418493065,-0.02046546039108111,-0.07847473522065694
1592234233.5877042,-9.579698767405404,-0.39006024651891924,1.5007832047459502,0.29655956174414355,-0.018975911638438918,-0.22559571990150173,-0.05649975691473943,-0.012130576122211762,-0.0644641661790915
1592234233.5977042,-9.59,-0.5,1.74,0.2966666666666667,-0.01888888888888889,-0.22555555555555556,0.11562806294462433,0.2716168648416175,-0.09708393964218458
1592234233.6077042,-10.275372170928998,-0.37959678078274367,1.4806699893782171,0.2966666666666667,-0.01888888888888889,-0.22555555555555556,-0.04804120727909897,0.10188576979479336,0.050420464386603095
1592234233.6177042,-9.959824955935089,-0.18989789096213458,1.370291740108187,0.2966666666666667,-0.01888888888888889,-0.22555555555555556,0.09572578802366881,-0.0205173382631557,-0.035901944095233285
1592234233.6277041,-9.857854494621042,-0.13041512186227436,1.5402425089649305,0.2966666666666667,-0.01888888888888889,-0.22555555555555556,-0.059999737325746816,0.10091149400335292,0.01971431495812944
1592234233.6377041,-10.11,-0.33,1.48,0.2966666666666667,-0.01888888888888889,-0.2111111111111111,0.04363323129985824,0.15271630954950383,-0.07526732399225547
1592234233.6477041,-10.020867334473492,-0.4711267204169721,1.6285544425441811,0.2966666666666667,-0.01888888888888889,-0.2111111111111111,0.13356973743596384,0.13651153366912444,-0.010448220470737901
1592234233.657704,-9.153353894332282,-0.21160185997959716,1.361101278735973,0.2966666666666667,-0.01888888888888889,-0.2111111111111111,0.051868433073112896,-0.09723137298819967,0.06613660115431651
1592234233.667704,-9.819982647545725,-0.5299898278716317,1.579997606558031,0.2966666666666667,-0.01888888888888889,-0.2111111111111111,-0.04580653817628824,-0.12651189414293976,-0.014189742300056417
1592234233.677704,-9.577377984322954,-0.38777330115483577,1.546534894389373,0.2966666666666667,-0.01888888888888889,-0.2111111111111111,0.07100036262176215,0.2156958230388486,-0.13920962831046976
1592234233.687704,-9.490156348373556,-0.3157292759706191,1.4691668415529906,0.29715856360032644,-0.019872682756208467,-0.22045715285064707,0.0629046514325165,0.17338554977826354,-0.08394303429228893
1592234233.697704,-9.440643363064009,-0.2607148478488982,1.381143756558237,0.2977698350239011,-0.021095225603357817,-0.23207130989856592,0.024497335159484934,0.0377597141891208,0.015075827974120576
1592234233.707704,-9.78596204174089,-0.615066305997229,1.5347724923577666,0.29777777777777775,-0.021111111111111112,-0.23222222222222222,0.041874458279956644,0.04394238518462065,-0.07500468592828564
1592234233.717704,-9.584642514954554,-0.5225146956003832,1.3538687624621282,0.29777777777777775,-0.021111111111111112,-0.23222222222222222,0.1495364970009986,0.14420894804403203,-0.06045991120752925
1592234233.727704,-10.173168931251267,-0.770634759683634,1.6591162036098155,0.29777777777777775,-0.021111111111111112,-0.23222222222222222,0.1370441395122602,0.07964396450474104,0.1505223924531075
1592234233.737704,-9.05,-0.33,1.7,0.3055555555555556,-0.02666666666666667,-0.20222222222222222,-0.0545415391248228,-0.09926560120717749,-0.020725784867432664
1592234233.747704,-9.668430863997406,-0.3574858161776625,1.6587712757335062,0.3055555555555556,-0.02666666666666667,-0.20222222222222222,0.04889765244696221,-0.07378058299383916,-0.06270110898351934
1592234233.757704,-9.766083439400367,-0.38935963795785605,1.649679818978928,0.3055555555555556,-0.02666666666666667,-0.20222222222222222,-0.026491807470325757,0.1669539112909176,-0.024793468326710498
1592234233.767704,-9.480443310156344,-0.28964631646637995,1.7790261645432257,0.3055555555555556,-0.02666666666666667,-0.20222222222222222,0.06172337153277703,0.06584595868644808,-0.06356731879699545
1592234233.777704,-9.824439030961628,-0.21865937717506007,1.6811320415815352,0.3055555555555556,-0.02666666666666667,-0.20222222222222222,0.07082491752863662,-0.08307323353974654,-0.06766508648022185
1592234233.787704,-9.37,-0.23,1.56,0.3244444444444444,-0.0011111111111111111,-0.23222222222222222,0.0545415391248228,-0.16144295580947549,0.11235557059713495
1592234233.797704,-9.164971122112211,-0.17479991749174917,1.6625144389438944,0.3244444444444444,-0.0011111111111111111,-0.23222222222222222,-0.009113207168455338,-0.1227339884689685,0.022894846076852174
1592234233.807704,-9.795475837133376,-0.28914762148889667,1.411835892177761,0.3244444444444444,-0.0011111111111111111,-0.23222222222222222,-0.024012581841356646,-0.03433072080903628,-0.053107397307895564
1592234233.817704,-9.763672432947152,-0.2827344865894303,1.3664069195365816,0.3244444444444444,-0.0011111111111111111,-0.23222222222222222,-0.009732474992919498,0.004226385001283285,-0.06454633229277275
1592234233.827704,-9.829212926819245,-0.4096211529769487,1.537230554300037,0.3244444444444444,-0.0011111111111111111,-0.23222222222222222,0.00034983499434543437,0.031112544967323102,0.07660003620293707
1592234233.837704,-9.480824511147091,-0.3718196537551376,1.6805442769958898,0.3136668465700724,0.008686705138318042,-0.211646808098421,-0.009361118766418085,-0.0255640792784756,-0.035250857701842775
1592234233.847704,-9.795671131866781,-0.2662381713162099,1.633742902789726,0.31222222222222223,0.01,-0.2088888888888889,0.04432196820881163,0.18608256698820025,-0.045540636798139675
1592234233.857704,-10.190762428687856,-0.44188345558272213,1.734932762836186,0.31222222222222223,0.01,-0.2088888888888889,0.037313258235726975,0.09311680945288298,-0.0989036356382342
1592234233.867704,-8.880187074829932,0.031179846938775402,1.4492920918367347,0.31222222222222223,0.01,-0.2088888888888889,0.014687605162918636,-0.03927257495431092,-0.15223524482622813
1592234233.877704,-10.116400394866732,-0.23473267522211255,1.727056268509378,0.31222222222222223,0.01,-0.2088888888888889,0.01811416583468537,0.05525293739545307,-0.07534819407297162
1592234233.887704,-9.084064646094681,0.1857476421573116,1.4516088270304917,0.3306417808706976,-0.011489485089887985,-0.22219190346834336,0.027672002714438523,-0.14991267167441066,-0.03318568736095322
1592234233.897704,-9.620089853078076,-0.2937669486380379,1.850493382442223,0.3322222222222222,-0.013333333333333334,-0.22333333333333333,-0.053034941414784806,-0.04259617604223653,0.03880522229195217
1592234233.9077039,-10.076873816227284,-0.25838213463015103,1.4830714102892244,0.3322222222222222,-0.013333333333333334,-0.22333333333333333,-0.10070342059896153,0.017397452705123922,0.02554180137615915
1592234233.9177039,-9.597294983145929,-0.5651366779027139,1.6527338040991069,0.3322222222222222,-0.013333333333333334,-0.22333333333333333,-0.0456704972835744,0.1211088951485172,0.06946943881408335
1592234233.9277039,-9.644562598218963,-0.5730874803562075,1.6418124672603458,0.3322222222222222,-0.013333333333333334,-0.22333333333333333,-0.03776183032746035,-0.0047275428998984625,0.012819918772981137
1592234233.9377038,-9.343202720827746,-0.5411898831193716,1.5635696493581146,0.3322222222222222,-0.013333333333333334,-0.22333333333333333,-0.04516591229775947,-0.07516240024195595,0.07288124922448777
1592234233.9477038,-9.563245350695933,-0.6258513002456236,1.5313828999181256,0.3322222222222222,-0.013333333333333334,-0.22333333333333333,-0.06298392038615097,0.01275947517923659,0.07650900575473223
1592234233.9577038,-9.35691848497324,-0.570858377933306,1.52,0.3322222222222222,-0.013333333333333334,-0.22333333333333333,-0.1583001371501071,-0.15243304832428373,0.06748824996409424
1592234233.9677038,-9.536748823482492,-0.565703916407434,1.6397822445561139,0.3322222222222222,-0.013333333333333334,-0.22333333333333333,-0.1454351424144914,-0.040452620367884246,0.05658546557545885
1592234233.9777038,-9.71917546701663,-0.4805144872557262,1.6405144872557262,0.3322222222222222,-0.013333333333333334,-0.22333333333333333,-0.07533422732587136,0.025920892472122967,-0.019242101109912424
1592234233.9877038,-9.653178619884518,-0.48377496608083803,1.697549932161676,0.34673292735514677,-0.009919049772645204,-0.21821190799230114,-0.05587078800691074,0.0808733674779292,0.01760518209313476
1592234233.9977038,-9.787151941857825,-0.610006359300477,1.6435664319781969,0.3511111111111111,-0.008888888888888889,-0.21666666666666667,-0.10690419145293883,0.016201574726283266,-0.01620989903114175
1592234234.0077038,-9.790587251169894,-0.7109429478941881,1.6278825497660208,0.3511111111111111,-0.008888888888888889,-0.21666666666666667,-0.20511681257503495,-0.05578757188175587,-0.11160040243522049
1592234234.0177038,-9.725371871695453,-0.7221959816707789,1.6690200916461049,0.3511111111111111,-0.008888888888888889,-0.21666666666666667,-0.113059977362568,-0.07893777540209373,-0.08285546128255068
1592234234.0277038,-9.637519000646831,-0.6343406371280724,1.6602324547218628,0.3511111111111111,-0.008888888888888889,-0.21666666666666667,-0.06922118623338604,-0.08612491806399108,0.06856239252948426
1592234234.0377038,-9.370219981668194,-0.5407614246431846,1.6992385753568156,0.36296484221552966,-0.0025061106018942868,-0.21666666666666667,-0.0740103761218916,0.03875863034010338,0.015195964121504327
1592234234.0477037,-9.6527624899813,-0.5548330216403954,1.769599251936949,0.3655555555555556,-0.0011111111111111111,-0.21666666666666667,-0.02651508582770306,0.01886469873945447,-0.02283458837855859
1592234234.0577037,-9.760463499420625,-0.5059559675550406,1.681911935110081,0.3655555555555556,-0.0011111111111111111,-0.21666666666666667,0.038536788988125084,-0.06822179585594579,0.0485691457907605
1592234234.0677037,-9.54354824895318,-0.3662902074609821,1.675483917015607,0.3655555555555556,-0.0011111111111111111,-0.21666666666666667,-0.02086660252602198,-0.08346615058020548,0.0873720369150761
1592234234.0777037,-9.432058005948331,-0.3052938203448477,1.683823455086212,0.3655555555555556,-0.0011111111111111111,-0.21666666666666667,-0.06435929182773396,-0.055696195902212906,0.05011356301861413
1592234234.0877037,-9.6302642756017,-0.40262387918829634,1.5748843794242569,0.36055004981385347,-0.0011111111111111111,-0.22334067432226942,-0.08181591218675165,-0.05619760454591345,-0.024052329707683773
1592234234.0977037,-9.926214017521904,-0.4480079265748853,1.54,0.35888888888888887,-0.0011111111111111111,-0.22555555555555556,-0.016514914099623024,-0.04470676897858546,0.07145100903939135
1592234234.1077037,-9.518325995188597,-0.42729472107484906,1.4643157369161635,0.35888888888888887,-0.0011111111111111111,-0.22555555555555556,-0.09989605594611478,-0.05687248373685065,0.07119563507355846
1592234234.1177037,-9.776901975383327,-0.5798543474720212,1.5053949603294632,0.35888888888888887,-0.0011111111111111111,-0.22555555555555556,-0.1605244589810764,-0.006694704576454491,-0.045617508305055086
1592234234.1277037,-9.688310986591954,-0.6279155493295978,1.6327178306984191,0.35888888888888887,-0.0011111111111111111,-0.22555555555555556,-0.12182759242381347,-0.0016377087645477115,-0.0782663773487192
1592234234.1377037,-9.626570930661215,-0.6051429337444284,1.596000536210999,0.35888888888888887,-0.0011111111111111111,-0.21482545214875387,-0.06837961539279253,-0.0006545569610442378,0.07844553527844725
1592234234.1477036,-9.679192070319806,-0.6191920703198055,1.5868688984477277,0.35888888888888887,-0.0011111111111111111,-0.2111111111111111,-0.05187499134254214,-0.009288688303318896,0.08777297366513301
1592234234.1577036,-9.737662982975372,-0.6154212712807842,1.5677582883054115,0.35888888888888887,-0.0011111111111111111,-0.2111111111111111,-0.04614093661444307,-0.04303146614174967,0.05928122834547583
1592234234.1677036,-9.634036210246931,-0.6652296317361012,1.5689909474382673,0.35888888888888887,-0.0011111111111111111,-0.2111111111111111,-0.09128969923805522,-0.07596797040982937,0.02210660426830073
1592234234.1777036,-9.601806909975668,-0.5896412652068126,1.5563861800486618,0.35888888888888887,-0.0011111111111111111,-0.2111111111111111,-0.03348917385319396,-0.11000241238532504,0.037152985155844594
1592234234.1877036,-9.64259147197355,-0.6047378271312268,1.6312561215259365,0.3538191043596702,-0.0011111111111111111,-0.21473238577483875,0.07860235562600543,-0.09169562551148373,-0.08500701822275855
1592234234.1977036,-9.816245125862348,-0.6855102558778062,1.6373876929466327,0.3511111111111111,-0.0011111111111111111,-0.21666666666666667,0.0446393698605993,-0.054492535928460914,-0.001709474114070797
1592234234.2077036,-9.437025604270673,-0.5039293658247244,1.4965481192229746,0.3511111111111111,-0.0011111111111111111,-0.21666666666666667,0.02537476967927634,0.006960321036117101,-0.046541664063371735
1592234234.2177036,-9.942536191955117,-0.661909031708661,1.743751440164304,0.3511111111111111,-0.0011111111111111111,-0.21666666666666667,0.036794050695799656,0.0036599085799143456,-0.06305994232953752
1592234234.2277036,-9.683714377652192,-0.2737143776521932,1.5191967499949723,0.3511111111111111,-0.0011111111111111111,-0.21666666666666667,0.04792608908235138,0.0024982949274966093,-0.11550428788529876
1592234234.2377036,-9.699744627222074,-0.32304391085168477,1.5181715972406473,0.3575859718168686,-0.0177607529259161,-0.21666666666666667,0.034197935750700445,0.01635131899795994,0.05996671467909401
1592234234.2477036,-9.938931601592344,-0.49450400096505687,1.63015280067554,0.35888888888888887,-0.021111111111111112,-0.21666666666666667,-0.009426174561039377,-0.007685819381614719,0.001523671594820017
1592234234.2577035,-9.274427073025924,-0.3166396200277063,1.387910152384722,0.35888888888888887,-0.021111111111111112,-0.21666666666666667,0.09000681604381108,0.0031472831937494235,-0.05787663604918213
1592234234.2677035,-9.338668728130848,-0.3647603547888355,1.3869541866710067,0.35888888888888887,-0.021111111111111112,-0.21666666666666667,0.05710657591559504,-0.012744940563237338,-0.017159392225302085
1592234234.2777035,-9.632083155218575,-0.5939899205795667,1.6739395234774002,0.35888888888888887,-0.021111111111111112,-0.21666666666666667,0.0516589254600508,0.023747675979291477,0.009831220720066099
1592234234.2877035,-9.514749473298524,-0.359258953925071,1.6593789502610607,0.37281894700416274,-0.006361637812585875,-0.20437543891789564,-0.042686385784154623,0.05917814449261459,0.0829270204404201
1592234234.2977035,-9.496074365101867,-0.3034958888573859,1.7348430475110375,0.37777777777777777,-0.0011111111111111111,-0.2,-0.023197683680196618,0.054494661103832526,0.029026861760601055
1592234234.3077035,-9.715940525071545,-0.3834012691302725,1.7659639168844097,0.37777777777777777,-0.0011111111111111111,-0.2,-0.03773115406419632,0.020913846971728677,0.07943493006508565
1592234234.3177035,-9.81,-0.23386315151242956,1.667698681817161,0.37777777777777777,-0.0011111111111111111,-0.2,-0.034071810806073875,0.08843293698905645,0.09675223948665732
1592234234.3277035,-9.663644181671593,-0.14373824240795485,1.6074764848159098,0.37777777777777777,-0.0011111111111111111,-0.2,-0.03537563348170178,0.08237282157520336,0.0867261774258006
1592234234.3377035,-9.54,-0.24477910068898828,1.5745343285386197,0.3771704809487355,-0.0120424540338719,-0.20121459365808453,0.040649236202713636,0.051675421789016504,0.04144636148925809
1592234234.3477035,-9.582090625,-0.6416494791666667,1.57,0.37666666666666665,-0.021111111111111112,-0.20222222222222222,-0.051305919130345934,-0.07828273252251587,0.02798787717369631
1592234234.3577034,-9.68043251931104,-0.8065602360504726,1.526127716739433,0.37666666666666665,-0.021111111111111112,-0.20222222222222222,-0.0857757093768589,-0.022798509893838706,0.04036073895236887
1592234234.3677034,-9.706571867172983,-0.7171560151894643,1.5168562656540356,0.37666666666666665,-0.021111111111111112,-0.20222222222222222,-0.10378069056544632,-0.019598907402376534,0.07139869531020956
1592234234.3777034,-9.572401685393258,-0.6753370786516855,1.7075280898876406,0.37666666666666665,-0.021111111111111112,-0.20222222222222222,-0.08664904012029784,-0.08787928888201785,0.09035357499680967
1592234234.3877034,-9.350404946229027,-0.7925253091393142,1.6930314919255962,0.3858023999408383,-0.002009123356024954,-0.20222222222222222,-0.09248870941096321,0.028526025498411975,-0.015568574452017675
1592234234.3977034,-9.388315286624204,-0.8571273885350319,1.7295031847133757,0.3888888888888889,0.0044444444444444444,-0.20222222222222222,-0.0855246073311059,0.04213247047807967,-0.017579745515111676
1592234234.4077034,-9.638919132055634,-0.8323041628829517,1.654679539263012,0.3888888888888889,0.0044444444444444444,-0.20222222222222222,-0.007596974540087637,0.04205524653219489,0.012532901717492977
1592234234.4177034,-9.628798650382551,-0.7125224540227153,1.5449850306515232,0.3888888888888889,0.0044444444444444444,-0.20222222222222222,0.09798493901635037,0.037923515169170016,-0.05777484180964204
1592234234.4277034,-9.646635516003652,-0.5622819276596649,1.5711059193339423,0.3888888888888889,0.0044444444444444444,-0.20222222222222222,0.08075460850429533,0.046166610089944674,-0.07043164655193389
1592234234.4377034,-9.547328891580861,-0.37730314960629924,1.4973031496062992,0.38535483545326066,-0.006864526549565921,-0.19798135809946835,0.01983481859838574,-0.012565035981905726,0.10843013244661584
1592234234.4477034,-9.491553282588011,-0.3728223120837298,1.4657766412940056,0.38333333333333336,-0.013333333333333334,-0.19555555555555557,-0.00418169098256729,-0.05437210227873093,0.11543319759789386
1592234234.4577034,-9.956558956432774,-0.6155068633302072,1.5836712422201382,0.38333333333333336,-0.013333333333333334,-0.19555555555555557,0.05134019398072756,0.028301241475623157,-0.0666823211189103
1592234234.4677033,-9.689941626163202,-0.15720904672349356,1.3279940404953228,0.38333333333333336,-0.013333333333333334,-0.19555555555555557,0.0003646049204617252,0.0904755453958212,-0.12028634705922336
1592234234.4777033,-9.530933628941442,-0.15809895833333332,1.3562317004504505,0.38333333333333336,-0.013333333333333334,-0.19555555555555557,-0.032999780893343655,0.07901958840898894,-0.12071288679804135
1592234234.4877033,-9.73870350327542,-0.5674252349757903,1.5093654229564226,0.37924750783252636,-0.010609449666128675,-0.19827943922276023,0.048346639341754344,0.05000118512617663,-0.038881235623901736
1592234234.4977033,-9.780841457157518,-0.5748435094920472,1.439615187275526,0.37666666666666665,-0.008888888888888889,-0.2,0.05395946420753377,0.05154441298820477,-0.07352221861522933
1592234234.5077033,-9.995254170423806,-0.9049301172227232,1.540419296663661,0.37666666666666665,-0.008888888888888889,-0.2,0.06659612911674119,0.021770877479157177,-0.03311093150483595
1592234234.5177033,-10.085286757038583,-0.8835453597497394,1.4231386861313868,0.37666666666666665,-0.008888888888888889,-0.2,0.1042374691428313,0.019913633481924355,-0.020505116283695113
1592234234.5277033,-9.61757436026206,-0.5908619627000251,1.4347444472344604,0.37666666666666665,-0.008888888888888889,-0.2,0.03509463612919682,-0.005377608752453196,-0.15596218290672936
1592234234.5377033,-9.67389513944223,-0.29958820717131474,1.5028465338645418,0.37666666666666665,-0.008888888888888889,-0.19253850376272685,-0.055088918880667394,-0.040540417469785345,-0.017310432800890632
1592234234.5477033,-9.646023800079334,-0.20467195557318524,1.5532407774692583,0.37666666666666665,-0.008888888888888889,-0.18777777777777777,-0.0573390159891608,-0.05173307174010583,0.041236865159587764
1592234234.5577033,-9.652689416444938,-0.12942548629588488,1.8039425486295886,0.37666666666666665,-0.008888888888888889,-0.18777777777777777,-0.01312992697435416,-0.007949164094182604,0.12083742733972017
1592234234.5677032,-9.693561534749033,0.006576978764478769,1.7678076737451738,0.37666666666666665,-0.008888888888888889,-0.18777777777777777,-0.0036752363381311534,-0.0463082937380923,0.10796115984277345
1592234234.5777032,-9.69602061244161,0.047958775116779116,1.7536123674649662,0.37666666666666665,-0.008888888888888889,-0.18777777777777777,0.0269905197914208,-0.05563236990731925,0.06898503807250832
1592234234.5877032,-9.62013948744942,-0.17184656380563873,1.7320557949797677,0.38066201708501934,-0.01621369798920215,-0.19243901993252258,0.06110934740034131,-0.03079033793508378,0.08267127916490749
1592234234.5977032,-9.558346774193547,-0.3622177419354839,1.6475806451612902,0.38333333333333336,-0.021111111111111112,-0.19555555555555557,0.04285029630274385,-0.033050413305154715,0.06480766431170476
1592234234.6077032,-9.699942492012779,-0.6559961661341853,1.4880076677316294,0.38333333333333336,-0.021111111111111112,-0.19555555555555557,-0.05143619132790381,-0.06262874247114444,0.049923247368487314
1592234234.6177032,-9.804799244213509,-0.622667296488742,1.481866635175563,0.38333333333333336,-0.021111111111111112,-0.19555555555555557,-0.08883752686794118,-0.04853467013470336,0.09283689622244125
1592234234.6277032,-9.855189981781065,-0.34321772724279476,1.5413842000131703,0.38333333333333336,-0.021111111111111112,-0.19555555555555557,-0.06804303931484977,-0.1091360430561711,0.12917101072963125
1592234234.6377032,-9.63481414170098,-0.25013516967201477,1.5849493113729944,0.39336712575133703,-0.021111111111111112,-0.19555555555555557,-0.07236883962056795,-0.13788135164697013,0.17133784265246774
1592234234.6477032,-9.574445962252124,-0.3899726794617854,1.7032969059490473,0.4033333333333333,-0.021111111111111112,-0.19555555555555557,0.008475961062728306,-0.14276752949159827,0.16387530257171173
1592234234.6577032,-9.64993937232525,-0.3154505468378507,1.7460485021398002,0.4033333333333333,-0.021111111111111112,-0.19555555555555557,-0.0451740362639123,-0.06015350818974184,0.1570664057727119
1592234234.6677032,-9.604270076436727,-0.22208360856846276,1.721562706426347,0.4033333333333333,-0.021111111111111112,-0.19555555555555557,-0.04803021505699101,-0.03182771850176552,0.2044855305999476
1592234234.6777031,-9.482794268167861,-0.281507164790174,1.6811770726714432,0.4033333333333333,-0.021111111111111112,-0.19555555555555557,0.03436898522231029,-0.024520245885154474,0.16352496881015127
1592234234.6877031,-9.384025730202211,-0.3299932288941553,1.6179905204518175,0.4033333333333333,-0.026886932791644867,-0.1866696760470421,0.034044556442078606,0.029465726162640794,0.0874790152968937
1592234234.6977031,-9.541576448026301,-0.40099267140019634,1.7009926714001964,0.4033333333333333,-0.035555555555555556,-0.17333333333333334,-0.08743043214086753,-0.07416849894750058,0.10229445533761329
1592234234.707703,-9.760558495988505,-0.4893018800143696,1.6857679319841934,0.4033333333333333,-0.035555555555555556,-0.17333333333333334,-0.1275158586998521,-0.1462978983221624,0.1190728206059631
1592234234.717703,-9.67522201465728,-0.4554193610193036,1.6548766585237342,0.4033333333333333,-0.035555555555555556,-0.17333333333333334,-0.060173292013676466,-0.13058300446274418,0.1537694678218609
1592234234.727703,-9.56448934549503,-0.34543350456063593,1.6349614250278326,0.4033333333333333,-0.035555555555555556,-0.17333333333333334,-0.027571329140697643,-0.12017112100070519,0.11097359735789494
1592234234.737703,-9.365325836514323,-0.4146741634856769,1.5901296468241688,0.40020205493846267,-0.03689753201050013,-0.16975472945348113,-0.02833331579557664,-0.13853588450369886,0.07726438573329758
1592234234.747703,-9.211951807228916,-0.5723855421686747,1.6226024096385543,0.39555555555555555,-0.03888888888888889,-0.16444444444444445,-0.020917665944835653,-0.08826266709746625,0.1283079851006795
1592234234.757703,-9.374215821475586,-0.5664934495079296,1.6657841785244154,0.39555555555555555,-0.03888888888888889,-0.16444444444444445,-0.019414845999381383,-0.053516077503491424,-0.01876525705474924
1592234234.767703,-9.550374655647383,-0.3683305785123967,1.5929641873278237,0.39555555555555555,-0.03888888888888889,-0.16444444444444445,-0.06355065947172191,-0.11124971459724875,0.04792803943854676
1592234234.777703,-9.621462425503402,-0.3235945269245689,1.6191025143703495,0.39555555555555555,-0.03888888888888889,-0.16444444444444445,-0.057213203246766015,-0.1812737108847459,-0.06350126165207046
1592234234.787703,-9.845912285268088,-0.15892503904216554,1.8090311035918791,0.3897729047371161,-0.03310623807044942,-0.16444444444444445,-0.054143479583682756,-0.19402826032619824,-0.10970486883102697
1592234234.797703,-9.706511754144223,-0.19426072069815023,1.761876905089983,0.38333333333333336,-0.02666666666666667,-0.16444444444444445,-0.0979483054094164,-0.2445310660006441,-0.11798549452045919
1592234234.807703,-9.623552963993161,-0.43167198305560517,2.079373006354148,0.38333333333333336,-0.02666666666666667,-0.16444444444444445,0.01943325046256223,-0.0322531218332132,-0.04674265715274827
1592234234.817703,-9.782751290493028,-0.504318579035077,2.042751290493029,0.38333333333333336,-0.02666666666666667,-0.16444444444444445,0.05818012462237815,-0.112184605938463,0.011999138607461015
1592234234.827703,-9.43060160215736,-0.35782082804568527,1.7718805520304568,0.38333333333333336,-0.02666666666666667,-0.16444444444444445,-0.06182444385025143,-0.08358369744364541,-0.022694523323627685
1592234234.837703,-9.501552459569767,-0.5412633872403105,1.8827194893669255,0.38333333333333336,-0.02666666666666667,-0.16858137021238873,0.00909687329696219,-0.0637762265909794,-0.09304879968314408
1592234234.847703,-9.494667028732511,-0.47633304885302713,1.711000077585538,0.38333333333333336,-0.02666666666666667,-0.17888888888888888,0.050832765243950764,-0.09526591654892154,-0.13495388201224356
1592234234.857703,-9.572173253377645,-0.6270288755629411,1.6482609638031935,0.38333333333333336,-0.02666666666666667,-0.17888888888888888,0.03169732583290896,-0.09899680125133364,-0.09277615239048785
1592234234.867703,-9.76906661830492,-0.6506661830492081,1.6203111272316932,0.38333333333333336,-0.02666666666666667,-0.17888888888888888,0.029331051858856663,-0.11483309687684197,-0.03641945167100941
1592234234.877703,-9.605616530362292,-0.38121844257437476,1.7643834696377068,0.38333333333333336,-0.02666666666666667,-0.17888888888888888,-0.054755473145774655,-0.13682222713109501,-0.15573754578455376
1592234234.887703,-9.426518872136553,-0.42,1.9814919119414773,0.38333333333333336,-0.03264984564191213,-0.17712913036675787,0.01167953571549147,-0.07780627693935054,-0.11423179055173897
1592234234.897703,-9.57,-0.42,1.92,0.38333333333333336,-0.04555555555555556,-0.17333333333333334,0.06981317007977318,-0.1679879405044542,-0.14180800172453928
1592234234.907703,-9.569644478477274,-0.4769036810151507,2.014128425313132,0.38333333333333336,-0.04555555555555556,-0.17333333333333334,-0.033920821971002574,-0.0527827139518636,-0.05090378582177672
1592234234.917703,-9.52,-0.51,1.97,0.38333333333333336,-0.04555555555555556,-0.17333333333333334,0.002181661564992912,-0.09490227807719166,-0.10144726277217041
1592234234.927703,-9.464132541481913,-0.5122144419253225,1.7568265082963825,0.38333333333333336,-0.04555555555555556,-0.17333333333333334,-0.019988766617386158,0.0008815985784743434,0.028775359216982967
1592234234.937703,-9.475648842019599,-0.5922227120138348,1.7204625139873182,0.3848251255561961,-0.04376540488812029,-0.1634875046624394,0.013291779187838202,-0.00541398429362259,-0.07942883732436055
1592234234.947703,-9.687214448275084,-0.6616390635210347,1.6996730435566372,0.3888888888888889,-0.03888888888888889,-0.13666666666666666,-0.03483525420929544,-0.028879916411301935,-0.07447988274869305
1592234234.9577029,-9.727215570958482,-0.6190718569861607,1.7448862283833928,0.3888888888888889,-0.03888888888888889,-0.13666666666666666,-0.05748351603323187,-0.05238077821264395,-0.04005504462960247
1592234234.9677029,-9.546984081568954,-0.581141341101805,1.7454346355927794,0.3888888888888889,-0.03888888888888889,-0.13666666666666666,-0.007719062044500229,-0.1077729236896769,0.008862723470418846
1592234234.9777029,-9.928313838004856,-0.7635599205473406,1.9423769587287576,0.3888888888888889,-0.03888888888888889,-0.13666666666666666,0.007433827610224132,-0.03727097460397789,0.06127406678593808
1592234234.9877028,-10.174202338102747,-0.9197941517684505,2.208833625844067,0.3834629304617703,-0.03888888888888889,-0.1471012021034331,-0.049856388951947966,0.043893308306185666,0.018821041227829426
1592234234.9977028,-9.4,-0.72,2.29,0.37444444444444447,-0.03888888888888889,-0.16444444444444445,-0.002181661564992912,0.031634092692397225,0.022907446432425576
1592234235.0077028,-9.682813915516697,-0.46786842936900874,1.7543439903086484,0.37444444444444447,-0.03888888888888889,-0.16444444444444445,0.06503853031795906,-0.004583948338285952,-0.07880494004383364
1592234235.0177028,-9.85,-0.71,1.91,0.37444444444444447,-0.03888888888888889,-0.16444444444444445,0.07635815477475191,0.038179077387375956,-0.15489797111449674
1592234235.0277028,-9.277867512208056,-0.2190162847736262,1.52612015820757,0.37444444444444447,-0.03888888888888889,-0.16444444444444445,0.04582689617328262,-0.1861566109244902,-0.025148642478996282
1592234235.0377028,-9.857434069154131,-0.2836716155499121,1.6921781597968353,0.3789319745610037,-0.04133663258883029,-0.1542455123613553,-0.017622489558681755,-0.09574922219616651,-0.08416316729096557
1592234235.0477028,-9.56,-0.29,1.92,0.38666666666666666,-0.04555555555555556,-0.13666666666666666,-0.04799655442984406,-0.016362461737446838,-0.11453723216212788
1592234235.0577028,-9.627665066026411,-0.5577250900360144,1.921656662665066,0.38666666666666666,-0.04555555555555556,-0.13666666666666666,0.0061704617612524625,0.0016788055980317615,0.023978634403712614
1592234235.0677028,-9.82,-0.82,1.91,0.38666666666666666,-0.04555555555555556,-0.13666666666666666,-0.006544984694978735,0.05126904677733343,0.001090830782496456
1592234235.0777028,-9.14371295124187,-0.5728146143437077,1.8759282378104676,0.38666666666666666,-0.04555555555555556,-0.13666666666666666,-0.032973097120114835,0.039302525005439654,-0.0023058912350585256
1592234235.0877028,-9.540351328980043,-0.7688770348569852,1.96,0.3863313815056664,-0.04354384458955415,-0.13297852989566408,0.04266901032583327,0.012282455643216556,-0.08141401951161467
1592234235.0977027,-9.68,-0.72,1.96,0.38555555555555554,-0.03888888888888889,-0.12444444444444444,0.13635384781205698,0.038179077387375956,-0.009817477042468103
1592234235.1077027,-9.809459311851446,-0.49962861824139815,1.829797924631349,0.38555555555555554,-0.03888888888888889,-0.12444444444444444,0.03823805731499319,0.06638995125059532,-0.10930767858006678
1592234235.1177027,-9.76,-0.58,2.04,0.38555555555555554,-0.03888888888888889,-0.12444444444444444,0.04363323129985824,0.18980455615438332,-0.042542400517361786
1592234235.1277027,-9.814703559009144,-0.36705963164899325,1.7635298158244967,0.38555555555555554,-0.03888888888888889,-0.12444444444444444,0.007187222850268151,0.14353966573709118,-0.05120559098759907
1592234235.1377027,-9.514475698718142,-0.4718414337606196,1.7873657350424785,0.3906924305951654,-0.0407019036087512,-0.12384010620449033,0.07184046292846552,0.024897538843757405,-0.11582614872419629
1592234235.1477027,-9.58,-0.45,1.7,0.40444444444444444,-0.04555555555555556,-0.12222222222222222,0.030543261909900768,0.01854412330243975,-0.022907446432425576
1592234235.1577027,-9.839970253904175,-0.7750446191437375,2.080386699245724,0.40444444444444444,-0.04555555555555556,-0.12222222222222222,-0.01910414027433119,0.03937049683652566,-0.024454460724461745
1592234235.1677027,-9.768940192128913,-0.7039200495816548,1.7812798264642082,0.40444444444444444,-0.04555555555555556,-0.12222222222222222,-9.600122163898155e-05,-0.035862202834159126,-0.12200504550173485
1592234235.1777027,-9.557248515349775,-0.608727730246603,1.8681950679416206,0.40444444444444444,-0.04555555555555556,-0.12222222222222222,0.02193282453771918,0.016142999979212924,-0.09032263337622704
1592234235.1877027,-9.599494713671081,-0.5930500617016309,1.7049287929826902,0.40422446793923966,-0.04709539109198917,-0.12266217523263181,0.052403972110354705,0.006362094178899301,0.032519985683551834
1592234235.1977026,-9.8,-0.97,2.13,0.4033333333333333,-0.05333333333333334,-0.12444444444444444,0.03490658503988659,-0.007635815477475192,0.0272707695624114
1592234235.2077026,-9.406700093283582,-0.45849917081260366,1.595750414593698,0.4033333333333333,-0.05333333333333334,-0.12444444444444444,0.05206992777316818,0.08580082833007495,-0.08769254010840613
1592234235.2177026,-9.976186388133733,-0.6778389850717794,1.693813611866266,0.4033333333333333,-0.05333333333333334,-0.12444444444444444,0.08030547738311607,-0.007053435557636142,-0.03247993267245291
1592234235.2277026,-9.66,-0.69,2.01,0.4033333333333333,-0.05333333333333334,-0.12444444444444444,0.04581489286485115,-0.0839939702522271,0.0643590161672909
1592234235.2377026,-9.196555612506407,-0.15541944302067315,1.4950862805398941,0.39743208610968733,-0.05333333333333334,-0.12182166790060178,0.030866429614812577,0.08953571864066587,0.013537073959786447
1592234235.2477026,-9.26,0.19,1.34,0.38333333333333336,-0.05333333333333334,-0.11555555555555555,-0.015271630954950384,0.15489797111449674,0.011999138607461015
1592234235.2577026,-9.73,-0.56246237006237,2.0176972972972975,0.38333333333333336,-0.05333333333333334,-0.11555555555555555,0.021170734970396916,0.022798771565279565,-0.008064346422715384
1592234235.2677026,-9.73,-0.23,1.36,0.38333333333333336,-0.05333333333333334,-0.11555555555555555,0.07635815477475191,0.00545415391248228,0.0818123086872342
1592234235.2777026,-9.366532670133394,-0.6071996382545783,1.9202649785213655,0.38333333333333336,-0.05333333333333334,-0.11555555555555555,-0.04805436377540526,-0.016886691877911333,-0.018835143045452595
1592234235.2877026,-9.312917395708629,-0.5687779721889678,1.695611013905516,0.3806511751644821,-0.054796328698161284,-0.112385732265095,-0.025853262133384094,-0.08538144191332307,-0.002962691985281138
1592234235.2977026,-9.43,-0.6,1.68,0.3711111111111111,-0.06,-0.10111111111111111,-0.11780972450961724,-0.03599741582238304,0.11453723216212788
1592234235.3077025,-9.868734032609824,-0.6676555197839859,1.8389567971751999,0.3711111111111111,-0.06,-0.10111111111111111,-0.17363649317306526,0.045770144899425234,0.08361287618718213
1592234235.3177025,-9.51,-0.23,1.43,0.3711111111111111,-0.06,-0.10111111111111111,-0.12980886311707826,0.020725784867432664,0.09926560120717749
1592234235.3277025,-9.727428590466882,-0.6003007418595353,1.9186315579050242,0.3711111111111111,-0.06,-0.10111111111111111,-0.019172377093700316,0.029055465831761693,-0.03142250224276057
1592234235.3377025,-9.75965314539963,-0.5331629372219155,1.8421405605534085,0.3748719503173727,-0.05874638693124614,-0.09714133639339056,-0.037666768467701985,0.023877294228912306,-0.13776132454739531
1592234235.3477025,-9.24,-0.59,2.24,0.39111111111111113,-0.05333333333333334,-0.08,-0.08726646259971647,0.04690572364734761,-0.10144726277217041
1592234235.3577025,-9.741764897781644,-0.5335297955632884,2.0005891148325357,0.39111111111111113,-0.05333333333333334,-0.08,0.04517339516239999,-0.01456572251795208,0.03882099026030762
1592234235.3677025,-9.65,-0.35,1.58,0.39111111111111113,-0.05333333333333334,-0.08,-0.03490658503988659,-0.05126904677733343,-0.07963064712224129
1592234235.3777025,-9.689887674758447,-0.5061185631093372,1.903319810682894,0.39111111111111113,-0.05333333333333334,-0.08,-0.06116004051848447,-0.07076581801891996,-0.04692137865955906
1592234235.3877025,-9.61732808669849,-0.34610018062185527,1.6543320216746225,0.3872604251781132,-0.05221021660287562,-0.07887688326954229,-0.12077896984013019,-0.12252344061350584,0.09832050068855346
1592234235.3977025,-9.72,-0.56,1.68,0.36444444444444446,-0.04555555555555556,-0.07222222222222222,-0.12544553998709243,-0.14398966328953217,0.09272061651219875
1592234235.4077024,-9.421788791977855,-0.7522264584530214,1.65288295816577,0.36444444444444446,-0.04555555555555556,-0.07222222222222222,-0.07180386361933505,0.03289202049714584,0.012568966229883825
1592234235.4177024,-9.567019077901431,-0.7837307896131426,1.681499735029147,0.36444444444444446,-0.04555555555555556,-0.07222222222222222,-0.0844974750808198,-0.005911412602972316,0.10268290177460081
1592234235.4277024,-9.67,-0.77,1.86,0.36444444444444446,-0.04555555555555556,-0.07222222222222222,-0.0545415391248228,-0.04036073895236887,0.05999569303730508
1592234235.4377024,-9.603558465589638,-0.6503376983844567,1.98,0.36516017049004024,-0.04555555555555556,-0.07222222222222222,-0.08413472010694678,-0.09853654335517946,-0.0010776330575641112
1592234235.4477024,-9.55,-0.57,1.98,0.3711111111111111,-0.04555555555555556,-0.07222222222222222,-0.02181661564992912,0.016362461737446838,0.053450708342326333
1592234235.4577024,-9.473288125741687,-0.7302685815310843,2.0248996149281924,0.3711111111111111,-0.04555555555555556,-0.07222222222222222,-0.009385408614778547,0.06485678647083884,0.011105994651280728
1592234235.4677024,-9.62752350544974,-0.6718808763624353,1.8937617527248707,0.3711111111111111,-0.04555555555555556,-0.07222222222222222,-0.044554222503734586,0.05647356941551238,0.00091073501662266
1592234235.4777024,-9.545235485019987,-0.6883935568132347,1.8657064550599598,0.3711111111111111,-0.04555555555555556,-0.07222222222222222,-0.03559874257819247,-0.038970811495904964,-0.020302827287343308
1592234235.4877024,-9.570645115653958,-0.871693428591639,1.9393548843460422,0.3709946318958132,-0.04560035525374707,-0.07216846258439241,-0.20292099190625612,-0.08274488142807399,-0.08948338692679476
1592234235.4977024,-9.65,-1.08,1.86,0.3566666666666667,-0.051111111111111114,-0.06555555555555556,-0.07199483164476608,0.07090400086226964,0.04036073895236887
1592234235.5077024,-9.668712871287129,-1.01,1.7656435643564357,0.3566666666666667,-0.051111111111111114,-0.06555555555555556,-0.024516691844227275,0.17567775750581538,-0.04494006817789854
1592234235.5177023,-9.7,-1.01,1.75,0.3566666666666667,-0.051111111111111114,-0.06555555555555556,-0.10471975511965977,0.10144726277217041,-0.09272061651219875
1592234235.5277023,-9.642805669291338,-0.9395477165354331,1.775203779527559,0.3566666666666667,-0.051111111111111114,-0.06555555555555556,-0.08950721798977691,0.11807619643242173,-0.024417912086651533
1592234235.5377023,-9.827751181102363,-1.098072440944882,1.8985007874015747,0.3566666666666667,-0.051111111111111114,-0.06555555555555556,0.016168345393475017,0.06715978862049124,-0.08974462399629819
1592234235.5477023,-9.62,-0.45,1.54,0.3566666666666667,-0.044444444444444446,-0.044444444444444446,-0.0370882466048795,0.016362461737446838,-0.0272707695624114
1592234235.5577023,-9.819900694547066,-0.6580490616225803,1.7602219595093838,0.3566666666666667,-0.044444444444444446,-0.044444444444444446,-0.038348561573088503,-0.06104064670428527,0.03051331121396641
1592234235.5677023,-9.517089282599487,-0.4202594004634821,1.632132516010067,0.3566666666666667,-0.044444444444444446,-0.044444444444444446,0.04999593518380757,0.026465972328149727,-0.17565205218298544
1592234235.5777023,-9.66,-0.33,1.76,0.3566666666666667,-0.044444444444444446,-0.044444444444444446,-0.07635815477475191,0.11671889372712078,-0.16580627893946132
1592234235.5877023,-9.333095169499664,-0.3399062069848587,1.6510317231665546,0.3566666666666667,-0.044444444444444446,-0.044444444444444446,0.05547499053100402,0.047560522419183265,0.05355543005290306
1592234235.5977023,-9.75,-0.67,1.82,0.3566666666666667,-0.044444444444444446,-0.022222222222222223,0.17344209441693648,-0.011999138607461015,-0.04908738521234052
1592234235.6077023,-9.967439767010855,-0.8939528726502516,1.5940460683081812,0.3566666666666667,-0.044444444444444446,-0.022222222222222223,-0.046362705369018285,-0.11788088699434246,0.05407984940046514
1592234235.6177022,-9.24,-0.68,1.44,0.3566666666666667,-0.044444444444444446,-0.022222222222222223,0.002181661564992912,-0.1636246173744684,0.05781403147231216
1592234235.6277022,-9.75158427495292,-0.8841495463105632,1.7537084831364493,0.3566666666666667,-0.044444444444444446,-0.022222222222222223,0.015599571179922781,-0.06878123687612106,0.006068831735926775
1592234235.6377022,-9.26668608290917,-0.33329459157843166,1.2846996379868805,0.3567258831819653,-0.044503660959743056,-0.022157622387351014,-0.000211402465265107,-0.12524788462034106,-0.17164835043743354
1592234235.6477022,-10.384267818574514,-0.8869203404904078,2.1460660653030112,0.3688888888888889,-0.056666666666666664,-0.008888888888888889,-0.015438824228486619,-0.30273804116684166,-0.029657597674273548
1592234235.6577022,-9.013863198934017,-0.32633025711888664,1.7554962246459063,0.3688888888888889,-0.056666666666666664,-0.008888888888888889,0.10954561677223403,-0.2251698575293463,-0.07926290961667778
1592234235.6677022,-10.01,-1.21,2.84,0.3688888888888889,-0.056666666666666664,-0.008888888888888889,-0.10690141668465267,-0.062177354602297986,-0.2203478180642841
1592234235.6777022,-9.57955579631636,-0.7034561213434453,2.363282773564464,0.3688888888888889,-0.056666666666666664,-0.008888888888888889,0.053345525309127874,0.02439182721554101,0.021307246129608454
1592234235.6877022,-9.654178352180937,-0.4817912762520194,1.9720151857835218,0.36849082749955125,-0.0560695745826602,-0.009038161909890504,0.008108168115504836,0.12581148816204107,-0.08316352906007261
1592234235.6977022,-9.4,-0.56,2.06,0.3511111111111111,-0.03,-0.015555555555555555,0.07635815477475191,-0.001090830782496456,-0.04690572364734761
1592234235.7077022,-9.256673099686068,-0.42151819257886886,2.0466653800627865,0.3511111111111111,-0.03,-0.015555555555555555,-0.07027620195121731,0.1720196243545472,-0.06680219979498052
1592234235.7177022,-9.676446768699323,-0.6537384253706281,1.9313078731468598,0.3511111111111111,-0.03,-0.015555555555555555,-0.10555618258047915,0.04710836706671268,0.1121403142996534
1592234235.7277021,-9.4,-0.67,1.85,0.3511111111111111,-0.03,-0.015555555555555555,-0.17562375598192942,-0.14180800172453928,-0.0643590161672909
1592234235.7377021,-9.307664077669902,-0.594452427184466,1.8416058252427185,0.3511111111111111,-0.03,-0.015555555555555555,-0.04834667933925507,0.05689074382553508,0.07482167195995013
1592234235.7477021,-9.86,-0.8,2.11,0.33555555555555555,-0.04888888888888889,0.006666666666666667,-0.06326818538479445,0.009817477042468103,0.062177354602297986
1592234235.757702,-9.643816648098042,-1.0063568359064141,2.11,0.33555555555555555,-0.04888888888888889,0.006666666666666667,0.00962146431710785,0.10414525900963577,-0.0836019448015066
1592234235.767702,-10.07,-0.72,1.68,0.33555555555555555,-0.04888888888888889,0.006666666666666667,-0.14944381720201447,0.09490227807719166,-0.025089107997418484
1592234235.777702,-9.377896963429537,-0.5797038638713923,1.8127639372003386,0.33555555555555555,-0.04888888888888889,0.006666666666666667,-0.1607140261110657,0.12229805682676703,-0.02157223755886124
1592234235.787702,-10.166521575632228,-0.5501304409137915,2.0887825514712794,0.33555555555555555,-0.04888888888888889,0.006666666666666667,0.021015054485720414,-0.08308806384770721,0.11176744287901734
1592234235.797702,-8.7,-0.22,1.82,0.33555555555555555,-0.04,0.021111111111111112,-0.2530727415391778,0.07090400086226964,0.007635815477475192
1592234235.807702,-10.474325124976858,-1.037567910704367,2.2980183563890284,0.33555555555555555,-0.04,0.021111111111111112,-0.030051901891229235,0.09279932644355143,0.09584575855931493
1592234235.817702,-8.983585747159157,-0.4040224895025265,1.6296963442696843,0.33555555555555555,-0.04,0.021111111111111112,-0.03202523703034313,-0.07573105581732928,-0.009006153371725122
1592234235.827702,-9.718104529477552,-0.7838430659849817,1.7349672471640836,0.33555555555555555,-0.04,0.021111111111111112,-0.1197518137364748,0.0289932635207044,0.062242971759928586
1592234235.837702,-9.92751797411727,-1.1105280396229429,2.070028758587634,0.33555555555555555,-0.04,0.021111111111111112,-0.19924706556167954,0.12310833177353296,-0.0510606055541563
1592234235.847702,-10.004751472921948,-0.8997725407219598,1.6151558652390419,0.3403519609571814,-0.031206590097019295,0.023509313811924032,-0.03211196663040167,0.09968006238586893,0.003401148419569004
1592234235.857702,-9.850640414835093,-0.7972080229528047,1.5426998499644653,0.3422222222222222,-0.027777777777777776,0.024444444444444446,-0.12791944118000378,-0.03658918814812473,-0.030340979715099695
1592234235.867702,-10.056100378742764,-0.9449122221957552,1.8674481312974915,0.3422222222222222,-0.027777777777777776,0.024444444444444446,0.05482512758532079,0.1277585502480554,-0.11699203665333985
1592234235.877702,-9.378727262138185,-0.5741818252412106,1.6977402884820716,0.3422222222222222,-0.027777777777777776,0.024444444444444446,0.08972011714815728,0.09542360502101915,-0.11735355813960391
1592234235.887702,-9.20773407621673,-0.6881772825221797,2.1618646502688748,0.3422222222222222,-0.027777777777777776,0.024444444444444446,-0.013312536055796576,0.011931627424711738,-0.10491858275291985
1592234235.897702,-9.933648552444234,-0.7986756051257712,2.1449729473184624,0.31555555555555553,-0.027777777777777776,0.05444444444444444,0.025641409031479816,0.016631726611664403,0.00653908271542465
1592234235.907702,-9.538804987061868,-0.5028299223712068,2.016099741237356,0.31555555555555553,-0.027777777777777776,0.05444444444444444,0.05757410515341445,0.011354545117545443,-0.030310520550285547
1592234235.917702,-9.523107668812044,-0.4716616123050071,1.8468923311879568,0.31555555555555553,-0.027777777777777776,0.05444444444444444,0.08074156432734987,0.07197805329412445,-0.11578911131170523
1592234235.927702,-9.466556011730207,-0.6714568914956012,1.9109712609970673,0.31555555555555553,-0.027777777777777776,0.05444444444444444,-0.05813673824456508,0.08136202909502246,0.042966193074737535
1592234235.937702,-9.909356011730205,-0.7698568914956012,1.9765712609970674,0.31555555555555553,-0.027777777777777776,0.05444444444444444,-0.0062568262290336255,0.05094966687902127,0.07158959280744454
1592234235.947702,-9.203928579841236,-0.1456377641156102,1.64854592137187,0.3233333333333333,-0.04777777777777778,0.05444444444444444,-0.17320138344785477,-0.056042822193838424,0.020297243285201116
1592234235.957702,-9.728946620847651,-0.7134277205040092,1.8340252004581903,0.3233333333333333,-0.04777777777777778,0.05444444444444444,0.1200686063980446,-0.014016163444044152,-0.041861462208966284
1592234235.967702,-9.373416036655211,-0.502031156930126,1.6418465063001144,0.3233333333333333,-0.04777777777777778,0.05444444444444444,-0.05287980274722598,0.0614522332738921,-0.16030491816906067
1592234235.977702,-10.012973928678454,-1.0204566976326042,2.254731795025472,0.3233333333333333,-0.04777777777777778,0.05444444444444444,0.057588673743378074,0.11365436857885954,0.09581756911434781
1592234235.987702,-9.36776146239137,-0.7523164519029067,2.045247228049146,0.3233333333333333,-0.04777777777777778,0.05444444444444444,-0.05026909131924033,0.07160812118156762,-0.041289759355082334
1592234235.997702,-9.62,-1.03,2.15,0.30333333333333334,-0.03111111111111111,0.06888888888888889,0.07199483164476608,0.1854412330243975,0.05563236990731925
1592234236.0077019,-9.649077856420627,-0.6810657229524772,1.9173771486349847,0.30333333333333334,-0.03111111111111111,0.06888888888888889,0.044505013555151664,-0.0545660249118515,-0.031066287144541627
1592234236.0177019,-9.35869040767386,-0.37760287769784173,1.835248201438849,0.30333333333333334,-0.03111111111111111,0.06888888888888889,-0.06282358682413954,-0.05372715677660505,-0.16699507522028986
1592234236.0277019,-9.92563511681684,-0.6124942189618052,1.6887528905190974,0.30333333333333334,-0.03111111111111111,0.06888888888888889,0.017453292519943295,-0.06374179782484653,-0.0030684345358526015
1592234236.0377018,-9.808578661988676,-0.6793836217207558,1.655308189139622,0.30333333333333334,-0.03111111111111111,0.06888888888888889,0.017453292519943295,-0.10569668406739989,0.0024039419305674037
1592234236.0477018,-9.48,-0.63,1.9,0.3322222222222222,-0.03666666666666667,0.07555555555555556,-0.16689710972195776,0.053450708342326333,0.04690572364734761
1592234236.0577018,-9.916906516044532,-0.7173813032089064,1.8300949574328749,0.3322222222222222,-0.03666666666666667,0.07555555555555556,0.07235161081892003,0.009604329279057897,-0.06938249908566868
1592234236.0677018,-9.284827655579399,-0.4697901019313305,1.6654573497854077,0.3322222222222222,-0.03666666666666667,0.07555555555555556,0.00986158721963048,0.06858496133258196,-0.13063144842751095
1592234236.0777018,-9.500468079399141,-0.4604144313304721,1.9092247854077253,0.3322222222222222,-0.03666666666666667,0.07555555555555556,-0.13434292116165278,0.062448599273803945,-0.0211996583793031
1592234236.0877018,-9.638066233627942,-0.5709907358108828,1.8687735065488233,0.3322222222222222,-0.03666666666666667,0.07555555555555556,-0.2347808881008021,0.04168822809246923,0.18946012729310568
1592234236.0977018,-9.45,-0.72,1.95,0.2911111111111111,-0.024444444444444446,0.09,-0.0916297857297023,0.038179077387375956,0.1461713248545251
1592234236.1077018,-9.824165585366874,-0.8447218617889581,2.045939893683814,0.2911111111111111,-0.024444444444444446,0.09,-0.18477201420647232,-0.03507885512244316,0.13779898971054577
1592234236.1177018,-9.399762476281918,-0.8125329767048443,1.8532981277004321,0.2911111111111111,-0.024444444444444446,0.09,-0.13149547009747203,-0.036135568270432565,0.20896749768757195
1592234236.1277018,-9.51979398690311,-0.8006378758185556,1.727654509822666,0.2911111111111111,-0.024444444444444446,0.09,-0.13171219885075497,-0.03191241852371342,0.09023166508454906
1592234236.1377017,-9.715528196043696,-0.8773034150182069,1.8050337565200276,0.2911111111111111,-0.024444444444444446,0.09,-0.09404429956978969,0.04425835753216577,-0.021064123839395626
1592234236.1477017,-9.612717288795595,-0.788976909738067,1.7097249855495726,0.3106429510645993,-0.016220511832449408,0.12289573044798016,-0.1444660700527435,-0.10502814520398149,0.03956150654186584
1592234236.1577017,-9.507381952100584,-0.7151673664704088,1.7740944383195327,0.31222222222222223,-0.015555555555555555,0.12555555555555556,-0.19995912603372154,0.046789657675885415,-0.14000091902996847
1592234236.1677017,-9.822516745047741,-0.5717785378366824,1.5957047171155765,0.31222222222222223,-0.015555555555555555,0.12555555555555556,0.012127233885325772,0.10422338591793381,0.02301797524621424
1592234236.1777017,-9.693040361316223,-0.7354254785289268,1.8200559179869527,0.31222222222222223,-0.015555555555555555,0.12555555555555556,-0.17189495869388038,0.08986345159218366,-0.03433610611248594
1592234236.1877017,-9.619350570550585,-0.9167859309858879,1.9688800375800042,0.31222222222222223,-0.015555555555555555,0.12555555555555556,-0.13909502693368614,0.02716089864176536,-0.002319736816414973
1592234236.1977017,-9.629500432094662,-1.0486678189190985,1.7149956790533802,0.2761661385509687,-0.022111207132147107,0.08403642890380908,-0.02565127416382837,0.05912378255876108,-0.0030545147278533673
1592234236.2077017,-9.669611626869907,-1.1292232537398144,1.7166019378116513,0.27555555555555555,-0.022222222222222223,0.08333333333333333,-0.051364345773412395,0.03983122146789113,-0.08465053832405282
1592234236.2177017,-9.91,-1.22,1.46,0.27555555555555555,-0.022222222222222223,0.08333333333333333,-0.08944812416470939,-0.12217304763960307,-0.11235557059713495
1592234236.2277017,-9.730632704041934,-1.2712477988451616,1.451458700192473,0.27555555555555555,-0.022222222222222223,0.08333333333333333,-0.01491122214405799,-0.0876997304550518,0.02553769814107014
1592234236.2377017,-9.796450829284638,-1.4005635366057967,1.522338121963478,0.27555555555555555,-0.022222222222222223,0.08333333333333333,-0.06355505615390548,-0.09233346204533349,0.022784501817092268
1592234236.2477016,-9.53,-1.1,1.45,0.27555555555555555,0.0,0.1111111111111111,-0.01308996938995747,-0.04036073895236887,-0.0272707695624114
1592234236.2577016,-9.650213668243353,-1.1,1.5272802152992986,0.27555555555555555,0.0,0.1111111111111111,-0.014963294672766995,0.04019224820844061,0.017689037225017145
1592234236.2677016,-9.705423494752349,-1.2416939790093906,1.8499555790830418,0.27555555555555555,0.0,0.1111111111111111,0.05814634219402832,0.01094556599291762,-0.042532709376640845
1592234236.2777016,-9.38639387308534,-0.9268760458231433,1.6520543184451022,0.27555555555555555,0.0,0.1111111111111111,-0.056956559006266894,-0.15339563217685284,0.03386613269538212
1592234236.2877016,-9.607699206878658,-0.957539841375732,1.7885620042991623,0.27555555555555555,0.0,0.1111111111111111,0.044337003528073266,-0.12708708224090928,0.010953668144361235
1592234236.2977016,-9.391538822792738,-0.7182842830306825,1.579467752035066,0.276633792527656,0.0,0.10464168927850832,0.09663859106974394,-0.061286657457416724,0.019886657994360093
1592234236.3077016,-9.775769973338237,-1.0398083111151972,1.890385216511906,0.27666666666666667,0.0,0.10444444444444445,0.17514142163896565,0.12811003733422466,-0.15093354284866278
1592234236.3177016,-9.664562868369352,-0.9042472986247544,1.6255820235756384,0.27666666666666667,0.0,0.10444444444444445,0.08765020893958048,0.0369477405279101,-0.12820168254743497
1592234236.3277016,-8.421113665251372,0.1554752954539308,1.333429158666198,0.27666666666666667,0.0,0.10444444444444445,-0.1341916859129978,0.0643550631336523,-0.3092690382452693
1592234236.3377016,-10.884038500180846,-0.8812767753084434,2.2687726560302215,0.27666666666666667,0.0,0.10444444444444445,0.2713789977104105,-0.1976699094680178,-0.05074184623920286
1592234236.3477015,-8.46,0.26,1.76,0.26222222222222225,-0.0044444444444444444,0.12555555555555556,-0.12544553998709243,-0.09926560120717749,0.01854412330243975
1592234236.3577015,-9.836850312280268,-0.46552591305786484,1.5373954584936096,0.26222222222222225,-0.0044444444444444444,0.12555555555555556,0.24958246203086984,-0.020123001260940854,-0.04800760847053198
1592234236.3677015,-9.231050659399484,-0.1430064723344201,1.1781196165263514,0.26222222222222225,-0.0044444444444444444,0.12555555555555556,0.11930197932137243,0.07477539110688904,0.06590122337411786
1592234236.3777015,-9.388673906830522,-0.6324264075450129,2.251571877679337,0.26222222222222225,-0.0044444444444444444,0.12555555555555556,-0.03783084704040583,0.03574988234387428,0.10148155582334921
1592234236.3877015,-9.464000120226025,-0.4717138219853324,2.056856490201579,0.26222222222222225,-0.0044444444444444444,0.12555555555555556,-0.12338870779329411,-0.034002899954495375,-0.02259606152224554
1592234236.3977015,-9.498370833834677,-0.6120791721814463,1.9975562507520155,0.2754900466583778,0.005761574352598297,0.14494699126993676,0.020245142065663663,0.12189466331886249,0.002126667208373248
1592234236.4077015,-9.528298053183308,-0.6229254867041729,1.9504784069292103,0.27666666666666667,0.006666666666666667,0.14666666666666667,0.0024947781679582615,0.0811098714123923,-0.05718779826638146
1592234236.4177015,-9.504313433219398,-0.7092164169515047,1.894313433219398,0.27666666666666667,0.006666666666666667,0.14666666666666667,0.0980901077595442,0.14832164441302031,0.0016476419927440589
1592234236.4277015,-9.607971967963387,-0.7469929919908467,1.80902102402746,0.27666666666666667,0.006666666666666667,0.14666666666666667,0.013115451230319,0.1337424792125595,0.06696274021467995
1592234236.4377015,-9.382303710264738,-0.8762761539218581,1.8371400452711348,0.27666666666666667,0.006666666666666667,0.14666666666666667,0.01190490267980868,0.21354724337550873,-0.06303971318015819
1592234236.4477015,-9.872094331181696,-1.0584099188342815,1.868454655844571,0.27666666666666667,0.014868735930920376,0.14051511471847639,-0.11255962643533826,0.15962771634410558,-0.047768098337670435
1592234236.4577014,-9.594406284703656,-1.029300785587957,1.8409291325628265,0.27666666666666667,0.015555555555555555,0.14,-0.004663253364057665,0.16032704484734608,-0.052690047581151464
1592234236.4677014,-9.43788753882199,-1.1644292486242032,1.776729145098894,0.27666666666666667,0.015555555555555555,0.14,0.012751777968805361,0.25737656913092577,-0.1534540304492121
1592234236.4777014,-9.485506405028067,-1.154493594971933,1.7877532025140335,0.27666666666666667,0.015555555555555555,0.14,-0.021057226183248526,0.05859372714940436,0.02663774438706784
1592234236.4877014,-9.652503236305803,-1.195704035211007,1.835704035211007,0.27666666666666667,0.015555555555555555,0.14,0.0036991497253382466,0.10752504250871038,0.0379742818460085
1592234236.4977014,-9.464955132067095,-1.1401185908615277,1.7710384627580302,0.25749750733706084,0.00950213681989057,0.1531157405939408,0.05629595834509693,0.12759154037515813,0.023108131348557243
1592234236.5077014,-9.589886410404148,-1.0869536587373447,1.5878146349493785,0.25555555555555554,0.008888888888888889,0.15444444444444444,0.014631803795836895,0.08393722442503658,0.0014417211189847387
1592234236.5177014,-9.765202697505064,-1.043288289443319,1.3128828944331907,0.25555555555555554,0.008888888888888889,0.15444444444444444,0.1117831214883226,0.11924205002335037,0.018991263508316522
1592234236.5277014,-9.81415867522292,-0.9631429807484317,1.2543809935828105,0.25555555555555554,0.008888888888888889,0.15444444444444444,0.018049111020748798,-0.030255577477561635,-0.06992729477985266
1592234236.5377014,-9.810890931789809,-0.8498002496878901,1.2591090682101918,0.25555555555555554,0.008888888888888889,0.15444444444444444,0.01868488764243504,-0.09606937168593008,-0.016620467792460195
1592234236.5477014,-9.737290907908429,-0.5329142819979188,1.458127276274714,0.2684955269395306,0.019838095444560066,0.16738441582841948,-0.09513121349180637,-0.007929628932581145,0.029406530534514398
1592234236.5577013,-9.695225333977145,-0.5745815226138742,1.5992274263640753,0.27,0.021111111111111112,0.1688888888888889,-0.04623626641675707,-0.030297460671288978,-0.0762469297142801
1592234236.5677013,-9.60347889294237,-0.5350322297501166,1.6392555613462436,0.27,0.021111111111111112,0.1688888888888889,0.005542391013109925,-0.15768164368818013,-0.030043550883253667
1592234236.5777013,-9.54920058493785,-0.5150999268827687,1.691398976358762,0.27,0.021111111111111112,0.1688888888888889,0.04223639363687107,-0.10379362569464724,-0.04016373539160117
1592234236.5877013,-9.51,-0.52,1.7794873801604383,0.27,0.021111111111111112,0.1688888888888889,0.1225277650648641,0.08386463285168066,-0.0754909965925404
