time,acc_x,acc_y,acc_z,mag_x,mag_y,mag_z,gyr_x,gyr_y,gyr_z
1592234278.1476617,-9.522551384252004,-0.51,2.1912756921260024,0.33555555555555555,-0.0044444444444444444,-0.23222222222222222,-0.02843349494032483,0.018912118588560952,-0.009512110818102291
1592234278.1576617,-9.571179374657158,-0.5144541963795941,2.1732748217224356,0.33555555555555555,-0.0044444444444444444,-0.23222222222222222,-0.03083885730570617,0.003653056460307662,-0.004882111000761705
1592234278.1676617,-9.61874262631444,-0.5156286868427802,2.14874262631444,0.33555555555555555,-0.0044444444444444444,-0.22590810321734917,-0.007680858759337703,-0.08233520243755116,0.04090937172089299
1592234278.1776617,-9.63,-0.51,2.16,0.33555555555555555,-0.0044444444444444444,-0.21777777777777776,0.061086523819801536,-0.11671889372712078,0.03599741582238304
1592234278.1876616,-9.553960842139755,-0.5161882526419268,2.19,0.33555555555555555,-0.0044444444444444444,-0.21777777777777776,0.05415317584303942,-0.07222154072113157,0.051830234400343
1592234278.1976616,-9.46867539069855,-0.4895584635661834,2.2474284503859914,0.33555555555555555,-0.0044444444444444444,-0.21777777777777776,0.006833969615139253,-0.03160020320282616,0.10362892433716332
1592234278.2076616,-9.398587712396061,-0.5122095570252855,2.410432766943836,0.33555555555555555,-0.0044444444444444444,-0.21777777777777776,0.023128591188173585,-0.011745679297558282,-0.017336468331340865
1592234278.2176616,-9.364849771293612,-0.5549499237645371,2.535050076235463,0.3284056656734465,-0.011044342797160519,-0.21447782860141973,0.03274677335453949,0.02223010016340552,-0.17977950525528005
1592234278.2276616,-9.38,-0.56,2.53,0.3211111111111111,-0.017777777777777778,-0.2111111111111111,0.030543261909900768,0.09053895494720585,-0.20071286397934787
1592234278.2376616,-9.506732961435848,-0.5466335192820762,2.2786126606839683,0.3211111111111111,-0.017777777777777778,-0.2111111111111111,0.05717667727511742,0.09153268776773864,-0.05288875719461291
1592234278.2476616,-9.618372331841854,-0.5247751778772097,2.0407283796669846,0.3211111111111111,-0.017777777777777778,-0.2111111111111111,0.02549325868196258,0.011298696102511704,-0.040398025473651296
1592234278.2576616,-9.72276549088403,-0.5340423532360128,1.9546807844120042,0.3211111111111111,-0.017777777777777778,-0.2111111111111111,-0.0064519008327044314,-0.08942468234036278,-0.045977618765053144
1592234278.2676616,-9.75508693966417,-0.535260818992514,1.9403477586566853,0.3249323802612001,-0.015048299813428508,-0.2111111111111111,0.014550873844525778,-0.13318103948489537,-0.013298609606133013
1592234278.2776616,-9.743313397632987,-0.51856715663564,1.9266866023670133,0.3288888888888889,-0.012222222222222223,-0.2111111111111111,0.054847613111808066,-0.16082428389282227,-0.0012992294022750822
1592234278.2876616,-9.570786938444376,-0.5194097961667173,2.1335244904167934,0.3288888888888889,-0.012222222222222223,-0.2111111111111111,0.008898329595782874,-0.21016551393321714,0.035181919977279714
1592234278.2976615,-9.53,-0.55,2.21,0.3288888888888889,-0.012222222222222223,-0.2111111111111111,0.0,-0.22907446432425577,0.07744898555724837
1592234278.3076615,-9.437186186252283,-0.5352092091651444,2.379848348117007,0.3288888888888889,-0.012222222222222223,-0.2111111111111111,0.023011288202379073,-0.2625747076685918,-1.1956809580784822e-05
1592234278.3176615,-9.383558948058917,-0.5641102629852704,2.5634334188085157,0.33436923953591613,-0.009025351011456325,-0.21704815764539065,0.02817581629607907,-0.17671458676442586,0.04669551315932581
1592234278.3276615,-9.35843926380368,-0.5680490797546012,2.6380490797546012,0.3422222222222222,-0.0044444444444444444,-0.22555555555555556,-0.027425225847442183,-0.17475671281517946,-0.08923049338528126
1592234278.3376615,-9.357879822377372,-0.5436748889858569,2.537915244231115,0.3422222222222222,-0.0044444444444444444,-0.22555555555555556,0.06536498060050357,-0.10535962667366248,-0.01876767095426479
1592234278.3476615,-9.4,-0.57,2.48,0.3422222222222222,-0.0044444444444444444,-0.22555555555555556,0.14289883250703572,-0.0818123086872342,-0.03599741582238304
1592234278.3576615,-9.42677010740346,-0.5464597851930804,2.47338505370173,0.3422222222222222,-0.0044444444444444444,-0.22555555555555556,0.049135053721569885,-0.020184170436113605,0.03918217307127202
1592234278.3676615,-9.443167687620795,-0.5263353752415895,2.483167687620795,0.33166326348623987,0.0011870002147461442,-0.2209800067699632,0.0038890706274374905,0.06705552327603881,-0.008177889804152271
1592234278.3776615,-9.45,-0.54,2.49,0.3088888888888889,0.013333333333333334,-0.2111111111111111,-0.006544984694978735,0.10581058590215622,0.014180800172453926
1592234278.3876615,-9.451900484131254,-0.5280995158687467,2.4297512103281336,0.3088888888888889,0.013333333333333334,-0.2111111111111111,0.06465528322596893,0.09076888611564116,-0.044886894541818254
1592234278.3976614,-9.42202878839397,-0.5310143941969852,2.462899240621104,0.3088888888888889,0.013333333333333334,-0.2111111111111111,-0.013469775823577456,-0.06337883862636015,-0.04475546534867614
1592234278.4076614,-9.382171216131574,-0.5271315135473703,2.554263027094741,0.3088888888888889,0.013333333333333334,-0.2111111111111111,-0.07461553204731844,-0.03339403894022837,0.018170587648877634
1592234278.4176614,-9.359241892675188,-0.5461612617834589,2.5769193691082704,0.3126541044232249,0.01196416404812024,-0.2203530037862995,-0.11093395309210227,0.011151139888782144,0.06886670074620652
1592234278.4276614,-9.401603373634508,-0.56,2.5397552769116887,0.3211111111111111,0.008888888888888889,-0.2411111111111111,-0.03326988619864957,0.06571403348572452,-0.028640516925731007
1592234278.4376614,-9.45024009545377,-0.5478559427277376,2.419039618184917,0.3211111111111111,0.008888888888888889,-0.2411111111111111,0.033915017282061755,0.1521961681127579,-0.07100509668027878
1592234278.4476614,-9.49245433410827,-0.5341514447027566,2.3124543341082697,0.3211111111111111,0.008888888888888889,-0.2411111111111111,0.012190061165539938,0.13365665911206162,-0.016772564841327935
1592234278.4576614,-9.521074173712528,-0.5363086087624904,2.3373827824750193,0.3211111111111111,0.008888888888888889,-0.2411111111111111,0.09384121246977487,0.11210633965932015,0.0035068406977643565
1592234278.4676614,-9.859941538652901,-0.8152490826543939,2.6313943653212264,0.3241092245924636,0.000751152296646419,-0.23554318607431363,0.14227706099627138,-0.016526096531114462,0.06440121386283869
1592234278.4776614,-10.37,-1.27,3.08,0.3288888888888889,-0.012222222222222223,-0.22666666666666666,0.1778054175469223,-0.19416787928436915,0.15489797111449674
1592234278.4876614,-9.78952989669206,0.31499686945632893,2.1470765939684857,0.3288888888888889,-0.012222222222222223,-0.22666666666666666,0.12596955537968582,-0.14371220320058978,0.11442482525429992
1592234278.4976614,-9.95,0.0,2.26,0.3288888888888889,-0.012222222222222223,-0.22666666666666666,0.04363323129985824,-0.1832595714594046,0.19416787928436915
1592234278.5076613,-9.734451219512195,-0.11186585365853659,2.336682926829268,0.3288888888888889,-0.012222222222222223,-0.22666666666666666,0.12915835549190657,-0.11486315111543474,0.19400558494843675
1592234278.5176613,-9.76248816920452,-0.2927943212181695,2.5837990535363615,0.3264774097085851,-0.01394470735101067,-0.22253270235757439,0.11854868572250951,-0.15302112270960005,0.19881719301064804
1592234278.5276613,-9.59,-0.21,2.57,0.3211111111111111,-0.017777777777777778,-0.21333333333333335,0.23671027980173093,-0.14398966328953217,0.23343778745424157
1592234278.5376613,-9.21,-0.09118124529965509,2.4339104276341383,0.3211111111111111,-0.017777777777777778,-0.21333333333333335,0.07736242291119566,-0.023880568989358177,0.18124447226694712
1592234278.5476613,-9.21,-0.11,2.39,0.3211111111111111,-0.017777777777777778,-0.21333333333333335,-0.01090830782496456,0.01854412330243975,0.2476185876266955
1592234278.5576613,-9.228862661855231,-0.018862661855232436,2.304431330927616,0.3211111111111111,-0.017777777777777778,-0.21333333333333335,0.05307851530480038,0.0750320694656122,0.18717169678366496
1592234278.5676613,-9.34597111586037,-0.1210433262094424,2.374927789650929,0.3211111111111111,-0.017777777777777778,-0.21963617785261463,0.08684273337017087,0.014110720246527077,0.07305768697296111
1592234278.5776613,-9.36,-0.1,2.41,0.3211111111111111,-0.017777777777777778,-0.23444444444444446,0.08072147790473774,-0.05781403147231216,0.13962634015954636
1592234278.5876613,-9.446839199280033,-0.005231192080363871,2.3594271884805296,0.3211111111111111,-0.017777777777777778,-0.23444444444444446,0.06515324010237832,-0.03408375906691502,0.10592350823354302
1592234278.5976613,-9.44,0.08947914709750142,2.266232622581251,0.3211111111111111,-0.017777777777777778,-0.23444444444444446,0.1342460883419237,-0.10558524214878356,0.12092501160367386
1592234278.6076612,-9.44,0.0961788617886179,2.328617886178862,0.3211111111111111,-0.017777777777777778,-0.23444444444444446,0.05271461927771491,-0.10485278326386664,0.1441315599766862
1592234278.6176612,-9.459740860419439,0.008460368751187986,2.425510676043845,0.3203277436341493,-0.015897695833069336,-0.23146764803198944,0.07607879482906031,-0.18903880441804236,0.09090311812232932
1592234278.6276612,-9.569714919886247,0.07371344015167279,2.5268567200758363,0.31555555555555553,-0.0044444444444444444,-0.21333333333333335,0.05061519396384425,-0.06435740202726917,0.07177634266026245
1592234278.6376612,-9.511603635158801,0.1831921238225967,2.5048033322289016,0.31555555555555553,-0.0044444444444444444,-0.21333333333333335,-0.00017162500691144528,-0.10336818237419616,0.10938590035119061
1592234278.6476612,-9.453855263157894,0.35318421052631577,2.4674868421052634,0.31555555555555553,-0.0044444444444444444,-0.21333333333333335,-0.016379685381380994,-0.05212161715207408,0.1274678828456944
1592234278.6576612,-9.5,0.34,2.54,0.31555555555555553,-0.0044444444444444444,-0.21333333333333335,0.07853981633974483,0.001090830782496456,0.04908738521234052
1592234278.6676612,-9.474540965618141,0.45,2.5378163862472567,0.3140766479720393,-0.010360074778509306,-0.2194954482646509,-0.010208883405902272,-0.04039106197338925,0.1861709804644802
1592234278.6776612,-9.28,0.45,2.46,0.3088888888888889,-0.03111111111111111,-0.2411111111111111,0.04581489286485115,0.020725784867432664,0.1810779098944117
1592234278.6876612,-9.43918227622285,0.35770545550975147,2.399837274896941,0.3088888888888889,-0.03111111111111111,-0.2411111111111111,0.06047942853654623,0.0007686384836814164,0.12802084312251974
1592234278.6976612,-9.278186640888407,0.27732393369957326,2.2870070497253203,0.3088888888888889,-0.03111111111111111,-0.2411111111111111,-0.006168557671834465,0.04371005471596455,0.051683846929647656
1592234278.7076612,-9.441276539727316,0.22,2.351724494593324,0.3088888888888889,-0.03111111111111111,-0.2411111111111111,0.05019290400311656,0.042654817117043595,-0.04076634132625735
1592234278.7176611,-9.58964542936288,0.22224561403508772,2.428936288088643,0.3090596080845388,-0.03111111111111111,-0.24069087924489585,-0.029367219415309016,-0.051655823342872345,0.09963948522053177
1592234278.7276611,-9.56,0.41,2.34,0.3233333333333333,-0.03111111111111111,-0.20555555555555555,-0.11344640137963141,-0.0839939702522271,0.1308996938995747
1592234278.7376611,-9.643652396861162,0.33783052339885533,2.479737135161733,0.3233333333333333,-0.03111111111111111,-0.20555555555555555,0.0562387636800457,-0.06416301523576629,0.011807855484464006
1592234278.747661,-9.40538698433919,0.3414049369747899,2.2461833938120703,0.3233333333333333,-0.03111111111111111,-0.20555555555555555,-0.004409208439352677,-0.03839381646855591,0.1712169954535191
1592234278.757661,-9.543613943929582,0.21756330218310133,2.543340183799294,0.3233333333333333,-0.03111111111111111,-0.20555555555555555,0.026244147594829424,-0.08795858963426569,0.1871988118632161
1592234278.767661,-9.281469910571328,0.06357831842855469,2.6238657398367633,0.32304933980725753,-0.030145533122453494,-0.20595314649206162,0.0016240415805012258,-0.06669407647668064,0.246593827783538
1592234278.777661,-9.68,0.13,2.51,0.31777777777777777,-0.012222222222222223,-0.21333333333333335,-0.008726646259971648,-0.15053464798451094,0.025089107997418484
1592234278.787661,-9.309568416013706,0.1770431583986294,2.625215791993147,0.31777777777777777,-0.012222222222222223,-0.21333333333333335,-0.030238749424197187,-0.06955974863296156,0.10926438410417506
1592234278.797661,-9.38,0.17,2.59,0.31777777777777777,-0.012222222222222223,-0.21333333333333335,-0.008726646259971648,-0.1287180323345818,0.13308135546456762
1592234278.807661,-9.722046956249756,0.20180728779763069,2.6691562732142162,0.31777777777777777,-0.012222222222222223,-0.21333333333333335,-0.05935143883234001,-0.10799171435596404,0.07421624197971977
1592234278.817661,-9.549564772145418,0.20997823860727086,2.620097926267281,0.3177681060476759,-0.012229476019798602,-0.21332487056949423,-0.021840353646988053,-0.03401871413224403,0.11888631249387832
1592234278.827661,-9.263590094510148,0.16506558900996746,2.7460163714300467,0.3088888888888889,-0.01888888888888889,-0.20555555555555555,-0.024895988753375835,-0.17652684759267204,0.12364118768026044
1592234278.837661,-9.56,0.1,2.84,0.3088888888888889,-0.01888888888888889,-0.20555555555555555,0.02399827721492203,-0.062177354602297986,0.17016960206944715
1592234278.847661,-9.130772418189546,0.40147126009349765,2.5801931045473863,0.3088888888888889,-0.01888888888888889,-0.20555555555555555,-0.0025868984786136997,-0.014759565176713556,0.04664793780289714
1592234278.857661,-9.41,0.13,2.65,0.3088888888888889,-0.01888888888888889,-0.20555555555555555,0.02617993877991494,0.1265363707695889,0.1287180323345818
1592234278.867661,-9.622955741256577,0.2782949895113312,2.5625014615358164,0.30700131060597374,-0.017291707264883785,-0.21208948038103098,0.039282137298628346,-0.055893007903013235,0.10779403054584127
1592234278.877661,-9.31,0.4,2.18,0.29444444444444445,-0.006666666666666667,-0.25555555555555554,0.08290313946973066,0.02945243112740431,0.07744898555724837
1592234278.887661,-9.079115641323273,0.2220937318630296,2.684326030179919,0.29444444444444445,-0.006666666666666667,-0.25555555555555554,-0.11274089090183428,-0.02635720669581686,-0.07775350651277989
1592234278.897661,-9.27,0.01,2.55,0.29444444444444445,-0.006666666666666667,-0.25555555555555554,-0.19525871006686563,-0.11890055529211369,-0.04690572364734761
1592234278.907661,-9.105429210610419,0.1867913071268776,2.607405560882071,0.29444444444444445,-0.006666666666666667,-0.25555555555555554,-0.04236718429771246,-0.0439699281262357,-0.1684457477858778
1592234278.917661,-9.563623188405797,0.014782608695652174,2.8971497584541064,0.29444444444444445,-0.006666666666666667,-0.2549114331723027,-0.058146023449593694,-0.024446202898555845,-0.1755974074123039
1592234278.927661,-9.13,0.34,2.59,0.29444444444444445,-0.006666666666666667,-0.24888888888888888,0.030543261909900768,0.12435470920459597,-0.12435470920459597
1592234278.937661,-9.341420225478599,0.20163146078265698,2.486652584313063,0.29444444444444445,-0.006666666666666667,-0.24888888888888888,0.04507538317134596,0.06976247724592953,-0.19228861034848102
1592234278.947661,-9.140219315943131,0.1476169566352567,2.4912280743395603,0.29444444444444445,-0.006666666666666667,-0.24888888888888888,0.041735443098879735,-0.009479387076461156,-0.33063974012024755
1592234278.957661,-9.545325011109766,0.09440249666707065,2.598804993334141,0.29444444444444445,-0.006666666666666667,-0.24888888888888888,0.08580748248756401,-0.08325767159291508,-0.3035231253889292
1592234278.967661,-9.46060194723872,0.11981941582838443,2.6496388316567687,0.29444444444444445,-0.006666666666666667,-0.24888888888888888,0.03959821945858888,0.009160854465035173,-0.2610106034022721
1592234278.977661,-9.445544083869647,0.35036272257976486,2.5687565096763922,0.31555555555555553,-0.006666666666666667,-0.23444444444444446,0.0522354961088614,-0.048821679244784984,-0.27916228422668565
1592234278.987661,-9.381260067614596,0.28373545789002685,2.5462824400914785,0.31555555555555553,-0.006666666666666667,-0.23444444444444446,0.10552494377570655,-0.1649913284488292,-0.21898696409067453
1592234278.9976609,-9.362346745112925,0.17,2.7823903966597077,0.31555555555555553,-0.006666666666666667,-0.23444444444444446,-0.014496517944954802,-0.16413421691349192,-0.26023963848897136
1592234279.0076609,-8.982541269562844,0.17127443528425812,2.655590247325031,0.31555555555555553,-0.006666666666666667,-0.23444444444444446,-0.08953507767969526,-0.030564585718099016,-0.3552585776880253
1592234279.0176609,-9.83269855191097,0.17944902453760547,2.434876337484652,0.31555555555555553,-0.006666666666666667,-0.23444444444444446,0.06383893209954039,-0.03769826059155183,-0.2830301195943155
1592234279.0276608,-9.49783273639905,0.10332958615461034,2.6066591723092207,0.3288888888888889,0.006666666666666667,-0.22666666666666666,-0.00873155130544992,-0.13234636862089608,-0.21355170644790036
1592234279.0376608,-9.84,0.08,2.56,0.3288888888888889,0.006666666666666667,-0.22666666666666666,-0.039269908169872414,-0.0839939702522271,-0.15926129424448257
1592234279.0476608,-9.82393911789266,-0.09983678736810142,2.5233877375439664,0.3288888888888889,0.006666666666666667,-0.22666666666666666,0.1271354319926087,-0.15027192556269353,-0.11086632255927896
1592234279.0576608,-9.5,-0.05,2.54,0.3288888888888889,0.006666666666666667,-0.22666666666666666,-0.07853981633974483,-0.1810779098944117,-0.044724062082354694
1592234279.0676608,-9.331083317481454,-0.3084148119967028,2.9309907425020607,0.3288888888888889,0.006666666666666667,-0.22710699666758255,-0.023263379170154745,-0.18906824018868262,-0.12577985807644612
1592234279.0776608,-8.89,-0.23,2.98,0.3288888888888889,0.006666666666666667,-0.24888888888888888,0.01308996938995747,-0.044724062082354694,-0.08835729338221293
1592234279.0876608,-9.543112000627895,-0.22359809538759387,2.914635428930225,0.3288888888888889,0.006666666666666667,-0.24888888888888888,-0.032247701060512134,-0.023798478499272878,-0.10237382539193632
1592234279.0976608,-9.36,-0.18,2.81,0.3288888888888889,0.006666666666666667,-0.24888888888888888,0.10471975511965977,-0.044724062082354694,0.062177354602297986
1592234279.1076608,-9.5850277987813,-0.21670617800115644,2.6230640928701683,0.3288888888888889,0.006666666666666667,-0.24888888888888888,-0.00016408796452444105,-0.04526644509696698,-0.07202675650598936
1592234279.1176608,-9.827548369879464,-0.0021687497220121976,2.511131521594093,0.3288888888888889,0.006666666666666667,-0.24888888888888888,0.032395777185321294,-0.018811554662717313,0.015477881084221046
1592234279.1276608,-9.13,0.01,2.72,0.3422222222222222,0.017777777777777778,-0.2411111111111111,0.0916297857297023,-0.07526732399225547,0.11671889372712078
1592234279.1376607,-9.449990551999432,0.00444339466660368,2.551111321066679,0.3422222222222222,0.017777777777777778,-0.2411111111111111,-0.016726759076269086,-0.1460476250508837,-0.09393164300058712
1592234279.1476607,-9.11094865571762,-0.04812648742901576,2.5782845967152856,0.3422222222222222,0.017777777777777778,-0.2411111111111111,-0.021104757252670952,-0.036150043197826956,-0.05547974253187535
1592234279.1576607,-9.622344239811913,-0.12149490595611286,2.7340203761755486,0.3422222222222222,0.017777777777777778,-0.2411111111111111,0.18039966704796723,0.005982899084092042,-0.09255754756881222
1592234279.1676607,-9.318290360501567,-0.13793025078369908,2.668278996865204,0.3422222222222222,0.017777777777777778,-0.2411111111111111,-0.0069498145672758915,0.05976743926071686,-0.09076472956292474
1592234279.1776607,-9.45,-0.004874442619103497,2.607965266369397,0.3477777777777778,0.017777777777777778,-0.23222222222222222,0.02085506661940654,-0.14044606326810155,-0.06117433300975607
1592234279.1876607,-9.444594442188839,0.027837776875535705,2.441893354987143,0.3477777777777778,0.017777777777777778,-0.23222222222222222,-0.19219213558870257,-0.04743696665327716,-0.009817477042468103
1592234279.1976607,-9.422375140325316,0.021474430936059427,2.849346024315093,0.3477777777777778,0.017777777777777778,-0.23222222222222222,-0.06259727768543018,-0.21079883437490135,-0.007564477796665119
1592234279.2076607,-9.766466728540285,0.20679091752822085,2.5335332714597136,0.3477777777777778,0.017777777777777778,-0.23222222222222222,-0.11352063654522705,-0.15578370753368728,0.016091937775285774
1592234279.2176607,-9.368139042973386,0.15247350586000735,2.931860957026613,0.3477777777777778,0.017777777777777778,-0.23222222222222222,0.0513949381285671,-0.05999442164531581,-0.21004977839416852
1592234279.2276607,-8.72,-0.05,2.89,0.36,0.024444444444444446,-0.24666666666666667,-0.10035643198967394,0.038179077387375956,-0.022907446432425576
1592234279.2376606,-9.862044693025414,-0.06296020413423373,3.084671632558379,0.36,0.024444444444444446,-0.24666666666666667,0.16818275380647796,-0.0065883952503726865,0.05979595949746141
1592234279.2476606,-9.163735838233185,-0.12040585114011186,2.9986992686074863,0.36,0.024444444444444446,-0.24666666666666667,0.020663366757262568,0.05295355357009435,-0.10565164655395368
1592234279.2576606,-9.53615065807897,-0.18689330719686362,2.979644357322879,0.36,0.024444444444444446,-0.24666666666666667,0.049945448406972986,0.10392559609744352,-0.04281738395908772
1592234279.2676606,-9.128975077009242,-0.1634024082889947,2.9013413609633156,0.36,0.024444444444444446,-0.24666666666666667,-0.001303742867458657,0.07317608133278453,-0.12737854956189992
1592234279.2776606,-9.265664310683576,-0.05,2.847762241330918,0.3688888888888889,0.03,-0.2311111111111111,0.026713900601032344,-0.01485209350031618,0.036378848933131216
1592234279.2876606,-9.39,-0.05,2.83,0.3688888888888889,0.03,-0.2311111111111111,0.08290313946973066,0.04908738521234052,-0.0818123086872342
1592234279.2976606,-9.330097493036211,-0.05,2.5304874651810585,0.3688888888888889,0.03,-0.2311111111111111,-0.00857775849300138,0.03384056888521851,-0.17002603172272582
1592234279.3076606,-9.568381524386842,-0.11323695122631511,2.6708092378065786,0.3688888888888889,0.03,-0.2311111111111111,0.00441370754888021,0.03783867830610157,-0.10849055423807442
1592234279.3176606,-9.552783242529612,-0.14443351494077614,2.678608378735194,0.3688888888888889,0.03,-0.2311111111111111,0.046951422558687804,-0.028520157109198287,0.023376362292329117
1592234279.3276606,-9.259597924773022,-0.3876005188067445,2.8794001297016862,0.35,0.035555555555555556,-0.22333333333333333,0.04033774803120731,-0.0218604752533758,-0.0021809541520340942
1592234279.3376606,-9.412088013540545,-0.3468679796891829,2.8703480022567573,0.35,0.035555555555555556,-0.22333333333333333,0.12305398707058209,-0.00317648446818671,-0.04988235954626327
1592234279.3476605,-9.465913156958122,-0.26306513228140943,2.8983907936884563,0.35,0.035555555555555556,-0.22333333333333333,0.049144508561183076,0.050410876521681455,0.06324170727611028
1592234279.3576605,-9.411394725430677,-0.30213387471912323,3.054337525131076,0.35,0.035555555555555556,-0.22333333333333333,-0.006511529168161129,-0.02181511058124195,0.16971016910219866
1592234279.3676605,-9.221248275318326,-0.42614242914022155,2.99646686640123,0.35,0.035555555555555556,-0.22333333333333333,0.10531361222165353,0.1008318186850064,-0.013358409140804411
1592234279.3776605,-9.3,-0.33,2.85,0.37666666666666665,0.022222222222222223,-0.2311111111111111,0.08290313946973066,0.025089107997418484,0.007635815477475192
1592234279.3876605,-9.469296478362478,-0.34692964783624786,2.883859295672496,0.37666666666666665,0.022222222222222223,-0.2311111111111111,0.027500996479919514,0.03616953659538071,-0.018218517917770006
1592234279.3976605,-9.29,-0.25291672638669915,2.5476735464144094,0.37666666666666665,0.022222222222222223,-0.2311111111111111,0.16076506266517648,0.19826609056157393,-0.09923537418248457
1592234279.4076605,-9.311742940603699,-0.14,2.6694823109380073,0.37666666666666665,0.022222222222222223,-0.2311111111111111,-0.008013233722895906,0.15468713381135601,0.03866660545861829
1592234279.4176605,-9.669095666991238,-0.14,2.660973912690685,0.37666666666666665,0.022222222222222223,-0.2311111111111111,-0.03214441278948286,0.07950922979621974,0.010822937304864114
1592234279.4276605,-9.27,-0.17,2.5,0.38222222222222224,0.021111111111111112,-0.2288888888888889,-0.028361600344907853,-0.016362461737446838,0.053450708342326333
1592234279.4376605,-9.595847162632559,-0.19506516635635068,2.558485388164818,0.38222222222222224,0.021111111111111112,-0.2288888888888889,-0.06664019738677046,-0.016362461737446838,0.11998255558175419
1592234279.4476604,-9.582857288325442,-0.2096428389593198,2.5314286441627205,0.38222222222222224,0.021111111111111112,-0.2288888888888889,-0.011064259804866305,0.10355078173184933,0.10468085043236591
1592234279.4576604,-9.483671141736961,-0.2966959724367352,2.5877973149578235,0.38222222222222224,0.021111111111111112,-0.2288888888888889,-0.1337700420248844,0.040742017812070014,0.18874249624437284
1592234279.4676604,-9.6801248365236,-0.275985019617168,2.606009986921888,0.38222222222222224,0.021111111111111112,-0.2288888888888889,-0.05907346052103682,0.010236378888558169,0.08632788902072147
1592234279.4776604,-9.600320818956652,-0.33,2.749679181043347,0.4033333333333333,0.021111111111111112,-0.2288888888888889,-0.004403902443878935,0.04768754843823909,0.0788607368964855
1592234279.4876604,-9.61948906610607,-0.33,2.7305109338939286,0.4033333333333333,0.021111111111111112,-0.2288888888888889,-0.13717804657937246,-0.03594970771010331,0.03286024601489718
1592234279.4976604,-9.11,-0.38,2.47,0.4033333333333333,0.021111111111111112,-0.2288888888888889,-0.05890486225480862,-0.04036073895236887,0.15053464798451094
1592234279.5076604,-9.266485148514851,-0.38920500873616776,2.571255096097845,0.4033333333333333,0.021111111111111112,-0.2288888888888889,-0.006691106465493694,-0.012245639681199294,-0.017151836954250488
1592234279.5176604,-9.447120313935043,-0.3649319529097437,2.538219921516239,0.4033333333333333,0.021111111111111112,-0.2288888888888889,-0.2683396364833834,0.0011205219267808215,-0.07538608856939291
1592234279.5276604,-9.400951358876933,-0.448929721263451,2.4805945992980827,0.40882282230021305,0.027698497871366738,-0.2376720712358964,-0.09219821876733117,-0.19397563843294796,0.07121767364057605
1592234279.5376604,-9.722855080510827,-0.26551138256524154,2.498448861743476,0.4088888888888889,0.027777777777777776,-0.23777777777777778,0.08362331794481091,-0.016234493537710087,0.08314795557316489
1592234279.5476604,-9.280726285057911,-0.27760433617306407,2.4355898822628506,0.4088888888888889,0.027777777777777776,-0.23777777777777778,-0.05238352771511229,0.01697616499427874,-0.036452668259607565
1592234279.5576603,-9.258434724477127,-0.4366951580555821,2.8171292140196735,0.4088888888888889,0.027777777777777776,-0.23777777777777778,-0.17102296281386692,0.1422154876003615,0.01945452061007385
1592234279.5676603,-9.639105794685753,-0.2756113344445534,2.81967153642514,0.4088888888888889,0.027777777777777776,-0.23777777777777778,-0.16675379045060318,0.0791061413709556,-0.009648274738525617
1592234279.5776603,-9.4035175153485,-0.4428015529071867,2.711967316720838,0.4088888888888889,0.026787548653745837,-0.22391457004133059,-0.1916984416678726,0.2140936624863794,0.043436456299548745
1592234279.5876603,-9.681777092031222,-0.4004265746959521,2.682606643673988,0.4088888888888889,0.02666666666666667,-0.2222222222222222,-0.025448494069342797,0.056038288060181435,-0.09956796072884605
1592234279.5976603,-8.989614618655471,-0.6919993002852682,2.3098073093277356,0.4088888888888889,0.02666666666666667,-0.2222222222222222,-0.09564100636748557,0.04432992100679096,-0.05947505457647363
1592234279.6076603,-9.789894734335183,-0.7,2.622101502774536,0.4088888888888889,0.02666666666666667,-0.2222222222222222,-0.10456310195767797,0.19272040926345047,-0.021613486118662838
1592234279.6176603,-9.637446108144996,-0.6671325920276183,2.695734815944763,0.4088888888888889,0.02666666666666667,-0.2222222222222222,-0.0007466920839440255,0.08072432419757472,-0.08884606754600505
1592234279.6276603,-10.015423302843448,-0.5054238873140653,2.7293220140857417,0.41532956025080286,0.02129944053173838,-0.22866289358413616,-0.0034758416435396594,-0.03710664016873294,-0.18056014860479752
1592234279.6376603,-9.378337594960163,-0.5838773392625533,2.807425236242357,0.41555555555555557,0.021111111111111112,-0.2288888888888889,-0.045184608130343654,-0.13537579886699486,0.011697255180235344
1592234279.6476603,-9.654736730529718,-0.5699573363012429,2.687027055674802,0.41555555555555557,0.021111111111111112,-0.2288888888888889,0.10359475728665822,0.10804650428085308,-0.05326137316397747
1592234279.6576602,-9.596426654740608,-0.6081098074292328,2.66,0.41555555555555557,0.021111111111111112,-0.2288888888888889,0.1886685562765578,0.09725282155197601,-0.01883671802669351
1592234279.6676602,-9.128351628576569,-0.6747927538839902,2.878675544358467,0.41555555555555557,0.021111111111111112,-0.2288888888888889,-0.04852610235874716,0.1434933552405108,-0.15330095192498255
1592234279.6776602,-9.657420276909335,-0.5065002233139795,2.7078686913800807,0.4219941442112054,0.03935377896878567,-0.23532747754453873,0.015380567874542256,0.12539964616855237,0.03263566925454828
1592234279.6876602,-9.339096764120379,-0.2878824310082361,2.4651555486162615,0.4222222222222222,0.04,-0.23555555555555555,-0.033252902775528205,0.08055695274202387,0.002347591833910069
1592234279.6976602,-9.425119744129807,-0.40582832774267363,2.705908157162545,0.4222222222222222,0.04,-0.23555555555555555,-0.033961635181913086,0.06654067773228381,0.03275104759145708
1592234279.7076602,-9.497493158717749,-0.3145958756841282,2.442534206411259,0.4222222222222222,0.04,-0.23555555555555555,0.11883706919643575,0.02054945236994936,0.06317404899103521
1592234279.7176602,-9.659811366468226,-0.2863242420047072,2.5069462134847016,0.4222222222222222,0.04,-0.23555555555555555,0.09768232594537529,0.0030483759303185608,-0.031198092627456445
1592234279.7276602,-9.61,-0.36,2.3,0.43555555555555553,0.02666666666666667,-0.20777777777777778,-0.039269908169872414,-0.0839939702522271,-0.04036073895236887
1592234279.7376602,-9.597501194457715,-0.48498805542283807,2.568724319159102,0.43555555555555553,0.02666666666666667,-0.20777777777777778,-0.11357565414315705,-0.025367418383397032,-0.12012011765763768
1592234279.7476602,-9.392965543354789,-0.5846293070806513,2.311301779628929,0.43555555555555553,0.02666666666666667,-0.20777777777777778,0.03078992762111124,-0.21406924225030124,-0.269184737624786
1592234279.7576602,-9.304159103464604,-0.5624954620787626,2.4308681240628207,0.43555555555555553,0.02666666666666667,-0.20777777777777778,0.06399408587867891,-0.16788136260936065,-0.06523075103459094
1592234279.7676601,-9.152328914367612,-0.8317147975635973,2.538602651379434,0.43555555555555553,0.02666666666666667,-0.20777777777777778,0.03878339216913734,-0.12640012440241646,0.005534197676099369
1592234279.7776601,-9.892018312463998,-0.7146526998756935,2.99787678501046,0.4304150286174359,0.037975825930529866,-0.1964686185139146,0.013741894817740574,-0.32972110763844253,0.018155256663850376
1592234279.7876601,-9.426773111927192,-0.6166813028899888,2.976677311192719,0.43,0.03888888888888889,-0.19555555555555557,0.09670363802737045,-0.008430817410527258,-0.1370504433277195
1592234279.79766,-9.384844030310333,-0.10333065574209443,2.806099820601387,0.43,0.03888888888888889,-0.19555555555555557,-0.13420116057261197,-0.17604414657427875,0.022634351730941082
1592234279.80766,-9.373188722809576,-0.27700287600761536,2.9004338315712723,0.43,0.03888888888888889,-0.19555555555555557,0.042751402405043853,-0.035113642723962335,-0.09613941018106562
1592234279.81766,-9.270432637571158,-0.514034155597723,2.8253320683111953,0.43,0.03888888888888889,-0.19555555555555557,0.10006126601323372,-0.10166335904103689,-0.11582014851695009
1592234279.82766,-9.397170400904196,0.06885845356026854,2.288665647230902,0.43545730558695117,0.01924258877586449,-0.20210432225989702,-0.08016376972593331,-0.2741089283578826,0.014510493459950022
1592234279.83766,-9.306982129978364,-0.3493132462537062,2.759399791649972,0.43555555555555553,0.01888888888888889,-0.20222222222222222,0.19808172313848377,-0.15265905382688702,-0.03671245675521588
1592234279.84766,-9.230302830059701,-0.44854509410746024,2.783271886250741,0.43555555555555553,0.01888888888888889,-0.20222222222222222,0.06556761471735487,-0.17204749835638122,-0.023171715513214494
1592234279.85766,-9.708389354257235,-0.5520973385643091,2.844654861626551,0.43555555555555553,0.01888888888888889,-0.20222222222222222,0.08589954093843527,-0.1840965189243759,0.03528885582094383
1592234279.86766,-9.474253874872723,-0.6039717916808085,2.9085311309725834,0.43555555555555553,0.01888888888888889,-0.20222222222222222,0.05158822903933102,-0.21449372988821883,0.045718755611817465
1592234279.87766,-9.296972697464533,-0.8329016654221991,3.1253442846475994,0.43555555555555553,0.026033395015637006,-0.20834608461657778,0.04226224721020568,-0.164451372412879,0.10520020511563839
1592234279.88766,-9.39826625885383,-0.7491242755956213,3.0328195428203477,0.43555555555555553,0.02666666666666667,-0.2088888888888889,-0.024334552319313647,-0.18321373970888438,0.08541528132008389
1592234279.89766,-9.365071937783538,-0.48617265068049254,2.783158263123785,0.43555555555555553,0.02666666666666667,-0.2088888888888889,-0.015423088885502582,-0.027143234971897884,0.09313811555750731
1592234279.90766,-8.715929318427694,-0.5976602957086188,2.7760576992426973,0.43555555555555553,0.02666666666666667,-0.2088888888888889,-0.09371357542355019,0.12549801630385585,-0.08862305799694593
1592234279.91766,-8.941772070626003,-0.6440128410914928,2.9048667736757623,0.43555555555555553,0.02666666666666667,-0.2088888888888889,-0.07127764980124995,0.14189414759050847,-0.08738167394078913
1592234279.92766,-9.369054990757856,-0.6858109981515711,2.9925670055452867,0.44082588827274594,0.005585335797905114,-0.2036185561716985,-0.07066859514349615,0.12151686049953155,-0.021138122935862473
1592234279.93766,-9.381972277502662,-0.6016950525292729,2.8676118850372565,0.44222222222222224,0.0,-0.20222222222222222,-0.12187884592788936,0.1648817712010216,0.10446745601124462
1592234279.94766,-9.01256218791516,-0.6029648632553025,2.6562810939575794,0.44222222222222224,0.0,-0.20222222222222222,-0.05266305545883607,0.16669427486254354,0.033713262437567865
1592234279.95766,-9.466470924553922,-0.9272237177501965,2.8719060437858825,0.44222222222222224,0.0,-0.20222222222222222,-0.04483957159537841,0.25507735781458,-0.06263939265439286
1592234279.96766,-9.330131296553466,-0.7101312965534655,2.686778815806085,0.44222222222222224,0.0,-0.20222222222222222,-0.0879781673698139,0.24472611643111863,0.07374813452411891
1592234279.97766,-9.390926324017979,-0.3970510064490913,2.4735255032245456,0.45260764771024686,0.0037765183592816973,-0.1965574446832997,-0.1106090049139234,0.14129040603567833,0.13417836840315014
1592234279.98766,-9.32865896188159,-0.4500060827250608,2.572008515815085,0.45444444444444443,0.0044444444444444444,-0.19555555555555557,-0.14908308220480201,0.14050006642134158,0.19199086237599272
1592234279.99766,-9.175802573296773,-0.52,2.453333684876608,0.45444444444444443,0.0044444444444444444,-0.19555555555555557,-0.1646616083756731,0.21574198583395,0.049357044287870105
1592234280.00766,-9.413910944206009,-0.4551716738197425,2.508047210300429,0.45444444444444443,0.0044444444444444444,-0.19555555555555557,-0.16978102286366512,0.22300584028214834,0.005805279700839508
1592234280.01766,-9.61799142300195,-0.44803430799220273,2.6780557504873292,0.45444444444444443,0.0044444444444444444,-0.19555555555555557,-0.15160676666001718,0.1472130363561723,0.03339626284068273
1592234280.02766,-9.417475570594938,-0.39114257104381756,2.5300707848485895,0.4495079206135454,0.0044444444444444444,-0.19391004761192254,-0.08166929275266223,0.1329489988688115,0.010316017708782217
1592234280.03766,-9.51612750343984,-0.3013667634918208,2.513747133465831,0.4477777777777778,0.0044444444444444444,-0.19333333333333333,-0.05580630913773415,0.1461216279315494,-0.010734368594549668
1592234280.0476599,-9.782389552279037,-0.37088519906196926,2.4699113183643764,0.4477777777777778,0.0044444444444444444,-0.19333333333333333,-0.04967624388996138,0.098802147346057,0.028487181580845275
1592234280.0576599,-9.509131270841953,-0.39373682545091643,2.448131587274542,0.4477777777777778,0.0044444444444444444,-0.19333333333333333,-0.04308206742713567,0.09641223024570439,-0.05680367943045653
1592234280.0676599,-9.446861261476807,-0.3694162155695786,2.4088324311391576,0.4477777777777778,0.0044444444444444444,-0.19333333333333333,-0.03396709450920702,0.0753152804850709,-0.06166790658066134
1592234280.0776598,-9.398702055845352,-0.3844870614707988,2.4117305922061982,0.4515616014910277,0.01428238609889423,-0.17365745002443375,-0.09021539871633341,0.06362822536997559,-0.007954016294871108
1592234280.0876598,-9.632240487412346,-0.45495551212783075,2.5399110242556615,0.4533333333333333,0.01888888888888889,-0.16444444444444445,-0.20172604877718847,0.01588013370873155,0.15392860012001341
1592234280.0976598,-9.741923430105249,-0.29461255915801365,2.474998469543924,0.4533333333333333,0.01888888888888889,-0.16444444444444445,-0.17058822774164487,0.018460598504232067,0.2568914840122148
1592234280.1076598,-9.475027163708285,-0.1612567909270711,2.424723731317127,0.4533333333333333,0.01888888888888889,-0.16444444444444445,-0.06029235815485405,0.007274180617253923,0.08601259299260736
1592234280.1176598,-9.481134370889961,-0.08936979395002193,2.4672548589799796,0.4533333333333333,0.01888888888888889,-0.16444444444444445,-0.0669668955906354,0.036437382643907265,0.006651947643255093
1592234280.1276598,-9.380024788660776,-0.0808027712451535,2.491897921566135,0.449970267731661,0.004595860081781393,-0.15519601403984548,-0.15233143688226697,0.0067601278919587615,0.09082273873877503
1592234280.1376598,-9.389922468227958,-0.23847174486451922,2.49854927663656,0.4488888888888889,0.0,-0.15222222222222223,-0.13377556013967248,-0.11384503285094257,0.12207600546384424
1592234280.1476598,-9.720791537913001,-0.3723864986926551,2.5604540052293796,0.4488888888888889,0.0,-0.15222222222222223,-0.14759612046893394,-0.06296092736785641,0.12315212466235245
1592234280.1576598,-9.623688544639217,-0.554291072156543,2.520556053811659,0.4488888888888889,0.0,-0.15222222222222223,-0.11671382423224902,-0.017343097710362118,0.07701425413736719
1592234280.1676598,-9.372752268809835,-0.7032224368159824,2.412752268809835,0.4488888888888889,0.0,-0.15222222222222223,-0.12189411591312956,-0.05333313702255069,0.020227907706348056
1592234280.1776597,-9.560138325400121,-0.6855061815161486,2.4865185445484457,0.45283402016846097,-0.009468315070972963,-0.14196488089533485,-0.15788603829996534,-0.05730874295855314,0.10114454268120318
1592234280.1876597,-9.535143210385328,-0.7114856789614671,2.4840572841541313,0.45444444444444443,-0.013333333333333334,-0.13777777777777778,-0.0912559856902851,0.008545702765244752,0.08505378214991324
1592234280.1976597,-9.504090850063632,-0.5689050203880217,2.4450206477417344,0.45444444444444443,-0.013333333333333334,-0.13777777777777778,-0.022055503143319506,0.02504406161287262,-0.08634012194846108
1592234280.2076597,-9.508246690345496,-0.4351590248627704,2.3920713593800453,0.45444444444444443,-0.013333333333333334,-0.13777777777777778,-0.05662334582160849,0.010552035517410421,-0.0904974808352785
1592234280.2176597,-9.160694691051136,-0.6039579634232954,2.2069517933238636,0.45444444444444443,-0.013333333333333334,-0.13777777777777778,-0.12378893273628631,-0.016024288700117503,-0.05788414524064735
1592234280.2276597,-9.166191713209509,-0.676760618262112,2.18,0.44583062735420187,-0.0031533676812284424,-0.14091007490150237,-0.2528345694979547,-0.08627962841344711,-0.07555806107053611
1592234280.2376597,-9.267801164529073,-0.8025513415689669,2.255460303721772,0.44222222222222224,0.0011111111111111111,-0.14222222222222222,-0.168917494157333,-0.026869078787206138,-0.17051678992964056
1592234280.2476597,-9.386215512753774,-0.8397813638729827,2.1967829255596043,0.44222222222222224,0.0011111111111111111,-0.14222222222222222,-0.13111263587949984,-0.0833653655274881,-0.0320656551050455
1592234280.2576597,-10.107758937854914,-1.109966408062065,2.4107022314644486,0.44222222222222224,0.0011111111111111111,-0.14222222222222222,-0.1786007477407348,-0.18133327754220557,0.07219549634921638
1592234280.2676597,-10.04160478056596,-0.8814813692164462,2.1970060839630197,0.44222222222222224,0.0011111111111111111,-0.14222222222222222,-0.1101503385659734,-0.1450771167407039,0.042407732382999414
1592234280.2776597,-9.158888561320754,-0.743776533018868,2.7095088443396227,0.460582678197065,0.006054310796645703,-0.12386176624737945,-0.16501587684712055,-0.13003661263363603,0.12090270573010498
1592234280.2876596,-9.341539498730965,-0.8557665767766498,3.0303811072335023,0.4711111111111111,0.008888888888888889,-0.11333333333333333,-0.11260621596332249,-0.1029989366830748,0.1250675820022149
1592234280.2976596,-9.629084764542936,-0.20045761772853185,2.183485872576177,0.4711111111111111,0.008888888888888889,-0.11333333333333333,0.0669664945574068,0.003049370616244114,0.02965210452936377
1592234280.3076596,-9.51987870112258,-0.1603232125367287,2.257616213365479,0.4711111111111111,0.008888888888888889,-0.11333333333333333,0.033959001304319336,-0.06269084143489333,0.05671440698125493
1592234280.3176596,-9.335631424032892,-0.3156314240328911,2.5751361894972904,0.4711111111111111,0.008888888888888889,-0.11333333333333333,0.002019596442196292,-0.11380409133697356,0.167998744845974
1592234280.3276596,-9.397407407407407,-0.4159259259259259,2.2191358024691357,0.4489986282578875,0.0024691358024691353,-0.12260631001371741,-0.01564870826248002,0.057059876857252875,0.07501145010500321
1592234280.3376596,-9.374060059087782,-0.3630235946416286,2.062051479218099,0.43666666666666665,-0.0011111111111111111,-0.12777777777777777,0.003703677108209869,0.11082887546093793,0.008281422720310926
1592234280.3476596,-9.57,-0.5968900320861288,2.373815862745618,0.43666666666666665,-0.0011111111111111111,-0.12777777777777777,-0.033056358311038155,0.08097981657829388,-0.059232392072373984
1592234280.3576596,-9.4925042465421,-0.6509390924532881,2.433047803931085,0.43666666666666665,-0.0011111111111111111,-0.12777777777777777,-0.04891665338639773,0.049037092116326356,-0.06853546074050834
1592234280.3676596,-9.265681879617949,-0.7115915029735087,2.5420460893854746,0.43666666666666665,-0.0011111111111111111,-0.12777777777777777,0.018941119655882105,-0.05250883719678009,0.06711128012911996
1592234280.3776596,-9.26063685552584,-0.7273667516636607,2.483459792275639,0.4416867411599671,-0.0011111111111111111,-0.11845478229021981,0.03262736674467227,-0.004286458195812762,0.09096710552052104
1592234280.3876595,-9.43365157519715,-0.751825787598575,2.498556102638005,0.4444444444444444,-0.0011111111111111111,-0.11333333333333333,-0.026793975946700306,0.0628244909137586,0.05116119072542332
1592234280.3976595,-9.559100791556729,-0.8921097625329815,2.605605277044855,0.4444444444444444,-0.0011111111111111111,-0.11333333333333333,-0.017480462553153747,-0.02579737089704047,-0.0486789136961086
1592234280.4076595,-9.326466316254063,-0.8393989487621875,2.459699474381094,0.4444444444444444,-0.0011111111111111111,-0.11333333333333333,0.015377899748430358,-0.08423136808411977,-0.08782376101297039
1592234280.4176595,-9.413008012820512,-0.9833701923076923,2.5581891025641026,0.4444444444444444,-0.0011111111111111111,-0.11333333333333333,-0.03277981463926931,-0.016228555266390384,0.02332664710813495
1592234280.4276595,-9.393505179768434,-0.9358525289457648,2.5570420475319926,0.4444444444444444,-0.008302931816642968,-0.09241167309905884,-0.04749826877807115,-0.06410641671735266,0.11892475166047618
1592234280.4376595,-9.313175060504783,-0.7716418885175368,2.5088229418769927,0.4444444444444444,-0.013333333333333334,-0.07777777777777778,-0.08608608069040219,-0.08137641218692579,0.1511366980729488
1592234280.4476595,-9.202648053019615,-0.30853637113731336,2.3716723004444917,0.4444444444444444,-0.013333333333333334,-0.07777777777777778,-0.09841040915217675,-0.02815241145486269,0.1336021646678473
1592234280.4576595,-9.172883683031166,-0.23711631696883276,2.31236178447749,0.4444444444444444,-0.013333333333333334,-0.07777777777777778,-0.08945487936042908,0.04065841198480567,0.15658801442257478
1592234280.4676595,-9.328743202966805,-0.4718294541897027,2.465914727094851,0.4444444444444444,-0.013333333333333334,-0.07777777777777778,-0.03820233196483823,0.08295208080031294,-0.022995600390959176
1592234280.4776595,-9.533936152760917,-0.7983943042750746,2.515814495226221,0.4444444444444444,-0.008164893132247705,-0.07390144762696356,0.00680173918277786,-0.014945981514682155,-0.15115441624004722
1592234280.4876595,-9.523832064700287,-1.042081351094196,2.5403306374881067,0.4444444444444444,-0.0044444444444444444,-0.07111111111111111,0.043849633029782606,-0.0485186171164242,-0.20396641468860646
1592234280.4976594,-9.198779990885452,-0.9014631530976062,2.3778047342036834,0.4444444444444444,-0.0044444444444444444,-0.07111111111111111,0.05376994807244225,-0.05938376571364422,-0.049353432941991016
1592234280.5076594,-8.71789667896679,-0.6854612546125461,2.297011070110701,0.4444444444444444,-0.0044444444444444444,-0.07111111111111111,0.055894008286884816,-0.05493198409125141,-0.02972614512448829
1592234280.5176594,-9.304184642310217,-1.0383565959308685,2.65542988405163,0.4444444444444444,-0.0044444444444444444,-0.07111111111111111,0.1763112347214209,0.04108057749367762,0.017633944215928815
1592234280.5276594,-9.308940615835777,-0.852483504398827,2.6826988636363636,0.4304488432714239,-0.0044444444444444444,-0.055949209840338875,0.11208466229246437,0.04458310979099471,0.026017393797112594
1592234280.5376594,-9.528870354814194,-0.9015764630585223,2.779553182127285,0.4177777777777778,-0.0044444444444444444,-0.042222222222222223,0.0948638356627199,-0.014535028913295812,-0.0034032663726560435
1592234280.5476594,-9.723916941331575,-0.8934792353328939,2.416382333553065,0.4177777777777778,-0.0044444444444444444,-0.042222222222222223,0.11043795192161648,0.02935693849199526,-0.10013769057633483
1592234280.5576594,-9.621787425584435,-0.7956279947727602,2.38218600261362,0.4177777777777778,-0.0044444444444444444,-0.042222222222222223,0.1519574638577744,-0.023616240936806532,-0.0761921622293684
1592234280.5676594,-9.583308523409364,-0.7103663179557537,2.407132224318299,0.4177777777777778,-0.0044444444444444444,-0.042222222222222223,0.12227668685303181,-0.05601699485823894,-0.08128281332678522
1592234280.5776594,-9.472710680790769,-0.4142368935969233,2.4115262128061534,0.4177777777777778,-0.010282632001139522,-0.04981186604592583,0.0120182010980262,-0.0011653879367147235,-0.07855887883031001
1592234280.5876594,-9.425158161803822,-0.5137831976101813,2.5150484920407576,0.4177777777777778,-0.015555555555555555,-0.056666666666666664,0.02163350856355188,-0.01973847074347078,-0.06704768170280372
1592234280.5976593,-9.49837509710354,-0.7920219731439352,2.703213183886361,0.4177777777777778,-0.015555555555555555,-0.056666666666666664,0.00959291915749075,0.03441415562505593,0.05763278723221077
1592234280.6076593,-9.43241357832451,-0.7041871691061974,2.5493101837433825,0.4177777777777778,-0.015555555555555555,-0.056666666666666664,0.029393320396742716,0.0028210086632982218,-0.021564206035667235
1592234280.6176593,-9.319489770766577,-0.8459181661326103,2.4792346561498646,0.4177777777777778,-0.015555555555555555,-0.056666666666666664,0.09267322708025028,-0.051547333654307505,-0.11235557059713495
1592234280.6276593,-9.490106082036775,-0.90992927864215,2.5450247524752476,0.4077707056419928,-0.009440122583686941,-0.02831329561527581,0.10740941673435134,-0.04036073895236887,-0.05122584555822465
1592234280.6376593,-9.619108094242078,-0.8050842574687241,2.5541923517108014,0.3977777777777778,-0.0033333333333333335,0.0,0.062316791869139854,-0.039020178134383174,0.023223085222325097
1592234280.6476593,-9.479358107306425,-0.8355067511449658,2.4401858047981775,0.3977777777777778,-0.0033333333333333335,0.0,0.08310214535606067,-0.02434837536952834,0.032131607408222226
1592234280.6576593,-9.508577206757078,-0.975020223649774,2.585020223649774,0.3977777777777778,-0.0033333333333333335,0.0,0.057818443588253735,-0.08085773442646284,-0.055395153791401634
1592234280.6676593,-9.476178559417594,-1.0115561138697107,2.648466834160913,0.3977777777777778,-0.0033333333333333335,0.0,0.08927337199005397,-0.12126447875722263,-0.02073579783471349
1592234280.6776593,-9.283145018990938,-0.8204788108981069,2.5846675838143374,0.4017353696670023,-0.0033333333333333335,0.0,0.11062068737847362,-0.039821146849533945,-0.02891133834520237
1592234280.6876593,-9.226713067901843,-0.6309749186951809,2.504289691534444,0.41,-0.0033333333333333335,0.0,0.11355274851194487,-0.04921195406709737,-0.037844851221732756
1592234280.6976593,-9.082747225586395,-0.7097733507995748,2.2899003929904347,0.41,-0.0033333333333333335,0.0,0.12661054154698448,-0.10022194858812936,0.03788239427779364
1592234280.7076592,-8.774771054121834,-0.7049073699538871,2.0750436857859396,0.41,-0.0033333333333333335,0.0,0.1315783634354366,-0.07375899297256212,0.024464578473292004
1592234280.7176592,-9.56415736217725,-1.06,2.5318946266573623,0.41,-0.0033333333333333335,0.0,0.15352881862589401,-0.21100981557807902,-0.020725784867432664
1592234280.7276592,-9.857223647971956,-1.089893277416124,2.820925450676014,0.41,-0.0061803121348689705,0.011862411673065154,0.03658366226069769,-0.13886164565850923,-0.013272411794240806
1592234280.7376592,-9.29,-1.13,3.01,0.41,-0.01,0.027777777777777776,0.1090830782496456,-0.19198621771937624,-0.0032724923474893677
1592234280.7476592,-9.37848920473039,-0.7388694803081263,2.401983562981447,0.41,-0.01,0.027777777777777776,0.04930674670256045,-0.15264754827309823,-0.026557001476349103
1592234280.7576592,-9.155461998223084,-0.9910423229141426,2.793832485259672,0.41,-0.01,0.027777777777777776,0.020159268274956108,-0.12374797257721033,0.017829149406958063
1592234280.7676592,-9.407575770529645,-0.650606164237165,2.229091181122558,0.41,-0.01,0.027777777777777776,0.01801519184577078,0.0002644424130097637,0.000694190478306534
1592234280.7776592,-9.427770370146913,-0.804392591028387,2.544392591028387,0.40740987661769584,-0.007409876617695859,0.029936213929697895,-0.04349344279450226,0.01162340763896892,-0.007120296003627128
1592234280.7876592,-9.44005910116971,-0.8899224297147548,2.63,0.4033333333333333,-0.0033333333333333335,0.03333333333333333,-0.07417810494413904,0.03161797534859674,-0.05773062421814467
1592234280.7976592,-9.572751639725249,-0.6754586066208749,2.6481655735165006,0.4033333333333333,-0.0033333333333333335,0.03333333333333333,-0.06962281129166929,0.01871498989146582,0.08030405753171146
1592234280.8076591,-9.54,-0.67,2.67,0.4033333333333333,-0.0033333333333333335,0.03333333333333333,-0.05890486225480862,0.05563236990731925,-0.025089107997418484
1592234280.8176591,-9.350742835137217,-0.762276946775305,2.602079127650087,0.4033333333333333,-0.0033333333333333335,0.03333333333333333,-0.07133601743144513,-0.06200472484937464,0.05588074627058013
1592234280.8276591,-9.257400401856856,-0.86,2.6767927665765954,0.3958233831420279,-0.0021779563808248074,0.039399062334003095,-0.07605175776843025,0.00344632390016323,0.08837573464258355
1592234280.8376591,-9.25,-0.86,2.81,0.37444444444444447,0.0011111111111111111,0.056666666666666664,-0.09381144729469522,0.016362461737446838,0.15053464798451094
1592234280.847659,-9.266888619535717,-0.8644430976785855,2.8159927274643617,0.37444444444444447,0.0011111111111111111,0.056666666666666664,-0.12510349665986237,0.10174176495122915,-0.005356427247559406
1592234280.857659,-9.290413127691826,-0.8528098457688699,2.6376032819229565,0.37444444444444447,0.0011111111111111111,0.056666666666666664,-0.0699934310411116,0.16057760870765145,0.05150332303547359
1592234280.867659,-9.31465969816196,-0.8773298490809796,2.5898167831346526,0.37444444444444447,0.0011111111111111111,0.056666666666666664,-0.05845940819047834,0.12619654709813763,0.09853457995579164
1592234280.877659,-9.273345553378421,-0.8855881423424562,2.468897035585614,0.3771629830956043,0.003582509884892794,0.05987948507258285,-0.0004972550156984029,0.1354736540335759,-0.004066362875879748
1592234280.887659,-9.337293604288742,-1.0229702032165566,2.4783829946390723,0.38666666666666666,0.012222222222222223,0.07111111111111111,-0.10128847284302904,0.0038053824282940196,-0.09534987092987243
1592234280.897659,-9.36,-1.04,2.45,0.38666666666666666,0.012222222222222223,0.07111111111111111,-0.1712604328519436,-0.009817477042468103,0.11890055529211369
1592234280.907659,-9.440497795402958,-1.0830587805578022,2.2623710506405073,0.38666666666666666,0.012222222222222223,0.07111111111111111,0.03849398366221546,0.047940289657556874,-0.06938573426035932
1592234280.917659,-9.596058379069243,-0.9065386061198406,2.3134613938801594,0.38666666666666666,0.012222222222222223,0.07111111111111111,0.012964246242106401,0.013698861439024823,-0.14280413009021836
1592234280.927659,-9.441682569362335,-0.9192790166909561,2.3646635686199025,0.3847382394906249,0.012222222222222223,0.07172008811407167,-0.006712777127604059,-0.0998268090038203,-0.16146377238942577
1592234280.937659,-9.262917067671241,-1.1672440674237634,2.5203625539637584,0.37256424475180494,0.012222222222222223,0.07556450750527799,0.03354588859483561,-0.1860055153159177,0.07253972212225476
1592234280.947659,-9.16,-1.31,2.61,0.3655555555555556,0.012222222222222223,0.07777777777777778,0.056723200689815706,-0.23561944901923448,0.20725784867432664
1592234280.957659,-8.918129090314137,-0.9754556609947644,2.282835405759162,0.3655555555555556,0.012222222222222223,0.07777777777777778,-0.03415985140213051,-0.04612418765314734,-0.018252497402799828
1592234280.967659,-9.29,-1.53,2.87,0.3655555555555556,0.012222222222222223,0.07777777777777778,0.0,-0.11017390903214205,-0.038179077387375956
1592234280.977659,-9.47186694440828,-1.05531115740138,2.250564379638068,0.36000643724052134,0.01842417798608399,0.08300047736839822,0.0026994546951819597,-0.047657134358217126,-0.038832638546215784
1592234280.987659,-9.26,-1.02,2.3,0.3466666666666667,0.03333333333333333,0.09555555555555556,-0.006544984694978735,-0.08617563181722002,-0.014180800172453926
1592234280.997659,-9.631962199251786,-1.1642986826474708,2.4796257158561015,0.3466666666666667,0.03333333333333333,0.09555555555555556,0.007543850789424081,-0.1383829118189588,0.024619788308617597
1592234281.007659,-9.542723355968866,-1.082496409638127,2.3829503022996046,0.3466666666666667,0.03333333333333333,0.09555555555555556,-0.03788357192602308,-0.20733524986919108,-0.053255793489291825
1592234281.017659,-9.581793668964487,-1.039777268994351,2.4861430206803874,0.3426807356344723,0.029546698852748673,0.09555555555555556,-0.1284980772188568,-0.10202400530979897,0.045634585320433324
1592234281.027659,-9.587012667048254,-0.8936453226488814,2.5331140034342883,0.33108296211499055,0.018528814009241057,0.09555555555555556,-0.11198825030452467,-0.1481376597946577,-0.021543331089607792
1592234281.037659,-9.59,-0.81,2.56,0.3244444444444444,0.012222222222222223,0.09555555555555556,-0.10253809355466686,-0.17453292519943295,-0.05999569303730508
1592234281.047659,-9.59,-0.81,2.56,0.3244444444444444,0.012222222222222223,0.09555555555555556,-0.10253809355466686,-0.17453292519943295,-0.05999569303730508
1592234281.057659,-9.301060874359816,-0.9600447465247219,2.655823622347814,0.3244444444444444,0.012222222222222223,0.09555555555555556,-0.1378758452814987,-0.10969393145862037,0.05744977733959547
1592234281.067659,-9.332192685745792,-1.1290460083343055,2.7847982695182854,0.3244444444444444,0.012222222222222223,0.09555555555555556,-0.031631004420663605,-0.03158699365681922,-0.01726120664473607
1592234281.077659,-9.329622313594166,-1.2600646432961724,2.889557670297995,0.326343049844809,0.011694831833232071,0.09639938017793981,0.06917069844620967,0.03382985723685948,-0.0846152874165866
1592234281.087659,-9.045154508075113,-1.0733826459242932,2.7917718621508203,0.34412228768974984,0.00675615465408183,0.10430126366458019,0.12444399724838388,-0.006897836617374163,-0.09043352939576284
1592234281.0976589,-9.241806082236597,-0.820334597367834,2.6521406796044316,0.34444444444444444,0.006666666666666667,0.10444444444444445,-0.042852641259651096,0.06693470375216394,-0.010561568171817682
1592234281.1076589,-9.215817161127221,-0.7579611867053312,2.5637783478325527,0.34444444444444444,0.006666666666666667,0.10444444444444445,0.014980369646307001,0.06126480072216804,-0.07519846271377086
1592234281.1176589,-9.2,-0.72,2.51,0.34444444444444444,0.006666666666666667,0.10444444444444445,0.05017821599483697,0.05781403147231216,-0.11453723216212788
1592234281.1276588,-9.2,-0.72,2.51,0.34444444444444444,0.006666666666666667,0.10444444444444445,0.05017821599483697,0.05781403147231216,-0.11453723216212788
1592234281.1376588,-9.5,-0.95,2.76,0.3233333333333333,0.04,0.13111111111111112,0.05890486225480862,-0.09053895494720585,-0.053450708342326333
1592234281.1476588,-9.526866190415172,-0.833816952844695,2.445098667350077,0.3233333333333333,0.04,0.13111111111111112,0.03694535811597548,-0.07113370922172442,-0.13081902427946346
1592234281.1576588,-9.49327524346489,-1.0891081496668376,2.8213172731932343,0.3233333333333333,0.04,0.13111111111111112,0.012028771632305875,-0.16713585126174557,-0.0831843736489186
1592234281.1676588,-9.25441093453969,-0.9644109345396898,3.1171233035610717,0.3233333333333333,0.04,0.13111111111111112,0.03213916552309726,-0.09701519068902874,-0.10715545039315427
1592234281.1776588,-9.265469199424736,-0.6467962008628955,2.950777205177373,0.32610215590710556,0.03899315542771919,0.12783886625119847,-0.028975780955666285,-0.041045253570915305,0.025209054934491895
1592234281.1876588,-9.21170667426455,-0.5436320250730109,3.001925350808462,0.33555555555555555,0.035555555555555556,0.11666666666666667,0.05936096145655051,0.06347587757666089,-0.0067526768868451815
1592234281.1976588,-9.15,-0.34,2.86,0.33555555555555555,0.035555555555555556,0.11666666666666667,0.16907877128695067,0.07963064712224129,-0.022907446432425576
1592234281.2076588,-9.307300526789156,-0.4064414750096364,2.751871000899396,0.33555555555555555,0.035555555555555556,0.11666666666666667,0.0258117781349886,0.040568169192391326,0.03973177682728458
1592234281.2176588,-9.38,-0.61,2.89,0.33555555555555555,0.035555555555555556,0.11666666666666667,0.10035643198967394,0.0643590161672909,-0.04908738521234052
1592234281.2276587,-9.693813126350953,-0.7644124582432699,2.728233444684614,0.33343103862361084,0.037353223728739546,0.1196083054955132,-0.061698602283039625,-0.06525543085237641,0.024255498071474545
1592234281.2376587,-9.31,-0.79,2.66,0.3211111111111111,0.04777777777777778,0.13666666666666666,-0.1538071403320003,0.00545415391248228,0.044724062082354694
1592234281.2476587,-9.404298327759196,-1.018292441471572,2.8368596655518394,0.3211111111111111,0.04777777777777778,0.13666666666666666,-0.036715715123734755,0.05357702581728673,-0.009950215461164931
1592234281.2576587,-9.52,-1.08,2.86,0.3211111111111111,0.04777777777777778,0.13666666666666666,-0.05017821599483697,0.06872233929727672,-0.0839939702522271
1592234281.2676587,-9.23271537599172,-0.8435393670231114,2.865411995515695,0.3211111111111111,0.04777777777777778,0.13666666666666666,-0.10655006682499209,-0.08099522036567812,0.045610620784462125
1592234281.2776587,-9.089707801157768,-0.4552099604888358,2.787863640540292,0.3218482444587379,0.048662337794929914,0.1328335732590074,-0.047079025716899786,0.04650339021346533,0.02661745383693939
1592234281.2876587,-9.48,-0.62,2.97,0.32666666666666666,0.05444444444444444,0.10777777777777778,0.08726646259971647,0.001090830782496456,0.12217304763960307
1592234281.2976587,-9.645931488801054,-0.5957965744400526,2.9521691699604746,0.32666666666666666,0.05444444444444444,0.10777777777777778,0.022386089680569956,0.020570682814669797,0.12084898890007956
1592234281.3076587,-9.271940334707738,-0.5770970167353868,2.812902983264613,0.32666666666666666,0.05444444444444444,0.10777777777777778,0.04349157939567473,0.09117392799546961,-0.03532579953779239
1592234281.3176587,-9.107447094390325,-0.6000705408128988,2.847564662411824,0.32666666666666666,0.05444444444444444,0.10777777777777778,0.05286553643784303,0.07725258471767225,-0.11588089238363089
1592234281.3276587,-9.030639941399746,-0.6859885463141773,2.917965638942532,0.3275581008190717,0.05206728670469764,0.10970921844132206,-0.005403088184301219,0.15892584398453927,-0.09593579611497283
1592234281.3376586,-8.97,-0.66,2.84,0.3333333333333333,0.03666666666666667,0.12222222222222222,-0.0545415391248228,0.05781403147231216,-0.1308996938995747
1592234281.3476586,-9.49004464621636,-0.9095994381599739,2.7802819232988036,0.3333333333333333,0.03666666666666667,0.12222222222222222,-0.005492978284309072,0.12238177993887484,-0.08156628419712389
1592234281.3576586,-10.05,-1.04,2.88,0.3333333333333333,0.03666666666666667,0.12222222222222222,0.06981317007977318,-0.07090400086226964,0.00545415391248228
1592234281.3676586,-9.34349846415267,-0.8177079929416379,2.691225410103915,0.3333333333333333,0.03666666666666667,0.12222222222222222,-0.027253445735200978,-0.03669136699137987,0.10150957151695192
1592234281.3776586,-9.590792456335935,-1.1030852842809364,2.7492437755481234,0.3333333333333333,0.03709350097031257,0.12444176060118088,0.029272956831993567,0.0937263211466743,-0.019557732507802954
1592234281.3876586,-9.36,-1.02,2.62,0.3333333333333333,0.042222222222222223,0.1511111111111111,0.14508049407202864,0.10581058590215622,0.04690572364734761
1592234281.3976586,-9.447134847880962,-1.1939465922678358,2.7547049289225454,0.3333333333333333,0.042222222222222223,0.1511111111111111,0.1274448602088494,0.07754393870308225,-0.10706219357718644
1592234281.4076586,-9.48,-1.12,2.5,0.3333333333333333,0.042222222222222223,0.1511111111111111,0.07635815477475191,0.007635815477475192,0.07308566242726255
1592234281.4176586,-9.467920708561788,-1.0954787009700548,2.5392408266554196,0.3333333333333333,0.042222222222222223,0.1511111111111111,0.08378141697449056,-0.01393604185263608,-0.005000522891165744
1592234281.4276586,-9.516166174609868,-1.0070286798819064,2.595527203711514,0.3333333333333333,0.042222222222222223,0.1511111111111111,0.16886276746899115,0.014132032537302247,-0.015526050787392618
1592234281.4376585,-9.51,-0.68,2.52,0.31222222222222223,0.042222222222222223,0.1511111111111111,0.0916297857297023,-0.07526732399225547,-0.09708393964218458
1592234281.4476585,-9.550002354664853,-0.43286353409031453,2.4942870598084874,0.31222222222222223,0.042222222222222223,0.1511111111111111,0.010594660441268361,-0.014177717923369379,-0.14383592184676863
1592234281.4576585,-9.49,-0.27,2.46,0.31222222222222223,0.042222222222222223,0.1511111111111111,0.061086523819801536,-0.09272061651219875,-0.09053895494720585
1592234281.4676585,-9.4348574142337,-0.33439924014563877,2.5885133087586785,0.31222222222222223,0.042222222222222223,0.1511111111111111,0.04473069799633944,-0.06725054784687523,-0.07835980792209908
1592234281.4776585,-9.382910855252895,-0.4876476645137134,2.7592158881712376,0.31324620979680423,0.041355771197575934,0.14953574561175423,-0.023981871697209674,-0.1804311512894943,0.040719277797974594
1592234281.4876585,-9.29,-0.85,2.88,0.32666666666666666,0.03,0.1288888888888889,-0.05235987755982988,-0.08617563181722002,-0.04036073895236887
1592234281.4976585,-9.30300439371749,-0.9115021968587446,2.8494846219887884,0.32666666666666666,0.03,0.1288888888888889,-0.05181685856972496,0.0402483009125186,-0.06584687828403572
1592234281.5076585,-9.323938055199278,-0.8589601444111918,2.7959070827989168,0.32666666666666666,0.03,0.1288888888888889,-0.052495020150716346,0.02426374327823158,0.020450628748718294
1592234281.5176585,-9.346601043210002,-0.6116502608025004,2.8233005216050007,0.32666666666666666,0.03,0.1288888888888889,-0.01961347885896106,0.02784050509359128,-0.21737597888044682
1592234281.5276585,-9.379320374654405,-0.6186407493088077,2.8390938328725386,0.3262135831029359,0.030151027854576913,0.12954334292538885,-0.0311363469079336,0.10477970372780465,-0.062480913673520266
1592234281.5376585,-9.348349797680674,-0.5699012139159527,2.8132016185546034,0.30666666666666664,0.03666666666666667,0.15777777777777777,-0.05312301771528121,-0.025535333415960787,0.024664434359148394
1592234281.5476584,-9.341198927048906,-0.6164032188532835,2.865612875413134,0.30666666666666664,0.03666666666666667,0.15777777777777777,-0.028629017691500606,0.018193418880726085,0.04830854133420227
1592234281.5576584,-9.35,-0.5888003971736018,2.7588003971736015,0.30666666666666664,0.03666666666666667,0.15777777777777777,0.019023568947709173,0.030587241740553307,-0.00048161189122367023
1592234281.5676584,-9.35076667600336,-0.5815333520067224,2.753066704013445,0.30666666666666664,0.03666666666666667,0.15777777777777777,0.03765192907957676,0.037710200421045004,0.03148132138517711
1592234281.5776584,-9.359158296986914,-0.5983165939738305,2.786633187947661,0.30666666666666664,0.03666666666666667,0.15777777777777777,0.11545955619276055,0.19973314158614539,-0.017949406427904352
1592234281.5876584,-9.35274368231047,-0.59,2.805884476534296,0.31222222222222223,0.042222222222222223,0.14222222222222222,0.009892299370509375,0.05053657556598202,-0.011739229467949225
1592234281.5976584,-9.372088501429348,-0.5889557492853261,2.769557492853261,0.31222222222222223,0.042222222222222223,0.14222222222222222,0.1305791736065724,0.11134774985433944,-0.05445852908512187
1592234281.6076584,-9.39192030450815,-0.579039847745926,2.678079695491852,0.31222222222222223,0.042222222222222223,0.14222222222222222,0.03902483130749829,0.08210871570989803,-0.07322392688329066
1592234281.6176584,-9.412249942952766,-0.57,2.65850003803149,0.31222222222222223,0.042222222222222223,0.14222222222222222,-0.000763672816771688,0.05912316116625215,0.01172632719703671
1592234281.6276584,-9.436177264775234,-0.57,2.6425484901498444,0.31222222222222223,0.042222222222222223,0.14222222222222222,0.03751729399031262,0.0034417549014022705,0.0552274258414507
1592234281.6376584,-9.499090720269553,-0.5627278391913412,2.5881814405391057,0.32,0.042222222222222223,0.14222222222222222,-0.03966439060419701,0.02727167583986103,-0.07625738175722789
1592234281.6476583,-9.49,-0.5888093127420333,2.565237250968133,0.32,0.042222222222222223,0.14222222222222222,0.056098211093909556,0.0675270212476471,0.0017402499391546361
1592234281.6576583,-9.488092461181761,-0.57,2.4941965854001267,0.32,0.042222222222222223,0.14222222222222222,-0.0863861645341116,0.01026889229637832,0.0065474372056960745
1592234281.6676583,-9.4396401409757,-0.57,2.601079577072899,0.32,0.042222222222222223,0.14222222222222222,0.04671774705730138,-0.08639456687688635,-0.12556107780508638
1592234281.6776583,-9.422350831632968,-0.57,2.6529475051010944,0.32,0.042222222222222223,0.14222222222222222,0.09009508198735862,0.007903987318890263,0.13093098960742597
1592234281.6876583,-9.41898929899338,-0.5510107010066202,2.69151605150993,0.32666666666666666,0.042222222222222223,0.12777777777777777,0.08290313946973066,0.024978857620426346,0.04571631547528393
1592234281.6976583,-9.399967726481934,-0.5700161367590327,2.719870905927738,0.32666666666666666,0.042222222222222223,0.12777777777777777,0.08276936067126207,0.02281943406501203,0.06435549567259435
1592234281.7076583,-9.379466235893704,-0.5805337641062978,2.6437363487440844,0.32666666666666666,0.042222222222222223,0.12777777777777777,0.0,-0.029887353739173242,0.05495750026230552
1592234281.7176583,-9.370066899591059,-0.5899331004089411,2.709933100408941,0.32666666666666666,0.042222222222222223,0.12777777777777777,-5.838090661076042e-05,0.0022949369813433894,-0.07326080514709483
1592234281.7276583,-9.378393218723945,-0.581606781276055,2.7016067812760554,0.32666666666666666,0.042222222222222223,0.12777777777777777,-0.00732446507864377,0.1521579230295242,-0.09505905766319386
1592234281.7376583,-9.413290785516375,-0.5432907855163758,2.719030714945414,0.3,0.03666666666666667,0.14888888888888888,0.03645385102014585,0.037700452035395134,-0.017698262522794883
1592234281.7476583,-9.44092753375856,-0.57,2.6188695948972844,0.3,0.03666666666666667,0.14888888888888888,-0.023233110975827198,0.03158983303097886,0.0514967210819166
1592234281.7576582,-9.44987499200034,-0.57,2.511500095995904,0.3,0.03666666666666667,0.14888888888888888,-0.0368973390011591,0.010117474705457295,-0.03048864707007487
1592234281.7676582,-9.45,-0.5899248428203213,2.5498496856406425,0.3,0.03666666666666667,0.14888888888888888,-0.08925136312842355,-0.03582524991563294,0.02270248701962784
1592234281.7776582,-9.425472314615535,-0.6063517902563099,2.6399348464097048,0.3,0.03666666666666667,0.14888888888888888,-0.04842294099553989,-0.08059000622365423,0.12190299712324759
1592234281.7876582,-9.420996783088235,-0.5804983915441176,2.7,0.30666666666666664,0.04888888888888889,0.12777777777777777,-0.03664629972167689,0.0661197854873463,0.008817832895695961
1592234281.7976582,-9.439316018116276,-0.5895896108697661,2.699042425362788,0.30666666666666664,0.04888888888888889,0.12777777777777777,-0.06799266535579167,-0.023567046670810988,0.11286594913683337
1592234281.8076582,-9.390856132729459,-0.5605136796376745,2.6311985858212403,0.30666666666666664,0.04888888888888889,0.12777777777777777,0.06098947930291894,0.08427048410942246,-0.005543888582638656
1592234281.8176582,-9.399729844613423,-0.56,2.6786492230671137,0.30666666666666664,0.04888888888888889,0.12777777777777777,0.01656828372658741,0.06494840379076228,-0.09254472758330615
1592234281.8276582,-9.424555029490831,-0.56,2.647259960678891,0.30666666666666664,0.04888888888888889,0.12777777777777777,-0.07937005223081633,-0.02849697488289532,0.021167710735541106
1592234281.8376582,-9.410611212589574,-0.5893887874104257,2.6681663622312772,0.32,0.042222222222222223,0.14333333333333334,-0.0603308204092214,0.024292787731792474,0.0011389579239470511
1592234281.8476582,-9.429874948467775,-0.57,2.609249690806651,0.32,0.042222222222222223,0.14333333333333334,0.16909151288603164,0.13470283637349495,-0.06441268078459662
1592234281.8576581,-9.420268654665383,-0.57,2.551611927992304,0.32,0.042222222222222223,0.14333333333333334,0.0024779412189168126,-0.07592186743210305,0.09905723858691229
1592234281.8676581,-9.410378988106476,-0.5603789881064755,2.5884840475740982,0.32,0.042222222222222223,0.14333333333333334,0.04189690135033608,0.08400704704186056,-0.0013200349850485682
1592234281.8776581,-9.41813163995565,-0.5762632799112992,2.614394919866949,0.32,0.042222222222222223,0.14333333333333334,0.008152258596655297,0.10473134402848702,-0.012550348453122865
1592234281.887658,-9.42,-0.5601095723634151,2.69956171054634,0.29347942981788666,0.04885236476775055,0.14333333333333334,0.12475827177227955,0.008185630049325474,-0.0076716729495523855
1592234281.897658,-9.390502884049441,-0.5796647439670394,2.7,0.29333333333333333,0.04888888888888889,0.14333333333333334,0.0042479095093492375,-0.07602272591424135,-0.04839254077087557
1592234281.907658,-9.380285559456212,-0.5702855594562118,2.5834267134745423,0.29333333333333333,0.04888888888888889,0.14333333333333334,0.002181661564992912,0.06878700320531249,-0.16671198486918293
1592234281.917658,-9.399264531996407,-0.57,2.647425861987419,0.29333333333333333,0.04888888888888889,0.14333333333333334,0.002181661564992912,0.06257849017122907,-0.061945727832302344
1592234281.927658,-9.423386670269645,-0.6011822270261924,2.657795556756548,0.29333333333333333,0.04888888888888889,0.14333333333333334,0.015787474807778333,0.0026519216651117727,0.05443392778066754
1592234281.937658,-9.449919725893293,-0.5602006852667646,2.650040137053353,0.3265328764888236,0.04224898025779083,0.12894686463262087,-0.019477336244998394,0.12379866849148202,-0.07679224455750747
