time,acc_x,acc_y,acc_z,mag_x,mag_y,mag_z,gyr_x,gyr_y,gyr_z
1592251162.9272614,-0.6269179720476503,9.7661640559047,0.6660976925241534,-0.45111111111111113,-0.6222222222222222,-0.25222222222222224,-0.035242782136180345,0.03390523287283832,-0.005371914418867091
1592251162.9372613,-0.6316112173953619,9.777097195651159,0.5783887826046381,-0.45111111111111113,-0.6222222222222222,-0.25222222222222224,-0.03599741582238304,0.04081827606700938,-0.008902402813187096
1592251162.9472613,-0.6620045926621784,9.763986222013465,0.5540091853243568,-0.45111111111111113,-0.6222222222222222,-0.25222222222222224,-0.03730941865174546,0.03577123395823929,-0.012873807160369295
1592251162.9572613,-0.6693011846980846,9.742096445905746,0.5686023693961693,-0.45111111111111113,-0.6222222222222222,-0.25222222222222224,-0.042085026971796495,0.023036278438103224,-0.01605754604040331
1592251162.9672613,-0.6339382514540565,9.77303087427297,0.5809073771810846,-0.45111111111111113,-0.6166666666666667,-0.25222222222222224,-0.06078958533166294,-0.023636037838082075,-0.018114526710910135
1592251162.9772613,-0.5855741289000228,9.777351856069233,0.5838332953769073,-0.45111111111111113,-0.6166666666666667,-0.25222222222222224,-0.07109792081417507,-0.04613809278469353,-0.02079042485140114
1592251162.9872613,-0.4545021258726576,9.752251062936327,0.7007112487533463,-0.45111111111111113,-0.6166666666666667,-0.25222222222222224,-0.08321076050689208,-0.06383687633706754,-0.02593438590548651
1592251162.9972613,-0.35,9.7,0.85,-0.45111111111111113,-0.6166666666666667,-0.25222222222222224,-0.09053895494720585,-0.06872233929727672,-0.031634092692397225
1592251163.0072613,-0.21738246505717915,9.662109275730623,0.9731448538754764,-0.45111111111111113,-0.6166666666666667,-0.25222222222222224,-0.08950564573710279,-0.06355579324676143,-0.03886725716311864
1592251163.0172613,-0.23,9.71,0.98,-0.4311111111111111,-0.6166666666666667,-0.23777777777777778,-0.05781403147231216,-0.030543261909900768,-0.04581489286485115
1592251163.0272613,0.3051804297178359,10.010084908102511,0.6674097851410821,-0.4311111111111111,-0.6166666666666667,-0.23777777777777778,-0.0428203181089054,0.01802996728670857,-0.05317973727867539
1592251163.0372612,0.56,10.13,0.54,-0.4311111111111111,-0.6166666666666667,-0.23777777777777778,-0.05017821599483697,0.062177354602297986,-0.05563236990731925
1592251163.0472612,0.6614144882801196,10.321217324201795,0.4742434648403588,-0.4311111111111111,-0.6166666666666667,-0.23777777777777778,-0.09638072364087462,0.13856076252528943,-0.09526838559379418
1592251163.0572612,0.6695061252049773,10.442591878074658,0.498518375614932,-0.4311111111111111,-0.6166666666666667,-0.23777777777777778,-0.1422790781606574,0.21358691895185744,-0.1535239894073646
1592251163.0672612,0.79,10.5,0.68,-0.4388888888888889,-0.6088888888888889,-0.24444444444444444,-0.2923426497090502,0.3643374813538163,-0.3752457891787809
1592251163.0772612,0.8692249681528662,10.473856305732484,0.8192249681528663,-0.4388888888888889,-0.6088888888888889,-0.24444444444444444,-0.3008960970534418,0.3781739402932732,-0.40820171865276017
1592251163.0872612,0.8467753476280201,10.375179240107807,0.9340389247978629,-0.4388888888888889,-0.6088888888888889,-0.24444444444444444,-0.3343200827724584,0.45947420206179657,-0.6052332554783595
1592251163.0972612,0.71,10.26,1.15,-0.4388888888888889,-0.6088888888888889,-0.24444444444444444,-0.34688418883387295,0.5497787143782138,-0.8290313946973066
1592251163.1072612,0.6828905281615625,10.15156211264625,1.1590364906128126,-0.4388888888888889,-0.6088888888888889,-0.24444444444444444,-0.33998409134553564,0.6099081353480104,-0.9532331494873783
1592251163.1172612,0.51,10.17,1.22,-0.4388888888888889,-0.6222222222222222,-0.23777777777777778,-0.33052172709642613,0.6806784082777886,-1.0951941056264418
1592251163.1272612,0.4731598276909483,10.07356271055393,1.1239067763848234,-0.4388888888888889,-0.6222222222222222,-0.23777777777777778,-0.3432793626921801,0.7679636367574821,-1.2385383491563078
1592251163.1372612,-0.02543427458617331,9.820643622200585,0.8051947419668938,-0.4388888888888889,-0.6222222222222222,-0.23777777777777778,-0.3137493806472311,0.7532055908360767,-1.3704835757228189
1592251163.1472611,-0.39,9.59,1.14,-0.4388888888888889,-0.6222222222222222,-0.23777777777777778,-0.296705972839036,0.7515824091400581,-1.454077433067776
1592251163.1572611,-0.5417464019394238,9.697115107251358,1.0150323748734158,-0.4388888888888889,-0.6222222222222222,-0.23777777777777778,-0.2704159701804932,0.7077657380424868,-1.5173681802087122
1592251163.1672611,-1.17,9.62,0.95,-0.4122222222222222,-0.6288888888888889,-0.2733333333333333,-0.24652775684419903,0.6654067773228381,-1.579522973054868
1592251163.177261,-1.3752869844128075,9.384827809352316,1.0189885206234877,-0.4122222222222222,-0.6288888888888889,-0.2733333333333333,-0.2075262442399372,0.5695216405157307,-1.6510287385660718
1592251163.187261,-1.6,9.25,1.01,-0.4122222222222222,-0.6288888888888889,-0.2733333333333333,-0.16144295580947549,0.48323803664593,-1.6951510359994924
1592251163.197261,-1.8896069595203575,9.178113954308554,1.0443418629256633,-0.4122222222222222,-0.6288888888888889,-0.2733333333333333,-0.11110187821029227,0.37627878485611177,-1.7336172798587839
1592251163.207261,-2.23476272581214,9.161677965437518,0.9950338963125515,-0.4122222222222222,-0.6288888888888889,-0.2733333333333333,-0.0716583364874397,0.290220148369888,-1.75513193898034
1592251163.217261,-2.39,9.21,0.99,-0.3244444444444444,-0.6555555555555556,-0.2966666666666667,-0.02945243112740431,0.16580627893946132,-1.7900533140766843
1592251163.227261,-2.3776877536272165,9.218140252376452,1.0989954972483185,-0.3244444444444444,-0.6555555555555556,-0.2966666666666667,0.002916118312872009,0.06434816182796871,-1.819412452460808
1592251163.237261,-2.64,9.39,0.9,-0.3244444444444444,-0.6555555555555556,-0.2966666666666667,0.030543261909900768,0.022907446432425576,-1.8598664841564572
1592251163.247261,-1.9046728826728827,9.026766122766123,1.1834996114996115,-0.3244444444444444,-0.6555555555555556,-0.2966666666666667,0.03537529477005018,-0.04764023332575586,-1.8936907141775032
1592251163.257261,-2.2119409504260448,9.11702532400888,0.8271940711745471,-0.3244444444444444,-0.6555555555555556,-0.2966666666666667,0.05493046506770491,-0.04376900910091128,-1.8721371783660246
1592251163.267261,-2.461139686819455,9.240325624805559,0.6998371875972208,-0.25222222222222224,-0.6877777777777778,-0.28,0.016624451169393515,-0.022590706186548765,-1.827862370983966
1592251163.277261,-2.88,9.36,0.64,-0.25222222222222224,-0.6877777777777778,-0.28,-0.05890486225480862,-0.020725784867432664,-1.8064157758141308
1592251163.287261,-2.8374645340751043,9.297115438108484,0.5112044506258693,-0.25222222222222224,-0.6877777777777778,-0.28,-0.17049639615922424,0.00048579139993792085,-1.7687760452183792
1592251163.297261,-3.112919984966981,8.964819872219339,0.5971596542405642,-0.25222222222222224,-0.6877777777777778,-0.28,-0.26899010168131854,0.02970766175271273,-1.7388475576226834
1592251163.307261,-3.12793260196503,9.092427116702757,0.9424498451956977,-0.25222222222222224,-0.6877777777777778,-0.28,-0.311568286024303,0.05345318763630019,-1.716739654213826
1592251163.317261,-3.52,8.61,1.19,-0.20777777777777778,-0.7155555555555555,-0.2677777777777778,-0.36760997370130566,0.07090400086226964,-1.6766069126970529
1592251163.327261,-4.016922143467829,9.185793871866295,1.1366375244766818,-0.20777777777777778,-0.7155555555555555,-0.2677777777777778,-0.3780344038047205,0.10960997668381761,-1.664000821028645
1592251163.337261,-3.7177374114493587,8.21356547960942,1.4208697108941222,-0.20777777777777778,-0.7155555555555555,-0.2677777777777778,-0.40816990466187025,0.12487631553798385,-1.6298814800075818
1592251163.347261,-4.2,8.14,1.38,-0.20777777777777778,-0.7155555555555555,-0.2677777777777778,-0.409061543436171,0.15162547876700738,-1.6111570657472654
1592251163.357261,-4.630609878267205,8.427073252178136,1.611253453143499,-0.20777777777777778,-0.7155555555555555,-0.2677777777777778,-0.409061543436171,0.13770777475335053,-1.5641848147011737
1592251163.367261,-4.69,8.36,1.7,-0.14,-0.7233333333333334,-0.28888888888888886,-0.3817907738737596,0.12762720155208535,-1.4748032179352084
1592251163.377261,-4.906097620138533,7.965335417621216,1.643429911327925,-0.14,-0.7233333333333334,-0.28888888888888886,-0.335435448929458,0.09965967974014202,-1.383961589271435
1592251163.387261,-5.04623814180929,8.150460146699267,1.723883618581907,-0.14,-0.7233333333333334,-0.28888888888888886,-0.3169579264184043,0.04920398942214674,-1.2763782715070995
1592251163.397261,-4.97,8.43,1.69,-0.14,-0.7233333333333334,-0.28888888888888886,-0.2901609881440573,0.019634954084936207,-1.1802789066611654
1592251163.407261,-5.305358487361658,8.193724702086104,1.4537247020861048,-0.14,-0.7233333333333334,-0.28888888888888886,-0.2776898735581864,0.00550102422094925,-1.1062836267849983
1592251163.417261,-5.55,8.33,1.55,-0.06222222222222222,-0.73,-0.28888888888888886,-0.2454369260617026,-0.02399827721492203,-0.9839293658118032
1592251163.4272609,-5.338228417266187,8.09689148681055,1.7577488009592326,-0.06222222222222222,-0.73,-0.28888888888888886,-0.2466474343221348,-0.039608994357357076,-0.879283182912186
1592251163.4372609,-5.78,7.93,1.1,-0.06222222222222222,-0.73,-0.28888888888888886,-0.2530727415391778,-0.05781403147231216,-0.8246680715673207
1592251163.4472609,-5.05143928035982,7.714863996573142,2.168365817091454,-0.06222222222222222,-0.73,-0.28888888888888886,-0.2359250405085267,-0.049927761807894114,-0.751832863327001
1592251163.4572608,-5.45160419790105,7.5351981152281,2.11119940029985,-0.06222222222222222,-0.73,-0.28888888888888886,-0.24661513545046454,-0.07932552289822323,-0.7224351022366718
1592251163.4672608,-5.68,8.61,1.82,-0.035555555555555556,-0.73,-0.31777777777777777,-0.21162117180431245,-0.061086523819801536,-0.667588438887831
1592251163.4772608,-5.046888013505909,7.8954879009566685,2.2179561057962855,-0.035555555555555556,-0.73,-0.31777777777777777,-0.219513949445858,-0.07785867630808582,-0.611352398191819
1592251163.4872608,-5.66,7.94,1.42,-0.035555555555555556,-0.73,-0.31777777777777777,-0.17671458676442586,-0.05999569303730508,-0.5246896063807953
1592251163.4972608,-5.428579536496926,7.988212596563141,1.6996330600662146,-0.035555555555555556,-0.73,-0.31777777777777777,-0.1556778729903633,-0.040010814951945625,-0.4563202866150919
1592251163.5072608,-5.477503303038796,7.965355727269087,1.9153689394242703,-0.035555555555555556,-0.73,-0.31777777777777777,-0.14235269650450869,-0.01686763208060801,-0.4009162339478617
1592251163.5172608,-5.8,8.22,1.88,-0.008888888888888889,-0.7322222222222222,-0.31222222222222223,-0.1308996938995747,0.008726646259971648,-0.3217950808364545
1592251163.5272608,-5.825461311893011,7.965386881069893,2.024280767393727,-0.008888888888888889,-0.7322222222222222,-0.31222222222222223,-0.1086805076790634,0.019836239370227306,-0.25791492045248443
1592251163.5372608,-5.815417794879103,7.49266305638687,1.6062533846373095,-0.008888888888888889,-0.7322222222222222,-0.31222222222222223,-0.05839502024877648,0.045342101070660966,-0.19118588132511194
1592251163.5472608,-5.86,7.35,1.74,-0.008888888888888889,-0.7322222222222222,-0.31222222222222223,-0.0272707695624114,0.04145156973486533,-0.17562375598192942
1592251163.5572608,-5.833212637132067,7.597783106528385,1.673031592830166,-0.008888888888888889,-0.7322222222222222,-0.31222222222222223,-0.016313089563069712,0.040721057734909215,-0.17416273198201718
1592251163.5672607,-5.68,7.66,1.84,0.027777777777777776,-0.7511111111111111,-0.31777777777777777,0.016362461737446838,0.022907446432425576,-0.19198621771937624
1592251163.5772607,-5.954735683627425,7.510144172566859,1.6568428775817163,0.027777777777777776,-0.7511111111111111,-0.31777777777777777,0.014546157854107422,0.031080813907452945,-0.20106773713607334
1592251163.5872607,-5.5657407358495545,7.588596709014553,1.8273209899368745,0.027777777777777776,-0.7511111111111111,-0.31777777777777777,-0.001972922519030397,0.00903279686071667,-0.21797133338972619
1592251163.5972607,-5.917964937134762,8.089069594474942,2.1722093146803614,0.027777777777777776,-0.7511111111111111,-0.31777777777777777,-0.023811192105510342,-0.008419061727481988,-0.22319222645620582
1592251163.6072607,-5.487170887196742,7.673130511776164,2.2019192491588453,0.027777777777777776,-0.7511111111111111,-0.31777777777777777,-0.03596438375866658,-0.01895182782688406,-0.23210456700185372
1592251163.6172607,-5.96,7.92,2.11,0.042222222222222223,-0.7388888888888889,-0.3022222222222222,-0.011999138607461015,-0.007635815477475192,-0.24107360293171679
1592251163.6272607,-5.332111854103343,7.52555744680851,2.2065981762917932,0.042222222222222223,-0.7388888888888889,-0.3022222222222222,0.012587723046697398,0.003779513147669786,-0.26566046458587517
1592251163.6372607,-5.463816847749401,7.496482291519683,1.728635529843375,0.042222222222222223,-0.7388888888888889,-0.3022222222222222,0.030480462564725298,0.04545441230994686,-0.32495829000974147
1592251163.6472607,-5.692407352887058,7.917619328009421,1.8758464284399956,0.042222222222222223,-0.7388888888888889,-0.3022222222222222,0.029039771684991902,0.07579252691896217,-0.3613967985905732
1592251163.6572607,-5.74643175210687,7.639779560593236,2.007048540830972,0.042222222222222223,-0.7388888888888889,-0.3022222222222222,0.019779110907515413,0.08757882245393224,-0.41780264150793006
1592251163.6672606,-5.88,7.38,1.99,0.06888888888888889,-0.7677777777777778,-0.3111111111111111,0.04690572364734761,0.08944812416470939,-0.47560222116845474
1592251163.6772606,-5.986704491725768,7.429248226950355,2.1131205673758866,0.06888888888888889,-0.7677777777777778,-0.3111111111111111,0.06839431642367495,0.08765740810001545,-0.4809743693625367
1592251163.6872606,-6.15507477874012,7.295832505087794,1.7278065691703346,0.06888888888888889,-0.7677777777777778,-0.3111111111111111,0.13137931044410556,0.05908648669007875,-0.4672225095887035
1592251163.6972606,-6.036735154298606,7.191554266376602,2.176891467246797,0.06888888888888889,-0.7677777777777778,-0.3111111111111111,0.17210815365584162,0.03517795237861496,-0.448048878004744
1592251163.7072606,-6.256402787849488,7.242246797196036,2.0755064056079284,0.06888888888888889,-0.7677777777777778,-0.3111111111111111,0.19975664018608627,0.00845108206604513,-0.4388327158279958
1592251163.7172606,-6.3,7.39,1.56,0.09888888888888889,-0.7466666666666667,-0.3111111111111111,0.23780111058422737,-0.00545415391248228,-0.4134248665661568
1592251163.7272606,-6.217320038520183,7.197080089880426,1.7712932348928658,0.09888888888888889,-0.7466666666666667,-0.3111111111111111,0.20873993763693446,-0.015475248032238459,-0.3753447089110833
1592251163.7372606,-6.4692761788979025,7.92113319149931,1.6709047763776212,0.09888888888888889,-0.7466666666666667,-0.3111111111111111,0.20974077468262795,0.00494093579201005,-0.30725897581136596
1592251163.7472606,-6.430052369485423,7.4406415261964325,1.7199345381432212,0.09888888888888889,-0.7466666666666667,-0.3111111111111111,0.16695423596872072,-0.022870314372029653,-0.28800503339010763
1592251163.7572606,-6.532244462073595,7.346275909765872,1.7029592563210674,0.09888888888888889,-0.7466666666666667,-0.3111111111111111,0.15667339745307146,-0.019189732880103283,-0.2824027562505809
1592251163.7672606,-6.116625188215575,7.02466774624279,1.8083437029461065,0.1251540289970359,-0.7422891433153088,-0.31548863446246894,0.1484515358637732,-0.06044595243214274,-0.28573196538456797
1592251163.7772605,-6.208724611423667,6.713953704586631,1.849489844569467,0.12555555555555556,-0.7422222222222222,-0.31555555555555553,0.14512223106558989,-0.03847123634230462,-0.27072080669574017
1592251163.7872605,-6.349682906847862,7.508188039130644,1.5806115367934077,0.12555555555555556,-0.7422222222222222,-0.31555555555555553,0.15705245521746128,-0.046885958220417884,-0.28902815582933516
1592251163.7972605,-6.399609986248755,7.202418085257717,1.8875819147422828,0.12555555555555556,-0.7422222222222222,-0.31555555555555553,0.14517409065322867,-0.005777487556627818,-0.2858231913543987
1592251163.8072605,-6.461509127189418,7.184622718202646,1.3825497006873104,0.12555555555555556,-0.7422222222222222,-0.31555555555555553,0.14675789530559627,0.011319858423194135,-0.28076546131336855
1592251163.8172605,-6.62,7.21,1.8,0.09777777777777778,-0.7566666666666667,-0.27111111111111114,0.11453723216212788,0.03381575425739013,-0.2530727415391778
1592251163.8272605,-6.7843574190922045,7.239883167107673,1.6954089151231426,0.09777777777777778,-0.7566666666666667,-0.27111111111111114,0.10883267341420909,0.015072204085657015,-0.2522578045751894
1592251163.8372605,-6.607704185290532,7.153210077204389,1.6696789922795612,0.09777777777777778,-0.7566666666666667,-0.27111111111111114,0.11218048804569809,-0.01450126772862822,-0.25303772502889044
1592251163.8472605,-6.571436647355635,7.1023944122593905,1.7937745281255841,0.09777777777777778,-0.7566666666666667,-0.27111111111111114,0.12793446275502268,-0.037082079975993214,-0.2343780709497125
1592251163.8572605,-6.774924781683422,7.326881008292361,1.6829001247523299,0.09777777777777778,-0.7566666666666667,-0.27111111111111114,0.13111308511983155,-0.04696093759995837,-0.20709220681649432
1592251163.8672605,-6.399927815544187,6.739679725278576,1.601695984301633,0.1350177930400791,-0.7566666666666667,-0.29877512244882065,0.13825800459462212,-0.06375775580536401,-0.20475243152983463
1592251163.8772604,-6.575482647296207,6.703694108151735,1.4801880548829702,0.13666666666666666,-0.7566666666666667,-0.3,0.15435642953716538,-0.04647449772542124,-0.2092033836728421
1592251163.8872604,-6.727186277289482,6.746482846611851,1.372813722710519,0.13666666666666666,-0.7566666666666667,-0.3,0.170723306166386,-0.025856431833929317,-0.20148018781585872
1592251163.8972604,-7.0005176815431165,7.057830465204236,1.2580616490166414,0.13666666666666666,-0.7566666666666667,-0.3,0.17736572280167057,-0.042387429521644975,-0.1823969941301669
1592251163.9072604,-6.682527587694963,6.975544253334156,1.5553321825617,0.13666666666666666,-0.7566666666666667,-0.3,0.1795583951449493,-0.03486834330972324,-0.1433888915368312
1592251163.9172604,-6.550712350452068,7.019002709367103,1.531424700904137,0.14323835327305753,-0.7566666666666667,-0.2649510047659154,0.20901990118675703,-0.01874615729071058,-0.07933241121680731
1592251163.9272604,-6.518433594400933,7.485604482586236,1.8062060489918346,0.14333333333333334,-0.7566666666666667,-0.2644444444444444,0.21890875214238295,-0.02026580364845128,-0.05013209063055461
1592251163.9372604,-6.399805796235435,6.820274873020615,1.3473946818046012,0.14333333333333334,-0.7566666666666667,-0.2644444444444444,0.25850131128182857,0.0013114738777310272,-0.01249159313759312
1592251163.9472604,-6.795357798165138,6.685511259382819,1.2078732276897415,0.14333333333333334,-0.7566666666666667,-0.2644444444444444,0.2678290709468338,0.01734175302541947,0.012291361165707771
1592251163.9572604,-6.9768950722328835,6.910835113508816,1.4378301169484775,0.14333333333333334,-0.7566666666666667,-0.2644444444444444,0.2546097153579565,0.009387685211658645,-0.023971025205800682
1592251163.9672604,-6.994671626842181,6.620175990842753,1.2680297610530835,0.15038441360232746,-0.7758053131110794,-0.27048822753215374,0.2516761534948541,0.009409800693365122,-0.10760673422737718
1592251163.9772604,-7.146610106051154,6.783013100436681,1.2109981285090454,0.1511111111111111,-0.7777777777777778,-0.27111111111111114,0.24881829733944738,0.0009593594742130385,-0.10821000532765998
1592251163.9872603,-7.134445915120111,7.010713340279929,1.1541274043200314,0.1511111111111111,-0.7777777777777778,-0.27111111111111114,0.2660932226520786,-0.026976166301149716,-0.07428072562534409
1592251163.9972603,-7.441834538422734,7.231491268106368,1.1591952725263637,0.1511111111111111,-0.7777777777777778,-0.27111111111111114,0.2853961992469709,-0.06355608463308983,-0.011724131543580055
1592251164.0072603,-7.015538818076477,7.211413673232909,1.3014831981460022,0.1511111111111111,-0.7777777777777778,-0.27111111111111114,0.28922689318662403,-0.06934675460035117,0.01356523285950402
1592251164.0172603,-7.015037567084079,7.196121645796064,1.1558747763864043,0.15713138541045518,-0.7848014311270125,-0.24602663486384418,0.2716562830559403,-0.09180189892293342,0.05907697544803973
1592251164.0272603,-6.728179543843556,7.095071092023517,1.2496180627944795,0.15777777777777777,-0.7855555555555556,-0.24333333333333335,0.2519296047315856,-0.09448473954642748,0.05166043229554975
1592251164.0372603,-6.545305908025539,6.915255798916997,1.0387262587892994,0.15777777777777777,-0.7855555555555556,-0.24333333333333335,0.2555158921610594,-0.09393945879523549,0.030409784353552294
1592251164.0472603,-6.5230352958056335,7.088752929360563,1.2247058682863838,0.15777777777777777,-0.7855555555555556,-0.24333333333333335,0.22704167098050027,-0.10165516179499542,0.0009085995938571054
1592251164.0572603,-6.4521164992619795,7.286497101918854,1.0735028980811463,0.15777777777777777,-0.7855555555555556,-0.24333333333333335,0.19400054552031193,-0.08550672874207647,-0.03254192057874099
1592251164.0672603,-6.045476853023021,7.187093346825196,1.0770984062737163,0.15197121735953004,-0.798136436461759,-0.22494589200888213,0.13818284513722434,-0.04324552139613764,-0.06590764818129802
1592251164.0772603,-6.657778462043766,7.068449726977871,1.036146898222277,0.1511111111111111,-0.8,-0.2222222222222222,0.11260479970189305,-0.02466781452240333,-0.06284787718207123
1592251164.0872602,-6.904383455629443,7.386020121531759,1.0868049185966522,0.1511111111111111,-0.8,-0.2222222222222222,0.07775349143292865,-0.008290070067126027,-0.014614937566829161
1592251164.0972602,-7.235027258729036,7.1326006075991515,1.2598476840484416,0.1511111111111111,-0.8,-0.2222222222222222,0.04508845921461567,-0.0009294010824441286,0.025476067154686782
1592251164.1072602,-6.850987845175752,6.819987439370809,1.296835494405689,0.1511111111111111,-0.8,-0.2222222222222222,0.02342386729737718,0.003961510218123809,0.042082598552906525
1592251164.1172602,-7.1066711585388065,6.858334122446006,1.4516680627890883,0.1372221210539308,-0.8,-0.21111103017647798,0.03817919657346139,-0.045633451914140526,0.0038176495022191823
1592251164.1272602,-6.944520660141693,6.967839796879479,1.3362803554609115,0.13444444444444445,-0.8,-0.2088888888888889,0.06899934661462226,-0.07659263492452562,-0.021238433790809103
1592251164.1372602,-6.751247699570587,7.04,1.1110055210305925,0.13444444444444445,-0.8,-0.2088888888888889,0.10602794905730602,-0.10461006979039798,-0.05309523477391245
1592251164.1472602,-6.844785161398548,7.133263677538403,1.2680488389369504,0.13444444444444445,-0.8,-0.2088888888888889,0.1044587650520223,-0.11984949363799795,-0.08631880515460488
1592251164.1572602,-6.855317195325543,7.346677796327213,1.356193656093489,0.13444444444444445,-0.8,-0.2088888888888889,0.08523959338282407,-0.12728119512691952,-0.10184608070433522
1592251164.1672602,-6.6194127433039425,7.445837631009815,1.455474962568624,0.14134235383278804,-0.8039416625076249,-0.2157867982772325,-0.00723076901157399,-0.14856022793567356,-0.09409781079074903
1592251164.1772602,-6.619671919602705,7.441868767841083,1.4659343839205412,0.14222222222222222,-0.8044444444444444,-0.21666666666666667,-0.051318868478109875,-0.1479452845222396,-0.018480267920537072
1592251164.1872602,-6.886433872353723,7.12142150352837,1.4207132255292554,0.14222222222222222,-0.8044444444444444,-0.21666666666666667,-0.1397835609074337,-0.13721073639408368,0.1427453896018709
1592251164.1972601,-6.600762779552716,6.865842651757188,1.3421525559105432,0.14222222222222222,-0.8044444444444444,-0.21666666666666667,-0.16438000897864127,-0.15799468461983862,0.16795439658662187
1592251164.2072601,-6.298516826761604,6.793535523163387,1.3675280446026734,0.14222222222222222,-0.8044444444444444,-0.21666666666666667,-0.17491451202720085,-0.1878426923147366,0.12297791422959446
1592251164.2172601,-6.466256775686705,7.148543760277727,1.5883171934953406,0.13153541628601012,-0.7946482056695834,-0.21666666666666667,-0.13868612228794092,-0.20838163225955883,0.04659034672277786
1592251164.22726,-6.445126047019787,7.011478978675191,1.4269663739732124,0.1288888888888889,-0.7922222222222223,-0.21666666666666667,-0.10347125640712336,-0.203733273026597,0.012865385283562378
1592251164.23726,-6.543025470310444,6.903566875693531,1.2758917189233827,0.1288888888888889,-0.7922222222222223,-0.21666666666666667,-0.04887547392926051,-0.18768195275515845,-0.045100987172742746
1592251164.24726,-6.766626155058379,7.423079200592154,1.7019373940450324,0.1288888888888889,-0.7922222222222223,-0.21666666666666667,-0.020002983476705146,-0.18101563400794887,-0.09811812046522617
1592251164.25726,-6.535861143419522,7.18057349915004,1.605056813098327,0.1288888888888889,-0.7922222222222223,-0.21666666666666667,1.2589887352781881e-05,-0.15074770010924832,-0.08872083857902777
1592251164.26726,-7.022209306728257,7.041339214721139,1.6017856196281852,0.139037690524571,-0.8015252903882641,-0.22766120177198895,0.03472638380918605,-0.13365111846651903,-0.01989796610352458
1592251164.27726,-6.9997718341027895,6.921630737532909,1.5427925521767332,0.14222222222222222,-0.8044444444444444,-0.2311111111111111,0.05984315403093896,-0.1230104097866917,0.029629401347068356
1592251164.28726,-6.456188888888889,6.872517460317461,1.1955769841269843,0.14222222222222222,-0.8044444444444444,-0.2311111111111111,0.08392722179720291,-0.10394549612774497,0.07345181218832908
1592251164.29726,-6.805798196733074,7.266191375887882,1.21552818501423,0.14222222222222222,-0.8044444444444444,-0.2311111111111111,0.09746451600492004,-0.07973787010351649,0.09221137257193303
1592251164.30726,-6.760413120513674,7.304004603689009,1.2427997698155495,0.14222222222222222,-0.8044444444444444,-0.2311111111111111,0.08936176163433274,-0.07234404815053547,0.08988495866227633
1592251164.31726,-6.68243210278094,7.233873800617986,1.2426126199382013,0.1274474620986249,-0.8044444444444444,-0.2081281509188486,0.03932889357159304,-0.058767288784028655,0.06289475900698423
1592251164.32726,-6.7055279971427435,7.231658399142823,1.2541708004285885,0.12222222222222222,-0.8044444444444444,-0.2,0.01411508799626322,-0.05820869412733896,0.05787433256680074
1592251164.33726,-6.73588942180994,7.343438834132715,1.2096047014178042,0.12222222222222222,-0.8044444444444444,-0.2,-0.016159824669354877,-0.06685111576580986,0.08060508160899305
1592251164.34726,-6.803340191213845,7.2655189801928275,1.2989208923312758,0.12222222222222222,-0.8044444444444444,-0.2,-0.024302657243262343,-0.07551172570938747,0.1015117295556775
1592251164.35726,-6.587510747305813,6.906934024301671,1.4331786506487643,0.12222222222222222,-0.8044444444444444,-0.2,-0.042536255052144256,-0.09937298625270326,0.1370917961318885
1592251164.36726,-6.876145975992911,6.903373882220253,1.622229517441392,0.127001351629564,-0.8044444444444444,-0.2,-0.044540045353236225,-0.11204672303529786,0.1513166312051703
1592251164.37726,-6.780441748683909,7.018534370946822,1.6927840085450523,0.1288888888888889,-0.8044444444444444,-0.2,-0.033188487025554034,-0.10935081324829449,0.15200107343561245
1592251164.38726,-6.087096171256681,7.086622178090593,1.602162904120791,0.1288888888888889,-0.8044444444444444,-0.2,-0.01114424406441927,-0.06892915783178118,0.1188051741010622
1592251164.39726,-6.1469189559332955,7.133359381293805,1.4414013534198018,0.1288888888888889,-0.8044444444444444,-0.2,-0.0009512803690102422,-0.03057841314755472,0.09587539615259442
1592251164.40726,-6.436276822148896,7.356276822148896,1.4509844387605677,0.1288888888888889,-0.8044444444444444,-0.2,0.007464641707068412,0.025428090419938622,0.061781314256308936
1592251164.41726,-6.323302305126983,7.482954153992744,1.2808066112068017,0.11521505967432599,-0.801565743557168,-0.1913638973381708,-0.015419782781092205,0.06264775463959178,0.041897904095057836
1592251164.42726,-6.321134424045627,7.361133591440823,1.0928866408559177,0.10777777777777778,-0.8,-0.18666666666666668,-0.03798794018394864,0.07501992188147569,0.041766453405230025
1592251164.43726,-7.054588305659196,7.257838284298368,1.4802500640824812,0.10777777777777778,-0.8,-0.18666666666666668,-0.06600167789617743,0.03774434197284852,0.052557190832013385
1592251164.44726,-6.81149781163884,7.290874533960123,1.481124169233263,0.10777777777777778,-0.8,-0.18666666666666668,-0.07214486729380942,0.008222077344774106,0.049714581967975936
1592251164.45726,-6.531922166862244,7.248061096897063,1.3693499798010889,0.10777777777777778,-0.8,-0.18666666666666668,-0.09405748909537565,-0.022203252765284086,0.015026197701154362
1592251164.46726,-6.514171150296509,7.280658602678396,1.7901134980167301,0.11290604668211392,-0.8,-0.18739927651014326,-0.08634326410139348,-0.05323518111981762,-0.0058496941322046135
1592251164.4772599,-6.382568579492004,7.338164816556914,1.8603672624647225,0.11555555555555555,-0.8,-0.18777777777777777,-0.07760911089619546,-0.04930760373155382,0.014561020888851469
1592251164.4872599,-6.034211793020457,7.192154031287605,1.600881897885508,0.11555555555555555,-0.8,-0.18777777777777777,-0.0695350710509882,0.010897806445590345,0.10301965680882723
1592251164.4972599,-5.746344541235854,6.985215338272409,1.6113970528372548,0.11555555555555555,-0.8,-0.18777777777777777,-0.05138076745830555,0.048834725961652385,0.13628910665432353
1592251164.5072598,-6.0402186441337955,6.973987578365328,1.4653267006736497,0.11555555555555555,-0.8,-0.18777777777777777,-0.0037584198484340147,0.10956223079985591,0.15895884260370666
1592251164.5172598,-6.465777009247425,6.719615818359522,1.159945116908503,0.10792605401431805,-0.7917347066636594,-0.16743244033447777,0.03494250593927261,0.12187592111340317,0.118386017112324
1592251164.5272598,-6.426388322596428,6.583611677403572,1.1545372258011906,0.10222222222222223,-0.7855555555555556,-0.15222222222222223,0.05587983718587305,0.12757836634866118,0.07643799010275408
1592251164.5372598,-6.873195829811214,6.876320653705269,1.3448098055790363,0.10222222222222223,-0.7855555555555556,-0.15222222222222223,0.041781185663619685,0.08787411896967857,-0.04206813962770497
1592251164.5472598,-6.953199663825189,6.956296073958459,1.2890238924240605,0.10222222222222223,-0.7855555555555556,-0.15222222222222223,0.035082867694856,0.05619435272490747,-0.11427634431019693
1592251164.5572598,-6.84490999617005,6.9981654538491,1.2991995404059746,0.10222222222222223,-0.7855555555555556,-0.15222222222222223,0.026622370721187918,0.03704020158764967,-0.13533069783644083
1592251164.5672598,-6.8072129705272415,6.970153647960787,1.6962398667755922,0.11108834845025381,-0.7951605256359231,-0.14778915910820642,-0.034490831335629635,-0.021434382730730964,-0.10990899886064971
1592251164.5772598,-6.7490389795595,6.982351845983204,1.7309610204405008,0.11555555555555555,-0.8,-0.14555555555555555,-0.04861447869658861,-0.022414446575132668,-0.06962796564569856
1592251164.5872598,-6.725024086542525,6.953892723328732,1.704659548694256,0.11555555555555555,-0.8,-0.14555555555555555,-0.04365311375517207,-0.016520384361647454,0.02522714816630527
1592251164.5972598,-6.6497216420308485,6.892777152956298,1.747222847043702,0.11555555555555555,-0.8,-0.14555555555555555,-0.018726132905206874,-0.015211077928704797,0.040512209148990425
1592251164.6072598,-6.486335331484298,7.001028898631118,1.5507399123199428,0.11555555555555555,-0.8,-0.14555555555555555,0.023316032195235044,-0.008237348583667991,0.02837043278526
1592251164.6172597,-6.518210829730286,6.984247477866996,1.3283611282684784,0.09481046828174684,-0.7949925651408049,-0.14984764257772287,0.04287075024023801,0.003914593481349234,0.0022418515278730955
1592251164.6272597,-6.743482698419804,7.083514705224047,1.4169333900353642,0.08333333333333333,-0.7922222222222223,-0.15222222222222223,0.04763061656852402,0.007994770537331561,-0.04005415490349005
1592251164.6372597,-6.7665121592949244,7.17613513954627,1.4981932430226865,0.08333333333333333,-0.7922222222222223,-0.15222222222222223,0.04611737719641007,0.003982858729431731,-0.0704275746873128
1592251164.6472597,-6.8337631550098665,7.411901995176496,1.3761551743038807,0.08333333333333333,-0.7922222222222223,-0.15222222222222223,0.03731353987326619,0.0002074754886682035,-0.13024163187413315
1592251164.6572597,-6.890960451977401,7.267645343539274,1.362848551120831,0.08333333333333333,-0.7922222222222223,-0.15222222222222223,0.02903752975268769,0.00857038728511431,-0.1147473666868406
1592251164.6672597,-7.10828724212125,6.699753195798,1.5800493608404,0.09096468098271668,-0.7804283213095389,-0.13002193815128887,0.0012345882248802611,0.044292789755203274,-0.012845529964516392
1592251164.6772597,-7.336116951117151,6.805625724449418,1.5721871377752907,0.09555555555555556,-0.7733333333333333,-0.11666666666666667,-0.0018894973268735323,0.04087234246976818,-0.01638160217925171
1592251164.6872597,-7.072059523809524,6.814791170634921,1.7124627976190476,0.09555555555555556,-0.7733333333333333,-0.11666666666666667,0.03202161898526625,0.021845942548942662,-0.08260359387390226
1592251164.6972597,-6.89188238537892,6.8646143847487,1.7084575389948007,0.09555555555555556,-0.7733333333333333,-0.11666666666666667,0.04943816284383182,0.03180948150814287,-0.10407951289932026
1592251164.7072597,-6.623346475426551,6.943119434436816,1.3664461967235402,0.09555555555555556,-0.7733333333333333,-0.11666666666666667,0.038179077387375956,0.022701233366956015,-0.17964895197112374
1592251164.7172596,-6.623443101038945,7.144557385017316,1.3827869250865787,0.08890347057671925,-0.7691001883468012,-0.10880511169167831,0.041741260563608995,0.013200848538090199,-0.23546562325544723
1592251164.7272596,-6.435055526176626,7.175985030305496,1.3485502176300697,0.08333333333333333,-0.7655555555555555,-0.10222222222222223,0.04258295778601092,0.009440347692086239,-0.257415786034839
1592251164.7372596,-6.7902414068745,7.2631502797761796,1.2558177458033573,0.08333333333333333,-0.7655555555555555,-0.10222222222222223,0.031012641774183617,0.02054738040852077,-0.2442466910352376
1592251164.7472596,-6.919882453515709,7.055244710408207,1.4505086556956615,0.08333333333333333,-0.7655555555555555,-0.10222222222222223,0.03321590223700899,0.03352969967946255,-0.21012049265344054
1592251164.7572596,-7.027494434550312,6.961067453250222,1.5614158504007125,0.08333333333333333,-0.7655555555555555,-0.10222222222222223,0.035231381605244784,0.040257775405668404,-0.1943872839174915
1592251164.7672596,-6.985609298716415,6.659024863396812,1.3621943806783279,0.09644982594544495,-0.7697289850230457,-0.09745258854509073,0.034507517811591226,0.06898840762871819,-0.14909793542491392
1592251164.7772596,-7.078290993071594,6.5433287665870745,1.5870693232082045,0.10777777777777778,-0.7733333333333333,-0.09333333333333334,0.029992231603089135,0.06822596368188073,-0.15077722087664552
1592251164.7872596,-6.86009209146808,7.05630755716755,1.3034887081692215,0.10777777777777778,-0.7733333333333333,-0.09333333333333334,0.021334982223478755,0.09234219024855919,-0.12105999285289548
1592251164.7972596,-7.1682505040920415,7.238336693946942,0.9826572569485628,0.10777777777777778,-0.7733333333333333,-0.09333333333333334,0.007880867488155809,0.08250265496230717,-0.0979673258327462
1592251164.8072596,-6.942216108286318,7.176245037264052,1.3711304590095423,0.10777777777777778,-0.7733333333333333,-0.09333333333333334,0.027616271490270437,0.11631417881675665,0.028342048410564858
1592251164.8172596,-6.67,7.014209765878398,1.2150825617738987,0.10499344747826202,-0.7621960121352702,-0.07941168183575449,0.03438304158742758,0.12763749422916262,0.12009431284538295
1592251164.8272595,-6.7156557122926674,6.655926988063865,1.2060044954270657,0.10222222222222223,-0.7511111111111111,-0.06555555555555556,0.0465308403974957,0.13235272581927585,0.1686048830110328
1592251164.8372595,-7.412250511983173,6.460829135993801,1.013434991974318,0.10222222222222223,-0.7511111111111111,-0.06555555555555556,0.09399233670767797,0.1159344458972882,0.21810155313751162
1592251164.8472595,-7.598828217470212,6.533046634577448,1.301640495541703,0.10222222222222223,-0.7511111111111111,-0.06555555555555556,0.10941541452765545,0.09553295093628987,0.21202176570171152
1592251164.8572595,-7.30335171609837,6.6137534467684445,1.3931232766157777,0.10222222222222223,-0.7511111111111111,-0.06555555555555556,0.11821916203716534,0.07635815477475191,0.17106817352914702
1592251164.8672595,-7.058234693877551,6.573472350230415,1.4347817643186307,0.08947085070587375,-0.748985882525053,-0.06608686270207008,0.10808747074677984,0.061231477205875864,0.13389075334142855
1592251164.8772595,-7.22,6.61,1.44,0.07555555555555556,-0.7466666666666667,-0.06666666666666667,0.10581058590215622,0.044724062082354694,0.11453723216212788
1592251164.8872595,-7.239273686001021,6.8367579520326585,1.3217315870045927,0.07555555555555556,-0.7466666666666667,-0.06666666666666667,0.09085586921434378,0.048551154397335455,0.11422031789498993
1592251164.8972595,-7.1947979237657504,7.160005547190744,1.36478405578889,0.07555555555555556,-0.7466666666666667,-0.06666666666666667,0.08584373192107966,0.039365039263947806,0.11909021237562246
1592251164.9072595,-6.383478050390583,6.970704808009682,1.3322625151281768,0.07555555555555556,-0.7466666666666667,-0.06666666666666667,0.07084828916139661,0.0016429310977830874,0.10745351699993931
1592251164.9172595,-6.633650447109489,7.231699016060054,1.220504829978766,0.0869600874613286,-0.740489211884373,-0.06286515603140898,0.07103426635601932,-0.016842744381820225,0.060043877894372016
1592251164.9272594,-6.13,7.06,0.9,0.10222222222222223,-0.7322222222222222,-0.057777777777777775,0.08726646259971647,-0.008726646259971648,0.02945243112740431
1592251164.9372594,-7.015658011570026,7.102275528050585,1.1048995022198305,0.10222222222222223,-0.7322222222222222,-0.057777777777777775,0.051938572970782276,0.03617810072207491,0.0006771281084943688
1592251164.9472594,-7.126912881965249,7.112086998202517,1.0848692630317556,0.10222222222222223,-0.7322222222222222,-0.057777777777777775,0.027797191818525205,0.06859904731476615,0.05073316063282505
1592251164.9572594,-6.98,7.15,0.81,0.10222222222222223,-0.7322222222222222,-0.057777777777777775,0.007635815477475192,0.08617563181722002,0.09053895494720585
1592251164.9672594,-7.055978257176831,6.529952097842704,1.3894509937149653,0.09675284525225072,-0.7352055187512976,-0.04534737557329709,-0.06679971993271358,0.07770802775767814,0.12756731425653534
1592251164.9772594,-6.755471273445212,6.343511944718657,1.309593287265548,0.09,-0.7388888888888889,-0.03,-0.07016938609443243,0.07894039783144145,0.11087695108670896
1592251164.9872594,-6.7911133967600925,6.741078940601697,1.3221923373617896,0.09,-0.7388888888888889,-0.03,-0.058354369970486805,0.06728857981468252,0.00010754037593447077
1592251164.9972594,-6.700143072109299,7.186919769747056,0.9486908543721786,0.09,-0.7388888888888889,-0.03,-0.02982443967620132,0.08679245002594817,-0.05610158842218726
1592251165.0072594,-6.865279990604999,7.365692783464798,0.9135104030064003,0.09,-0.7388888888888889,-0.03,-0.006561040453300894,0.10424677212217207,-0.072496787599758
1592251165.0172594,-6.7606389073147195,7.01024995477296,1.0080277995537599,0.08220061374768002,-0.7364259248092089,-0.027126541907040006,-0.0030300928158304725,0.1260848893081124,-0.04536946316915828
1592251165.0272593,-6.965505811039782,6.845018733742214,1.2807118822041381,0.06888888888888889,-0.7322222222222222,-0.022222222222222223,-0.030543261909900768,0.13965903670783206,-0.001572896611441145
1592251165.0372593,-7.1,6.85,1.47,0.06888888888888889,-0.7322222222222222,-0.022222222222222223,-0.030543261909900768,0.148352986419518,0.015271630954950384
1592251165.0472593,-7.015072876337964,6.826963106353905,1.0853188339785926,0.06888888888888889,-0.7322222222222222,-0.022222222222222223,-0.06115546154290396,0.09012470754802278,0.019372618100805882
1592251165.0572593,-7.149347730804479,6.687105630154998,1.209691596605172,0.06888888888888889,-0.7322222222222222,-0.022222222222222223,-0.047103704848856606,0.09382826809052044,0.024229900008081517
1592251165.0672593,-6.150542655548429,6.45835279025016,1.0938178319435536,0.07906977407169838,-0.7220413370394128,-0.01967700092651985,-0.03385591698151797,0.09660828424389009,0.024871361660335167
1592251165.0772593,-6.2,6.65,1.1,0.09555555555555556,-0.7055555555555556,-0.015555555555555555,-0.025089107997418484,0.09053895494720585,0.017453292519943295
1592251165.0872593,-6.933587919158278,6.924607524033003,1.0530247521005223,0.09555555555555556,-0.7055555555555556,-0.015555555555555555,-0.012932673754452532,0.08879846429061339,-0.04734689455574807
1592251165.0972593,-6.830858530284184,6.673046837623194,0.91,0.09555555555555556,-0.7055555555555556,-0.015555555555555555,-0.033790156108944314,0.10824791582440921,-0.08791411402114893
1592251165.1072593,-7.44,6.7,0.91,0.09555555555555556,-0.7055555555555556,-0.015555555555555555,-0.056723200689815706,0.10471975511965977,-0.1090830782496456
1592251165.1172593,-7.02760993083004,6.539145256916996,1.0013858695652174,0.09158967391304348,-0.7019502086078173,-0.00834486166007905,-0.06565895877963351,0.06810133644691528,-0.17321667940963456
1592251165.1272593,-7.21,6.35,1.15,0.08333333333333333,-0.6944444444444444,0.006666666666666667,-0.07744898555724837,0.05999569303730508,-0.2181661564992912
1592251165.1372592,-7.4702279452931295,7.05,0.9590634247780533,0.08333333333333333,-0.6944444444444444,0.006666666666666667,-0.06768123846327447,0.010905603213730665,-0.25999881468156466
1592251165.1472592,-7.42,7.05,0.89,0.08333333333333333,-0.6944444444444444,0.006666666666666667,-0.056723200689815706,-0.01854412330243975,-0.26616271092913524
1592251165.1572592,-6.952144004282656,6.909667201998572,1.2337152034261243,0.08333333333333333,-0.6944444444444444,0.006666666666666667,-0.11453723216212788,0.004363323129985824,-0.19198621771937624
1592251165.1672592,-7.06946255077173,6.912687246141348,1.2853039805036557,0.08543612239371784,-0.6961967686614315,0.004213412762884738,-0.11144061966330618,0.01365316062645093,-0.16033195662030997
1592251165.1772592,-7.09,6.81,1.21,0.09,-0.7,-0.0011111111111111111,-0.10471975511965977,0.03381575425739013,-0.0916297857297023
1592251165.1872592,-7.33738639570985,6.624819233828548,1.2258109460395659,0.09,-0.7,-0.0011111111111111111,-0.06075493342952531,0.0009017903928682201,-0.05137722579804902
1592251165.1972592,-7.412249235572091,6.871878033656211,1.2139681826929245,0.09,-0.7,-0.0011111111111111111,-0.03316935415741955,-0.05059372392905109,-0.005269538144024619
1592251165.2072592,-7.07544631433914,6.958173998622183,1.282732211396516,0.09,-0.7,-0.0011111111111111111,-0.018344937451259362,-0.0807224655676842,0.04938739856779417
1592251165.2172592,-6.982014575741801,6.854676383827868,1.383870553531147,0.08749559450132069,-0.6944132492721768,-0.0011111111111111111,-0.004785535023693371,-0.09609433674490053,0.10307883368644474
1592251165.2272592,-7.23,7.02,1.45,0.07555555555555556,-0.6677777777777778,-0.0011111111111111111,-0.011999138607461015,-0.08617563181722002,0.14726215563702155
1592251165.2372591,-6.90190640090414,6.686611270933936,1.8047048700297954,0.07555555555555556,-0.6677777777777778,-0.0011111111111111111,0.010933104527998293,-0.055610907450230174,0.21786089087267815
1592251165.2472591,-7.059060592276938,6.6684343204615635,1.5643716932800267,0.07555555555555556,-0.6677777777777778,-0.0011111111111111111,0.07598375050076633,-0.051132859409764565,0.26122003655283776
1592251165.2572591,-6.97,6.52,1.41,0.07555555555555556,-0.6677777777777778,-0.0011111111111111111,0.10253809355466686,-0.05890486225480862,0.2683443724941282
1592251165.2672591,-7.120560297087758,6.4899312658805135,1.49084565769757,0.08134601602710274,-0.6698044389428193,0.0009155500539304048,0.12387098129261069,-0.0762122866282229,0.23344528518357596
1592251165.277259,-6.81,6.66,1.55,0.09777777777777778,-0.6755555555555556,0.006666666666666667,0.14726215563702155,-0.08508480103472357,0.21489366415180183
1592251165.287259,-6.74,6.91403817460094,1.1782359730863432,0.09777777777777778,-0.6755555555555556,0.006666666666666667,0.14168396620947768,-0.079549512724917,0.15239984854858535
1592251165.297259,-6.74,7.08,1.07,0.09777777777777778,-0.6755555555555556,0.006666666666666667,0.13853550937704992,-0.056723200689815706,0.13744467859455345
1592251165.307259,-6.85,7.227328211885036,1.0167882266240873,0.09777777777777778,-0.6755555555555556,0.006666666666666667,0.09030641132966835,0.0011290764853598397,0.17340231401389453
1592251165.317259,-6.861597004848708,7.017680599030258,0.9678328116368993,0.09313897583829457,-0.6722053097103733,0.01156317982501006,0.04661950861051139,0.023919476022324086,0.21016954269818786
1592251165.327259,-6.9,7.01,1.06,0.07777777777777778,-0.6611111111111111,0.027777777777777776,0.02399827721492203,0.0272707695624114,0.24870941840919195
1592251165.337259,-7.116200300164375,6.938391500107202,1.1772261000071467,0.07777777777777778,-0.6611111111111111,0.027777777777777776,-0.015088556822385227,0.022063252497647484,0.314876333863451
1592251165.347259,-6.95,6.835506545247581,1.1727532726237906,0.07777777777777778,-0.6611111111111111,0.027777777777777776,-0.014449937989307778,0.015682477437771687,0.33980092850518656
1592251165.357259,-6.921281797543513,6.88092729495314,1.19546364747657,0.07777777777777778,-0.6611111111111111,0.027777777777777776,-0.0026893909402092605,0.015297411110820548,0.3628400733840374
1592251165.367259,-6.829513222293888,7.01378305573472,1.2438843570967864,0.07777777777777778,-0.6620926340461948,0.027777777777777776,0.011501297294616235,-0.0013342263067162706,0.3928573032748323
1592251165.377259,-6.96,7.34,1.16,0.07777777777777778,-0.6755555555555556,0.027777777777777776,0.019634954084936207,-0.019634954084936207,0.45487643630102215
1592251165.387259,-6.829820086293452,7.322814848986459,1.199820086293452,0.07777777777777778,-0.6755555555555556,0.027777777777777776,-0.02482130668702676,-0.020804287031150892,0.5251790016570975
1592251165.397259,-6.86,7.27,1.23,0.07777777777777778,-0.6755555555555556,0.027777777777777776,-0.02399827721492203,-0.007635815477475192,0.5803219762881145
1592251165.407259,-6.860482485851015,7.239061468872233,1.2880964971702031,0.07777777777777778,-0.6755555555555556,0.027777777777777776,-0.02841423138674847,0.006597615736819353,0.7031590379370265
1592251165.417259,-6.841069182389937,7.142976939203354,1.260335429769392,0.07777777777777778,-0.6744630794316329,0.027777777777777776,-0.021240327689364954,-0.005326089921245799,0.7832416572593054
1592251165.427259,-6.899080175291206,7.1,1.1099954587770486,0.07777777777777778,-0.6677777777777778,0.027777777777777776,0.0024801966441561863,-0.06317082029758041,0.8449994423801117
1592251165.437259,-6.728860118410728,7.102357514801341,1.0158549111919537,0.07777777777777778,-0.6677777777777778,0.027777777777777776,0.024840424412222777,-0.10570320688226571,0.8854352595192739
1592251165.447259,-6.701013255856183,7.122712392020546,0.97,0.07777777777777778,-0.6677777777777778,0.027777777777777776,0.035405663680341336,-0.14931475343385014,0.8785066503481974
1592251165.457259,-6.445274835098941,7.152087747351589,1.004286428143114,0.07777777777777778,-0.6677777777777778,0.027777777777777776,0.018639840814635624,-0.17050515845047093,0.8327230599769064
1592251165.467259,-6.458428162599625,7.152005723605256,1.1157183740037542,0.07445945437698523,-0.6690003179780698,0.03004820957832005,-0.010940901500990165,-0.15583207700166515,0.7721809410457884
1592251165.477259,-6.45,7.27,1.2,0.056666666666666664,-0.6755555555555556,0.042222222222222223,-0.04036073895236887,-0.13744467859455345,0.7188574856651644
1592251165.487259,-6.325532462134006,7.282337689329973,1.1611688446649866,0.056666666666666664,-0.6755555555555556,0.042222222222222223,-0.07686815947096158,-0.09946392377130704,0.6685631044530701
1592251165.497259,-6.252385847477886,7.371522830504423,1.217284245756634,0.056666666666666664,-0.6755555555555556,0.042222222222222223,-0.09946770349176624,-0.054729820220917096,0.6728944713839954
1592251165.507259,-6.139150888485637,7.427068682165235,1.2391779367959737,0.056666666666666664,-0.6755555555555556,0.042222222222222223,-0.11730767045429802,-0.009276487420649323,0.672725786140522
1592251165.517259,-6.2396750778922865,7.520412572328552,1.1673749443626527,0.056666666666666664,-0.6755555555555556,0.042222222222222223,-0.1306229059059745,0.018920481771136182,0.6641100455541431
1592251165.5272589,-6.28,7.46,1.25,0.01,-0.6611111111111111,0.027777777777777776,-0.14944381720201447,0.03599741582238304,0.6664976081053345
1592251165.5372589,-6.42778422181616,7.626287704245121,1.0857482587855196,0.01,-0.6611111111111111,0.027777777777777776,-0.15184756788159207,-0.0008624152480243962,0.7207063313236628
1592251165.5472589,-6.317684341144466,7.704162649739894,1.0668228893237246,0.01,-0.6611111111111111,0.027777777777777776,-0.15055344194778497,-0.06822541857857636,0.8290208784076074
1592251165.5572588,-6.16,7.74,1.16,0.01,-0.6611111111111111,0.027777777777777776,-0.14508049407202864,-0.12217304763960307,0.9228428419920017
1592251165.5672588,-5.998127782456985,7.78496450487306,1.2679148116953436,0.01,-0.6611111111111111,0.027777777777777776,-0.14704244071343847,-0.1516022472607504,1.0631220268528039
1592251165.5772588,-5.7,7.68,1.59,0.0033333333333333335,-0.6555555555555556,0.012222222222222223,-0.15707963267948966,-0.15489797111449674,1.2228213071785272
1592251165.5872588,-5.648060276895473,7.485603375118202,1.511034357345489,0.0033333333333333335,-0.6555555555555556,0.012222222222222223,-0.1389351518163371,-0.14012474268277123,1.3576518058222726
1592251165.5972588,-5.55,7.38,1.33,0.0033333333333333335,-0.6555555555555556,0.012222222222222223,-0.11671889372712078,-0.148352986419518,1.433351648200343
1592251165.6072588,-5.146547842784768,7.458284646184016,1.199643528354306,0.0033333333333333335,-0.6555555555555556,0.012222222222222223,-0.11774657255591577,-0.18019115306816016,1.5965242633769001
1592251165.6172588,-5.206525167511031,8.083762461186467,1.3795755025330936,0.0033333333333333335,-0.6555555555555556,0.012222222222222223,-0.09718439447891226,-0.1820604419842514,1.7722374214894754
1592251165.6272588,-4.64,7.68,2.47,-0.027777777777777776,-0.6677777777777778,0.021111111111111112,-0.04908738521234052,-0.25089107997418486,1.9733128855360889
1592251165.6372588,-4.712243171942893,8.124036571487688,1.5859895510035176,-0.027777777777777776,-0.6677777777777778,0.021111111111111112,0.07948092027135392,-0.21274365767003778,2.1119778647678062
1592251165.6472588,-4.24,8.53,1.47,-0.027777777777777776,-0.6677777777777778,0.021111111111111112,0.14726215563702155,-0.2181661564992912,2.165299103255465
1592251165.6572587,-3.8631142739192827,8.091595274135523,1.5268666574927756,-0.027777777777777776,-0.6677777777777778,0.021111111111111112,0.19485146857616617,-0.21826848688703368,2.2206265620598273
1592251165.6672587,-3.7146989325522424,8.54508659497926,1.4114325030961883,-0.027777777777777776,-0.6677777777777778,0.021111111111111112,0.22003529436961536,-0.21916790923679974,2.2467098102030425
1592251165.6772587,-3.78,8.9,1.42,-0.09555555555555556,-0.6677777777777778,0.006666666666666667,0.20943951023931953,-0.18762289458939044,2.2689280275926285
1592251165.6872587,-3.289627864947014,8.890191407212685,1.3957947917522384,-0.09555555555555556,-0.6677777777777778,0.006666666666666667,0.1767994480764298,-0.14507063689745583,2.3024990550885795
1592251165.6972587,-2.853738489005826,8.082387943995489,1.3907489193760572,-0.09555555555555556,-0.6677777777777778,0.006666666666666667,0.21379278813187963,-0.04339350375874157,2.3014386697528435
1592251165.7072587,-2.8315177406381267,9.368369470015192,1.6256460809723836,-0.09555555555555556,-0.6677777777777778,0.006666666666666667,0.24473682113585904,0.0045771411720066674,2.227593759457325
1592251165.7172587,-2.5166359817678075,9.360872285280186,1.1458262579318976,-0.09555555555555556,-0.6677777777777778,0.006666666666666667,0.20139257371351227,0.03565414875784019,2.1278202087870177
1592251165.7272587,-2.56,10.02,0.83,-0.13444444444444445,-0.6411111111111111,0.012222222222222223,0.16144295580947549,0.02181661564992912,1.9242255003237485
1592251165.7372587,-2.2256830763414435,9.730264103048798,1.0855510248170452,-0.13444444444444445,-0.6411111111111111,0.012222222222222223,0.06963062360900193,0.026771057067629465,1.712551688444679
1592251165.7472587,-1.9271662125340598,9.847874659400546,0.8794005449591281,-0.13444444444444445,-0.6411111111111111,0.012222222222222223,0.011728660130057262,-0.019299085206401875,1.4975323269100052
1592251165.7572587,-1.61,9.61,1.26,-0.13444444444444445,-0.6411111111111111,0.012222222222222223,-0.01854412330243975,-0.030543261909900768,1.3799009398580167
1592251165.7672586,-1.4643474197599369,9.438644023246985,1.4227881779153646,-0.13444444444444445,-0.6411111111111111,0.012222222222222223,-0.02695554014175188,-0.025870252554727358,1.2976559752069647
1592251165.7772586,-1.52,9.6,1.35,-0.19,-0.6266666666666667,0.02666666666666667,-0.0032724923474893677,-0.004363323129985824,1.2184579840485412
1592251165.7872586,-1.3312783129393388,9.607708929966154,1.3613668315542826,-0.19,-0.6266666666666667,0.02666666666666667,0.020096164496488992,-0.028092371607129504,1.1467710046735557
1592251165.7972586,-1.18,9.67,1.13,-0.19,-0.6266666666666667,0.02666666666666667,0.04145156973486533,-0.05235987755982988,1.0875582901489667
1592251165.8072586,-1.1173139919499464,9.707649742956203,1.1743647630813374,-0.19,-0.6266666666666667,0.02666666666666667,0.04821630294957146,-0.08643991690637585,1.0316982599057793
1592251165.8172586,-1.0504539114494083,9.649147172518234,1.2830123938947118,-0.19,-0.6266666666666667,0.02666666666666667,0.053686280494334805,-0.12017144509908312,0.9988783946371993
1592251165.8272586,-1.06,9.62,1.57,-0.2411111111111111,-0.6177777777777778,0.03333333333333333,0.06544984694978735,-0.1407171709420428,0.9490227807719166
1592251165.8372586,-0.8380157606517964,9.475535461466542,1.6404960598370508,-0.2411111111111111,-0.6177777777777778,0.03333333333333333,0.0919372639296997,-0.1589366238403534,0.8971671010224123
1592251165.8472586,-0.8091871346436046,9.39,1.6454064326781976,-0.2411111111111111,-0.6177777777777778,0.03333333333333333,0.1468084934712779,-0.14987685358905184,0.8661979982681111
1592251165.8572586,-0.86,9.39,1.62,-0.2411111111111111,-0.6177777777777778,0.03333333333333333,0.18653206380689397,-0.1341721862470641,0.8726646259971648
1592251165.8672585,-0.7583074917089486,9.476047507015505,1.4791949885200828,-0.2411111111111111,-0.6177777777777778,0.03333333333333333,0.22066416177401854,-0.13331888379788595,0.8854641627348364
1592251165.8772585,-0.42,9.52,1.44,-0.2611111111111111,-0.5988888888888889,0.01888888888888889,0.27598018797160334,-0.15271630954950383,0.8792096106921435
1592251165.8872585,-0.49741915495139616,9.674838309902793,1.0722590139808683,-0.2611111111111111,-0.5988888888888889,0.01888888888888889,0.3192614266267243,-0.15482758948389996,0.8654862911185686
1592251165.8972585,-0.06,9.75,0.62,-0.2611111111111111,-0.5988888888888889,0.01888888888888889,0.35124751196385884,-0.18653206380689397,0.830122225479803
1592251165.9072585,-0.14359989785294755,10.175516923016481,0.8887294478166068,-0.2611111111111111,-0.5988888888888889,0.01888888888888889,0.36325820021658994,-0.21359493975444332,0.7965772771907312
1592251165.9172585,-0.4237307246547626,12.161150136523464,0.7898597442394956,-0.2611111111111111,-0.5988888888888889,0.01888888888888889,0.3641569511842417,-0.19741742233671142,0.7327659584874554
1592251165.9272585,0.71,9.81,1.06,-0.2966666666666667,-0.6022222222222222,0.01888888888888889,0.22143864884678055,-0.20180369476184434,0.3883357585687383
1592251165.9372585,-0.2885138278624967,9.740796071336263,1.257725510467821,-0.2966666666666667,-0.6022222222222222,0.01888888888888889,0.24085030544406177,-0.08209847907861025,0.25245416238776985
1592251165.9472585,-0.12,9.69,1.21,-0.2966666666666667,-0.6022222222222222,0.01888888888888889,0.22143864884678055,-0.02399827721492203,0.21162117180431245
1592251165.9572585,-0.3225430983236238,9.853963460547694,0.8917179883485911,-0.2966666666666667,-0.6022222222222222,0.01888888888888889,0.2687829873682695,0.03912750748039661,0.18111037586824177
1592251165.9672585,-0.09268680223285483,9.96638177830941,0.699969298245614,-0.2966666666666667,-0.6022222222222222,0.01888888888888889,0.27855988533827153,0.04948542101401581,0.15142227456382462
1592251165.9772584,-0.01,9.85,0.77,-0.31444444444444447,-0.6022222222222222,0.01888888888888889,0.27270769562411395,0.039269908169872414,0.09272061651219875
1592251165.9872584,-0.3390897042674846,9.885577265326216,0.6543738876898028,-0.31444444444444447,-0.6022222222222222,0.01888888888888889,0.26591615979351024,0.04315078578736028,0.03644789105862472
1592251165.9972584,-0.88,9.66,0.69,-0.31444444444444447,-0.6022222222222222,0.01888888888888889,0.24652775684419903,0.028361600344907853,-0.007635815477475192
1592251166.0072584,-0.8525606523136247,9.733171593830335,0.5985355077120822,-0.31444444444444447,-0.6022222222222222,0.01888888888888889,0.24553003400726833,-0.014540481643112405,-0.006638092640544487
1592251166.0172584,-0.7926040937358428,9.813794736625345,0.4752081874716857,-0.31444444444444447,-0.6022222222222222,0.01888888888888889,0.23649275158424204,-0.03553805480961478,0.0015047723347357518
1592251166.0272584,-0.63,9.79,0.52,-0.3022222222222222,-0.5955555555555555,0.03333333333333333,0.20616701789183017,-0.0643590161672909,0.017453292519943295
1592251166.0372584,-0.5455491653284535,9.846300556447698,0.5293834260746163,-0.3022222222222222,-0.5955555555555555,0.03333333333333333,0.18057769287315187,-0.060264724164302376,0.019500438521437558
1592251166.0472584,-0.726568859210879,9.70270879535983,0.5398194136426779,-0.3022222222222222,-0.5955555555555555,0.03333333333333333,0.1564024791276716,-0.04821324250305656,0.016421558484686613
1592251166.0572584,-0.6617476394443524,9.748751686111177,0.5692510116667061,-0.3022222222222222,-0.5955555555555555,0.03333333333333333,0.14748002751160494,-0.04799655442984406,0.023807639324661567
1592251166.0672584,-0.5056390896343437,9.75,0.57,-0.3022222222222222,-0.5955555555555555,0.03333333333333333,0.1376403480575339,-0.04639291983326278,0.02640372910979395
1592251166.0772583,-0.45,9.839252587312476,0.4239503116704942,-0.3121391763680529,-0.5955555555555555,0.03333333333333333,0.12355115319347487,-0.02634299893327091,0.0281558556502105
1592251166.0872583,-0.7154172876304024,9.810848650438816,0.39983026991223714,-0.31444444444444447,-0.5955555555555555,0.03333333333333333,0.09534663040786583,-0.0003702936088951399,0.02192770373259766
1592251166.0972583,-0.5835138705416116,9.839247027741083,0.35125495376486127,-0.31444444444444447,-0.5955555555555555,0.03333333333333333,0.0629987199206903,0.0031903558156501366,0.02500697146557925
1592251166.1072583,-0.42804051856326375,9.868492402769387,0.340502532410204,-0.31444444444444447,-0.5955555555555555,0.03333333333333333,0.03938506859633177,0.015704648350743665,0.029233159998503254
1592251166.1172583,-0.5645888232621535,9.833852794184462,0.39783552930486143,-0.31444444444444447,-0.5955555555555555,0.03333333333333333,0.02004105437715683,0.028191607178894094,0.02945243112740431
1592251166.1272583,-0.6382756614299894,9.82,0.4474134921449841,-0.32764353325499235,-0.6067240153183269,0.03130270428555673,-0.007842467371273936,0.028737792663230552,0.03543312734489899
1592251166.1372583,-0.6120780017942301,9.801385334529487,0.45930733273525665,-0.3288888888888889,-0.6077777777777778,0.03111111111111111,-0.030122927143577827,0.028361600344907853,0.03701268832743853
1592251166.1472583,-0.6487474546809039,9.8,0.42125254531909606,-0.3288888888888889,-0.6077777777777778,0.03111111111111111,-0.05382422375478831,0.016738198359845854,0.03497490078941368
1592251166.1572583,-0.6033420497293329,9.781336819891733,0.49465272043306724,-0.3288888888888889,-0.6077777777777778,0.03111111111111111,-0.07082823621392118,-0.0019600724877888442,0.033888666471817944
1592251166.1672583,-0.6213277108872657,9.772890763037578,0.5284369478496876,-0.3288888888888889,-0.6077777777777778,0.03111111111111111,-0.08440279087464035,-0.011027466866160778,0.029162769546187288
1592251166.1772583,-0.5316281941347968,9.778942891442291,0.5489428914422912,-0.3209396520512967,-0.5898919948931953,0.05098420320509156,-0.10212985981541738,-0.025887017696184372,0.024344215181478786
1592251166.1872582,-0.6035121776504297,9.733604345749761,0.6891869627507163,-0.32,-0.5877777777777777,0.05333333333333334,-0.11577527821641684,-0.007026846430322205,0.02501047337152649
1592251166.1972582,-0.6650538648310979,9.711648711722969,0.6449461351689022,-0.32,-0.5877777777777777,0.05333333333333334,-0.11771980123467346,0.011561273715913204,0.025089107997418484
1592251166.2072582,-0.67,9.728288459708876,0.685721149272191,-0.32,-0.5877777777777777,0.05333333333333334,-0.11581476302812838,-0.0018722417212089539,0.022096665775185202
1592251166.2172582,-0.6426283103719038,9.73,0.7515863016632165,-0.32,-0.5877777777777777,0.05333333333333334,-0.11338872182347935,-0.015962092033977558,0.02256306269031078
1592251166.2272582,-0.6121840220385675,9.721092011019284,0.7889079889807162,-0.3130715641261096,-0.5986653198653198,0.046404897459442915,-0.11235557059713495,-0.035420567676355444,0.020964024714364673
1592251166.2372582,-0.5830012470555632,9.728999584314813,0.7810004156851877,-0.31222222222222223,-0.6,0.04555555555555556,-0.111373868237108,-0.048868674925202873,0.01679897542732487
1592251166.2472582,-0.5620421122994653,9.756936831550801,0.6273579545454545,-0.31222222222222223,-0.6,0.04555555555555556,-0.1112647398146385,-0.05213711766407275,0.014403560068211058
1592251166.2572582,-0.577941316566638,9.76,0.6369119748499571,-0.31222222222222223,-0.6,0.04555555555555556,-0.11713602193145924,-0.04942423650141951,0.012223706133513682
1592251166.2672582,-0.4846845705599189,9.780424734880016,0.6740412248000289,-0.31222222222222223,-0.6,0.04555555555555556,-0.12820702495762817,-0.049830049530055584,0.010513809972030882
1592251166.2772582,-0.5659424849180206,9.763012324660425,0.7169876753395759,-0.31222222222222223,-0.5880054776268552,0.052552360273223374,-0.14289435113404422,-0.037421321624517376,0.007854877908572781
1592251166.2872581,-0.5893710436423572,9.769371043642357,0.7293710436423572,-0.31222222222222223,-0.5866666666666667,0.05333333333333334,-0.15318966387181304,-0.024752970666261993,0.010702482338235479
1592251166.2972581,-0.581045354108294,9.752090708216588,0.6762721246497643,-0.31222222222222223,-0.5866666666666667,0.05333333333333334,-0.16357514371702858,-0.023021476876419204,0.008954707147958901
1592251166.3072581,-0.58,9.75,0.7143044880918493,-0.31222222222222223,-0.5866666666666667,0.05333333333333334,-0.1734146140513655,-0.023874020420692314,0.0125929422130386
1592251166.3172581,-0.572873671284393,9.714368356421964,0.8554002455965309,-0.31222222222222223,-0.5866666666666667,0.05333333333333334,-0.18230654392860537,-0.023220915342004787,0.01308996938995747
1592251166.327258,-0.5609089070190817,9.627271256152653,1.2281882543321423,-0.3192930723184921,-0.5927273953206122,0.027070175832902554,-0.18147449539634825,-0.015965655583339337,0.01606502261099443
1592251166.337258,-0.5056299785273949,9.583753319018264,1.3506167024543418,-0.32,-0.5933333333333334,0.024444444444444446,-0.1622968870897632,-0.019225530492771113,0.013397037084081291
1592251166.347258,-0.5,9.55134792365296,1.2931451551902373,-0.32,-0.5933333333333334,0.024444444444444446,-0.11972118810665057,-0.019634954084936207,0.008922693808385323
1592251166.357258,-0.4932458404479212,9.55675415955208,1.29,-0.32,-0.5933333333333334,0.024444444444444446,-0.08465532133776718,-0.018898189570006205,0.006516352715181644
1592251166.367258,-0.5302347194090313,9.613646292545376,1.2162363477501092,-0.32,-0.5933333333333334,0.024444444444444446,-0.038731337818682744,-0.01415519625679185,0.0010652268668343802
1592251166.377258,-0.5583956422398093,9.64839564223981,1.1296261465611446,-0.3255970948265395,-0.5812062945424977,0.024444444444444446,0.004392220266513432,-0.007420026110455296,-0.0020066532818976
1592251166.387258,-0.533260133105884,9.65,1.1021734220705894,-0.32666666666666666,-0.5788888888888889,0.024444444444444446,0.03023554599203981,0.002205616283409138,-0.0012093725673942592
1592251166.397258,-0.5554916208728825,9.641502793042372,1.03202234433898,-0.32666666666666666,-0.5788888888888889,0.024444444444444446,0.05033605181267764,0.014395310245037134,-0.00201773227395877
1592251166.407258,-0.5767603729271937,9.64,1.0451405593907908,-0.32666666666666666,-0.5788888888888889,0.024444444444444446,0.06533448330714343,0.020019007880467485,-0.002181661564992912
1592251166.417258,-0.5737344990632527,9.658796502810242,1.0374689981265055,-0.32666666666666666,-0.5788888888888889,0.024444444444444446,0.07993379083599599,0.018675404480563377,-0.004232041951862198
1592251166.427258,-0.5616638235410799,9.67833617645892,1.03,-0.31462552289267093,-0.5909300326628847,0.01147705884167978,0.0990878278563426,0.018362628308914532,-0.0018168107565973224
1592251166.437258,-0.5874365248570598,9.689145508285685,0.9202539005717608,-0.31222222222222223,-0.5933333333333334,0.008888888888888889,0.11541394551561507,0.014553642518598416,-0.0030860711744171224
1592251166.447258,-0.59,9.706953595622146,0.7743712350228381,-0.31222222222222223,-0.5933333333333334,0.008888888888888889,0.12411629531857406,0.016954825769248904,-0.00142314194962605
1592251166.457258,-0.6259191204735911,9.736939340355194,0.7320404397632044,-0.31222222222222223,-0.5933333333333334,0.008888888888888889,0.12642508204441225,0.017453292519943295,0.0018477953894629362
1592251166.467258,-0.6163566281514492,9.74,0.7231783140757246,-0.31222222222222223,-0.5933333333333334,0.008888888888888889,0.11983919627433877,0.014476770522054351,0.002181661564992912
1592251166.477258,-0.5466896603154481,9.721911331518701,0.783310339684552,-0.31222222222222223,-0.5933333333333334,0.028987409423667294,0.10981280698929916,0.011116801750579863,0.004154829204370519
1592251166.487258,-0.555542797881403,9.740723730508538,0.79,-0.31222222222222223,-0.5933333333333334,0.03111111111111111,0.10625731785378642,0.008082547429105375,0.0015375627341266394
1592251166.497258,-0.5937966770850469,9.76,0.7027455173548282,-0.31222222222222223,-0.5933333333333334,0.03111111111111111,0.10016783795243037,0.0037236107201158012,-0.0028213739748629337
1592251166.507258,-0.5265563620836892,9.727358383148307,0.7452832337033874,-0.31222222222222223,-0.5933333333333334,0.03111111111111111,0.09303446712802804,0.0006020063135681766,-0.0014921683248752403
1592251166.517258,-0.5405555555555556,9.726111111111111,0.7722222222222223,-0.31222222222222223,-0.5933333333333334,0.03111111111111111,0.08896331048359986,-0.0013332376230512238,-0.001090830782496456
1592251166.527258,-0.5900524768320369,9.737513119208009,0.7950262384160185,-0.30721347608354943,-0.5933333333333334,0.04196339441156889,0.08726646259971647,0.004374771798736578,-0.003549493293895014
1592251166.537258,-0.5672402099688764,9.715430157476659,0.7836201049844381,-0.3055555555555556,-0.5933333333333334,0.04555555555555556,0.08726646259971647,0.006544984694978735,-0.0025765537602823107
1592251166.547258,-0.5519869538692572,9.734039138392228,0.6117260312543995,-0.3055555555555556,-0.5933333333333334,0.04555555555555556,0.08814055033781432,0.006544984694978735,-0.0013075738268950666
1592251166.557258,-0.5823281585745672,9.764246118930926,0.5942461189309254,-0.3055555555555556,-0.5933333333333334,0.04555555555555556,0.08218599704216412,0.011834667272163438,-0.0028540583082246897
1592251166.567258,-0.5961246217034154,9.788373865110247,0.5816261348897536,-0.3055555555555556,-0.5933333333333334,0.04555555555555556,0.07404055201950625,0.01375806197848062,-0.003940584936012516
1592251166.5772579,-0.6,9.8,0.554807020153194,-0.3055555555555556,-0.5882690067177313,0.04555555555555556,0.058212091013452205,0.010037557648767865,-0.00022008060629976137
1592251166.5872579,-0.5918804924935921,9.783760984987184,0.5337609849871842,-0.3055555555555556,-0.5866666666666667,0.04555555555555556,0.039484624289431454,0.005183842769291333,-0.0006805709628437016
1592251166.5972579,-0.5818416023609666,9.771841602360967,0.46473281888773316,-0.3055555555555556,-0.5866666666666667,0.04555555555555556,0.014638780749173453,-0.002756221894417374,0.0015789986016547435
1592251166.6072578,-0.5558199704176743,9.794180029582327,0.4983600591646515,-0.3055555555555556,-0.5866666666666667,0.04555555555555556,-0.007766736684249119,-0.006121744502657546,0.001302450878657051
1592251166.6172578,-0.5560221359987126,9.775911456005149,0.6364648559729648,-0.3055555555555556,-0.5866666666666667,0.04555555555555556,-0.02185283559312464,-0.006544984694978735,0.001090830782496456
1592251166.6272578,-0.5527513616958635,9.731005446783454,0.7707404681289562,-0.31038798109164667,-0.6003585390189247,0.04072313001946448,-0.03626863813824298,-0.009707799812312784,0.0018815345618299682
1592251166.6372578,-0.572965241532482,9.727655080510829,0.8053101610216546,-0.31222222222222223,-0.6055555555555555,0.03888888888888889,-0.04010494791624233,-0.006733109093114992,-0.000323457674116828
1592251166.6472578,-0.5485985142199655,9.714299257109984,0.7628977713299482,-0.31222222222222223,-0.6055555555555555,0.03888888888888889,-0.04036073895236887,-0.00459781122985762,0.0014781972653775232
1592251166.6572578,-0.6029761117930318,9.70212798602587,0.8051040978189028,-0.31222222222222223,-0.6055555555555555,0.03888888888888889,-0.03434981433811336,-0.0035046196136636087,0.003899068597637342
1592251166.6672578,-0.6027089095046385,9.694236303168212,0.86034587782251,-0.31222222222222223,-0.6055555555555555,0.03888888888888889,-0.029581314512348317,-0.0007576051774530784,0.0024771577524586065
