time,acc_x,acc_y,acc_z,mag_x,mag_y,mag_z,gyr_x,gyr_y,gyr_z
1592251166.9772575,-0.575395047855233,9.695395047855232,0.9169752392761653,-0.3164183705540702,-0.5932606140452849,0.03416601008339684,0.03005573363287073,0.014353172316872904,0.014180800172453926
1592251166.9872575,-0.589322736964528,9.702330684241131,0.9306772630354719,-0.32,-0.5988888888888889,0.024444444444444446,0.04039334335373754,0.016616699948897456,0.015451991229707017
1592251166.9972575,-0.6485869088469775,9.738586908846978,0.8085218916896721,-0.32,-0.5988888888888889,0.024444444444444446,0.058753082012542215,0.018700631725811427,0.021505962893738406
1592251167.0072575,-0.8756604366263546,9.779902622899325,0.8395131144966232,-0.32,-0.5988888888888889,0.024444444444444446,0.07014845449022482,0.026148072198236862,0.028696884755359493
1592251167.0172575,-1.0017770923168927,9.79466651978219,0.9086660791287653,-0.32,-0.5988888888888889,0.024444444444444446,0.07376438021733495,0.02962211057492241,0.034858002195241086
1592251167.0272574,-1.1890215778056856,9.854510788902843,1.0042482018495262,-0.32,-0.595693445471959,0.032752597328462155,0.08372322403449137,0.020504480346311964,0.07369228838245609
1592251167.0372574,-1.24,9.88,1.0,-0.32,-0.5933333333333334,0.03888888888888889,0.08835729338221293,0.01308996938995747,0.08944812416470939
1592251167.0472574,-1.4135645574088782,9.940636528108728,0.9988542494042891,-0.32,-0.5933333333333334,0.03888888888888889,0.10597722857133823,-0.015757672073397917,0.139452044057551
1592251167.0572574,-1.6726776100961962,9.986906716088606,0.9155679110405084,-0.32,-0.5933333333333334,0.03888888888888889,0.11809073545782191,-0.05108873382564197,0.2060763319332112
1592251167.0672574,-1.6484073004844155,10.009020893477517,0.9238772814013798,-0.32,-0.5933333333333334,0.03888888888888889,0.13867364462513432,-0.12293919653875432,0.33701830040422853
1592251167.0772574,-1.4589141231246767,10.058942834971546,0.8052284014485256,-0.32245714778410073,-0.5953809564867506,0.02578410070701845,0.15713885807556985,-0.18751697170378537,0.4461654499242447
1592251167.0872574,-1.2837024414326894,10.026039400551033,0.6264945613224826,-0.32666666666666666,-0.5988888888888889,0.0033333333333333335,0.15892856054097163,-0.239635219782884,0.5371837717141763
1592251167.0972574,-1.1968653150929274,9.992640505804973,0.5463372139319329,-0.32666666666666666,-0.5988888888888889,0.0033333333333333335,0.14508419439463333,-0.2753391114234407,0.5983904430979876
1592251167.1072574,-1.0473615530999631,9.935787184366655,0.5247448547167096,-0.32666666666666666,-0.5988888888888889,0.0033333333333333335,0.10666927084080283,-0.33046843542577986,0.7047998756001096
1592251167.1172574,-1.0071175219484112,9.922372507316137,0.5716962243935202,-0.32666666666666666,-0.5988888888888889,0.0033333333333333335,0.09203612817684977,-0.35461312082130236,0.7538209035243524
1592251167.1272573,-0.8693649821337417,9.736129998298452,0.7638700017015484,-0.3238716654377706,-0.5978138884162366,0.015588338721569964,0.07086854932586385,-0.3778141509058042,0.8404294905550858
1592251167.1372573,-0.7194920877998978,9.721856389314276,0.778143610685724,-0.31356294783808825,-0.5938489970317433,0.0607881005047927,0.07476107234017804,-0.3832636831258441,0.8824687391096788
1592251167.1472573,-0.4596302469555752,9.72344241104837,0.5272120552418532,-0.31222222222222223,-0.5933333333333334,0.06666666666666667,0.08997569175657055,-0.39405369627715114,0.9347705894019145
1592251167.1572573,-0.2868363969104072,9.736581801544796,0.34348763355491563,-0.31222222222222223,-0.5933333333333334,0.06666666666666667,0.09090929782529593,-0.40105033561766223,0.9522902236564625
1592251167.1672573,-0.16266786877304412,9.798666065613478,0.2306071534300401,-0.31222222222222223,-0.5933333333333334,0.06666666666666667,0.08598395772676817,-0.4096696807900858,0.9559842287303583
1592251167.1772573,-0.22666151410043733,9.689969084602625,0.2967697179912532,-0.32112485128772267,-0.588511075922854,0.062215352133916456,0.032684455314360705,-0.4719975937961033,0.9406316418835182
1592251167.1872573,-0.18545750238864833,9.610522859872741,0.5286928503181476,-0.3388888888888889,-0.5788888888888889,0.05333333333333334,-0.019634954084936207,-0.5126904677733343,0.9042987186895619
1592251167.1972573,-0.12934990903577925,9.626787750151607,0.5938623408126137,-0.3388888888888889,-0.5788888888888889,0.05333333333333334,-0.03709241412090723,-0.5048064535635409,0.8924726973748719
1592251167.2072573,-0.1111876656227415,9.65624668754517,0.5790026499638642,-0.3388888888888889,-0.5788888888888889,0.05333333333333334,-0.051248286567307594,-0.4944390897110056,0.8816503807012562
1592251167.2172573,-0.04958818350777658,9.562147119240928,0.7747647461606182,-0.3388888888888889,-0.5788888888888889,0.05333333333333334,-0.020825232611664954,-0.46336886818482437,0.8827195185234492
1592251167.2272573,0.03020919350399119,9.634674216507412,0.7919067280091227,-0.3554393369422271,-0.5736873195006968,0.05002324372266569,0.036837232419862434,-0.42574609429106364,0.9083171332307367
1592251167.2372572,0.041791017005916725,9.625734752353663,0.6581687939567595,-0.37777777777777777,-0.5666666666666667,0.04555555555555556,0.09138619269856468,-0.3996567254096244,0.9574795303373317
1592251167.2472572,0.45850994089199354,9.911948414830736,0.49,-0.37777777777777777,-0.5666666666666667,0.04555555555555556,0.1011565894862811,-0.4082785895308944,1.0557053865317407
1592251167.2572572,0.6131407699901283,9.887149457058243,0.5124789733464955,-0.37777777777777777,-0.5666666666666667,0.04555555555555556,0.08774427448008107,-0.3919869511823563,1.0955591947365084
1592251167.2672572,0.6077596549302839,9.331072524826963,0.6365304443775706,-0.37777777777777777,-0.5666666666666667,0.04555555555555556,0.098553240232134,-0.32475447225094806,1.095503858237445
1592251167.2772572,0.8507699550919889,9.277783210198464,0.5528494857308417,-0.3853795451253078,-0.5620211421765093,0.04555555555555556,0.14872801382130849,-0.2709556188023076,1.0189349125752214
1592251167.2872572,0.64,9.16,0.9,-0.3977777777777778,-0.5544444444444444,0.04555555555555556,0.1778054175469223,-0.22362031041177347,0.9479319499894202
1592251167.2972572,1.2615613644355879,9.579247450474739,0.23378267495018168,-0.3977777777777778,-0.5544444444444444,0.04555555555555556,0.2470650527002593,-0.11546081330642186,0.7877532122020455
1592251167.3072572,1.1389145877681839,9.396921715420124,0.2837989428113564,-0.3977777777777778,-0.5544444444444444,0.04555555555555556,0.25990402072042346,-0.039082602226474056,0.7023077179843193
1592251167.3172572,1.08,9.54,0.49,-0.3977777777777778,-0.5544444444444444,0.04555555555555556,0.2585268954516601,-0.011999138607461015,0.6752242543653063
1592251167.3272572,0.8677431937589556,9.648419837605477,0.4012187549753224,-0.4106446248828035,-0.5488688106989332,0.037406552389039255,0.28847672179655676,-0.002181661564992912,0.6309778757835497
1592251167.3372571,1.233198444700461,9.671579781105992,0.2584007776497696,-0.4311111111111111,-0.54,0.024444444444444446,0.28318094356254,-0.0014838691779178461,0.620289676845062
1592251167.3472571,1.215219608576082,9.91484313673137,0.13572157103569807,-0.4311111111111111,-0.54,0.024444444444444446,0.2672672306141969,0.003807641061813718,0.6402150025561808
1592251167.3572571,1.1902842534542577,9.935325339338974,0.012053076876255401,-0.4311111111111111,-0.54,0.024444444444444446,0.26440897585955836,0.005938583968425681,0.6583118954618338
1592251167.367257,1.5296841140385926,9.793263214797753,-0.26442099325451857,-0.4311111111111111,-0.54,0.024444444444444446,0.22812141351743642,0.028958689636598454,0.7446814885682045
1592251167.377257,1.1852156585220501,9.938995455899882,0.01645858164481527,-0.44182873129386835,-0.5308134684147795,0.031717115282744006,0.18722110579290252,0.027281292699057207,0.8102941169870901
1592251167.387257,1.1,9.88,0.2,-0.4622222222222222,-0.5133333333333333,0.04555555555555556,0.1636246173744684,0.006544984694978735,0.8203047484373349
1592251167.397257,1.351624224831772,9.847114395038924,-0.20697981264019,-0.4622222222222222,-0.5133333333333333,0.04555555555555556,0.10671402234782587,-0.03141445846966472,0.7946738952142511
1592251167.407257,1.4142965899246582,9.6201774604258,-0.25158428057648385,-0.4622222222222222,-0.5133333333333333,0.04555555555555556,0.05964037766836022,-0.05349495094750202,0.7793467486330896
1592251167.417257,1.6,9.94,-0.2,-0.4622222222222222,-0.5133333333333333,0.04555555555555556,0.053450708342326333,-0.06981317007977318,0.7810348402674625
1592251167.427257,1.6613486193293885,9.559870562130177,-0.14689349112426037,-0.473189513477975,-0.5180858262108262,0.03641614617576156,-0.006432028844720227,-0.07012971540299762,0.8533662534517489
1592251167.437257,1.97,9.58,-0.63,-0.4955555555555556,-0.5277777777777778,0.017777777777777778,-0.02399827721492203,-0.07744898555724837,0.9141161957320302
1592251167.447257,1.5489981193366387,9.779038297144812,-0.04583176611386562,-0.4955555555555556,-0.5277777777777778,0.017777777777777778,-0.07519953172187806,-0.1299727954572756,1.0013782756127538
1592251167.457257,1.41,9.53,0.07,-0.4955555555555556,-0.5277777777777778,0.017777777777777778,-0.10362892433716332,-0.15271630954950383,1.0133817969392076
1592251167.467257,1.8861051600115806,9.251051600115806,-0.5968403002026591,-0.4955555555555556,-0.5277777777777778,0.017777777777777778,-0.14818091875293843,-0.2551742117491828,1.0071812148009278
1592251167.477257,1.891654351909831,9.179926111458986,-0.09647526612398247,-0.49819341821470814,-0.5141488207054895,0.020415640436930355,-0.19391672181491146,-0.3315102369952545,0.9751400838707076
1592251167.487257,1.94,9.47,-0.03,-0.5022222222222222,-0.49333333333333335,0.024444444444444446,-0.19853120241435498,-0.3763366199612773,0.9533861039019024
1592251167.497257,2.3555307841866493,9.54336305897602,-0.20889384316267012,-0.5022222222222222,-0.49333333333333335,0.024444444444444446,-0.21223907830925945,-0.4158478541168354,0.9867313658051987
1592251167.507257,2.447389337099902,9.61,-0.03821981757678772,-0.5022222222222222,-0.49333333333333335,0.024444444444444446,-0.24746670541580756,-0.4343258539357984,1.0392010154682638
1592251167.517257,2.670478003045116,9.415149050404679,0.1126881160349387,-0.5022222222222222,-0.49333333333333335,0.024444444444444446,-0.27081668333805375,-0.45189717192531614,1.0806379963775676
1592251167.527257,2.9590551778656127,9.107820395256917,0.08011225296442688,-0.5147365129556434,-0.4906516996047431,0.021762810715854196,-0.293445725390449,-0.44307832099159716,1.1247322510461624
1592251167.537257,3.2409719454849766,9.053844345261815,0.11485972742488244,-0.5333333333333333,-0.4866666666666667,0.017777777777777778,-0.29677665470929737,-0.4366055640665179,1.1486142112401923
1592251167.547257,3.300975872522737,9.051430110490315,0.14052163455515748,-0.5333333333333333,-0.4866666666666667,0.017777777777777778,-0.2945432784417091,-0.3738166376923402,1.1711074885184902
1592251167.557257,3.3068978435233656,9.029369386676912,0.1507819028865088,-0.5333333333333333,-0.4866666666666667,0.017777777777777778,-0.3076404237195918,-0.34330630997127043,1.1435620590965392
1592251167.567257,3.27,8.75,0.33,-0.5333333333333333,-0.4866666666666667,0.017777777777777778,-0.32834006553143325,-0.3174317577064687,1.1257373675363425
1592251167.577257,3.519432888110357,8.844925396477837,0.17585066783446462,-0.5405174109640937,-0.47381094880109553,0.01475290298587868,-0.32766602908120224,-0.32499919366352964,1.026924388254462
1592251167.587257,3.15,8.68,0.73,-0.5544444444444444,-0.4488888888888889,0.008888888888888889,-0.3327033886614191,-0.31852258848896514,0.96647607329186
1592251167.597257,3.6747927089812586,8.82576520539795,0.46366525137247483,-0.5544444444444444,-0.4488888888888889,0.008888888888888889,-0.29544820013593626,-0.3047610458842111,0.8982790744650027
1592251167.607257,4.1,8.94,0.14,-0.5544444444444444,-0.4488888888888889,0.008888888888888889,-0.27052603405912107,-0.31306843457648287,0.8726646259971648
1592251167.6172569,3.811570549092391,8.484435290389753,0.47548232311801186,-0.5544444444444444,-0.4488888888888889,0.008888888888888889,-0.25686818184746696,-0.2525619654939945,0.8038100992025026
1592251167.6272569,4.056248748182846,8.44726441608787,0.3242726538523663,-0.5641882661210718,-0.44275389005545684,0.013941240869362336,-0.22321012561745077,-0.1939064040976102,0.7762144289100574
1592251167.6372569,4.88,8.4,0.25,-0.5844444444444444,-0.43,0.024444444444444446,-0.22689280275926282,-0.15707963267948966,0.7548549014875475
1592251167.6472569,4.304894281845641,8.80495469221956,0.541351942505989,-0.5844444444444444,-0.43,0.024444444444444446,-0.2112149932763024,-0.06379877383956566,0.7769499908639529
1592251167.6572568,4.15578136217872,8.712812425214187,0.72289068108936,-0.5844444444444444,-0.43,0.024444444444444446,-0.22910860989127593,-0.045363247257040606,0.7836766838320209
1592251167.6672568,4.10442307313712,8.714959937001673,0.7221714735702333,-0.5844444444444444,-0.43,0.024444444444444446,-0.2504173379314273,-0.051116959689989395,0.7814998419198573
1592251167.6772568,4.0695242631918624,8.791303973693106,0.6786167368388702,-0.5920332865518643,-0.42241115789258016,0.01622319882807298,-0.26302381090680177,-0.0630481016671913,0.78306561122881
1592251167.6872568,4.37,8.87,0.65,-0.6111111111111112,-0.4033333333333333,-0.0044444444444444444,-0.27707101875409984,-0.10362892433716332,0.779944009484966
1592251167.6972568,4.460944042206881,8.708660829544817,0.6702744569792894,-0.6111111111111112,-0.4033333333333333,-0.0044444444444444444,-0.27429664613756355,-0.16456097961207858,0.7530767683329174
1592251167.7072568,4.548089441525404,8.61,0.5200156914956848,-0.6111111111111112,-0.4033333333333333,-0.0044444444444444444,-0.2554688035720364,-0.1959164607220016,0.7114343589789034
1592251167.7172568,4.859966455683565,8.516562306571092,0.5599776371223768,-0.6111111111111112,-0.4033333333333333,-0.0044444444444444444,-0.2363413841492512,-0.1992482587213124,0.6759352121434395
1592251167.7272568,4.895053644219795,8.377526822109898,0.5563440404369803,-0.6126642752323497,-0.3983632081453702,-0.010657100929398337,-0.2204885784558164,-0.16339005229441683,0.6279549441721279
1592251167.7372568,5.14,8.5,0.65,-0.6166666666666667,-0.38555555555555554,-0.02666666666666667,-0.20398535632683729,-0.11780972450961724,0.5792311455056182
1592251167.7472568,5.450412176311354,8.509399867204658,0.5865437458501456,-0.6166666666666667,-0.38555555555555554,-0.02666666666666667,-0.21828683372871494,0.0027148476617542966,0.4398658826762101
1592251167.7572567,4.717180328654242,8.303909117041155,0.7168190964403776,-0.6166666666666667,-0.38555555555555554,-0.02666666666666667,-0.21191858559165433,0.08900200348369655,0.3498986717158718
1592251167.7672567,4.37,8.31,0.93,-0.6166666666666667,-0.38555555555555554,-0.02666666666666667,-0.19198621771937624,0.11890055529211369,0.30870511144649704
1592251167.7772567,4.956123497032504,8.564487837879394,0.6270721731910576,-0.6258342985810005,-0.38372202917268877,-0.029809854751581127,-0.1650183206664258,0.14784693539750804,0.2234711048605405
1592251167.7872567,4.36,8.19,0.65,-0.6555555555555556,-0.37777777777777777,-0.04,-0.1341721862470641,0.16035212502697901,0.18762289458939044
1592251167.7972567,4.84443049024301,8.433582068538282,0.7626708529270971,-0.6555555555555556,-0.37777777777777777,-0.04,-0.08292798902068493,0.09444383611428345,0.20158004880325575
1592251167.8072567,4.8196501328609385,8.279965013286093,0.6864800708591674,-0.6555555555555556,-0.37777777777777777,-0.04,-0.06722464505817331,0.06867272533741739,0.24804071691710533
1592251167.8172567,4.73356747118385,8.219620454690187,0.6304744316372668,-0.6555555555555556,-0.37777777777777777,-0.04,-0.045020058386514246,0.0315512887509379,0.2855637716660064
1592251167.8272567,5.098163245577289,8.188822543743756,0.7670015789643283,-0.6524263060469679,-0.3739263937672084,-0.04312924950858763,-0.054014103301945234,0.007108379654597631,0.2975604856583731
1592251167.8372567,5.2,8.51,0.72,-0.6411111111111111,-0.36,-0.05444444444444444,-0.05999569303730508,0.01308996938995747,0.296705972839036
1592251167.8472567,5.160526223950543,8.529442616412405,0.5734983547711636,-0.6411111111111111,-0.36,-0.05444444444444444,-0.09610791311643606,0.02001656539218407,0.24812520015807182
1592251167.8572567,5.1275168756027005,8.70314850530376,0.5375723240115717,-0.6411111111111111,-0.36,-0.05444444444444444,-0.12434261223834843,0.0414092303529989,0.18915394975228686
1592251167.8672566,4.82,8.77,0.21,-0.6411111111111111,-0.36,-0.05444444444444444,-0.1287180323345818,0.056723200689815706,0.16144295580947549
1592251167.8772566,4.9917852022273355,8.221436764362641,0.4228305158214131,-0.6411111111111111,-0.36138849062126044,-0.05702306988392814,-0.15505313380057356,0.03139978466996242,0.1089263515702492
1592251167.8872566,5.0,8.09,0.85,-0.6411111111111111,-0.36777777777777776,-0.06888888888888889,-0.16580627893946132,0.04036073895236887,0.12326387842209952
1592251167.8972566,5.010677974961449,8.24471498392619,0.4053158568777606,-0.6411111111111111,-0.36777777777777776,-0.06888888888888889,-0.16064121899040165,0.017671795097425662,0.18412853545458793
1592251167.9072566,5.0251764984040665,7.975484809079088,0.5431277928833196,-0.6411111111111111,-0.36777777777777776,-0.06888888888888889,-0.17093605931484798,0.01455562092578224,0.22019647641558593
1592251167.9172566,5.166198202497415,8.13269008987513,0.6211117076274556,-0.6411111111111111,-0.36777777777777776,-0.06888888888888889,-0.16903415506728164,0.01925227836125083,0.24702541097355557
1592251167.9272566,5.072183134063254,8.190809893693169,0.749014077039315,-0.6435524273245966,-0.3662519551443493,-0.07651800205603126,-0.17301190437106237,0.03539822667540055,0.2640655489146965
1592251167.9372566,5.318245349076681,8.479879865449304,0.6929086290931558,-0.6588888888888889,-0.3566666666666667,-0.12444444444444444,-0.13773575151633305,0.03867465767971903,0.24784016847967874
1592251167.9472566,5.025665719579988,8.353002841260036,0.74,-0.6588888888888889,-0.3566666666666667,-0.12444444444444444,-0.11127813432727347,0.05941474310901616,0.2303239271014594
1592251167.9572566,5.090333281258136,8.287117637869082,0.7969411029526636,-0.6588888888888889,-0.3566666666666667,-0.12444444444444444,-0.07646937941007598,0.033520594295621056,0.19357755936083101
1592251167.9672565,5.189686052084998,8.30242151302125,1.005261623262502,-0.6588888888888889,-0.3566666666666667,-0.12444444444444444,-0.06595530820189398,0.016615192363500147,0.16004231705929486
1592251167.9772565,5.108651269618476,8.217999234400919,1.0540461911445707,-0.6579276367090582,-0.3566666666666667,-0.11931776615201395,-0.050766710641818605,0.008706324543212112,0.1467699803598865
1592251167.9872565,5.16,7.85,0.9,-0.6522222222222223,-0.3566666666666667,-0.08888888888888889,-0.028361600344907853,-0.004363323129985824,0.1308996938995747
1592251167.9972565,5.77,7.89,1.21,-0.6522222222222223,-0.3566666666666667,-0.08888888888888889,-0.02181661564992912,0.04145156973486533,0.10581058590215622
1592251168.0072565,5.269571592639085,7.735567960257471,0.7372997516091985,-0.6522222222222223,-0.3566666666666667,-0.08888888888888889,0.05921768109275805,0.1049675745324937,0.12441361948589744
1592251168.0172565,5.7815244596131965,7.754499431171786,1.1280261660978383,-0.6522222222222223,-0.3566666666666667,-0.08888888888888889,0.12819867774701096,0.16442877931651356,0.12712211835700452
1592251168.0272565,5.3656207210648486,7.725214350777187,0.9867043751652809,-0.6506036298102822,-0.35578379807833577,-0.08888888888888889,0.198875923275453,0.2645588855039727,0.1646358306191715
1592251168.0372565,5.73,8.48,0.31,-0.64,-0.35,-0.08888888888888889,0.2868884957965679,0.2683443724941282,0.1712604328519436
1592251168.0472565,4.933977953150444,7.791768007014906,1.0071822623074034,-0.64,-0.35,-0.08888888888888889,0.28963064460991905,0.3393086334559946,0.17952904769729314
1592251168.0572565,5.201576477873577,8.118759348354214,0.703255609012528,-0.64,-0.35,-0.08888888888888889,0.30161063237125346,0.2945863794572324,0.1588695294331344
1592251168.0672565,5.174450356754142,8.282272342483976,0.8353404281049704,-0.64,-0.35,-0.08888888888888889,0.2502217275264419,0.2617251179079237,0.1440764654004141
1592251168.0772564,5.326276150627615,8.424288702928871,1.0421757322175733,-0.6412145513714551,-0.35,-0.0902138540213854,0.2386819906721848,0.20836237189342346,0.12828443850890328
1592251168.0872564,4.93,8.01,0.79,-0.6522222222222223,-0.35,-0.10222222222222223,0.22689280275926282,0.18871372537188688,0.12435470920459597
1592251168.0972564,5.250181595592736,8.13775045908998,0.5667955519281779,-0.6522222222222223,-0.35,-0.10222222222222223,0.25957554863095655,0.11418768110236238,0.08876883105143063
1592251168.1072564,5.38,7.87,0.51,-0.6522222222222223,-0.35,-0.10222222222222223,0.2781618495365963,0.10799224746714915,0.09053895494720585
1592251168.1172564,5.3361219566674105,7.708037525128434,0.2109577842305115,-0.6522222222222223,-0.35,-0.10222222222222223,0.30849103864651906,0.10558116301522333,0.13079521584741155
1592251168.1272564,5.576734978607305,7.779481924722515,0.1538314627643083,-0.6522222222222223,-0.35,-0.10406426765327988,0.31628441367793914,0.08608496035545177,0.14154779052467173
1592251168.1372564,5.7,7.77,0.59,-0.6522222222222223,-0.35,-0.13777777777777778,0.31525009614147576,0.12435470920459597,0.17671458676442586
1592251168.1472564,5.640871940329866,8.149132261792206,0.3973904821935077,-0.6522222222222223,-0.35,-0.13777777777777778,0.30197058645167074,0.11048211256082409,0.1823585101669611
1592251168.1572564,5.2,7.81,0.55,-0.6522222222222223,-0.35,-0.13777777777777778,0.27052603405912107,0.12435470920459597,0.1712604328519436
1592251168.1672564,5.469744156734405,8.243418614421865,0.6386336598633439,-0.6522222222222223,-0.35,-0.13777777777777778,0.269351478763743,0.08097325447214146,0.1851894564569938
1592251168.1772563,5.363998632946002,8.28,0.40960013670539985,-0.652355509987089,-0.35,-0.1374667729930888,0.23269627603032308,0.07136236601848268,0.1937753144128829
1592251168.1872563,5.56,8.28,0.39,-0.6588888888888889,-0.35,-0.12222222222222222,0.19634954084936207,0.04036073895236887,0.17453292519943295
1592251168.1972563,5.9805594441063095,8.128223777642525,0.2636447555285048,-0.6588888888888889,-0.35,-0.12222222222222222,0.14543718843471654,0.02740319518007752,0.16263569926702562
1592251168.2072563,5.660161209786717,7.96,0.2696471455405759,-0.6588888888888889,-0.35,-0.12222222222222222,0.09301642755612419,-0.003813511423792803,0.15003211935881558
1592251168.2172563,6.006536604210933,7.938248792737107,0.37984392505311954,-0.6588888888888889,-0.35,-0.12222222222222222,0.0325126149764499,0.00617995567284297,0.142712061712057
1592251168.2272563,5.84450067606722,7.832925439443693,0.18540081128066446,-0.6588888888888889,-0.35,-0.12222222222222222,-0.005489447355802382,0.004412417889947515,0.1365256794719229
1592251168.2372563,5.71,7.7,0.53,-0.6377777777777778,-0.33,-0.13111111111111112,-0.04908738521234052,0.01090830782496456,0.11017390903214205
1592251168.2472563,5.899474812709895,7.802745027124773,0.6401190906742444,-0.6377777777777778,-0.33,-0.13111111111111112,-0.06513742016380084,0.062419501564684766,0.11504750764157623
1592251168.2572563,5.792238784612082,8.040746261537361,0.5159104676953898,-0.6377777777777778,-0.33,-0.13111111111111112,-0.056964162189195186,0.08718180607639744,0.12091940784575735
1592251168.2672563,5.703259447896506,7.979410817968829,0.6220810838341653,-0.6377777777777778,-0.33,-0.13111111111111112,-0.06711321666371818,0.11580082689497835,0.12600805620928965
1592251168.2772563,5.881560156756256,7.867269725676551,0.5860456074304934,-0.6380594727476574,-0.32986998693697867,-0.13124112417413247,-0.06455047620650588,0.11678271374019245,0.10542766582372626
1592251168.2872562,5.96,7.73,0.89,-0.6522222222222223,-0.3233333333333333,-0.13777777777777778,-0.074176493209759,0.11999138607461016,0.08617563181722002
1592251168.2972562,6.029526897408878,7.589523655129556,0.7976182756477804,-0.6522222222222223,-0.3233333333333333,-0.13777777777777778,-0.056826769341559585,0.16253449394758998,0.09531761371759424
1592251168.3072562,6.22,7.58,0.75,-0.6522222222222223,-0.3233333333333333,-0.13777777777777778,-0.0370882466048795,0.20616701789183017,0.0818123086872342
1592251168.3172562,5.983323894793515,7.588219705278271,1.0268844842369738,-0.6522222222222223,-0.3233333333333333,-0.13777777777777778,0.02176961002028596,0.2450986203894027,0.07286718739527
1592251168.3272562,5.7324136074498,7.521310295319946,0.9097930168099065,-0.6522222222222223,-0.3233333333333333,-0.13777777777777778,0.06100003868168899,0.2733810224476235,0.06465616744288333
1592251168.3372562,6.07,7.74,0.86,-0.6255555555555555,-0.31555555555555553,-0.14555555555555555,0.12544553998709243,0.28034351110158917,0.04799655442984406
1592251168.3472562,5.535231065468549,7.605654150620453,0.8928075524176294,-0.6255555555555555,-0.31555555555555553,-0.14555555555555555,0.1572348905267416,0.3120531031003915,0.07754128841871122
1592251168.3572562,5.88,7.96,0.73,-0.6255555555555555,-0.31555555555555553,-0.14555555555555555,0.1854412330243975,0.28907015736156083,0.07963064712224129
1592251168.3672562,5.30973319228961,7.84791431593794,0.9546699185080708,-0.6255555555555555,-0.31555555555555553,-0.14555555555555555,0.1924665225990615,0.27781176568003696,0.10162421720152813
1592251168.3772562,5.654821344616831,7.773966854724964,0.765693073186021,-0.6255555555555555,-0.31555555555555553,-0.14555555555555555,0.20949562451676107,0.22672445992693824,0.10789809685541744
1592251168.3872561,5.6,7.8,0.99,-0.64,-0.31555555555555553,-0.16,0.19307704850187268,0.16253378659197193,0.09490227807719166
1592251168.3972561,5.573420873734302,7.693683494937207,0.6001728147697593,-0.64,-0.31555555555555553,-0.16,0.19211060419845657,0.11034579420750126,0.0881371679532788
1592251168.4072561,5.975821528280426,7.721392823906524,0.745821528280426,-0.64,-0.31555555555555553,-0.16,0.18838256218530747,0.0941659588394565,0.0708027118494807
1592251168.417256,5.869100305590509,7.75272604709689,0.6254700701060579,-0.64,-0.31555555555555553,-0.16,0.20507569689237234,0.10214111585932908,0.06872233929727672
1592251168.427256,5.695688657199353,7.775344957756606,0.33896386841632214,-0.64,-0.31555555555555553,-0.16,0.21412261169756266,0.10789824346263201,0.06872233929727672
1592251168.437256,6.01,7.86,0.57,-0.6322222222222222,-0.28888888888888886,-0.1811111111111111,0.21489366415180183,0.13853550937704992,0.062177354602297986
1592251168.447256,5.827285906040268,7.920904697986577,0.34922046979865773,-0.6322222222222222,-0.28888888888888886,-0.1811111111111111,0.21987641810398245,0.14517918131329074,0.07048194452259904
1592251168.457256,6.19,8.08,0.33,-0.6322222222222222,-0.28888888888888886,-0.1811111111111111,0.20398535632683729,0.13962634015954636,0.04690572364734761
1592251168.467256,5.94821168609045,7.754515731275606,0.44159460641979237,-0.6322222222222222,-0.28888888888888886,-0.1811111111111111,0.20499977992553134,0.12136671538305344,0.011400897693055814
1592251168.477256,5.899868961250773,7.75259827906192,0.5328603565603734,-0.6322222222222222,-0.28888888888888886,-0.1811111111111111,0.1952158277364587,0.12656495898986014,-0.01756764540102835
1592251168.487256,5.623536551913318,7.700785900425182,0.26392950212590865,-0.6322222222222222,-0.3031441350828266,-0.16685586491717336,0.18768004688110812,0.10288100730497297,-0.08000707425826667
1592251168.497256,5.81,7.86,0.36,-0.6322222222222222,-0.30333333333333334,-0.16666666666666666,0.16253378659197193,0.11453723216212788,-0.1112647398146385
1592251168.507256,5.6101317586567045,7.896339680244236,0.27823571945047,-0.6322222222222222,-0.30333333333333334,-0.16666666666666666,0.15460569822467385,0.10760015484074202,-0.12216586131967339
1592251168.517256,5.858157161007977,8.242014364367897,0.48324292369591304,-0.6322222222222222,-0.30333333333333334,-0.16666666666666666,0.1458549977872426,0.10476805212031771,-0.15541532073174766
1592251168.527256,5.835952565821981,8.145794451895249,0.4018260746805957,-0.6322222222222222,-0.30333333333333334,-0.16666666666666666,0.12889997862801295,0.11849354382064647,-0.17479248548515297
1592251168.537256,5.43,8.19,0.55,-0.6322222222222222,-0.28444444444444444,-0.17333333333333334,0.10035643198967394,0.1090830782496456,-0.17998707911191522
1592251168.547256,5.7119972174988405,7.916548152728397,0.3790925954552481,-0.6322222222222222,-0.28444444444444444,-0.17333333333333334,0.061205909844536034,0.09696505949043624,-0.17252983679855563
1592251168.557256,5.664109004144167,7.8316436016576665,0.45548009544141654,-0.6322222222222222,-0.28444444444444444,-0.17333333333333334,0.03885141161825535,0.10640837158200778,-0.1430182033401222
1592251168.567256,5.726616848467677,7.782416536808802,0.3743497662558436,-0.6322222222222222,-0.28444444444444444,-0.17333333333333334,0.055826949558869535,0.11209196732332725,-0.13661745108586468
1592251168.577256,5.816009018558108,8.009357382821623,0.46317643677128434,-0.6322222222222222,-0.28444444444444444,-0.17333333333333334,0.05828688877340727,0.12095585505688855,-0.15511810481515576
1592251168.587256,5.580175237658916,7.920116825105945,0.44003894170198143,-0.6322222222222222,-0.31109380368800826,-0.15223592393217866,0.04800363423105142,0.13525593722835316,-0.19196710225611638
1592251168.597256,5.325218196652628,8.134474850603102,0.7137074687424199,-0.6322222222222222,-0.3111111111111111,-0.15222222222222223,0.0370882466048795,0.13776277042166613,-0.21712555074212833
1592251168.607256,5.639682021654282,7.801513153542526,0.3345010915345432,-0.6322222222222222,-0.3111111111111111,-0.15222222222222223,0.0370882466048795,0.15693191626159048,-0.22015225798001112
1592251168.617256,5.511259863042912,7.491815984645641,0.319296258559818,-0.6322222222222222,-0.3111111111111111,-0.15222222222222223,0.05331327860343257,0.17033923746090093,-0.19398214106663536
1592251168.627256,5.8042091911405995,7.758998731583569,0.4644993657917846,-0.6322222222222222,-0.3111111111111111,-0.15222222222222223,0.05868954850000422,0.17789724785223385,-0.1579725408428886
1592251168.637256,5.21,7.46,0.77,-0.5911111111111111,-0.28888888888888886,-0.17333333333333334,0.07963064712224129,0.17016960206944715,-0.09053895494720585
1592251168.647256,5.792273169151005,7.818935515230072,0.6423784834737525,-0.5911111111111111,-0.28888888888888886,-0.17333333333333334,0.08833148954322323,0.16929951782734895,-0.05573558526327809
1592251168.657256,5.518184528034066,8.11668653891649,0.697291696238467,-0.5911111111111111,-0.28888888888888886,-0.17333333333333334,0.12144528518639316,0.1291487388820118,-0.03897285226409251
1592251168.6672559,5.468934693299334,7.700451905369033,0.2940458988525287,-0.5911111111111111,-0.28888888888888886,-0.17333333333333334,0.13306296633535428,0.10806580398400258,-0.029912159357738204
1592251168.6772559,5.86257738348208,8.16093958067715,0.47229919252018704,-0.5911111111111111,-0.28888888888888886,-0.17333333333333334,0.1322527822527957,0.11130654031423692,-0.050166761421703024
1592251168.6872559,5.32,8.07,0.57,-0.62,-0.28888888888888886,-0.19666666666666666,0.15489797111449674,0.07526732399225547,-0.1112647398146385
1592251168.6972558,5.496050909382904,8.029372867065483,0.5429152447103224,-0.62,-0.28888888888888886,-0.19666666666666666,0.15046623839354212,0.07969905671321008,-0.14007100250084345
1592251168.7072558,5.5076605051879115,8.01904243685151,0.6385092422181323,-0.62,-0.28888888888888886,-0.19666666666666666,0.15427124749936313,0.07392129391410734,-0.17057554672489483
1592251168.7172558,5.562801702963812,8.271206811855249,0.3001047977730473,-0.62,-0.28888888888888886,-0.19666666666666666,0.15294065594917888,0.05546982593940181,-0.18213783946102935
1592251168.7272558,5.555032985868894,8.000659717377873,0.49198871903214875,-0.62,-0.28888888888888886,-0.19666666666666666,0.12904291393191192,0.06324659618408851,-0.1718310356440154
1592251168.7372558,5.530271197846568,7.692847577388964,0.6489152086137282,-0.62,-0.2702561312995364,-0.18241808733363243,0.11247390298080819,0.06008444232506001,-0.1604556658626931
1592251168.7472558,5.572523511573452,7.661650992284366,0.6145637403554566,-0.62,-0.27,-0.18222222222222223,0.11003627282692667,0.04917230344299972,-0.14798253691920146
1592251168.7572558,5.706943238873287,7.825414858309931,0.4538209514083908,-0.62,-0.27,-0.18222222222222223,0.1335330911634774,0.021337093208254724,-0.135457524228913
1592251168.7672558,5.527197205878905,7.772272801856496,0.43075760061883217,-0.62,-0.27,-0.18222222222222223,0.13941973664058124,0.0060326437655846415,-0.1373620371869674
1592251168.7772558,5.3383979735434846,7.618664977952903,0.19543071582700067,-0.62,-0.27,-0.18222222222222223,0.14705498068289022,-0.00940312713420545,-0.12176199304527197
1592251168.7872558,5.720349544072948,7.900262158054711,0.44108820921985814,-0.62,-0.2832512594281211,-0.17406760103568614,0.15144526235923553,-0.002172129229127632,-0.10671166794101554
1592251168.7972558,5.443771773820255,8.26539357322094,0.3933386118352133,-0.62,-0.28444444444444444,-0.17333333333333334,0.17148632175128384,-0.004226753358961163,-0.08490443539239151
1592251168.8072557,5.212069339111593,8.109445569739506,0.18154458523717557,-0.62,-0.28444444444444444,-0.17333333333333334,0.15891460644526909,0.02044281321925291,-0.04575117671381739
1592251168.8172557,5.965491385186752,8.034653174435277,0.001965305690712904,-0.62,-0.28444444444444444,-0.17333333333333334,0.14391399768910093,0.07578752179013733,-0.01919357568919792
1592251168.8272557,5.847246462155647,8.094782576691632,0.19874385822859353,-0.62,-0.28444444444444444,-0.17333333333333334,0.14918032840256196,0.08512695603082673,-0.019023666493824854
1592251168.8372557,5.726693934557063,7.951197459430699,0.3244217212024475,-0.632832941680707,-0.2716115027637374,-0.19406346989447548,0.1283663199354369,0.13378478026285745,-0.006067111433186757
1592251168.8472557,5.656699475065617,8.047558117735283,0.25765654293213347,-0.6344444444444445,-0.27,-0.19666666666666666,0.13530984872232238,0.14357206365363834,-0.007322615750554809
1592251168.8572557,5.631506484624967,8.004519453874899,-0.027402730625503746,-0.6344444444444445,-0.27,-0.19666666666666666,0.12223254071869631,0.16012829996765868,0.0014421676539709636
1592251168.8672557,5.436543312313309,7.6959966336351995,-0.022363330330472716,-0.6344444444444445,-0.27,-0.19666666666666666,0.08892549152248633,0.14435969547545846,0.003186559231699796
1592251168.8772557,5.273426588592496,7.949187450300007,0.07771560760500251,-0.6344444444444445,-0.27,-0.19666666666666666,0.06714149026259832,0.13528517588518704,-0.0005343359634349732
1592251168.8872557,5.379375691044069,7.880697757068393,0.4089350023692939,-0.641086628406957,-0.2578226627353937,-0.17231199213745416,0.02847376759169433,0.10590672925654464,0.013033885766564232
1592251168.8972557,5.589208819714656,8.038491530086862,0.1817721966749204,-0.6411111111111111,-0.2577777777777778,-0.17222222222222222,0.015913704680480662,0.07192464770454887,0.008249121076013563
1592251168.9072556,5.388319009100101,7.7010920121334685,0.2727022244691608,-0.6411111111111111,-0.2577777777777778,-0.17222222222222222,0.011425873390876046,0.06945498272222442,0.03964436423727136
1592251168.9172556,5.633311430982026,7.860649144785621,0.4363728172218956,-0.6411111111111111,-0.2577777777777778,-0.17222222222222222,0.024693443734608748,0.05257947722187005,0.04397626861800582
1592251168.9272556,5.853063310019551,8.164594965029327,0.2211708624755608,-0.6411111111111111,-0.2577777777777778,-0.17222222222222222,0.031172216122790402,0.11174963655696767,0.055281878433234316
1592251168.9372556,5.820095050803015,8.330914454277286,0.30283841363487385,-0.657094213190575,-0.24479150733821334,-0.18321060490185367,0.03664776691820771,0.15835959800277294,0.03929064503823845
1592251168.9472556,5.502562953304539,8.167066661233804,0.33280987694564423,-0.6588888888888889,-0.24333333333333335,-0.18444444444444444,0.014032123252583881,0.18310173835254107,0.023813508917194144
1592251168.9572556,5.445277108433735,7.919253012048193,0.34,-0.6588888888888889,-0.24333333333333335,-0.18444444444444444,-0.019222278343124292,0.18268392822719565,-0.013623556495612366
1592251168.9672556,5.388203322069392,8.016669601637236,0.5464154490504973,-0.6588888888888889,-0.24333333333333335,-0.18444444444444444,-0.05412280152660162,0.16051942797289284,-0.03899074977105829
1592251168.9772556,5.568042131350682,8.172912019826517,0.5925650557620817,-0.6588888888888889,-0.24333333333333335,-0.18444444444444444,-0.06519842870252052,0.11468456866187027,-0.05375889845187924
1592251168.9872556,5.485055988455988,7.8022202020202025,0.4209515151515152,-0.65320481000481,-0.24333333333333335,-0.19202321628988295,-0.07600200560758359,0.07152471978112916,-0.06525447333258179
1592251168.9972556,5.753955630543332,7.965164504434665,0.5075822522173328,-0.6522222222222223,-0.24333333333333335,-0.19333333333333333,-0.08569442171257237,0.05279828414007715,-0.07570227346042158
1592251169.0072556,5.6180923267156695,7.954026928625404,0.4020615511437796,-0.6522222222222223,-0.24333333333333335,-0.19333333333333333,-0.055865642987343395,0.04494474605944146,-0.09140490538496973
1592251169.0172555,5.744519382438698,7.947932699201759,0.16374982075426603,-0.6522222222222223,-0.24333333333333335,-0.19333333333333333,-0.033286059217985636,0.08343810069665164,-0.1018248640592427
1592251169.0272555,5.691203527067701,7.886487981686379,0.5616410191190809,-0.6522222222222223,-0.24333333333333335,-0.19333333333333333,-0.026373281588072034,0.10997698237618965,-0.12441318372765617
1592251169.0372555,5.577268485516169,7.496342427580844,0.4954396993065906,-0.6582831817625414,-0.22515045471237552,-0.19131301348656024,0.017554945987977116,0.1077933940557589,-0.16382474322148075
1592251169.0472555,5.583315819254708,7.633105650311212,0.6697372888206289,-0.6588888888888889,-0.22333333333333333,-0.19111111111111112,0.030531798972246206,0.10835394723837219,-0.18214868053601266
1592251169.0572555,5.514795652497581,7.8202724633365595,0.7282198069431003,-0.6588888888888889,-0.22333333333333333,-0.19111111111111112,0.07592419365648637,0.08356101066598351,-0.21897263339285428
1592251169.0672555,5.79660476053364,8.13660476053364,0.6522046261637393,-0.6588888888888889,-0.22333333333333333,-0.19111111111111112,0.09786021038187359,0.055429416123667336,-0.234879717289344
1592251169.0772555,5.466907030123297,8.074349292112693,0.5821746460563466,-0.6588888888888889,-0.22333333333333333,-0.19111111111111112,0.10587572864759183,0.041807395363759936,-0.2382872217039932
1592251169.0872555,5.633832997694306,7.749202054694568,0.43611855354172135,-0.6653123712978366,-0.24535670159258285,-0.2204756021234438,0.07826283452823622,0.038179077387375956,-0.24880174567969482
1592251169.0972555,5.596723673091626,7.972650999959761,0.5948102692044586,-0.6666666666666666,-0.25,-0.22666666666666666,0.0690301738422708,0.04944477703685809,-0.25089107997418486
1592251169.1072555,5.598296823526582,8.342445235289874,0.3968127058936687,-0.6666666666666666,-0.25,-0.22666666666666666,0.07536972626640041,0.07576031854721305,-0.25490428385332875
1592251169.1172554,5.074148930551888,8.128423026142066,0.49070557169263274,-0.6666666666666666,-0.25,-0.22666666666666666,0.05624792453689278,0.1165876598996834,-0.2706120446404925
1592251169.1272554,5.239733371766232,8.309344959285148,0.6659710312027095,-0.6666666666666666,-0.25,-0.22666666666666666,0.04852078520655869,0.12481275279972509,-0.28753983426048413
1592251169.1372554,5.543077736106376,8.428533242413911,0.7166443914081145,-0.6598135773004508,-0.2441259234003864,-0.21296048793423494,0.05049092329859525,0.13890154949165373,-0.2930674403769429
1592251169.1472554,5.24835102443841,8.452809182917798,0.6178523821278696,-0.6588888888888889,-0.24333333333333335,-0.2111111111111111,0.05190911213650254,0.12599566768115322,-0.2912518189265538
1592251169.1572554,5.041863330272421,7.904159779614325,0.34030991735537186,-0.6588888888888889,-0.24333333333333335,-0.2111111111111111,0.026620261122864808,0.11829078188637933,-0.2779382242177787
1592251169.1672554,5.127245857590685,7.9598880429914916,0.38751007613076577,-0.6588888888888889,-0.24333333333333335,-0.2111111111111111,0.023524916252880355,0.10882368230450201,-0.2737697046349278
1592251169.1772554,5.441016949152543,8.069411487758945,0.4286629001883239,-0.6588888888888889,-0.24333333333333335,-0.2111111111111111,0.02617993877991494,0.10276560675459431,-0.27270769562411395
1592251169.1872554,5.57,8.22119428463046,0.33626857178984637,-0.6686256348654401,-0.24864428568417948,-0.2226181745379444,0.025310936233613707,0.11949279840678072,-0.2970397669205485
1592251169.1972554,5.45281432748538,8.213954678362573,0.44737573099415207,-0.6711111111111111,-0.25,-0.22555555555555556,0.013417697059260133,0.1399373226194686,-0.33104003119629655
1592251169.2072554,5.4255056903586,8.138623577410351,0.46311788705175005,-0.6711111111111111,-0.25,-0.22555555555555556,0.0029589302243410056,0.16065241385308177,-0.39121504901080556
1592251169.2172554,5.346371303005108,8.286239458367977,0.42,-0.6711111111111111,-0.25,-0.22555555555555556,-0.013770588715346933,0.1834502951690892,-0.4170931883518843
1592251169.2272553,5.133508870134344,8.228333405098175,0.5032455649328281,-0.6711111111111111,-0.25,-0.22555555555555556,-0.03120349541378302,0.18709661946441275,-0.4424084198824058
1592251169.2372553,4.632626281807824,8.431582478794784,0.6538403595391822,-0.677323782194652,-0.25976276884556415,-0.23709337328213134,-0.061485348898906445,0.19219232797926686,-0.45814223092817336
1592251169.2472553,4.644096675504793,8.308110136651031,0.6592551499082195,-0.6788888888888889,-0.26222222222222225,-0.24,-0.06932869259415941,0.18624768691393312,-0.4682914078543634
1592251169.2572553,5.005769092311648,8.564032399074312,0.5004895860118282,-0.6788888888888889,-0.26222222222222225,-0.24,-0.06329488815941355,0.15353253931989846,-0.531647754804912
1592251169.2672553,4.912627221816411,8.518642155669182,0.4679701322944566,-0.6788888888888889,-0.26222222222222225,-0.24,-0.05717419427848846,0.13660785264242647,-0.5680281070845224
1592251169.2772553,4.993278593292669,8.272119221574279,0.3345693411086534,-0.6788888888888889,-0.26222222222222225,-0.24,-0.05589605376092493,0.11556303766304378,-0.6213401335108558
1592251169.2872553,5.224643653232123,8.28732182661606,0.7744933429724682,-0.6788888888888889,-0.2727981940009773,-0.24325414516269386,-0.04213242715531562,0.10088180380066665,-0.8012826350332933
1592251169.2972553,5.180862917110765,8.38499836025252,0.907759695006969,-0.6788888888888889,-0.27666666666666667,-0.24444444444444444,-0.03599741582238304,0.09708393964218458,-0.8617563181722002
1592251169.3072553,4.96607538472976,8.383796495923475,0.45088444477486184,-0.6788888888888889,-0.27666666666666667,-0.24444444444444444,-0.02633177870520631,0.1053687714569075,-0.9632455079025559
1592251169.3172553,4.727243300610241,8.27,0.5407296365083576,-0.6788888888888889,-0.27666666666666667,-0.24444444444444444,-0.03642981199883561,0.12430753345040471,-0.9930559930060837
1592251169.3272552,4.397532408052729,8.257501543240606,0.6874953702781815,-0.6788888888888889,-0.27666666666666667,-0.24444444444444444,-0.025500273808802137,0.13117223325376304,-0.9626605223332235
1592251169.3372552,4.414770955966984,8.166413890624487,0.8771722187510277,-0.6586255896463401,-0.28595401215283484,-0.25542039820082507,0.028659732300359467,0.12204380092615195,-0.9163909091911923
1592251169.3472552,4.4841437555430135,8.342727162783198,0.8639958074659357,-0.6522222222222223,-0.28888888888888886,-0.2588888888888889,0.06568506640699825,0.1225005255416127,-0.8472757440158601
1592251169.3572552,4.275733427008581,8.519359160937421,0.8044688111607368,-0.6522222222222223,-0.28888888888888886,-0.2588888888888889,0.10662365909994916,0.12416891707954991,-0.7276742361790624
1592251169.3672552,4.0393761104829595,7.981184380552415,0.7263200613794218,-0.6522222222222223,-0.28888888888888886,-0.2588888888888889,0.10906946709184429,0.10500774783715136,-0.7462915891211914
1592251169.3772552,4.900730969805863,8.986859634515097,1.1626872343222754,-0.6522222222222223,-0.28888888888888886,-0.2588888888888889,0.14819293990302745,0.0017618979863478629,-0.9153690329793971
1592251169.3872552,5.389140467907184,8.598587979955955,1.5427091379145255,-0.6522222222222223,-0.32286347564889584,-0.2797369307643477,0.19572124515816386,-0.004269562723447161,-1.0569430280457046
1592251169.3972552,4.887092727850111,8.01471498888536,1.016085265163544,-0.6522222222222223,-0.3377777777777778,-0.28888888888888886,0.224923401137736,0.032635117860297866,-1.0966868533398344
1592251169.4072552,4.2500656647892585,8.23944291701145,0.529737340842965,-0.6522222222222223,-0.3377777777777778,-0.28888888888888886,0.2740452976444093,0.061086523819801536,-1.093781409444225
1592251169.4172552,4.013594571463504,8.284923584790317,0.6685181562538207,-0.6522222222222223,-0.3377777777777778,-0.28888888888888886,0.26167215310462666,0.05807370227968722,-1.0579264767740433
1592251169.4272552,3.5971669499280954,9.120104588835142,0.5765328801150478,-0.6522222222222223,-0.3377777777777778,-0.28888888888888886,0.2150389846600204,0.045934828632674334,-0.9538474501669536
1592251169.4372551,3.570017013168192,9.040153118513729,0.4400340263363844,-0.6522222222222223,-0.36316596156536274,-0.28174846219863064,0.17392019817376175,0.03677817139452953,-0.8818712318627189
1592251169.4472551,3.5303093324718327,8.840309332471833,0.5614634737309696,-0.6522222222222223,-0.37333333333333335,-0.2788888888888889,0.1674571279644113,0.024596575631425154,-0.8457312858170545
1592251169.4572551,3.1631351627313338,8.892497511167836,0.7825008296107212,-0.6522222222222223,-0.37333333333333335,-0.2788888888888889,0.15721657475449458,0.029724505347589962,-0.801420079877207
1592251169.467255,3.246000083097889,9.016947399036065,0.6606946983546618,-0.6522222222222223,-0.37333333333333335,-0.2788888888888889,0.15214678239257967,0.025178665984214775,-0.8103977134080704
1592251169.477255,3.367314595026288,8.983657297513144,0.5205060230272645,-0.6522222222222223,-0.37333333333333335,-0.2788888888888889,0.1353393899458939,0.008522936751196551,-0.8559159196090218
1592251169.487255,3.155765247410817,9.138872266973532,0.5740046029919448,-0.6393338447768828,-0.3991100882240123,-0.27387674210459023,0.09892667794909459,0.01476324606782603,-0.8486424986270442
1592251169.497255,3.168191264815717,9.183297613248904,0.5504521837960707,-0.6322222222222222,-0.41333333333333333,-0.27111111111111114,0.08321645001596156,0.017673796550501518,-0.8262404689836226
1592251169.507255,3.0046150249376558,8.91271768495428,0.7956920199501247,-0.6322222222222222,-0.41333333333333333,-0.27111111111111114,0.09968228519139949,0.025617776687906754,-0.7879630155451433
1592251169.517255,2.9456037599421547,9.092747650036154,0.8457507833212822,-0.6322222222222222,-0.41333333333333333,-0.27111111111111114,0.14614345595528563,0.022743650920857658,-0.8197095108158425
1592251169.527255,2.8325456566030747,9.157912946842009,0.8413991479903685,-0.6322222222222222,-0.41333333333333333,-0.27111111111111114,0.16474300683796736,0.021028485863605322,-0.8435450002901954
1592251169.537255,2.659265013444876,9.397698436410716,0.790831590479036,-0.6200923989421151,-0.4204685234981022,-0.2532731356991889,0.21184061988524494,-0.02016456269609747,-0.9188382404279758
1592251169.547255,2.729791725189614,9.40027769974718,0.634333239696617,-0.6133333333333333,-0.42444444444444446,-0.24333333333333335,0.21577844571509966,-0.030100871128251855,-0.9413642460370027
1592251169.557255,2.6324077940153097,9.525810476807525,0.5546869675809276,-0.6133333333333333,-0.42444444444444446,-0.24333333333333335,0.2295822255969951,-0.05177680805007276,-0.9667282001389074
1592251169.567255,2.4702712913762004,9.673273046360844,0.32453907278311317,-0.6133333333333333,-0.42444444444444446,-0.24333333333333335,0.23853490739442915,-0.07303634026323166,-0.9976446232510946
1592251169.577255,2.358439930855661,9.633394246203235,0.20424064699345598,-0.6133333333333333,-0.42444444444444446,-0.24333333333333335,0.22961038427530567,-0.07656274447207408,-1.006617743684193
1592251169.587255,1.9010435454779697,9.365521772738985,0.32023189899510435,-0.5998454006699304,-0.4480483266053995,-0.24333333333333335,0.16736031228046178,-0.09306211597129002,-0.9937847872386149
1592251169.597255,2.059414847490857,9.414478377257474,0.3601526976586359,-0.5866666666666667,-0.4711111111111111,-0.24333333333333335,0.16084064020378755,-0.12901226011492262,-1.0084994418567614
1592251169.607255,2.1248113517060365,9.424160378390201,0.3599245406824147,-0.5866666666666667,-0.4711111111111111,-0.24333333333333335,0.16762981780005196,-0.15844934465859384,-1.062302467801314
1592251169.617255,2.009573802070792,9.429573802070792,0.292448029536881,-0.5866666666666667,-0.4711111111111111,-0.24333333333333335,0.17456750888665393,-0.16549274935987066,-1.0684574132590883
1592251169.627255,2.0051549850338497,9.50953193113562,0.17046806886438057,-0.5866666666666667,-0.4711111111111111,-0.24333333333333335,0.19198621771937624,-0.18015750019300314,-1.0358628510100787
1592251169.637255,1.7389184842303467,9.617136748783933,0.09901380825356976,-0.5826499381069442,-0.47799693149920675,-0.23931660477361089,0.18747945881413042,-0.17889624832941878,-1.0120758124938212
1592251169.647255,1.521624692142687,9.674314769206324,0.068578692301581,-0.5788888888888889,-0.48444444444444446,-0.23555555555555555,0.1789184341306676,-0.17936137018606918,-1.0048157377484315
1592251169.657255,1.205131249652411,9.600394583171125,-0.0531583337967855,-0.5788888888888889,-0.48444444444444446,-0.23555555555555555,0.13605236938629556,-0.18525465552194673,-0.9961150819217149
1592251169.667255,1.210648997077311,9.614328782479882,-0.15939384233494816,-0.5788888888888889,-0.48444444444444446,-0.23555555555555555,0.12114833840111508,-0.18958732460887598,-0.9920846328377835
1592251169.677255,1.5054195831694848,9.781564687377113,-0.1675485646873771,-0.5788888888888889,-0.48444444444444446,-0.23555555555555555,0.09397333464715851,-0.17201350501936424,-0.9523956055299551
1592251169.687255,1.3550201499001922,9.680685473240178,-0.034677413280102445,-0.5673297511288548,-0.5008198896044929,-0.23555555555555555,0.07308566242726255,-0.1072950870005685,-0.8888027671413221
1592251169.697255,1.4020037173366375,9.746183169940595,-0.05409344363861657,-0.5522222222222222,-0.5222222222222223,-0.23555555555555555,0.07214367345568,-0.06866401906848113,-0.8568184195365685
1592251169.707255,1.04208864483232,9.717738772308296,-0.016260050990390268,-0.5522222222222222,-0.5222222222222223,-0.23555555555555555,0.06704341402153007,0.013203566398293539,-0.8220596189823081
1592251169.7172549,0.7684049986883212,9.768239250196752,-0.059601249672080324,-0.5522222222222222,-0.5222222222222223,-0.23555555555555555,0.054603116393720966,0.05039570056094965,-0.8130530689769913
1592251169.7272549,0.6928510938602681,9.785702187720537,-0.03786167960479887,-0.5522222222222222,-0.5222222222222223,-0.23555555555555555,0.044728680984750586,0.06201954210377169,-0.8090877439689116
1592251169.7372549,0.6378268958543983,9.822292821031345,0.04446592517694641,-0.5387221211099876,-0.5306015953263679,-0.22671066172340185,-9.039887859798798e-05,0.07874673226977146,-0.7826258870019082
1592251169.7472548,0.5078716843894533,9.771064157805274,0.1242566312210934,-0.52,-0.5422222222222223,-0.21444444444444444,-0.02383609930556641,0.08520088264386617,-0.7702306695472823
1592251169.7572548,0.4241358409335524,9.815480088370249,0.18471194697785082,-0.52,-0.5422222222222223,-0.21444444444444444,-0.043140185425868595,0.09115768766261609,-0.7371083396709561
1592251169.7672548,0.3736300312660783,9.838301341670954,0.16660268334190842,-0.52,-0.5422222222222223,-0.21444444444444444,-0.045490626825854405,0.09499492551690501,-0.7199527631793898
1592251169.7772548,0.2264279820483407,9.825004125661616,0.11857614361327456,-0.52,-0.5422222222222223,-0.21444444444444444,-0.04324448466586586,0.08812206522639475,-0.6607301166783406
1592251169.7872548,0.20879843225083985,9.85879843225084,0.18120156774916016,-0.5175107627224088,-0.5501048069345942,-0.21237008004645183,-0.06091318799893228,0.0634415212056637,-0.6339460204513102
1592251169.7972548,0.19,9.84,0.2,-0.5133333333333333,-0.5633333333333334,-0.2088888888888889,-0.07526732399225547,0.04908738521234052,-0.619591884457987
1592251169.8072548,0.2904017531044558,9.719292577400687,0.21424453559588696,-0.5133333333333333,-0.5633333333333334,-0.2088888888888889,-0.08742079826922966,0.054001364281526666,-0.6075155780157694
1592251169.8172548,0.2624030433611635,9.709453272286561,0.21677686506867763,-0.5133333333333333,-0.5633333333333334,-0.2088888888888889,-0.08732610134166283,0.07338385613699427,-0.612605852170166
1592251169.8272548,0.1092169726469499,9.697150944394476,0.2692735834082853,-0.5133333333333333,-0.5633333333333334,-0.2088888888888889,-0.08983814767818016,0.0894542994408179,-0.6225597683260299
1592251169.8372548,-0.015637483288093022,9.70329822144796,0.25,-0.5058869127199557,-0.5660636875582384,-0.21335674125691548,-0.09346315748402169,0.09950928475191215,-0.6391337226146033
1592251169.8472548,-0.07,9.68,0.25,-0.48,-0.5755555555555556,-0.2288888888888889,-0.10362892433716332,0.10035643198967394,-0.657770961845363
1592251169.8572547,-0.047760037293863994,9.825265427422643,0.21473457257735562,-0.48,-0.5755555555555556,-0.2288888888888889,-0.14084569840793687,0.08290313946973066,-0.6641874190744476
1592251169.8672547,-0.11,9.78,0.26,-0.48,-0.5755555555555556,-0.2288888888888889,-0.1538071403320003,0.08290313946973066,-0.6512259771503842
1592251169.8772547,-0.1,9.710711046113405,0.47096317962198486,-0.48,-0.5755555555555556,-0.2288888888888889,-0.1423509434163326,0.08451435584368444,-0.6358492795973604
1592251169.8872547,-0.11429614542100612,9.691787018177624,0.509620690980362,-0.4786100969729577,-0.5777396888837648,-0.22789610101243013,-0.12127316778959467,0.09307308971535122,-0.6263691962809237
1592251169.8972547,-0.21456483126110124,9.6802486678508,0.37,-0.4722222222222222,-0.5877777777777777,-0.22333333333333333,-0.09546803755941008,0.11118336345075777,-0.6157943208102196
1592251169.9072547,-0.3472645145452314,9.716311034736712,0.21642445071805572,-0.4722222222222222,-0.5877777777777777,-0.22333333333333333,-0.09492828020533219,0.12506913842875758,-0.6202803115540081
1592251169.9172547,-0.44,9.77,0.07,-0.4722222222222222,-0.5877777777777777,-0.22333333333333333,-0.09599310885968812,0.13199052468207118,-0.6261368691529657
1592251169.9272547,-0.768815447531175,10.469780213138863,0.44251938999576945,-0.4722222222222222,-0.5877777777777777,-0.22333333333333333,-0.14419979088964965,0.1137372661480015,-0.6541591272681084
1592251169.9372547,-1.7550207919001988,11.36115711444585,0.7610034351835111,-0.46504931798549587,-0.5978850519295285,-0.22496353884168022,-0.17310938215331842,0.10995913508129435,-0.62559766623137
1592251169.9472547,-3.26,10.16,0.33,-0.4477777777777778,-0.6222222222222222,-0.2288888888888889,-0.1854412330243975,0.13308135546456762,-0.519235452468313
1592251169.9572546,-2.6082999308914996,9.356503109882516,1.4984450587422253,-0.4477777777777778,-0.6222222222222222,-0.2288888888888889,-0.1703701279769413,-0.06133303499179624,-0.2641009125945618
1592251169.9672546,-1.5511278660450953,9.587979735515175,1.1646318142897916,-0.4477777777777778,-0.6222222222222222,-0.2288888888888889,-0.10132005453017201,-0.19103901835187126,-0.0605630578825061
1592251169.9772546,0.41,10.13,0.8,-0.4477777777777778,-0.6222222222222222,-0.2288888888888889,-0.05563236990731925,-0.2748893571891069,0.04908738521234052
1592251169.9872546,-0.32057372855339905,9.562160862298326,0.7568257325101477,-0.44288293102598797,-0.6231400059881829,-0.23317187979670498,-0.03215757389030091,-0.2955692272226343,0.04108864162310524
1592251169.9972546,-0.48,9.91,0.38,-0.43,-0.6255555555555555,-0.24444444444444444,0.015271630954950384,-0.2552544031041707,0.022907446432425576
1592251170.0072546,-0.5117886059178566,9.750065066980715,0.30437391432356836,-0.43,-0.6255555555555555,-0.24444444444444444,0.01169583208869474,-0.14496519648600883,0.027176765096038155
1592251170.0172546,-0.44579589386480967,9.82,0.22749861928202667,-0.43,-0.6255555555555555,-0.24444444444444444,-0.008404177349818836,-0.10843874288120688,0.03698902540175556
1592251170.0272546,-0.41,9.82,0.34,-0.43,-0.6255555555555555,-0.24444444444444444,-0.022907446432425576,-0.08835729338221293,0.04145156973486533
1592251170.0372546,-0.2807017814452071,9.741710495874143,0.42311405876455616,-0.43,-0.6242154014892505,-0.23935185899248518,-0.0391550794494199,-0.05390522817866693,0.03795421499194039
1592251170.0472546,-0.22,9.81,0.37,-0.43,-0.62,-0.22333333333333333,-0.04908738521234052,-0.038179077387375956,0.03381575425739013
1592251170.0572546,-0.2155572362379126,9.73777105504835,0.40112959861703856,-0.43,-0.62,-0.22333333333333333,-0.0649635665966373,-0.014667080525603986,0.002065041494842164
1592251170.0672545,-0.21,9.76,0.34,-0.43,-0.62,-0.22333333333333333,-0.06981317007977318,-0.009817477042468103,-0.01308996938995747
1592251170.0772545,-0.4169786896477121,9.774604262070458,0.43539573792954245,-0.43,-0.62,-0.22333333333333333,-0.0798033203683798,-0.01040606074525096,-0.040827704049898814
1592251170.0872545,-0.4917903586515365,9.760596786217178,0.45656464838896715,-0.4307294053765519,-0.619137975464075,-0.22379750039113908,-0.08695682314874195,-0.012780329938982952,-0.04845224937323186
1592251170.0972545,-0.52,9.77,0.56,-0.44222222222222224,-0.6055555555555555,-0.2311111111111111,-0.09926560120717749,-0.025089107997418484,-0.05563236990731925
1592251170.1072545,-0.6816107047872341,9.743512300531915,0.5294630984042553,-0.44222222222222224,-0.6055555555555555,-0.2311111111111111,-0.11029104278970402,-0.04015330703495265,-0.06114509069858251
1592251170.1172545,-0.74,9.75,0.51,-0.44222222222222224,-0.6055555555555555,-0.2311111111111111,-0.11453723216212788,-0.04581489286485115,-0.06326818538479445
1592251170.1272545,-0.773534474289195,9.74520936081583,0.6552093608158294,-0.44222222222222224,-0.6055555555555555,-0.2311111111111111,-0.1152525854988504,-0.06401914027634231,-0.05023396532903368
1592251170.1372545,-0.6433548764137647,9.76148028464368,0.6596380074942418,-0.44320907865134207,-0.6067068880561953,-0.23078215896807117,-0.10702340343343955,-0.07853981633974483,-0.03361479299494046
1592251170.1472545,-0.525929648241206,9.766007816862087,0.5920156337241764,-0.4488888888888889,-0.6133333333333333,-0.2288888888888889,-0.10188274239779016,-0.07418502008354737,-0.024873499903055703
1592251170.1572545,-0.591046716162193,9.752635522558538,0.5505420902341519,-0.4488888888888889,-0.6133333333333333,-0.2288888888888889,-0.10575145303072586,-0.06401647910421389,-0.02130076669439607
1592251170.1672544,-0.5796645197820086,9.74337060891311,0.5337060891311015,-0.4488888888888889,-0.6133333333333333,-0.2288888888888889,-0.112000092606274,-0.05524029670158793,-0.015235035740080023
1592251170.1772544,-0.5224505655968419,9.75,0.6098022623873675,-0.4488888888888889,-0.6133333333333333,-0.2288888888888889,-0.11505029281216855,-0.04670311789100649,-0.007390070066190696
1592251170.1872544,-0.5298755509922286,9.75,0.6395022039689143,-0.4488888888888889,-0.6133333333333333,-0.2288888888888889,-0.11990993438949323,-0.03617389447346971,-0.0033403687517534726
1592251170.1972544,-0.52,9.73,0.71,-0.43666666666666665,-0.6133333333333333,-0.23777777777777778,-0.1265363707695889,-0.02399827721492203,-0.004363323129985824
1592251170.2072544,-0.49242767295597484,9.7300964360587,0.6522348008385744,-0.43666666666666665,-0.6133333333333333,-0.23777777777777778,-0.13227638180536688,-0.0013240901951057614,0.0029971547663309333
1592251170.2172544,-0.4827225739146928,9.76,0.6049870782654053,-0.43666666666666665,-0.6133333333333333,-0.23777777777777778,-0.13808861971939865,0.014377851639647906,0.0014877528020562423
1592251170.2272544,-0.4964127409545408,9.762264543174243,0.6890581726969729,-0.43666666666666665,-0.6133333333333333,-0.23777777777777778,-0.1425490717453663,0.0237928023721345,-0.0004940466805513447
1592251170.2372544,-0.453176992062674,9.769470501322887,0.7178820052915507,-0.43666666666666665,-0.6133333333333333,-0.23777777777777778,-0.14490721603514306,0.030081187144872547,-0.0020661428737358566
1592251170.2472544,-0.5463545150501672,9.700066889632108,0.8031103678929766,-0.4488888888888889,-0.5988888888888889,-0.23777777777777778,-0.1458101467693507,0.05015632641391731,-0.0014520088676708677
1592251170.2572544,-0.6239110567492095,9.66391105674921,0.8893067319009486,-0.4488888888888889,-0.5988888888888889,-0.23777777777777778,-0.14297445632533254,0.05461716294311961,-0.002532667856108928
1592251170.2672544,-0.5802028872415138,9.626734295747172,0.9561256340226297,-0.4488888888888889,-0.5988888888888889,-0.23777777777777778,-0.1310546148534681,0.04590341912421879,-0.0032724923474893677
1592251170.2772543,-0.5686019719215518,9.6257346479477,1.0386732397385061,-0.4488888888888889,-0.5988888888888889,-0.23777777777777778,-0.10780864980945856,0.034898810927033085,-0.0023341627712694765
1592251170.2872543,-0.5877305231464057,9.636974030861875,1.1137824614226572,-0.4479642872077949,-0.6009062016476394,-0.2388704888554343,-0.08596419867721788,0.028132103014303595,0.00024756152120638424
1592251170.2972543,-0.56,9.6,1.16,-0.43666666666666665,-0.6255555555555555,-0.25222222222222224,-0.056723200689815706,0.011999138607461015,0.0032724923474893677
1592251170.3072543,-0.582515596750783,9.622453209747652,1.082390822744519,-0.43666666666666665,-0.6255555555555555,-0.25222222222222224,-0.020959361706576377,0.0005215966090427655,0.0005352073417316011
1592251170.3172543,-0.569445770166573,9.608808955642898,1.0241273629047352,-0.43666666666666665,-0.6255555555555555,-0.25222222222222224,0.00806802374371981,-0.013150426486245467,-0.004363323129985824
1592251170.3272543,-0.5056372018300562,9.636155484929976,0.9956372018300562,-0.43666666666666665,-0.6255555555555555,-0.25222222222222224,0.03809659742914228,-0.01742502456197129,-0.004810962626173207
1592251170.3372543,-0.4543675130094646,9.65812820871023,0.9443675130094645,-0.43666666666666665,-0.6255555555555555,-0.25222222222222224,0.05727141620897626,-0.01343027064950588,-0.0064088641911593715
1592251170.3472543,-0.5516661026781399,9.701111863095813,0.8655525476167456,-0.44222222222222224,-0.5988888888888889,-0.25222222222222224,0.08005496162921981,0.0038785504632793595,-0.009029675317866644
1592251170.3572543,-0.5439626397537094,9.721622416147774,0.7416224161477744,-0.44222222222222224,-0.5988888888888889,-0.25222222222222224,0.08429858779719221,0.004844918822552081,-0.009817477042468103
1592251170.3672543,-0.6078818727716269,9.692395852880464,0.7656248827172077,-0.44222222222222224,-0.5988888888888889,-0.25222222222222224,0.08646727399349359,0.00023105183819532296,-0.011476444592992128
1592251170.3772542,-0.6682441804204075,9.664561045105103,0.9072519398598642,-0.44222222222222224,-0.5988888888888889,-0.25222222222222224,0.09330767867838935,-0.013473029799143367,-0.017153525660642124
1592251170.3872542,-0.5780490296220633,9.642012257405517,0.9373169901259788,-0.44222222222222224,-0.5988888888888889,-0.25222222222222224,0.10478623748604277,-0.03315055918369209,-0.020433113891400248
1592251170.3972542,-0.5929348140296782,9.758982222008093,0.7160474079784159,-0.44222222222222224,-0.5988888888888889,-0.25222222222222224,0.12839142952586025,-0.03948548862226211,-0.018981748467493134
1592251170.4072542,-0.619965956619006,9.792508510845249,0.6068388289076938,-0.44222222222222224,-0.5988888888888889,-0.25222222222222224,0.12387491766695868,-0.044589100818339965,-0.016771059086283905
1592251170.4172542,-0.51,9.82,0.49,-0.44222222222222224,-0.5988888888888889,-0.25222222222222224,0.11562806294462433,-0.04908738521234052,-0.015271630954950384
1592251170.4272542,-0.6111845761926818,9.764407711903658,0.5229384746024395,-0.44222222222222224,-0.5988888888888889,-0.25222222222222224,0.09419909894725213,-0.04581489286485115,-0.0130589176799802
1592251170.4372542,-0.5626169522927281,9.788691523853634,0.5391276825690907,-0.44222222222222224,-0.5988888888888889,-0.25222222222222224,0.07830538119241812,-0.04581489286485115,-0.006878027441989194
1592251170.4472542,-0.56,9.79,0.56,-0.43,-0.6322222222222222,-0.26666666666666666,0.056723200689815706,-0.04581489286485115,-0.00545415391248228
1592251170.4572542,-0.554280851496215,9.781964893562973,0.5662457450591881,-0.43,-0.6322222222222222,-0.26666666666666666,0.03541184868079601,-0.04365237889094458,-0.006116311418414691
1592251170.4672542,-0.5021583700804113,9.777841629919589,0.519726696064329,-0.43,-0.6322222222222222,-0.26666666666666666,0.017778172676118698,-0.038208890221976696,-0.004098068643011894
1592251170.4772542,-0.5417071437238893,9.74170714372389,0.5534142874477785,-0.43,-0.6322222222222222,-0.26666666666666666,0.009950713190880572,-0.033230600608138955,-0.0032724923474893677
1592251170.4872541,-0.5489779326364692,9.74897793263647,0.5679558652729384,-0.43,-0.6322222222222222,-0.26666666666666666,0.0012263927961168042,-0.026092520285150418,-0.0032724923474893677
1592251170.4972541,-0.5242107294480896,9.79578927055191,0.5657892705519104,-0.4488888888888889,-0.6133333333333333,-0.25222222222222224,-0.015214373916579284,-0.012515714975706154,0.0
1592251170.5072541,-0.5511648250460406,9.771068139963168,0.5388351749539595,-0.4488888888888889,-0.6133333333333333,-0.25222222222222224,-0.03092445001483392,0.00025412540328876914,0.0004871573936563362
1592251170.517254,-0.592262536603221,9.746787609809664,0.5181002928257686,-0.4488888888888889,-0.6133333333333333,-0.25222222222222224,-0.04634808033050862,0.0089734507173035,0.0016880526503292063
1592251170.527254,-0.6059083303019279,9.761137504547108,0.6080645689341578,-0.4488888888888889,-0.6133333333333333,-0.25222222222222224,-0.05724361704894415,0.009495227614143124,0.0003222494283249807
1592251170.537254,-0.6364234267006185,9.715364859949073,0.7530112768279374,-0.4488888888888889,-0.6133333333333333,-0.25222222222222224,-0.06556531866957872,0.00783088729001621,0.001986589752451894
1592251170.547254,-0.5867998420478038,9.703399921023902,0.8598002369282943,-0.43,-0.5933333333333334,-0.23777777777777778,-0.06292999768987492,-0.0076031293213018065,0.0018216830992911362
1592251170.557254,-0.56,9.69,0.9,-0.43,-0.5933333333333334,-0.23777777777777778,-0.05781403147231216,-0.014180800172453926,0.001090830782496456
1592251170.567254,-0.5254675586600424,9.701822519553348,0.7691125977667372,-0.43,-0.5933333333333334,-0.23777777777777778,-0.04491766321685453,-0.019930560695235435,0.002278462132242831
1592251170.577254,-0.55,9.708478511933926,0.811521488066074,-0.43,-0.5933333333333334,-0.23777777777777778,-0.034337729804708464,-0.016362461737446838,-0.0016837557596905382
1592251170.587254,-0.55,9.701139147476727,0.8188608525232729,-0.43,-0.5933333333333334,-0.23777777777777778,-0.026331725130835565,-0.016362461737446838,0.0007180456424713323
1592251170.597254,-0.58,9.718020145964978,0.7759395621050669,-0.4488888888888889,-0.62,-0.2588888888888889,-0.01461548429754695,-0.006979668820071758,-0.0008721152300286446
1592251170.607254,-0.5782185660096344,9.746437132019269,0.6657485280770753,-0.4488888888888889,-0.62,-0.2588888888888889,-0.011416165697358129,-0.004168998826618195,-0.0003886486067352573
1592251170.617254,-0.5683982307301864,9.734805307809442,0.6,-0.4488888888888889,-0.62,-0.2588888888888889,-0.009775001795553406,-0.0032724923474893677,-0.0025311134101868313
1592251170.627254,-0.56,9.76,0.606367561446039,-0.4488888888888889,-0.62,-0.2588888888888889,-0.01582730551773254,-0.0035503296288804456,-0.003807648567203668
1592251170.637254,-0.56,9.76,0.6434767221701202,-0.4488888888888889,-0.62,-0.2588888888888889,-0.019065690704167436,-0.005169522222097895,-0.0005692633807687694
1592251170.647254,-0.5760911605475306,9.738273481642592,0.7597720986311733,-0.4488888888888889,-0.5988888888888889,-0.22333333333333333,-0.031182844269689286,-0.006971372934837749,-0.0041501290100563176
1592251170.657254,-0.56,9.691828498786547,0.7890290072807119,-0.4488888888888889,-0.5988888888888889,-0.22333333333333333,-0.03421467080981493,-0.010322312469670844,-0.0030730340712769684
1592251170.667254,-0.5538166291291292,9.7,0.7539125844594594,-0.4488888888888889,-0.5988888888888889,-0.22333333333333333,-0.03498566412955236,-0.01779054308422019,-0.002181661564992912
