time,acc_x,acc_y,acc_z,mag_x,mag_y,mag_z,gyr_x,gyr_y,gyr_z
1592251296.0771344,-0.4537613614387933,9.833761361438793,0.8706420421581899,-0.4622222222222222,-0.6288888888888889,-0.13666666666666666,-0.007705851412456593,0.007635815477475192,-0.02406831314990343
1592251296.0871344,-0.4938789462631542,9.806121053736845,0.8393452644842149,-0.4622222222222222,-0.6288888888888889,-0.13666666666666666,-0.009465770209219486,0.00837493942672303,-0.029523851692905514
1592251296.0971344,-0.5909818600633459,9.776503023322775,0.9009818600633458,-0.4622222222222222,-0.6288888888888889,-0.13666666666666666,-0.006872893516437504,0.005782062733941048,-0.03310638445541252
1592251296.1071343,-0.6402300610733781,9.77511503053669,0.945115030536689,-0.4622222222222222,-0.6288888888888889,-0.13666666666666666,-0.002664337531067379,-0.002890199461692917,-0.03381575425739013
1592251296.1171343,-0.6194215500945179,9.79019281663516,0.9449035916824197,-0.4554270111321151,-0.6322864944339425,-0.12930518798571727,0.007783046702182653,-0.027607298076028453,-0.032147958535493855
1592251296.1271343,-0.5772272475539967,9.787227247553997,0.8378179804319734,-0.4488888888888889,-0.6355555555555555,-0.12222222222222222,0.023631377882134777,-0.07258988517296934,-0.03541978095075833
1592251296.1371343,-0.5499131298721149,9.826869363631731,0.652783155856728,-0.4488888888888889,-0.6355555555555555,-0.12222222222222222,0.03420463401410933,-0.11465094489361959,-0.04402211105657744
1592251296.1471343,-0.5159792729333658,9.865012954416647,0.5659792729333657,-0.4488888888888889,-0.6355555555555555,-0.12222222222222222,0.03774331031743526,-0.13778068909669966,-0.04821585107245913
1592251296.1571343,-0.35056326341585786,9.96661366574687,0.4719350481446462,-0.4488888888888889,-0.6355555555555555,-0.12222222222222222,0.0278512423349044,-0.16715228872695947,-0.055421288899139984
1592251296.1671343,-0.19525956979978842,10.045790071700035,0.4589503585001763,-0.4521055953889085,-0.6432756511556026,-0.13058565912227316,-0.009992322818089816,-0.16396811175204642,-0.06568008263623912
1592251296.1771343,-0.15429107433192982,10.036535206570226,0.49795305790636596,-0.45444444444444443,-0.6488888888888888,-0.13666666666666666,-0.04011184926743107,-0.1499805239554652,-0.07128195119508858
1592251296.1871343,-0.03740042378563957,9.95870021189282,0.553740042378564,-0.45444444444444443,-0.6488888888888888,-0.13666666666666666,-0.11349853936354926,-0.10222845478710094,-0.07908957656298621
1592251296.1971343,0.0,9.941940807027626,0.6179282459669144,-0.45444444444444443,-0.6488888888888888,-0.13666666666666666,-0.14006775922501372,-0.08179430803149085,-0.08135660551932375
1592251296.2071342,0.008742848185594482,9.936885727721608,0.9305999686495807,-0.45444444444444443,-0.6488888888888888,-0.13666666666666666,-0.18052313279999838,-0.04548141959366003,-0.0911466961978819
1592251296.2171342,0.010118500242981571,9.895296250607453,1.019407498785092,-0.4516995834008282,-0.6390073891318705,-0.1322748889968807,-0.20010927991734975,-0.020341949117156442,-0.11167442830747024
1592251296.2271342,-0.004952044624583651,9.87,1.0759424535495004,-0.4488888888888889,-0.6288888888888889,-0.12777777777777777,-0.20464403969231038,-0.004276210755606115,-0.1257487260699838
1592251296.2371342,-0.02184213567548827,9.931947301513926,1.1243684271350978,-0.4488888888888889,-0.6288888888888889,-0.12777777777777777,-0.1957983895514221,0.030491575717733477,-0.16432502831027682
1592251296.2471342,0.05769627876962787,10.012053488205348,1.177696278769628,-0.4488888888888889,-0.6288888888888889,-0.12777777777777777,-0.18569253002763556,0.06662632050182807,-0.20958162248796056
1592251296.2571342,0.10976690832339175,10.089300724970174,1.2347086354042396,-0.4488888888888889,-0.6288888888888889,-0.12777777777777777,-0.18216874067690814,0.11522124122304359,-0.260327161652671
1592251296.2671342,0.13,10.191954349886968,1.3386644060380661,-0.4418964972410608,-0.6364639798407027,-0.13243937220966318,-0.18331286808481645,0.1831422791098975,-0.34320302273555775
1592251296.2771342,0.15904965753424657,10.221700097847359,1.414149951076321,-0.43555555555555553,-0.6433333333333333,-0.13666666666666666,-0.18419950576257088,0.21995503359465718,-0.40342540650175557
1592251296.2871342,0.27715838893007166,10.14143563133185,1.3257425253274029,-0.43555555555555553,-0.6433333333333333,-0.13666666666666666,-0.17079601440908682,0.2899989942472744,-0.5640988670375842
1592251296.2971342,0.22660486898633744,10.121131710337886,1.24452684135155,-0.43555555555555553,-0.6433333333333333,-0.13666666666666666,-0.15823324417853882,0.3114210212880588,-0.6272234779639387
1592251296.3071342,0.2725989508822127,10.093700524558894,1.2618502622794467,-0.43555555555555553,-0.6433333333333333,-0.13666666666666666,-0.11724272138471445,0.3259719691774815,-0.7756978323217032
1592251296.3171341,0.33201156905278384,10.011457700650759,1.2238192335502531,-0.43143504458905757,-0.6433333333333333,-0.12945577247529524,-0.08573993049816649,0.3114623972378572,-0.8886645817131832
1592251296.3271341,0.19048688622479445,9.975243443112397,1.2047565568876026,-0.4222222222222222,-0.6433333333333333,-0.11333333333333333,-0.07001336365799488,0.3008568517763901,-0.9970560870449907
1592251296.3371341,-0.04527620247847089,10.024595673177904,1.1163831127914303,-0.4222222222222222,-0.6433333333333333,-0.11333333333333333,-0.055971235424503094,0.2973140520023936,-1.0723098001116873
1592251296.347134,-0.25103213671108976,10.05297954936567,1.05100292151919,-0.4222222222222222,-0.6433333333333333,-0.11333333333333333,-0.04952180539550065,0.29637458065630373,-1.1164955812742314
1592251296.357134,-0.4163486142862872,9.927554245377612,1.0795142983194963,-0.4222222222222222,-0.6433333333333333,-0.11333333333333333,-0.03937587183871316,0.2742498126345594,-1.2506019886155624
1592251296.367134,-0.5370323628178162,9.74483818591092,1.1355485442267244,-0.41417916200269794,-0.657053847825463,-0.12326887831039275,-0.02854455270132124,0.24289624313986677,-1.3413912601156963
1592251296.377134,-0.6610784195988952,9.653865737960851,1.1222685240782995,-0.4033333333333333,-0.6755555555555556,-0.13666666666666666,-0.02030409827095661,0.21544739799563664,-1.3827728364888165
1592251296.387134,-1.3178764968674828,9.81623278437178,0.8083562875042957,-0.4033333333333333,-0.6755555555555556,-0.13666666666666666,-0.010265730089440199,0.15474871683523475,-1.432604396385661
1592251296.397134,-1.3401968039045895,9.811093836101708,0.7864988585373535,-0.4033333333333333,-0.6755555555555556,-0.13666666666666666,-0.017715888799001326,0.12451696416511923,-1.4505328555959582
1592251296.407134,-1.2466078388263746,9.64419802930066,0.692409809525713,-0.4033333333333333,-0.6755555555555556,-0.13666666666666666,-0.06375542153547961,0.05674245205553322,-1.4814846627638518
1592251296.417134,-1.2898874990165998,9.80609000078672,0.7709000078672017,-0.38187999895103975,-0.6862822227467024,-0.13934833346445336,-0.10350157063712204,0.030293188674105416,-1.5047680674877788
1592251296.427134,-1.2585087307180332,9.827591026544514,1.0091970088481717,-0.35,-0.7022222222222222,-0.14333333333333334,-0.1280025990377225,0.022016827642268928,-1.5256571494041922
1592251296.437134,-1.296090565394127,9.643727223627732,1.025418005059837,-0.35,-0.7022222222222222,-0.14333333333333334,-0.17277567026680676,0.055316987437983245,-1.6180510455943802
1592251296.447134,-1.8676148282963743,9.50708941999138,1.0806767565496433,-0.35,-0.7022222222222222,-0.14333333333333334,-0.1932727073591192,0.08963087841908808,-1.6926482744781215
1592251296.457134,-2.17,9.38,1.05,-0.35,-0.7022222222222222,-0.14333333333333334,-0.19853120241435498,0.10253809355466686,-1.7213309747794077
1592251296.467134,-2.3538588253406205,9.111785466861674,1.3181425602340082,-0.32773779283093424,-0.7091032680744789,-0.1376665896902984,-0.18929801803603913,0.12743243733070125,-1.7851135493085
1592251296.477134,-2.5924694887300714,9.063579989004948,1.2843210555250137,-0.28888888888888886,-0.7211111111111111,-0.12777777777777777,-0.17804781106109774,0.12929709017052385,-1.8023891170059119
1592251296.487134,-3.1084556498585454,8.84280412714262,1.334719587285738,-0.28888888888888886,-0.7211111111111111,-0.12777777777777777,-0.15620809355704574,0.09176248622928707,-1.7805163052583728
1592251296.497134,-3.42,8.79,1.34,-0.28888888888888886,-0.7211111111111111,-0.12777777777777777,-0.14180800172453928,0.06872233929727672,-1.7649642060792656
1592251296.507134,-3.441424533634822,8.720818057013648,0.9806135427602358,-0.28888888888888886,-0.7211111111111111,-0.12777777777777777,-0.10888306764707285,-0.03777751458983011,-1.6800809572395152
1592251296.517134,-3.6844900550148116,8.661190576950204,0.9139455494427987,-0.2680346703029733,-0.7261564865754455,-0.13046864469208946,-0.09371127366803345,-0.09032752858309946,-1.6031130158127493
1592251296.527134,-3.81,8.71,0.9,-0.22,-0.7377777777777778,-0.13666666666666666,-0.09599310885968812,-0.11999138607461016,-1.5544338650574498
1592251296.537134,-4.0543507048859215,8.897402819543688,1.2483126879465887,-0.22,-0.7377777777777778,-0.13666666666666666,-0.15732776079496633,-0.1683705001895894,-1.551976117703326
1592251296.547134,-3.7876605625374022,8.591137283064032,1.4065232794733693,-0.22,-0.7377777777777778,-0.13666666666666666,-0.18842510891134986,-0.18406178578136403,-1.5843092591295547
1592251296.557134,-3.53,8.28,1.46,-0.22,-0.7377777777777778,-0.13666666666666666,-0.1974403716318585,-0.19307704850187268,-1.5991579271398042
1592251296.567134,-3.916888950560996,8.426888950560995,1.847244974824565,-0.21300744029919783,-0.7447703374785799,-0.13433581343306594,-0.16967026685100745,-0.1651275532406745,-1.591163330701635
1592251296.577134,-3.88,8.39,1.53,-0.19333333333333333,-0.7644444444444445,-0.12777777777777777,-0.15598880189699318,-0.15707963267948966,-1.6024304194872938
1592251296.587134,-4.4036510765515855,8.38709661655216,1.7946480006899128,-0.19333333333333333,-0.7644444444444445,-0.12777777777777777,-0.11088459373776482,-0.13702828333308306,-1.601144984518286
1592251296.5971339,-4.53,7.99,1.56,-0.19333333333333333,-0.7644444444444445,-0.12777777777777777,-0.09053895494720585,-0.12980886311707826,-1.5926129424448257
1592251296.6071339,-5.113621067459696,8.60293238378463,1.2984481139458444,-0.19333333333333333,-0.7644444444444445,-0.12777777777777777,-0.07739255738795504,-0.10885113371716454,-1.4979678777928696
1592251296.6171339,-5.0060365161778355,8.138048688237115,1.412853557060826,-0.17277917225412326,-0.7609742614050973,-0.12991327503276062,-0.08277542641349847,-0.10493924904185381,-1.396534843412777
1592251296.6271338,-5.152062264891187,8.239616440885278,1.6578655004500242,-0.10777777777777778,-0.75,-0.13666666666666666,-0.09671770285504007,-0.11058198562821109,-1.217006354143598
1592251296.6371338,-5.381663288009889,8.399043757725588,1.3803636588380717,-0.10777777777777778,-0.75,-0.13666666666666666,-0.10343842671917679,-0.10787545171637059,-1.0419916860112959
1592251296.6471338,-5.379922882882883,8.228605405405405,1.1077645645645646,-0.10777777777777778,-0.75,-0.13666666666666666,-0.1345681610968784,-0.10201522855112646,-0.8612082166510973
1592251296.6571338,-5.13,7.76,1.29,-0.10777777777777778,-0.75,-0.13666666666666666,-0.16580627893946132,-0.10144726277217041,-0.7788531787024696
1592251296.6671338,-5.290289766794292,8.236463626870867,1.8279420466411418,-0.09497273465599257,-0.7538872452333991,-0.13963926596279536,-0.20555354422777913,-0.04799978173985144,-0.6444629591881418
1592251296.6771338,-5.330456034357257,8.29654716843791,1.819869704469355,-0.04555555555555556,-0.7688888888888888,-0.1511111111111111,-0.24111624204441154,-0.018366460332878254,-0.584493423410974
1592251296.6871338,-5.545754861615428,7.864543694020818,1.8039393205842007,-0.04555555555555556,-0.7688888888888888,-0.1511111111111111,-0.2480483008422323,0.011304925553192513,-0.5500763097042544
1592251296.6971338,-5.77,8.01,1.81,-0.04555555555555556,-0.7688888888888888,-0.1511111111111111,-0.24870941840919195,0.015271630954950384,-0.5421428989007386
1592251296.7071338,-5.7369331083154345,7.749866523473458,2.061533445842283,-0.04555555555555556,-0.7688888888888888,-0.1511111111111111,-0.23978637909563646,-0.032288624633229325,-0.5455681042106441
1592251296.7171338,-5.600665336477417,7.670665336477417,2.1692758933430074,-0.040963258560574,-0.7704196545538827,-0.14709285124050225,-0.2058702992556191,-0.06352220471339393,-0.539852371909203
1592251296.7271338,-5.7,7.77,2.31,-0.01888888888888889,-0.7777777777777778,-0.12777777777777777,-0.18871372537188688,-0.10144726277217041,-0.5235987755982988
1592251296.7371337,-5.633349800935747,8.06544854842928,1.909769550434454,-0.01888888888888889,-0.7777777777777778,-0.12777777777777777,-0.11126743431978256,-0.11173339350934158,-0.47835847803040304
1592251296.7471337,-5.370960958822832,8.144048415806337,1.7164414382342472,-0.01888888888888889,-0.7777777777777778,-0.12777777777777777,-0.05656698678352442,-0.07981797954284515,-0.41480785411572274
1592251296.7571337,-5.4594765629175654,7.896918526964671,1.6088444476117516,-0.01888888888888889,-0.7777777777777778,-0.12777777777777777,-0.03247282105171593,-0.05108751048879632,-0.3684637831183168
1592251296.7671337,-5.805694395419069,8.040609875671649,1.6998309605051574,-0.017397340863631015,-0.7789378706863117,-0.1299322360364836,-0.050207864413563494,-0.04112616443496071,-0.33845329945507946
1592251296.7771337,-5.61,7.93,1.87,-0.008888888888888889,-0.7855555555555556,-0.14222222222222222,-0.07526732399225547,-0.039269908169872414,-0.31525009614147576
1592251296.7871337,-5.059389470345702,8.055771223173698,1.8032519293794271,-0.008888888888888889,-0.7855555555555556,-0.14222222222222222,-0.10010825904920112,-0.027612180338559063,-0.32117885773821264
1592251296.7971337,-4.96,7.91,1.79,-0.008888888888888889,-0.7855555555555556,-0.14222222222222222,-0.11890055529211369,-0.02399827721492203,-0.3392483733563978
1592251296.8071337,-5.414604265958278,8.128210016407532,1.9692757246659895,-0.008888888888888889,-0.7855555555555556,-0.14222222222222222,-0.09608847878277692,0.03136886373739066,-0.39999517911236376
1592251296.8171337,-5.855231611774549,7.726924393397733,1.752152582338176,-0.0064274908513137765,-0.7837095070273742,-0.14304268823474725,-0.0900020856554934,0.06422451881440228,-0.45645360652457756
1592251296.8271337,-5.71,7.5,1.97,0.017777777777777778,-0.7655555555555555,-0.1511111111111111,-0.06326818538479445,0.10581058590215622,-0.5148721293383272
1592251296.8371336,-5.935775374513753,7.571109609071096,1.6257753745137529,0.017777777777777778,-0.7655555555555555,-0.1511111111111111,-0.0037023302945304176,0.16221878877696957,-0.5379006153438816
1592251296.8471336,-5.71,7.43,1.4,0.017777777777777778,-0.7655555555555555,-0.1511111111111111,0.0370882466048795,0.17453292519943295,-0.5225079448158023
1592251296.8571336,-6.547804628060078,7.841317065478771,1.9130244017818425,0.017777777777777778,-0.7655555555555555,-0.1511111111111111,0.08958381685734816,0.1674212391417732,-0.4890300784786813
1592251296.8671336,-5.579420165444046,7.78052130482285,1.904510691431247,0.020667845932400328,-0.7672895964483291,-0.149858748244108,0.10524312234697272,0.15803817447837448,-0.4719578043876326
1592251296.8771336,-6.1,7.47,1.32,0.051111111111111114,-0.7855555555555556,-0.13666666666666666,0.09926560120717749,0.12217304763960307,-0.445058959258554
1592251296.8871336,-5.450463723156741,7.479282486026796,1.4728056053272003,0.051111111111111114,-0.7855555555555556,-0.13666666666666666,0.10231256437060889,0.09363425621152768,-0.38263766790330134
1592251296.8971336,-5.882224613347207,7.81532280187296,1.9279842028094405,0.051111111111111114,-0.7855555555555556,-0.13666666666666666,0.1196848204732483,0.09485352269292929,-0.3780990626111127
1592251296.9071336,-5.028341259547486,7.44256953451506,1.5292808762069463,0.051111111111111114,-0.7855555555555556,-0.13666666666666666,0.15593755375819887,0.15312000654466895,-0.391987895870793
1592251296.9171336,-5.434806560753163,7.330585834068844,1.7621171668137687,0.05299303716779445,-0.784693006112909,-0.13588253080971527,0.1632905323951866,0.1766376044066879,-0.4028114103979791
1592251296.9271336,-6.42,7.47,1.79,0.07777777777777778,-0.7733333333333333,-0.12555555555555556,0.18762289458939044,0.17562375598192942,-0.421060682043632
1592251296.9371336,-6.21,7.78,1.73,0.07777777777777778,-0.7733333333333333,-0.12555555555555556,0.24107360293171679,0.21707532571679475,-0.43305982065109305
1592251296.9471335,-6.472031337586419,7.557500467127566,1.5820313375864186,0.07777777777777778,-0.7733333333333333,-0.12555555555555556,0.2060477815238318,0.20816127890384692,-0.4045279117551662
1592251296.9571335,-6.539740241280671,7.473332089618535,1.480515786294263,0.07777777777777778,-0.7733333333333333,-0.12555555555555556,0.17979158117998123,0.17506478345740192,-0.351304182525272
1592251296.9671335,-6.798673034158433,7.569834129269805,1.2506966570668223,0.07784412606985608,-0.7733149032522004,-0.1255371254744227,0.15699278296825156,0.141775433082825,-0.2943252806857891
1592251296.9771335,-6.4,7.52,1.46,0.09777777777777778,-0.7677777777777778,-0.12,0.1308996938995747,0.13199052468207118,-0.234528618236738
1592251296.9871335,-6.253269786723395,7.274692085310642,1.5441700758195605,0.09777777777777778,-0.7677777777777778,-0.12,0.09400274282547173,0.09894506962885924,-0.19269957452139172
1592251296.9971335,-6.152356478388241,7.403846430590533,1.280288842061983,0.09777777777777778,-0.7677777777777778,-0.12,0.09875687948644085,0.10216577473745152,-0.13271940842587734
1592251297.0071335,-6.340880837273549,7.449678761798508,1.4860725353733906,0.09777777777777778,-0.7677777777777778,-0.12,0.09586198276658242,0.11774416146306439,-0.09205820566088943
1592251297.0171335,-6.006638155448122,7.234277922399901,1.6271972232552372,0.09777777777777778,-0.7677777777777778,-0.12,0.10882561676335908,0.12422597846145272,-0.07666389028971714
1592251297.0271335,-6.03,6.76,1.62,0.11666666666666667,-0.7822222222222223,-0.13444444444444445,0.10799224746714915,0.15489797111449674,-0.06544984694978735
1592251297.0371335,-7.070161769560911,7.373387256520304,1.429343017497524,0.11666666666666667,-0.7822222222222223,-0.13444444444444445,0.05762136244998282,0.08899112044632444,-0.0984884427956135
1592251297.0471334,-6.317931175846436,7.120652310215106,1.4162317931899295,0.11666666666666667,-0.7822222222222223,-0.13444444444444445,0.024295106928187444,0.05414453859020728,-0.1301487547091646
1592251297.0571334,-6.9,7.31,1.29,0.11666666666666667,-0.7822222222222223,-0.13444444444444445,-0.01854412330243975,0.032724923474893676,-0.12326387842209952
1592251297.0671334,-6.290132227904021,7.58634633423099,1.6997549093769857,0.11666666666666667,-0.7822222222222223,-0.13444444444444445,-0.045570413951542085,0.0036196873912450085,-0.06817182440662169
1592251297.0771334,-5.91,7.4,2.18,0.12222222222222222,-0.7822222222222223,-0.12777777777777777,-0.09817477042468103,0.01090830782496456,-0.02617993877991494
1592251297.0871334,-6.598052399218354,7.356337120937975,1.4431685604689874,0.12222222222222222,-0.7822222222222223,-0.12777777777777777,-0.10547339705710719,0.09341188917135335,-0.008859832301085602
1592251297.0971334,-6.674840358931553,7.15838898163606,1.443115609348915,0.12222222222222222,-0.7822222222222223,-0.12777777777777777,-0.10747585564116975,0.07744898555724837,-0.01535369366302425
1592251297.1071334,-6.524358135590287,7.011023244543677,1.7735860290426986,0.12222222222222222,-0.7822222222222223,-0.12777777777777777,-0.14773704472216154,0.06738036651937089,-0.0339547678276953
1592251297.1171334,-6.575174377347388,7.1562125067068205,1.9986293853955726,0.12222222222222222,-0.7822222222222223,-0.12777777777777777,-0.18416373550692794,0.031745560316882034,-0.08463538109345722
1592251297.1271334,-6.48,7.26,1.79,0.14222222222222222,-0.7822222222222223,-0.12222222222222222,-0.13199052468207118,0.002181661564992912,-0.15489797111449674
1592251297.1371334,-6.445367896762508,6.668666515734661,1.6462848086936834,0.14222222222222222,-0.7822222222222223,-0.12222222222222222,-0.06896930121316906,-0.053147686071526444,-0.2312902066336418
1592251297.1471334,-7.020389002281187,7.32295713771161,1.3089105534878136,0.14222222222222222,-0.7822222222222223,-0.12222222222222222,-0.0014049177536314076,-0.1417910282980281,-0.27498698058510557
1592251297.1571333,-6.22,6.85,1.68,0.14222222222222222,-0.7822222222222223,-0.12222222222222222,0.032724923474893676,-0.17671458676442586,-0.2781618495365963
1592251297.1671333,-6.731916705078495,7.205738727257938,1.4370564789457985,0.14222222222222222,-0.7822222222222223,-0.12222222222222222,0.0402966455084365,-0.21741259269471852,-0.2866800368243319
1592251297.1771333,-6.799301117173291,7.126263964666147,1.4,0.14222222222222222,-0.7869772812563148,-0.12519413411853006,0.025696164255175673,-0.23937571589146314,-0.3142383357118804
1592251297.1871333,-6.753909642866612,7.043512474481003,1.483781186202508,0.14222222222222222,-0.7911111111111111,-0.12777777777777777,0.007359282918500727,-0.2540569533519876,-0.3435343894184404
1592251297.1971333,-6.598223347562107,7.1880783201209,1.8451958003022508,0.14222222222222222,-0.7911111111111111,-0.12777777777777777,-0.012656089616937035,-0.25830263843526224,-0.37143460567995973
1592251297.2071333,-6.73324432576769,7.007930574098799,1.7685180240320426,0.14222222222222222,-0.7911111111111111,-0.12777777777777777,-0.014998559163604475,-0.24641488717044274,-0.3957152506580701
1592251297.2171333,-6.937315982986086,6.901591089323048,1.6906171148439189,0.14222222222222222,-0.7911111111111111,-0.12777777777777777,-0.03219370280329368,-0.23393008077832977,-0.4269811777151947
1592251297.2271333,-6.503507164947237,6.8094409688613995,1.8183354186831606,0.1528603655001823,-0.7969137347172712,-0.10940280302493764,-0.022038392242834038,-0.2630121802565179,-0.45190748328244246
1592251297.2371333,-6.706654309660782,6.8668325976988696,1.780284789724261,0.15444444444444444,-0.7977777777777778,-0.10666666666666667,-0.010760809802326363,-0.2687325657587334,-0.4563554603481238
1592251297.2471333,-7.013468061892482,6.955236560206308,1.7230822257488594,0.15444444444444444,-0.7977777777777778,-0.10666666666666667,-0.0005501760096205573,-0.27043433805751765,-0.4580572326469081
1592251297.2571332,-6.783728982641975,6.8021186947925925,1.8581074855349788,0.15444444444444444,-0.7977777777777778,-0.10666666666666667,0.07956590915550035,-0.2726368439557462,-0.45495656734176204
1592251297.2671332,-6.555500879690929,6.733650263907278,1.6679173997424408,0.15444444444444444,-0.7977777777777778,-0.10666666666666667,0.11690964517496596,-0.24359171594060627,-0.4366996297322455
1592251297.2771332,-6.717457586845982,6.767874827733689,1.7177705175117617,0.1659698659358879,-0.8022106321975637,-0.13060408053351075,0.15655909961374626,-0.1829666079956742,-0.3973738745220346
1592251297.2871332,-7.220520128514532,7.151307798226263,1.8489169541463704,0.1688888888888889,-0.8033333333333333,-0.13666666666666666,0.15931499514248232,-0.1512572763391583,-0.34027172673984374
1592251297.2971332,-7.339253211670068,7.392571737303398,1.9694128947052467,0.1688888888888889,-0.8033333333333333,-0.13666666666666666,0.15545000037950127,-0.12753670280425186,-0.2850910937484252
1592251297.3071332,-5.87,6.8,2.01,0.1688888888888889,-0.8033333333333333,-0.13666666666666666,0.16253378659197193,-0.10362892433716332,-0.2585268954516601
1592251297.3171332,-7.066532492725509,6.951673132880699,1.7066537342386032,0.1688888888888889,-0.8033333333333333,-0.13666666666666666,0.15609963072770755,-0.06778148452197608,-0.18683201582128556
1592251297.3271332,-6.45,6.85,1.92,0.1811111111111111,-0.7977777777777778,-0.12222222222222222,0.16144295580947549,-0.06654067773228381,-0.11999138607461016
1592251297.3371332,-6.999697961091313,6.620466787404335,1.360398142197815,0.1811111111111111,-0.7977777777777778,-0.12222222222222222,0.17998258629365466,-0.08507132257994189,-0.10686697174465504
1592251297.3471332,-6.78,6.96,1.65,0.1811111111111111,-0.7977777777777778,-0.12222222222222222,0.17671458676442586,-0.07526732399225547,-0.0818123086872342
1592251297.3571332,-7.224108362779741,6.614350215940322,1.4146823714173538,0.1811111111111111,-0.7977777777777778,-0.12222222222222222,0.16436614246940925,-0.05386262865901464,-0.05026721271121026
1592251297.3671331,-7.569928150765607,6.82019532783667,1.7687359638790734,0.1811111111111111,-0.7977777777777778,-0.12222222222222222,0.14370826149697652,-0.07541867836937924,-0.03589651290430053
1592251297.3771331,-6.56,6.69,1.77,0.19333333333333333,-0.8033333333333333,-0.12222222222222222,0.11780972450961724,-0.09708393964218458,-0.011999138607461015
1592251297.3871331,-6.700657126620861,6.71711499715865,1.6542299943173011,0.19333333333333333,-0.8033333333333333,-0.12222222222222222,0.10335341306498139,-0.12586776706969072,0.03766054251910395
1592251297.397133,-7.06,6.78,1.78,0.19333333333333333,-0.8033333333333333,-0.12222222222222222,0.07199483164476608,-0.1778054175469223,0.05235987755982988
1592251297.407133,-6.67341876875659,6.83658123124341,1.7639885635493553,0.19333333333333333,-0.8033333333333333,-0.12222222222222222,0.04971205372009626,-0.1693273911668124,0.0670410363001087
1592251297.417133,-6.775478140968448,6.734521859031552,1.8830578311298563,0.19333333333333333,-0.8033333333333333,-0.12222222222222222,0.03579586561372647,-0.17674935815687626,0.04941386469870697
1592251297.427133,-7.03,6.71,2.2,0.18666666666666668,-0.7977777777777778,-0.10666666666666667,0.032724923474893676,-0.14726215563702155,0.028361600344907853
1592251297.437133,-6.61850813778173,6.807974252909111,1.3280291491089034,0.18666666666666668,-0.7977777777777778,-0.10666666666666667,0.054099589667964146,-0.1387122891597934,0.01981173386767967
1592251297.447133,-7.297604626858581,6.459940382879673,1.805389292670182,0.18666666666666668,-0.7977777777777778,-0.10666666666666667,0.05787281953571733,-0.1569620565526793,-0.0011757612681033958
1592251297.457133,-7.061176448257536,6.817609520917166,1.8931914812846404,0.18666666666666668,-0.7977777777777778,-0.10666666666666667,0.057812664931585475,-0.15590279265186202,-0.02181661564992912
1592251297.467133,-6.686998139852707,6.96887309239997,1.7578503910105534,0.18666666666666668,-0.7977777777777778,-0.10666666666666667,0.03610174913634934,-0.1758768351834793,-0.02181661564992912
1592251297.477133,-6.93,7.15,2.24,0.19333333333333333,-0.8177777777777778,-0.10666666666666667,0.031634092692397225,-0.18653206380689397,-0.025089107997418484
1592251297.487133,-6.22579365079365,6.909087301587301,1.758174603174603,0.19333333333333333,-0.8177777777777778,-0.10666666666666667,0.047806091912265314,-0.17339231444075115,-0.021046108192451465
1592251297.497133,-6.502339112193475,6.813888795119716,1.6061695560967377,0.19333333333333333,-0.8177777777777778,-0.10666666666666667,0.057230333241531615,-0.127580962299665,-0.018209217499784353
1592251297.507133,-6.75,7.15,1.73,0.19333333333333333,-0.8177777777777778,-0.10666666666666667,0.08617563181722002,-0.09381144729469522,-0.02399827721492203
1592251297.517133,-6.484023177798109,7.177997560231779,1.9399817017383347,0.19333333333333333,-0.8177777777777778,-0.10666666666666667,0.11595271733945149,-0.09915605238842908,-0.060646997857668465
1592251297.527133,-7.05,6.93,2.09,0.19333333333333333,-0.8244444444444444,-0.09888888888888889,0.11999138607461016,-0.05890486225480862,-0.10144726277217041
1592251297.537133,-6.61947463768116,6.311119791666667,1.4531812349033815,0.19333333333333333,-0.8244444444444444,-0.09888888888888889,0.12390497205680041,-0.007049847990787693,-0.07209536790574346
1592251297.547133,-7.921932968110811,6.740656204397024,1.88,0.19333333333333333,-0.8244444444444444,-0.09888888888888889,0.16071002900492068,-0.006688146286155395,-0.041771739177473136
1592251297.557133,-6.3,6.85,1.88,0.19333333333333333,-0.8244444444444444,-0.09888888888888889,0.2203478180642841,-0.030543261909900768,0.01090830782496456
1592251297.567133,-6.828140350877193,7.114070175438597,1.778434547908232,0.19333333333333333,-0.8244444444444444,-0.09888888888888889,0.2402901479486606,-0.0438381484994851,0.037498081004133224
1592251297.577133,-6.49,6.73,1.72,0.17222222222222222,-0.8177777777777778,-0.08444444444444445,0.20943951023931953,-0.01090830782496456,0.10035643198967394
1592251297.587133,-6.988125249591578,6.822245416591033,1.9229399165002723,0.17222222222222222,-0.8177777777777778,-0.08444444444444445,0.20541454464085124,0.0021728303700574696,0.10740012178699351
1592251297.597133,-6.89,6.87,1.87,0.17222222222222222,-0.8177777777777778,-0.08444444444444445,0.17016960206944715,0.015271630954950384,0.09599310885968812
1592251297.607133,-6.300783760482796,6.92702092640489,1.356811662355984,0.17222222222222222,-0.8177777777777778,-0.08444444444444445,0.1566928960195145,0.027711667308734325,0.06592968767137693
1592251297.617133,-6.862865005849299,7.03141111942159,1.743445333026485,0.17222222222222222,-0.8177777777777778,-0.08444444444444445,0.14747938876218586,0.04623136792800324,0.02861948100110013
1592251297.627133,-6.17,7.2,1.26,0.19333333333333333,-0.7977777777777778,-0.056666666666666664,0.12762720155208535,0.04363323129985824,-0.025089107997418484
1592251297.637133,-6.512444933920705,7.477217327459618,1.2192327459618209,0.19333333333333333,-0.7977777777777778,-0.056666666666666664,0.11161793832791381,0.05252726642439799,-0.04020896770913607
1592251297.6471329,-6.492614096035787,6.787315471374863,1.0904777994574788,0.19333333333333333,-0.7977777777777778,-0.056666666666666664,0.0034534063186976746,0.05204098099594677,-0.05296776926796453
1592251297.6571329,-7.368940043984569,7.34,1.6881432743267115,0.19333333333333333,-0.7977777777777778,-0.056666666666666664,-0.028914193030665423,0.07841542301079663,-0.04591616154080487
1592251297.6671329,-6.53724771965245,7.34,1.657899917078271,0.19333333333333333,-0.7977777777777778,-0.056666666666666664,-0.07345121285172464,0.058621191979214754,-0.04756568079343669
1592251297.6771328,-7.02,6.82,1.06,0.18666666666666668,-0.81,-0.06333333333333334,-0.08508480103472357,0.074176493209759,0.004363323129985824
1592251297.6871328,-7.346116361152226,7.218586663630498,1.5038806026794185,0.18666666666666668,-0.81,-0.06333333333333334,-0.09496640562973965,0.0949278628592928,0.07946351805210813
1592251297.6971328,-6.019632518302311,7.136430451217762,1.0942781951289535,0.18666666666666668,-0.81,-0.06333333333333334,-0.10413568906596651,0.06504042656326636,0.1309970382418569
1592251297.7071328,-6.446384217677472,7.056098533641545,1.414541829154241,0.18666666666666668,-0.81,-0.06333333333333334,-0.09073992835865166,0.08055919394420717,0.13246232424992369
1592251297.7171328,-6.579604736108416,6.974685994600413,1.7179885655802791,0.18666666666666668,-0.81,-0.06333333333333334,-0.07217112850095153,0.09993533292615513,0.1195448982619584
1592251297.7271328,-6.582136833299418,6.605923941305478,1.3934068145334508,0.17222222222222222,-0.8177777777777778,-0.04888888888888889,0.007429260777992774,0.09463019312857196,0.08945061515272702
1592251297.7371328,-7.255440095864704,6.786103687625766,1.8011820298898913,0.17222222222222222,-0.8177777777777778,-0.04888888888888889,0.034324976332639506,0.08635458834252681,0.05634819600854643
1592251297.7471328,-7.53,6.86,1.71,0.17222222222222222,-0.8177777777777778,-0.04888888888888889,0.02945243112740431,0.053450708342326333,0.0272707695624114
1592251297.7571328,-6.351106821106821,6.602117117117118,1.3784362934362935,0.17222222222222222,-0.8177777777777778,-0.04888888888888889,0.0033311051984150145,0.010250053921305582,-0.0269812150593356
1592251297.7671328,-7.013271267860075,6.785180448349482,1.6947031532271308,0.17222222222222222,-0.8177777777777778,-0.04888888888888889,-0.01770980973569089,0.01460240205991617,-0.06117795636383448
1592251297.7771327,-7.049215622683469,6.614590437361008,1.5315108413639733,0.1628194238530599,-0.8211969771847459,-0.031792891854048266,-0.06545490083591826,-0.00042149410331822,-0.11462658486892241
1592251297.7871327,-6.941157949758633,7.42527749592596,1.223970113458168,0.16,-0.8222222222222222,-0.02666666666666667,-0.07961260244736557,-0.008672512235344484,-0.13086360454982326
1592251297.7971327,-6.441294903926483,6.700244592963891,1.0904747981063772,0.16,-0.8222222222222222,-0.02666666666666667,-0.12211183839352314,0.0011284980108533372,-0.13521750246196262
1592251297.8071327,-7.317297410192147,6.865711733036295,1.411675717070454,0.16,-0.8222222222222222,-0.02666666666666667,-0.08070378342044912,0.026610377994283497,-0.10442689748198454
1592251297.8171327,-7.34,6.9517725116586275,1.6734947861417449,0.16,-0.8222222222222222,-0.02666666666666667,-0.09390264278292626,0.014782773359312048,-0.07865293193096462
1592251297.8271327,-6.93,6.74,1.4,0.16666666666666666,-0.8177777777777778,-0.006666666666666667,-0.09272061651219875,-0.02181661564992912,-0.044724062082354694
1592251297.8371327,-7.272217360454116,6.601656811731315,1.6475614947965942,0.16666666666666666,-0.8177777777777778,-0.006666666666666667,-0.08160100537340624,-0.046438611742969683,-0.022484839804769664
1592251297.8471327,-7.0814175527519145,6.801004352377279,1.5951897967054158,0.16666666666666666,-0.8177777777777778,-0.006666666666666667,-0.052174837177520014,-0.09564977150855583,-0.013127710656631911
1592251297.8571327,-7.147159179803248,6.838934692426218,1.5224857176721585,0.16666666666666666,-0.8177777777777778,-0.006666666666666667,-0.03864390550509923,-0.13916774388296524,-0.022558825344133122
1592251297.8671327,-6.988087231529855,6.904765107388058,1.600956384235073,0.16666666666666666,-0.8177777777777778,-0.006666666666666667,-0.02846500863142086,-0.16191150277321759,-0.021141252113161015
1592251297.8771327,-6.93,7.27,1.55,0.15222222222222223,-0.8244444444444444,-0.006666666666666667,-0.015271630954950384,-0.1461713248545251,0.00545415391248228
1592251297.8871326,-6.953077111984283,7.162306810740013,1.5576923706614276,0.15222222222222223,-0.8244444444444444,-0.006666666666666667,0.000671410989979606,-0.0941466616658062,0.03734023780234226
1592251297.8971326,-6.630570621175983,6.7817460852431815,1.352930104739189,0.15222222222222223,-0.8244444444444444,-0.006666666666666667,-0.008919914370714693,-0.045684803121008886,0.09310808598619502
1592251297.9071326,-7.199567186357525,6.806791046536311,1.892134349128476,0.15222222222222223,-0.8244444444444444,-0.006666666666666667,-0.03227556716156253,-0.004841984730513317,0.10313886480667273
1592251297.9171326,-6.792141590033236,6.67404298268866,1.7380606814428154,0.15222222222222223,-0.8244444444444444,-0.006666666666666667,-0.048646364215351345,0.05626838944579541,0.13939686600048154
1592251297.9271326,-7.664242242182103,6.775092072456367,1.5645573612905164,0.1661602931899426,-0.8223001258340259,-0.012027463192712976,-0.017624409656120305,-0.06488010094314056,0.14309003673713777
1592251297.9371326,-6.913605370219691,6.620055329536209,1.8532318958502847,0.16666666666666666,-0.8222222222222222,-0.012222222222222223,-0.029447904490308513,-0.12651675534217377,0.10873128754123024
1592251297.9471326,-7.027206690169714,6.659885217676478,1.6495662867918341,0.16666666666666666,-0.8222222222222222,-0.012222222222222223,-0.034991458239246195,-0.1790409531097811,0.06849276131755479
1592251297.9571326,-6.247276617880027,6.734708580616178,1.897322488355047,0.16666666666666666,-0.8222222222222222,-0.012222222222222223,-0.0601159106212366,-0.19217001315020568,0.0443564712206958
1592251297.9671326,-6.664192603584957,6.906441207482329,1.912434490568985,0.16666666666666666,-0.8222222222222222,-0.012222222222222223,-0.06795423800313084,-0.141085097894377,0.049969822032718304
1592251297.9771326,-6.46,6.72,2.09,0.14,-0.8177777777777778,0.013333333333333334,-0.07853981633974483,-0.030543261909900768,0.05890486225480862
1592251297.9871325,-6.5808392434988185,6.526657210401892,2.0013845547675335,0.14,-0.8177777777777778,0.013333333333333334,-0.04075280193101082,0.010758823606622454,0.040450738938915265
1592251297.9971325,-5.806634358120046,6.48,1.9332926952395375,0.14,-0.8177777777777778,0.013333333333333334,0.021353663739764654,0.02582076144744823,0.001351575078277198
1592251298.0071325,-7.153414753696594,6.582332325790377,1.5279801486806632,0.14,-0.8177777777777778,0.013333333333333334,0.06415864585322806,0.04212668892514333,-0.013050893391417752
1592251298.0171325,-7.105933200729322,6.502791314437261,1.7096494281452015,0.14,-0.8177777777777778,0.013333333333333334,0.07933890910341847,-0.0031453824452690807,-0.04622063201219444
1592251298.0271325,-6.231679689866134,6.635873765824702,1.5837767278454176,0.1448853823840195,-0.8050757835793271,0.013333333333333334,0.07291594900641075,-0.0841673838683554,-0.07686729503730727
1592251298.0371325,-6.880878847252837,6.80704465670667,1.6122112009143603,0.14555555555555555,-0.8033333333333333,0.013333333333333334,0.044850074455383714,-0.07729745901823148,-0.072227531525137
1592251298.0471325,-6.579526117245368,6.9286185532946,1.9099380455434094,0.14555555555555555,-0.8033333333333333,0.013333333333333334,0.01929758559775389,-0.05134777209828294,-0.05431887952764664
1592251298.0571325,-6.527973507409349,6.824431791108781,1.9148105970362606,0.14555555555555555,-0.8033333333333333,0.013333333333333334,0.020463407500965702,-0.005903490745506626,-0.06579486694951153
1592251298.0671325,-6.856499421457926,6.758476838367314,2.101371743207118,0.14555555555555555,-0.8033333333333333,0.013333333333333334,0.028754792113214644,0.060217554343364836,-0.08850692735381341
1592251298.0771325,-6.620224088737857,6.436247234956561,2.3540925848748118,0.14555555555555555,-0.7849240748458521,0.03992448448191724,0.06476837933017693,0.07478382364285668,-0.1391680884180071
1592251298.0871325,-7.2007116443421815,6.579642123428384,1.9628589037718793,0.14555555555555555,-0.7833333333333333,0.042222222222222223,0.1009406615586542,0.07787751021463388,-0.15844310392751024
1592251298.0971324,-7.420452507134121,6.5295984508764775,2.02210966163881,0.14555555555555555,-0.7833333333333333,0.042222222222222223,0.1262019619850649,0.05307805599999775,-0.16770289259105012
1592251298.1071324,-7.528762446657184,6.657039219670798,1.9186161349319244,0.14555555555555555,-0.7833333333333333,0.042222222222222223,0.1455174027231769,0.026878859620640672,-0.15873438817457927
1592251298.1171324,-7.1382847076956955,6.749355058901244,1.6998936474733017,0.14555555555555555,-0.7833333333333333,0.042222222222222223,0.16676800666226563,-0.019458701386885803,-0.14261742386566773
1592251298.1271324,-7.449812980621347,6.979270378345125,1.9747240848969545,0.13890915615707988,-0.789979732731809,0.054565535390819916,0.18415193210722045,-0.008488884742753253,-0.10031714060713617
1592251298.1371324,-7.562089441729602,6.859851547460388,1.9968658374055974,0.13777777777777778,-0.7911111111111111,0.056666666666666664,0.17990570698002087,0.010696578749271206,-0.07092039643822454
1592251298.1471324,-6.841311384238919,6.6138017907791555,1.5799060119014516,0.13777777777777778,-0.7911111111111111,0.056666666666666664,0.17453292519943295,0.05006871432293851,-0.018860980494863913
1592251298.1571324,-7.263088702279303,6.278172323759791,1.7275499259050173,0.13777777777777778,-0.7911111111111111,0.056666666666666664,0.17361359755598116,0.08321219921087265,-0.011999138607461015
1592251298.1671324,-7.139954526582178,6.484900848178097,1.7281735502876687,0.13777777777777778,-0.7911111111111111,0.056666666666666664,0.19169232596443686,0.07771132497950439,-0.014280417550898561
1592251298.1771324,-7.030939935341161,6.6271801939765185,1.3657175429640973,0.12569769156599173,-0.7780243510483429,0.07579346983532792,0.18973903577558102,0.05529626706897578,-0.04096742425025349
1592251298.1871324,-7.309923856834562,6.692205301518792,1.2740152286330877,0.12444444444444444,-0.7766666666666666,0.07777777777777778,0.1683570880525355,0.024272861517922684,-0.06873975066039162
1592251298.1971323,-7.045547384800723,6.82836662985644,1.3629582873205501,0.12444444444444444,-0.7766666666666666,0.07777777777777778,0.13005764284101523,-0.02206870805644522,-0.0866765039476731
1592251298.2071323,-7.025537848605578,6.438738379814077,1.113027888446215,0.12444444444444444,-0.7766666666666666,0.07777777777777778,0.08773292675903104,-0.047588036128829454,-0.07536438330490787
1592251298.2171323,-7.440773155721742,6.549839915868193,1.1907786087092,0.12444444444444444,-0.7766666666666666,0.07777777777777778,0.048968716895151435,-0.04666719735565426,-0.05697918945138544
1592251298.2271323,-7.108330544710913,6.490919625704901,1.6722866703848298,0.14030516480414232,-0.7766666666666666,0.08524164618234148,-0.032099978901293895,-0.07150319055403692,-0.02299917707454293
1592251298.2371323,-7.117265894529325,6.43,1.6547962871693773,0.14333333333333334,-0.7766666666666666,0.08666666666666667,-0.0474733606612391,-0.06338592414347691,-0.01662405862174932
1592251298.2471323,-7.756926287221241,6.626341244847274,1.6999510971144738,0.14333333333333334,-0.7766666666666666,0.08666666666666667,-0.0699621444350446,-0.042702043827210205,-0.009663168209908181
1592251298.2571323,-6.821003861003861,6.291274131274132,1.5032432432432432,0.14333333333333334,-0.7766666666666666,0.08666666666666667,-0.07771011107274946,-0.05714542380157351,-0.04229601595838092
1592251298.2671323,-7.038217792973012,6.348459300210955,1.4804531897868625,0.14333333333333334,-0.7766666666666666,0.08666666666666667,-0.08144650306365751,-0.05859507805644781,-0.05765255328489816
1592251298.2771323,-7.438193576711357,6.724625645874844,1.243920502515957,0.15081253588193577,-0.7551639593394346,0.09882037080814562,-0.06598323450507985,-0.06647341026381472,-0.06063480766516401
1592251298.2871323,-7.381332054995716,6.614015340051405,1.2296621924850066,0.15222222222222223,-0.7511111111111111,0.10111111111111111,-0.048579864742201,-0.0829378968782872,-0.05148804960384663
1592251298.2971323,-7.233798314298539,6.595910927135804,0.9788369657373697,0.15222222222222223,-0.7511111111111111,0.10111111111111111,-0.04840245380983539,-0.09125560318908035,-0.026220088055137248
1592251298.3071322,-7.286875658914729,6.540423565891473,1.01071503875969,0.15222222222222223,-0.7511111111111111,0.10111111111111111,-0.06108172078193752,-0.09355823925631479,-0.015442037326492002
1592251298.3171322,-7.628659260386547,6.612122964541165,1.4632775325927052,0.15222222222222223,-0.7511111111111111,0.10111111111111111,-0.09347627953486257,-0.10676531876401402,0.009545281201190772
1592251298.3271322,-7.104118541033435,6.314288247213779,1.4654381965552177,0.13249240121580547,-0.7511111111111111,0.12166300799279522,-0.14374292775539607,-0.10295447703724593,0.06810342821500923
1592251298.3371322,-7.35200791094075,6.224234392203238,1.6848203727113322,0.12555555555555556,-0.7511111111111111,0.1288888888888889,-0.1606529564334963,-0.07629423421713469,0.11819578332629084
1592251298.3471322,-7.069806984093818,6.433208138532661,1.9445279076448925,0.12555555555555556,-0.7511111111111111,0.1288888888888889,-0.15730599281653185,-0.04935494317923331,0.14967017733905666
1592251298.3571322,-6.910738779832206,6.466045043577421,1.8053062637452146,0.12555555555555556,-0.7511111111111111,0.1288888888888889,-0.14281824412878988,-0.029673538271025916,0.1325939157258061
1592251298.3671322,-7.109826106097293,6.334730354391372,1.677721769755668,0.12555555555555556,-0.7511111111111111,0.1288888888888889,-0.11459413880871641,0.009109865702820942,0.072433036834741
1592251298.3771322,-7.019743521328753,6.305128239335624,1.489487042657506,0.13693122398989058,-0.7301098770784926,0.13501424881506927,-0.0839380152862971,-0.00878260122590166,-0.0003436609936117649
1592251298.3871322,-6.8816939846912195,6.388403799142388,1.5269053821183827,0.14,-0.7244444444444444,0.13666666666666666,-0.08739791485647785,-0.028951408741390933,-0.03112240374481092
1592251298.3971322,-7.422575329455063,6.625290276623531,1.2294194467529385,0.14,-0.7244444444444444,0.13666666666666666,-0.09571075942694458,-0.04654624031764873,-0.03663924858482546
1592251298.4071321,-7.551188040912667,6.697400996590611,1.4700498295305535,0.14,-0.7244444444444444,0.13666666666666666,-0.12424943101735268,-0.07815103086022407,-0.010403373041039506
1592251298.4171321,-7.1391555055720275,6.7,1.7586852060116553,0.14,-0.7244444444444444,0.13666666666666666,-0.15979079494882126,-0.07312460712711406,0.02759131611542759
1592251298.4271321,-7.337842931937173,6.62075392670157,1.9724712041884818,0.14,-0.7244444444444444,0.1414694589877836,-0.17767634542292013,-0.04078336449113713,0.06751385870263667
1592251298.4371321,-7.1320425839047275,6.521859737760135,2.0427134207466215,0.14,-0.7244444444444444,0.14333333333333334,-0.1694811788894595,-0.00784865410723692,0.08131345447999365
1592251298.447132,-6.935738960202211,6.36276775536502,1.985746642216385,0.14,-0.7244444444444444,0.14333333333333334,-0.13442803977723033,0.0429364392822042,0.07577819307483465
1592251298.457132,-6.880350204932943,6.540447457133849,2.000797662066791,0.14,-0.7244444444444444,0.14333333333333334,-0.10614802306730894,0.06423380330153881,0.04478136423050999
1592251298.467132,-6.864240869847921,6.583132608460065,1.9118556514828595,0.14,-0.7244444444444444,0.14333333333333334,-0.09738885054761237,0.07247584061640697,0.02498661726789953
1592251298.477132,-7.337237583803075,6.378664821053333,1.6713351789466662,0.14,-0.7158573763383476,0.15348168654962957,-0.08473223940294375,0.0694324835624035,-0.01235170023924083
1592251298.487132,-7.404749340369394,6.382532981530343,1.6707387862796834,0.14,-0.7122222222222222,0.15777777777777777,-0.07681578563073328,0.058628556832329315,-0.014557841946878824
1592251298.497132,-6.947111747399391,6.503654250288956,1.4957680991909215,0.14,-0.7122222222222222,0.15777777777777777,-0.07241445248060928,0.035137170185067554,-0.01822952229474225
1592251298.507132,-7.014562382085145,6.542006398162578,1.5215207940283815,0.14,-0.7122222222222222,0.15777777777777777,-0.0848694266033013,0.022960417626194576,-0.018025193508076024
1592251298.517132,-7.329330578875654,6.578666432244736,1.6566660806118412,0.14,-0.7122222222222222,0.15777777777777777,-0.12239134804629756,0.030252610237293254,0.00247269680958671
1592251298.527132,-7.188450610853301,6.501162041860025,1.9630277488398522,0.13418884364049627,-0.7085902494975324,0.14760825414864623,-0.13878644487952968,0.06121070021913487,0.018459617233675465
1592251298.537132,-7.197506105617168,6.421259158425752,2.1175061056171676,0.13111111111111112,-0.7066666666666667,0.14222222222222222,-0.12373087820418843,0.07472057656197667,0.02568813250047015
1592251298.547132,-7.3447375794525875,6.495694383188481,2.082535996886756,0.13111111111111112,-0.7066666666666667,0.14222222222222222,-0.054943316907131834,0.07525161738739658,0.034577765144651766
1592251298.557132,-7.0397377715419225,6.51421500798297,1.6935168609995646,0.13111111111111112,-0.7066666666666667,0.14222222222222222,-0.0036085710364891985,0.03832173139120236,0.026300426789806056
1592251298.567132,-6.8236676899727495,6.523089234590046,1.6129353937428856,0.13111111111111112,-0.7066666666666667,0.14222222222222222,0.014349291781712632,0.018038648474663632,0.022385190171480773
1592251298.577132,-6.844283093053735,6.581787680209699,1.868305373525557,0.13907718071938258,-0.7023215377894276,0.15091247997670015,0.030348256249700875,-0.01858272412960542,0.02570257521729952
1592251298.587132,-7.076128174123338,6.582060459492141,1.8668029020556227,0.14333333333333334,-0.7,0.15555555555555556,0.031178766469763877,-0.025893183505290115,0.031802663640405744
1592251298.597132,-6.939816693144324,6.3820175974581455,1.9121850177196626,0.14333333333333334,-0.7,0.15555555555555556,-0.006392750947745326,-0.016890480890504208,0.03388360625155984
1592251298.607132,-6.652091359809947,6.468687703351754,2.150445178949543,0.14333333333333334,-0.7,0.15555555555555556,-0.015055639361700814,0.044017920552467706,0.042266974617675514
1592251298.617132,-6.79211855104281,6.609285400658617,2.318423710208562,0.14333333333333334,-0.7,0.15555555555555556,-0.008267204140055193,0.08200580841769681,0.05461948982069603
1592251298.627132,-7.132452836211574,6.519016184122322,2.316994605292559,0.14333333333333334,-0.6725157212628085,0.16013626867842082,0.02474069120648225,0.16759248083079212,0.10879493624035144
1592251298.637132,-7.064052938319573,6.567026469159786,2.255358183584264,0.14333333333333334,-0.6533333333333333,0.16333333333333333,0.05268423945715065,0.20301121106150682,0.13031520674037644
1592251298.647132,-7.110971887961493,6.4921706180552,1.95035639305648,0.14333333333333334,-0.6533333333333333,0.16333333333333333,0.07157428451171187,0.22360735159455095,0.1401258131923224
1592251298.657132,-7.143623911531173,6.369420922589776,1.7355074723534916,0.14333333333333334,-0.6533333333333333,0.16333333333333333,0.08676842286830727,0.21359736875673643,0.1298484278769107
1592251298.667132,-7.065054945054945,6.305054945054945,1.729010989010989,0.14333333333333334,-0.6533333333333333,0.16333333333333333,0.09542971274125589,0.20454875244526952,0.12168157442990686
1592251298.677132,-7.354463096370804,6.45661071088759,1.9227684518145982,0.1401423058915923,-0.6533333333333333,0.1741828266352529,0.09550626056903608,0.1881817285188765,0.11205357935121275
1592251298.687132,-7.006865277608545,6.400826124040453,1.9395036757239754,0.13777777777777778,-0.6533333333333333,0.18222222222222223,0.09366719056150774,0.18135734085762217,0.12480528997133936
1592251298.6971319,-7.965154639175259,7.014648547328959,1.2473102155576383,0.13777777777777778,-0.6533333333333333,0.18222222222222223,0.16440670317447756,0.3186023305705347,0.29180592416002427
1592251298.7071319,-9.63698732989207,7.3423228531206,0.6769497888315344,0.13777777777777778,-0.6533333333333333,0.18222222222222223,0.21440225281853265,0.4053416620206845,0.3898872874761746
1592251298.7171319,-7.65984159763985,6.527275615567912,1.6330693293997502,0.13777777777777778,-0.6533333333333333,0.18222222222222223,0.2740031763119525,0.408729801161889,0.5604666280931917
1592251298.7271318,-7.3405556983994344,6.484804910972553,1.8440104133187634,0.13777777777777778,-0.6496271774763771,0.17480991050830996,0.36957290115136654,0.47027729532900336,0.6585174415336356
1592251298.7371318,-6.841489871847871,6.748510128152129,1.33574906986358,0.13777777777777778,-0.6466666666666666,0.1688888888888889,0.4015891496517825,0.46564923579604034,0.685777805440957
1592251298.7471318,-7.104846114519427,6.254728016359918,1.2413957055214724,0.13777777777777778,-0.6466666666666666,0.1688888888888889,0.4331147525693322,0.3865050478275823,0.708355060582276
1592251298.7571318,-6.745464795489984,6.494732717604254,1.1002179041221862,0.13777777777777778,-0.6466666666666666,0.1688888888888889,0.44243234724603686,0.3748008387312566,0.7113858334384715
1592251298.7671318,-7.45031437654539,6.500610649947015,0.98,0.13777777777777778,-0.6466666666666666,0.1688888888888889,0.4074338705527515,0.34161469781524856,0.7147625835856402
1592251298.7771318,-7.3511840308993435,6.749292112010122,1.1241441081477042,0.1309137726278871,-0.6466666666666666,0.18433290047614292,0.3715984633589323,0.34314700467966236,0.7121833432349426
1592251298.7871318,-7.400938301282051,6.814426282051282,1.2271850961538462,0.12444444444444444,-0.6466666666666666,0.1988888888888889,0.33719965679302166,0.34470864571076903,0.7087084764786251
1592251298.7971318,-7.515731835448153,6.245366793286457,0.777925590667852,0.12444444444444444,-0.6466666666666666,0.1988888888888889,0.2834429410692159,0.33946125565894913,0.7195891730711451
1592251298.8071318,-7.524179487179487,6.157923076923076,0.867,0.12444444444444444,-0.6466666666666666,0.1988888888888889,0.25610189471211026,0.3251990322782447,0.7213160504287911
1592251298.8171318,-7.526850597192149,6.0585346092058385,1.0342816232450933,0.12444444444444444,-0.6466666666666666,0.1988888888888889,0.24568706208593502,0.31029621427745835,0.7191076216893969
1592251298.8271317,-7.701771416272061,6.692927864214993,0.8183020724432692,0.11798276722082146,-0.6466666666666666,0.20804293162235477,0.2197936483887289,0.27436872883273555,0.7096021946735365
1592251298.8371317,-7.775124139873647,6.848622993038509,0.5458126433543922,0.1111111111111111,-0.6466666666666666,0.21777777777777776,0.19089784504817592,0.24663117309801424,0.7067573889151844
1592251298.8471317,-7.5825150352550805,6.530419431771049,0.5330239008710078,0.1111111111111111,-0.6466666666666666,0.21777777777777776,0.06053126787711437,0.15282732680510527,0.6764097863166791
1592251298.8571317,-7.549436720825058,6.748544662726424,0.7593424421526165,0.1111111111111111,-0.6466666666666666,0.21777777777777776,-0.019593947763974707,0.09118939193768297,0.6496896104719668
1592251298.8671317,-7.354076558800315,6.709273875295975,1.0217324388318865,0.1111111111111111,-0.6466666666666666,0.21777777777777776,-0.05254885732049127,0.053151956738911765,0.646734802109427
1592251298.8771317,-7.244357366771159,6.788200626959248,1.1723009404388716,0.1111111111111111,-0.6434190177638454,0.21777777777777776,-0.04931170652686016,0.03348064009850407,0.6901580355355837
1592251298.8871317,-7.245933060438237,6.8640111565936275,1.2695709928565695,0.1111111111111111,-0.64,0.21777777777777776,-0.03616026559005649,0.023251400901406816,0.7329283184676196
1592251298.8971317,-6.870457839520707,7.039404808623081,1.0454807314967427,0.1111111111111111,-0.64,0.21777777777777776,0.02122874909605725,-0.02387841510869057,0.8550465230811531
1592251298.9071317,-6.644955299517139,7.28417124826696,0.8910694650284458,0.1111111111111111,-0.64,0.21777777777777776,0.054858509507574316,-0.056701819008846945,0.9433975734116843
1592251298.9171317,-6.525730974632844,7.392556742323097,0.8420093457943925,0.1111111111111111,-0.64,0.21777777777777776,0.07514280325540174,-0.06099440760218751,0.993116593159845
1592251298.9271317,-6.238955919356342,7.617014693547886,0.7057463266130285,0.09976798207918708,-0.64,0.21210621326181575,0.053133499589726255,-0.021035403110409585,1.1265590740892535
1592251298.9371316,-6.17,7.6394377114975995,0.7005622885024002,0.08444444444444445,-0.64,0.20444444444444446,0.023542483869548225,0.008569077998283424,1.1781982415875243
1592251298.9471316,-6.1185578125,7.64870625,0.69129375,0.08444444444444445,-0.64,0.20444444444444446,-0.037050067527492125,0.04713360501550351,1.25726633444357
1592251298.9571316,-6.06,7.67,0.67,0.08444444444444445,-0.64,0.20444444444444446,-0.05563236990731925,0.05235987755982988,1.2828170002158321
1592251298.9671316,-5.805030784331222,7.713398768626751,0.9835950745070046,0.08444444444444445,-0.64,0.20444444444444446,-0.09435350463633194,0.07029098647232025,1.3668470816682294
1592251298.9771316,-5.62352376188094,7.781785892946473,0.9234997498749375,0.0684258796064699,-0.6450344060919349,0.20444444444444446,-0.10921033274613291,0.08136298899423391,1.421100619903437
1592251298.9871316,-5.6,7.87,0.8,0.04555555555555556,-0.6522222222222223,0.20444444444444446,-0.10471975511965977,0.08072147790473774,1.4409874636778182
1592251298.9971316,-5.383966132142763,8.137438247959212,0.6456774892346709,0.04555555555555556,-0.6522222222222223,0.20444444444444446,-0.09987414144530862,0.03914904735826462,1.5073037391354263
1592251299.0071316,-4.99,8.25,0.55,0.04555555555555556,-0.6522222222222223,0.20444444444444446,-0.1090830782496456,0.01090830782496456,1.543525557232485
1592251299.0171316,-4.562123028391167,8.461766336187472,0.5674754393871113,0.04555555555555556,-0.6522222222222223,0.20444444444444446,-0.14198413722222675,-0.014621605923992715,1.5935548962095307
1592251299.0271316,-4.392200784513825,8.654524029722232,0.5992837324999203,0.026640480771615765,-0.6492130057793227,0.19541679511574592,-0.19897227278113983,0.020537132402800265,1.6200913932194545
1592251299.0371315,-4.57,8.63,0.82,-0.0033333333333333335,-0.6444444444444445,0.1811111111111111,-0.2498002491916884,0.05999569303730508,1.6307920198322017
1592251299.0471315,-4.011944790644639,8.727428071385006,0.9359436238763226,-0.0033333333333333335,-0.6444444444444445,0.1811111111111111,-0.34063858889662646,0.08921150896487853,1.6244277941083407
1592251299.0571315,-3.9253757799205897,8.71548875023634,1.003947343543203,-0.0033333333333333335,-0.6444444444444445,0.1811111111111111,-0.37821071839441206,0.1361693099329421,1.620068249886352
1592251299.0671315,-3.4889064587169214,8.821221704754684,0.975980360301816,-0.0033333333333333335,-0.6444444444444445,0.1811111111111111,-0.380885863598291,0.14039798311966173,1.6085089685785363
1592251299.0771315,-3.5744107981220656,8.852794600938967,1.0912233959311424,-0.007603199443575031,-0.6476468440271258,0.1811111111111111,-0.367123922379637,0.1384020575829628,1.5884638591633584
1592251299.0871315,-3.62,8.83,1.19,-0.021111111111111112,-0.6577777777777778,0.1811111111111111,-0.34143003492139073,0.12762720155208535,1.5718871575773932
1592251299.0971315,-3.3513223336227993,8.994018315307493,1.1,-0.021111111111111112,-0.6577777777777778,0.1811111111111111,-0.340573353416356,0.11667893592471466,1.5590213480142958
1592251299.1071315,-3.13,9.0,1.1,-0.021111111111111112,-0.6577777777777778,0.1811111111111111,-0.3457933580513765,0.10362892433716332,1.5609788497524284
1592251299.1171315,-3.0568035326929035,8.993597768825536,1.17,-0.021111111111111112,-0.6577777777777778,0.1811111111111111,-0.3334893141554706,0.06518922391498576,1.5519905663602436
1592251299.1271315,-2.8540491325157045,9.112084205803171,1.1789122793897695,-0.03537075813474258,-0.6552031192873999,0.17972475653936917,-0.3050965678420159,0.004663399486059204,1.5412351959952162
1592251299.1371315,-2.55,9.26,1.22,-0.10111111111111111,-0.6433333333333333,0.17333333333333334,-0.2683443724941282,-0.0643590161672909,1.5206181108000596
1592251299.1471314,-2.0949725823233316,9.464207699446023,1.2122403756924722,-0.10111111111111111,-0.6433333333333333,0.17333333333333334,-0.2289671634587803,-0.12815772427032376,1.4666011127843364
1592251299.1571314,-1.9599480513319258,9.50442370187632,1.1892938302061342,-0.10111111111111111,-0.6433333333333333,0.17333333333333334,-0.2217071065019363,-0.13738464758154512,1.4182340795951562
1592251299.1671314,-2.05,9.42,1.33,-0.10111111111111111,-0.6433333333333333,0.17333333333333334,-0.22907446432425577,-0.12326387842209952,1.3875367553354918
1592251299.1771314,-1.8802236511042774,9.728811054754583,1.344979432085946,-0.11068537525904035,-0.6433333333333333,0.166427306734827,-0.24338495830395007,-0.13075780181688007,1.3360815105964032
1592251299.1871314,-1.76,9.6,1.74,-0.1688888888888889,-0.6433333333333333,0.12444444444444444,-0.2574360646691636,-0.12326387842209952,1.2686362000433782
1592251299.1971314,-1.6876821467575018,9.45,1.863615892662125,-0.1688888888888889,-0.6433333333333333,0.12444444444444444,-0.2057783714884351,-0.16357549056300436,1.1265378055383721
1592251299.2071314,-1.56,9.45,1.87,-0.1688888888888889,-0.6433333333333333,0.12444444444444444,-0.17235126363444003,-0.17889624832941878,1.0624691821515482
1592251299.2171314,-1.2947132563997423,9.70127233319665,1.8317204616015466,-0.1688888888888889,-0.6433333333333333,0.12444444444444444,-0.07177980935063566,-0.19056892366772307,0.9998891320076128
1592251299.2271314,-1.3002560631261362,9.890256063126136,1.7454132982632578,-0.17093391267723068,-0.6417694916128367,0.1258879906479798,-0.021546112569180854,-0.17594375213922075,0.9557632905450716
1592251299.2371314,-1.22,9.81,1.79,-0.18777777777777777,-0.6288888888888889,0.13777777777777778,0.007635815477475192,-0.15162547876700738,0.8944812416470939
1592251299.2471313,-1.187190947984688,9.704278315694664,1.6527831569466336,-0.18777777777777777,-0.6288888888888889,0.13777777777777778,0.023222340614627884,-0.09721878902286248,0.7858422575327226
1592251299.2571313,-1.28,9.69,1.51,-0.18777777777777777,-0.6288888888888889,0.13777777777777778,0.02945243112740431,-0.056723200689815706,0.7406741013150936
1592251299.2671313,-1.3060137830975698,9.620540442509975,1.49,-0.18777777777777777,-0.6288888888888889,0.13777777777777778,0.02213353819500698,0.012102405504171777,0.7070352064555184
1592251299.2771313,-1.3857023679983418,9.59156277527333,1.49,-0.18777777777777777,-0.6288888888888889,0.13777777777777778,0.019762808338006678,0.03580970407417481,0.6975522870275171
1592251299.2871313,-1.3475454765947126,9.547545476594712,1.4893863691486782,-0.2088888888888889,-0.6355555555555555,0.14555555555555555,0.025222981481760765,0.05402959210466013,0.6857761835669327
1592251299.2971313,-1.2356211861749595,9.458105930874797,1.4403258483876413,-0.2088888888888889,-0.6355555555555555,0.14555555555555555,0.031940680838086696,0.05501919361594031,0.6903537071395902
1592251299.3071313,-1.3131448236713261,9.5529617540623,1.395740438515575,-0.2088888888888889,-0.6355555555555555,0.14555555555555555,0.03335110817867543,0.05908637067636217,0.7235838256382574
1592251299.3171313,-1.501474191643008,9.567285025627346,1.38302212144885,-0.2088888888888889,-0.6355555555555555,0.14555555555555555,0.03637800005838885,0.07014283239025804,0.7542800033406456
1592251299.3271313,-1.6155634114007955,9.416459647290402,1.2935403527095972,-0.209563241785955,-0.6344878301352008,0.14589273200408862,0.04283082891933791,0.05955433009827385,0.7646297847277184
1592251299.3371313,-1.72,9.35,1.36,-0.2222222222222222,-0.6144444444444445,0.15222222222222223,0.06872233929727672,0.05126904677733343,0.7843073326149518
1592251299.3471313,-1.7799387442572743,9.505987748851455,1.184310872894334,-0.2222222222222222,-0.6144444444444445,0.15222222222222223,0.09744977722467572,0.018681103584468402,0.8311479071037736
1592251299.3571312,-1.387033940574306,9.484799182956085,1.124799182956084,-0.2222222222222222,-0.6144444444444445,0.15222222222222223,0.10117314953371204,-0.033958433047956316,0.8703953414669104
1592251299.3671312,-1.0169711538461539,9.527391826923076,1.1830408653846154,-0.2222222222222222,-0.6144444444444445,0.15222222222222223,0.08873751084245808,-0.08394414865398808,0.8955235619260418
1592251299.3771312,-0.8097658570014468,9.521077057793345,1.220140485799132,-0.2224615683985211,-0.6144132253779707,0.1521233618450553,0.07744387734944182,-0.11797829536723367,0.910956083956285
1592251299.3871312,-0.76,9.75,1.25,-0.2733333333333333,-0.6077777777777778,0.13111111111111112,0.07635815477475191,-0.1538071403320003,0.9348419805994628
1592251299.3971312,-0.34212829311176024,10.37353032924028,1.2159770864645663,-0.2733333333333333,-0.6077777777777778,0.13111111111111112,0.08132574550832466,-0.1831928465069659,0.9345843300992951
1592251299.4071312,1.4015724483889636,11.83736880185221,0.7518447327802431,-0.2733333333333333,-0.6077777777777778,0.13111111111111112,0.10394464544995369,-0.22448147322371248,0.8856111384062001
1592251299.4171312,4.77,11.64,-0.61,-0.2733333333333333,-0.6077777777777778,0.13111111111111112,0.12762720155208535,-0.234528618236738,0.8475755179997462
1592251299.4271312,2.0880811327310633,9.153129777623349,1.7110788742182073,-0.2733333333333333,-0.6077777777777778,0.13111111111111112,0.053159428475631224,-0.2781454567529469,0.4348112900902577
1592251299.4371312,0.34,9.53,1.88,-0.2611111111111111,-0.5955555555555555,0.14555555555555555,-0.00545415391248228,0.1461713248545251,0.07526732399225547
1592251299.4471312,-0.392009362621534,9.918440763413756,1.0811919337414477,-0.2611111111111111,-0.5955555555555555,0.14555555555555555,0.020995644697312053,0.14415974961607916,-0.07508663182086606
1592251299.4571311,-0.720372778183589,9.951013391770148,1.1513046018991964,-0.2611111111111111,-0.5955555555555555,0.14555555555555555,0.05749002259196948,0.14842414141504537,-0.14493818408097395
1592251299.4671311,0.98,10.13,1.11,-0.2611111111111111,-0.5955555555555555,0.14555555555555555,0.044724062082354694,0.1461713248545251,-0.14944381720201447
1592251299.4771311,-0.6504662840746054,9.846865136298423,0.9830774748923959,-0.2611111111111111,-0.5955555555555555,0.14555555555555555,0.10116946870632662,-0.14670578498683862,0.02095741034205173
1592251299.487131,-1.19,9.49,1.53,-0.29444444444444445,-0.5933333333333334,0.13777777777777778,0.07635815477475191,-0.07744898555724837,0.001090830782496456
1592251299.497131,-0.6664132864899394,9.841377621633132,1.242280421590546,-0.29444444444444445,-0.5933333333333334,0.13777777777777778,0.07199483164476608,-0.07097913846647226,0.021342447430517532
1592251299.507131,-0.69,9.92,1.03,-0.29444444444444445,-0.5933333333333334,0.13777777777777778,0.07199483164476608,-0.07526732399225547,0.031634092692397225
1592251299.517131,-0.668897557280818,9.763688316606704,1.1495815186517704,-0.29444444444444445,-0.5933333333333334,0.13777777777777778,0.10607188128936659,-0.08546226442649293,0.023334648898693168
1592251299.527131,-0.8198002272296914,9.835168528687749,0.9907366029161143,-0.29444444444444445,-0.5933333333333334,0.13777777777777778,0.10174005819617887,-0.10452228603651896,0.019869190424142983
1592251299.537131,-0.7105088360755637,9.801813426772293,0.9681865732277066,-0.3,-0.5933333333333334,0.14555555555555555,0.0818123086872342,-0.16689710972195776,0.0370882466048795
1592251299.547131,-0.4649436777685668,9.89,0.8471339054956843,-0.3,-0.5933333333333334,0.14555555555555555,0.07464203917008519,-0.16910334649646516,0.03763980579850635
1592251299.557131,-0.45817274305555555,9.879103009259259,0.7799667245370371,-0.3,-0.5933333333333334,0.14555555555555555,0.043644120669648775,-0.16849169221998211,0.037784061552800056
1592251299.567131,-0.48,9.85,0.86,-0.3,-0.5933333333333334,0.14555555555555555,0.017453292519943295,-0.14944381720201447,0.03381575425739013
1592251299.577131,-0.5303221730890714,9.78290376921457,1.0864497789008212,-0.3,-0.5933333333333334,0.14555555555555555,-0.010908078128021519,-0.12931639287120072,0.02558180794023906
1592251299.587131,-0.59,9.78,1.18,-0.31444444444444447,-0.5988888888888889,0.16,-0.04799655442984406,-0.0839939702522271,0.01854412330243975
1592251299.597131,-0.5989207512333035,9.758920751233303,1.2635245073998211,-0.31444444444444447,-0.5988888888888889,0.16,-0.05153578311615119,-0.0840252510357081,0.022907446432425576
1592251299.607131,-0.59,9.75,1.21,-0.31444444444444447,-0.5988888888888889,0.16,-0.044724062082354694,-0.07526732399225547,0.022907446432425576
1592251299.617131,-0.6829240391297375,9.727075960870263,1.2629240391297376,-0.31444444444444447,-0.5988888888888889,0.16,-0.033284148942066494,-0.07579892930757912,0.028786884597166766
1592251299.627131,-0.7053450579996793,9.704654942000321,1.2853450579996792,-0.31444444444444447,-0.5988888888888889,0.16,-0.029207892682355435,-0.07987518556729016,0.03204788960493561
1592251299.637131,-0.5923262962256958,9.740763915364088,1.2948841974837972,-0.3,-0.5955555555555555,0.13111111111111112,-0.01499260721185804,-0.0904265916829871,0.03658449633334967
1592251299.647131,-0.4164081945242198,9.782816389048438,1.1692245835726593,-0.3,-0.5955555555555555,0.13111111111111112,-0.009118451457743685,-0.09313915468721749,0.03789858997767028
1592251299.657131,-0.398254004420242,9.75,1.1357139602178223,-0.3,-0.5955555555555555,0.13111111111111112,-0.010527390680064,-0.08375159102757161,0.029539048395444144
1592251299.667131,-0.3940907302064327,9.752045365103216,1.2140907302064325,-0.3,-0.5955555555555555,0.13111111111111112,-0.00816885945596354,-0.07700275611404189,0.018854052559324857
1592251299.677131,-0.4241025365818754,9.767051268290937,1.2441025365818754,-0.3,-0.5955555555555555,0.13111111111111112,-0.004076634176881499,-0.07372897589077626,0.01312493716861
1592251299.687131,-0.5833745679895125,9.695061851984269,1.4498762960314622,-0.2877777777777778,-0.59,0.16666666666666666,0.012223674768529766,-0.06672473186431319,0.009449368778409354
1592251299.697131,-0.5952042616720955,9.721598579442636,1.3808170466883822,-0.2877777777777778,-0.59,0.16666666666666666,0.032591234523130064,-0.06815464241406789,0.008333327343192027
1592251299.707131,-0.5665334360035613,9.728844478667854,1.278844478667854,-0.2877777777777778,-0.59,0.16666666666666666,0.050599959099064194,-0.07065190521448236,0.012377282079141934
1592251299.717131,-0.5344867162592987,9.722756641870351,1.266324477506199,-0.2877777777777778,-0.59,0.16666666666666666,0.06307946354484713,-0.06782023035472759,0.01517139662800048
1592251299.727131,-0.489913921360255,9.745043039319873,1.2366092809068367,-0.2877777777777778,-0.59,0.16666666666666666,0.07037267005551379,-0.06052702384406092,0.014361040349037516
1592251299.7371309,-0.4934255067214599,9.756851013442919,1.19486173991781,-0.3,-0.5988888888888889,0.16666666666666666,0.07146449808888218,-0.0534205446715977,0.0014343319295095141
1592251299.7471309,-0.5114808407782175,9.79,1.1463065475485201,-0.3,-0.5988888888888889,0.16666666666666666,0.07239961183441779,-0.04767348508887293,-0.002827800246935171
1592251299.7571309,-0.5254128751100775,9.78864678122248,1.0167660938875969,-0.3,-0.5988888888888889,0.16666666666666666,0.06188212806270392,-0.04448637343667784,-0.006102144885587632
1592251299.7671309,-0.560667886885696,9.783339434428479,1.060667886885696,-0.3,-0.5988888888888889,0.16666666666666666,0.059048575990919346,-0.03483173330375445,-0.0031267820326607936
1592251299.7771308,-0.5683448338976846,9.821724169488423,1.0683448338976846,-0.3,-0.5988888888888889,0.16666666666666666,0.04816205083976652,-0.021432933117720196,-0.001451932009406512
1592251299.7871308,-0.5888821104699093,9.798491579319279,1.0930168413614416,-0.29444444444444445,-0.5933333333333334,0.16,0.035174699966640806,-0.011340965922867229,0.008129444990920533
1592251299.7971308,-0.4781263361147507,9.79,1.0991648851803324,-0.29444444444444445,-0.5933333333333334,0.16,0.029952298071041918,-0.007192592598331056,0.010612825905535136
1592251299.8071308,-0.5330917092898775,9.793091709289877,1.0289694302367076,-0.29444444444444445,-0.5933333333333334,0.16,0.025955103335653033,-0.004700576296378685,0.00850181081570974
1592251299.8171308,-0.558661172421415,9.82,1.0220082413678777,-0.29444444444444445,-0.5933333333333334,0.16,0.023195038330575346,-0.008366032645063087,0.006325919544702367
1592251299.8271308,-0.5454171995137278,9.82,1.0418742007294084,-0.29444444444444445,-0.5933333333333334,0.16,0.015249224998935482,-0.015589499310190236,0.004158879545164222
1592251299.8371308,-0.56,9.84,0.9975212660252526,-0.3,-0.5877777777777777,0.16,9.279053986774094e-06,-0.023583416262744128,-0.002181661564992912
1592251299.8471308,-0.56,9.840769377035153,0.9507674755781618,-0.3,-0.5877777777777777,0.16,-0.017873130013370552,-0.0344032363646938,-0.0022655875803220074
1592251299.8571308,-0.5636653847061323,9.850733076941227,0.8465976924710379,-0.3,-0.5877777777777777,0.16,-0.03799657305595339,-0.04201133376026503,-0.0031125597688037394
1592251299.8671308,-0.6095252674486907,9.858575802346072,0.9323736627565461,-0.3,-0.5877777777777777,0.16,-0.06420032056955255,-0.04965702338080379,-0.0009872602064122235
1592251299.8771307,-0.6020593104184837,9.83617793125545,0.9697034479075811,-0.3,-0.5877777777777777,0.16,-0.07885969291837469,-0.058615528705084,0.0006415589434569037
1592251299.8871307,-0.5746392341763109,9.80396913844835,1.1287112444634948,-0.2877777777777778,-0.5988888888888889,0.1811111111111111,-0.10173964719108215,-0.06610210110391618,0.00770891158220313
1592251299.8971307,-0.5,9.72,1.2467542231515636,-0.2877777777777778,-0.5988888888888889,0.1811111111111111,-0.10517327910826624,-0.0596416337073662,0.008443398796020544
1592251299.9071307,-0.5,9.720506212500592,1.2005062125005905,-0.2877777777777778,-0.5988888888888889,0.1811111111111111,-0.09538569746374659,-0.0538789085110684,0.004363323129985824
1592251299.9171307,-0.5003105612082107,9.73,1.2112422448328428,-0.2877777777777778,-0.5988888888888889,0.1811111111111111,-0.08385846236192088,-0.04114667698167633,0.004363323129985824
1592251299.9271307,-0.5077454178040912,9.73,1.2409816712163648,-0.2877777777777778,-0.5988888888888889,0.1811111111111111,-0.08061439418662761,-0.03384752358726644,0.004363323129985824
1592251299.9371307,-0.4666652424695578,9.728518835006765,1.3507405824966177,-0.3,-0.5988888888888889,0.15222222222222223,-0.07009615067798115,-0.02403890275784346,0.0010100457640676078
1592251299.9471307,-0.5506796858711516,9.711359371742304,1.3532031412884844,-0.3,-0.5988888888888889,0.15222222222222223,-0.05910598631248901,-0.01053759668962453,-0.0001482844541360114
1592251299.9571307,-0.5620225197520935,9.73,1.2616180158016748,-0.3,-0.5988888888888889,0.15222222222222223,-0.04659685189481692,-0.005321780304254839,-0.002005163420689658
1592251299.9671307,-0.6082924715205548,9.72975606736008,1.301951461119366,-0.3,-0.5988888888888889,0.15222222222222223,-0.03889738324439876,-0.0023679240277297386,0.0022614883347372664
