time,acc_x,acc_y,acc_z,mag_x,mag_y,mag_z,gyr_x,gyr_y,gyr_z
1592251413.4270225,-0.6339821479988482,9.70799404933295,1.2150446300028794,-0.4666666666666667,-0.6411111111111111,-0.09888888888888889,0.004910361313932842,0.018875591798205544,-0.014724592771003365
1592251413.4370224,-0.5823268509636348,9.689224383012121,1.3523268509636348,-0.4666666666666667,-0.6411111111111111,-0.09888888888888889,0.01057893723969241,0.03273397964394345,-0.00998669041962906
1592251413.4470224,-0.6042731315950117,9.681908956134995,1.3742731315950116,-0.4666666666666667,-0.6411111111111111,-0.09888888888888889,0.017760840781895944,0.04310784031601522,-0.011582668984563178
1592251413.4570224,-0.6211269894374611,9.68112698943746,1.4230951584380824,-0.46,-0.6555555555555556,-0.07555555555555556,0.03553685093529354,0.04784244193196806,-0.015041348511405631
1592251413.4670224,-0.63,9.691086873066412,1.2791312693358625,-0.46,-0.6555555555555556,-0.07555555555555556,0.05051009872935303,0.027436920311636578,-0.022527972408435376
1592251413.4770224,-0.629409348205116,9.701771955384652,1.191181303589768,-0.46,-0.6555555555555556,-0.07555555555555556,0.06288608587785391,0.010070716317489374,-0.02887704127258489
1592251413.4870224,-0.6168830964493628,9.729554728064196,1.211335815807416,-0.46,-0.6555555555555556,-0.07555555555555556,0.0746136379105014,-0.004146781748974176,-0.037379676405374436
1592251413.4970224,-0.5655551476372791,9.722222163948183,1.2333335081554517,-0.46,-0.6555555555555556,-0.07555555555555556,0.08181236589763868,-0.01854423772324874,-0.04217882839679929
1592251413.5070224,-0.3754308115318651,9.7065731086489,1.2631462172977976,-0.4477777777777778,-0.6488888888888888,-0.06888888888888889,0.09094338759433021,-0.0336911489715884,-0.05298290398883856
1592251413.5170224,-0.34,9.68,1.21,-0.4477777777777778,-0.6488888888888888,-0.06888888888888889,0.10253809355466686,-0.032724923474893676,-0.05781403147231216
1592251413.5270224,-0.28172022875651603,9.752867047927527,0.983119084973936,-0.4477777777777778,-0.6488888888888888,-0.06888888888888889,0.10287833294494601,-0.039520105300611515,-0.052672623973253764
1592251413.5370224,-0.30340897116161436,9.802471635814396,0.8708238786047982,-0.4477777777777778,-0.6488888888888888,-0.06888888888888889,0.08865165944658221,-0.04489142830027399,-0.057993773900942985
1592251413.5470223,-0.24447750184411116,9.824570936808458,0.8781903122694861,-0.4477777777777778,-0.6488888888888888,-0.06888888888888889,0.07177704098939675,-0.05614117393839763,-0.059600880420674934
1592251413.5570223,-0.15,9.82,0.88,-0.4477777777777778,-0.6555555555555556,-0.09888888888888889,0.04145156973486533,-0.06654067773228381,-0.05781403147231216
1592251413.5670223,0.014498552522746072,9.90071029776675,0.8871588089330025,-0.4477777777777778,-0.6555555555555556,-0.09888888888888889,0.005537725625657412,-0.059220878368596366,-0.045892374331722025
1592251413.5770223,0.2,9.93,0.77,-0.4477777777777778,-0.6555555555555556,-0.09888888888888889,-0.03599741582238304,-0.0272707695624114,-0.04908738521234052
1592251413.5870223,0.3306171840220163,10.01396818972844,0.8166489942935772,-0.4477777777777778,-0.6555555555555556,-0.09888888888888889,-0.07772406615969021,0.014455880774895766,-0.05926461700192763
1592251413.5970223,0.31617140829242324,10.067657183415154,0.8914857751227302,-0.4477777777777778,-0.6555555555555556,-0.09888888888888889,-0.12490951217961738,0.06597348701785036,-0.08772151846468054
1592251413.6070223,0.47,10.01,1.06,-0.46,-0.6488888888888888,-0.06222222222222222,-0.19962203319685143,0.14289883250703572,-0.1341721862470641
1592251413.6170223,0.3417024475816557,10.112638041934677,1.0172341491938852,-0.46,-0.6488888888888888,-0.06222222222222222,-0.24347332130587465,0.199812206435768,-0.1612293640164614
1592251413.6270223,0.19,10.12,0.97,-0.46,-0.6488888888888888,-0.06222222222222222,-0.30870511144649704,0.27052603405912107,-0.20071286397934787
1592251413.6370223,0.038966359706822024,10.139793271941365,1.0607855666228154,-0.46,-0.6488888888888888,-0.06222222222222222,-0.3590231407459126,0.3132353085206573,-0.258847113020211
1592251413.6470222,-0.15809716218755873,10.100380567562489,1.2105538432625447,-0.46,-0.6488888888888888,-0.06222222222222222,-0.3856785472638174,0.3450498259775114,-0.3198965924644445
1592251413.6570222,-0.25,10.0,1.45,-0.44,-0.6677777777777778,-0.09,-0.4112432050011639,0.38069994309126315,-0.4308781590861001
1592251413.6670222,-0.21633969818293808,10.033660301817061,1.4668301509085309,-0.44,-0.6677777777777778,-0.09,-0.40665349332989237,0.39630496277358646,-0.5070673728292081
1592251413.6770222,-0.08184715477818114,9.866007967563998,1.413992032436,-0.44,-0.6677777777777778,-0.09,-0.3923600195447003,0.3994228030107679,-0.6083120379508224
1592251413.6870222,-0.47024010639445024,9.97231228208907,1.3083483699363792,-0.44,-0.6677777777777778,-0.09,-0.3674298088098362,0.4024084598063105,-0.6800002903674591
1592251413.6970222,-0.7039184429028432,10.025078358074834,1.2706583156608318,-0.44,-0.6677777777777778,-0.09,-0.3633184616700633,0.3999416515224468,-0.739203689180189
1592251413.7070222,-0.94,9.96,1.32,-0.4211111111111111,-0.6622222222222223,-0.09888888888888889,-0.3785182815262702,0.39706240482870997,-0.8464846872172498
1592251413.7170222,-0.7357789401864907,9.78130657266318,1.4136013190811916,-0.4211111111111111,-0.6622222222222223,-0.09888888888888889,-0.38872860153987393,0.37385713207051974,-0.9225979818641136
1592251413.7270222,-0.6151866274100104,9.728624750688574,1.4272200588849842,-0.4211111111111111,-0.6622222222222223,-0.09888888888888889,-0.3868323826085516,0.3408674733154495,-1.0010386980128285
1592251413.7370222,-0.48,9.69226706970128,1.6345341394025603,-0.4211111111111111,-0.6622222222222223,-0.09888888888888889,-0.37509740981380757,0.32467189487734843,-1.054358067806273
1592251413.7470222,-0.48,9.766845661450924,1.7836913229018492,-0.4211111111111111,-0.6622222222222223,-0.09888888888888889,-0.37021625239806266,0.31165547510202873,-1.110491378087339
1592251413.7570221,-0.32,9.62,2.09,-0.39444444444444443,-0.6755555555555556,-0.10444444444444445,-0.34470252726888007,0.3021601267515183,-1.198823029963605
1592251413.7670221,-0.5875568947744033,9.722301165649036,2.0978693204345413,-0.39444444444444443,-0.6755555555555556,-0.10444444444444445,-0.31208295879304127,0.3184699109894377,-1.2683542153989456
1592251413.7770221,-0.8151188653016987,9.676537238178263,1.9201505548618145,-0.39444444444444443,-0.6755555555555556,-0.10444444444444445,-0.2668429670173269,0.34197199351787316,-1.3943704402208386
1592251413.787022,-1.1509315203781103,9.450220623247446,1.9302206232474473,-0.39444444444444443,-0.6755555555555556,-0.10444444444444445,-0.2399292915648537,0.3775290638540703,-1.4848560095488896
1592251413.797022,-1.432016119076592,9.516793291360244,1.9967932913602455,-0.39444444444444443,-0.6755555555555556,-0.10444444444444445,-0.22379162142032913,0.408190637128667,-1.5558617581847978
1592251413.807022,-1.61,9.34,1.97,-0.35555555555555557,-0.6944444444444444,-0.10444444444444445,-0.20180369476184434,0.45487643630102215,-1.6700619280020743
1592251413.817022,-1.77064036431047,9.228250181349239,2.0188905456597084,-0.35555555555555557,-0.6944444444444444,-0.10444444444444445,-0.19342305999091233,0.460209567518888,-1.7172982330745998
1592251413.827022,-2.0195882914965693,8.930571817365877,1.9502058542517153,-0.35555555555555557,-0.6944444444444444,-0.10444444444444445,-0.1571544833976493,0.4472755511586881,-1.756195144412337
1592251413.837022,-2.475797396449704,8.979543195266272,1.9797259171597632,-0.35555555555555557,-0.6944444444444444,-0.10444444444444445,-0.11168330901335644,0.4148146753477375,-1.7810974513507483
1592251413.847022,-2.5613407711880996,8.957816153312336,1.9726053844374454,-0.35555555555555557,-0.6944444444444444,-0.10444444444444445,-0.06770685870068485,0.3790240905150614,-1.795845961521364
1592251413.857022,-3.2,9.18,1.73,-0.27555555555555555,-0.7211111111111111,-0.12,-0.01090830782496456,0.32506757318394386,-1.8118699297266134
1592251413.867022,-3.061917846911189,8.911103175563895,1.5047080660129928,-0.27555555555555555,-0.7211111111111111,-0.12,0.000983081367350938,0.3084196283147022,-1.8229685596394412
1592251413.877022,-3.0660628038574957,8.81,1.719001620573311,-0.27555555555555555,-0.7211111111111111,-0.12,-0.030219614871327925,0.27565961279783074,-1.853642074635251
1592251413.887022,-3.1831571906354514,8.97030602006689,1.1930735785953175,-0.27555555555555555,-0.7211111111111111,-0.12,-0.03683943503509268,0.2995142236578543,-1.8657894399269692
1592251413.897022,-3.032040223625935,8.944100050824076,1.3753996950555434,-0.27555555555555555,-0.7211111111111111,-0.12,-0.06528400075371188,0.3026357267550681,-1.8899079306421298
1592251413.907022,-3.4437153677496513,8.833502425088033,1.6442226430137532,-0.2190216227788482,-0.7620494762252785,-0.1346208446836312,-0.07731508682157219,0.32047573437677973,-1.889567071858127
1592251413.917022,-3.3475118504606027,8.58054377962615,1.2595036222162597,-0.2111111111111111,-0.7677777777777778,-0.13666666666666666,-0.08491202030707834,0.35367092996199956,-1.8546444281271302
1592251413.927022,-4.006123078531841,8.651263201924083,1.2549035344557147,-0.2111111111111111,-0.7677777777777778,-0.13666666666666666,-0.12359784054940832,0.3861914257053633,-1.7801822251480117
1592251413.937022,-4.134257810648082,8.140195325463424,1.2043066420139383,-0.2111111111111111,-0.7677777777777778,-0.13666666666666666,-0.16400012215385998,0.3954234953171139,-1.692766443604816
1592251413.947022,-4.957244860869916,8.52433867775938,1.2707231129598966,-0.2111111111111111,-0.7677777777777778,-0.13666666666666666,-0.20375620741059172,0.4045434572296168,-1.5895621097670642
1592251413.957022,-4.643788759404042,8.37189437970202,1.3732051925062692,-0.13715093999442723,-0.760587205585878,-0.11714939928865287,-0.2450655705107592,0.381667997079683,-1.4804655292013178
1592251413.967022,-4.931926489523587,8.432981622380897,1.4537614421163525,-0.13111111111111112,-0.76,-0.11555555555555555,-0.28986074472816564,0.3615053306938509,-1.4143722140815993
1592251413.977022,-4.9961721860508685,8.241052976720221,1.5323443721017378,-0.13111111111111112,-0.76,-0.11555555555555555,-0.3259861110534899,0.34320462126767787,-1.3343836763579153
1592251413.987022,-5.090912802286208,8.056356955884825,1.385448236113446,-0.13111111111111112,-0.76,-0.11555555555555555,-0.3363728301419064,0.32357934793516485,-1.282815218882694
1592251413.997022,-5.3143205022766935,8.085925821916433,1.6225920205403888,-0.13111111111111112,-0.76,-0.11555555555555555,-0.36295031692465163,0.3209601258321562,-1.2642594420127755
1592251414.007022,-5.389859196245233,8.178873569961866,1.8774655324141976,-0.07195593363971187,-0.7950549199830514,-0.1221283530523777,-0.3934673670342401,0.29274199169102605,-1.219041637714506
1592251414.017022,-5.352272464247334,8.129696618996444,1.9806067620071093,-0.07111111111111111,-0.7955555555555556,-0.12222222222222222,-0.3924181005696625,0.2889131199301549,-1.1745600028786813
1592251414.027022,-5.2855444663232,7.753246837320961,1.6932468373209613,-0.07111111111111111,-0.7955555555555556,-0.12222222222222222,-0.3809396887070962,0.2800994107543934,-1.117608996633113
1592251414.0370219,-5.342943930786965,7.817903881349084,1.8658077626981675,-0.07111111111111111,-0.7955555555555556,-0.12222222222222222,-0.35901075912664215,0.27532918447487853,-1.0607710350319899
1592251414.0470219,-5.696373477132015,7.679402836029559,2.010477731176353,-0.07111111111111111,-0.7955555555555556,-0.12222222222222222,-0.35013062498771613,0.23957001241274783,-1.0400485246746667
1592251414.0570219,-5.60821868232921,7.83178131767079,2.1026386046097714,-0.014573350604319732,-0.77898414299322,-0.14756673555285285,-0.3163941239755703,0.21745666832815963,-0.9940475485723378
1592251414.0670218,-5.677600797934757,7.789017601501995,2.2253463975592584,-0.006666666666666667,-0.7766666666666666,-0.1511111111111111,-0.28778079588865696,0.1879161977641161,-0.9466741793446224
1592251414.0770218,-5.785549266786725,7.832117781883668,2.3963533456510047,-0.006666666666666667,-0.7766666666666666,-0.1511111111111111,-0.28565436224481067,0.15213444979188762,-0.9110660688708994
1592251414.0870218,-5.678809455723954,7.762091792965399,2.272840053379087,-0.006666666666666667,-0.7766666666666666,-0.1511111111111111,-0.26974500504160875,0.14065223682483102,-0.8772078826577111
1592251414.0970218,-5.822270169236708,7.558226163629345,2.31638325105138,-0.006666666666666667,-0.7766666666666666,-0.1511111111111111,-0.23024250715945774,0.12272999829877128,-0.8436994685215503
1592251414.1070218,-6.0444123477768334,7.837092734195538,2.257793826111583,0.03494386579537151,-0.7655028652744126,-0.14400687386149486,-0.17522791405538202,0.12269709539303689,-0.7766018020010894
1592251414.1170218,-6.093111660119072,7.649255599206189,2.0458114292657243,0.03888888888888889,-0.7644444444444445,-0.14333333333333334,-0.1628326152912067,0.11784599570448295,-0.7399140408565431
1592251414.1270218,-6.254662014827737,7.554163759267335,2.1072421500218055,0.03888888888888889,-0.7644444444444445,-0.14333333333333334,-0.15323454931561026,0.11344640137963141,-0.6832792999461722
1592251414.1370218,-5.884831554171323,7.389597013860821,2.003959487411141,0.03888888888888889,-0.7644444444444445,-0.14333333333333334,-0.1508421273539334,0.12750276784640982,-0.6567899117790241
1592251414.1470218,-5.7913062183802735,7.259571764330956,2.116295462693702,0.03888888888888889,-0.7644444444444445,-0.14333333333333334,-0.15209965099736236,0.1243313525720982,-0.642452617625417
1592251414.1570218,-6.3034188545938985,7.502480016764961,2.2530823578720476,0.07304496934739726,-0.7644444444444445,-0.15071843181084868,-0.17084206823934706,0.09589069753933041,-0.6272605525465208
1592251414.1670218,-6.229866677154206,7.443784953002714,2.2641892476501355,0.08,-0.7644444444444445,-0.15222222222222223,-0.1637573943938504,0.09117280970047541,-0.6117350885518085
1592251414.1770217,-6.281444913020559,7.302267527675276,2.1610300474433317,0.08,-0.7644444444444445,-0.15222222222222223,-0.1496911661008499,0.07273687834127245,-0.5868443335759814
1592251414.1870217,-6.412571115191111,7.340493335558787,2.1568311118529295,0.08,-0.7644444444444445,-0.15222222222222223,-0.1391730389631099,0.06964033404291753,-0.5633985842315061
1592251414.1970217,-6.437054802734141,7.462876843746252,2.406918095694927,0.08,-0.7644444444444445,-0.15222222222222223,-0.12667084421297614,0.06904361048108909,-0.5457441186443682
1592251414.2070217,-6.466611783117603,7.483388216882397,1.951152554530338,0.09675556714812038,-0.7654300660413927,-0.1413803846557914,-0.1163672571992429,0.08517207887829717,-0.5041588629535246
1592251414.2170217,-6.4765739764896635,7.085561410620187,1.939165788406972,0.09888888888888889,-0.7655555555555555,-0.14,-0.12566759723029053,0.08009536668138346,-0.47091611471004485
1592251414.2270217,-6.859594924233091,7.144066034249107,2.27532635210053,0.09888888888888889,-0.7655555555555555,-0.14,-0.1056952000071394,0.07545799427859352,-0.42266132872565765
1592251414.2370217,-6.325349890361331,7.100327009247783,2.389836495376108,0.09888888888888889,-0.7655555555555555,-0.14,-0.09038984839420705,0.06530074039678857,-0.39839152010261597
1592251414.2470217,-6.467045840932275,7.190156409384564,2.4200284380699206,0.09888888888888889,-0.7655555555555555,-0.14,-0.0788899841143492,0.05962691258946224,-0.37958739752332177
1592251414.2570217,-6.680770170682347,7.254278132040169,2.5145026537859403,0.12570765503752634,-0.7612299481122269,-0.15643730828464877,-0.03196776886936385,0.020085298214927876,-0.3346272227971992
1592251414.2670217,-6.490171473109898,7.170068589243959,2.4251800467653934,0.13333333333333333,-0.76,-0.16111111111111112,-0.010386273452047314,0.014175188728054492,-0.3234434851397313
1592251414.2770216,-6.482685096684067,7.137129622821851,2.32,0.13333333333333333,-0.76,-0.16111111111111112,0.01104970438915405,0.007342916865779208,-0.3350062358239675
1592251414.2870216,-6.590625843629945,6.990900996781227,2.257221472328938,0.13333333333333333,-0.76,-0.16111111111111112,0.01931685645720894,0.02124868934413192,-0.3450888938462647
1592251414.2970216,-6.705906516085361,7.051900673340696,2.1201168548932987,0.13333333333333333,-0.76,-0.16111111111111112,0.0030715344944739695,0.0333724111540833,-0.34056246905198134
1592251414.3070216,-6.570752353566786,6.82112853035018,2.338871469649821,0.13333333333333333,-0.76425742834259,-0.16707151079073718,-0.015414199062104566,0.046538518390042104,-0.3487699291951375
1592251414.3170216,-6.607623179423613,6.884570034087388,2.291700495816548,0.13333333333333333,-0.7655555555555555,-0.1688888888888889,-0.012128774059920697,0.05308077405735746,-0.34701382428633265
1592251414.3270216,-6.727393666694965,7.132606333305034,1.924220222429748,0.13333333333333333,-0.7655555555555555,-0.1688888888888889,0.003856571619516291,0.06794674647926095,-0.328562510182045
1592251414.3370216,-6.561114882631352,6.893728068078596,1.9891638380264856,0.13333333333333333,-0.7655555555555555,-0.1688888888888889,0.01261107188669864,0.07610350416945813,-0.31986806987675537
1592251414.3470216,-6.653168331865529,7.017002338364359,2.028500106289289,0.13333333333333333,-0.7655555555555555,-0.1688888888888889,0.007999348442555093,0.08084878400869273,-0.3114139189995815
1592251414.3570216,-6.556335697399527,6.832275807722616,2.0283167848699764,0.1469857280448297,-0.767161719639261,-0.17370738114000525,-0.021039022642958042,0.10206290737928148,-0.28949136073699283
1592251414.3670216,-6.408125069503651,6.629843941135041,2.219375764540164,0.15222222222222223,-0.7677777777777778,-0.17555555555555555,-0.039031338217070805,0.118764246934335,-0.2805650576730129
1592251414.3770216,-7.043918232400612,6.770394054242938,1.955710023385211,0.15222222222222223,-0.7677777777777778,-0.17555555555555555,-0.06729736590269711,0.11394761529775614,-0.2644417122790632
1592251414.3870215,-7.115849325319236,6.684386993989428,2.2401595577763294,0.15222222222222223,-0.7677777777777778,-0.17555555555555555,-0.04929427099837558,0.11867207776055888,-0.24498415769071202
1592251414.3970215,-7.1233860066047345,6.714625165889942,2.3743804203573964,0.15222222222222223,-0.7677777777777778,-0.17555555555555555,-0.03763839215028782,0.1160430371807606,-0.23507876378214634
1592251414.4070215,-6.986500693756194,6.680419425173439,2.3673918731417247,0.18671763021693646,-0.7727056932055941,-0.17062764012773923,0.0007133968451474328,0.08422986646307024,-0.2055965858263431
1592251414.4170215,-7.002324471710975,6.564049079754601,2.1913019768234494,0.1988888888888889,-0.7744444444444445,-0.1688888888888889,0.03209511183701058,0.0657301763328829,-0.1840276888406717
1592251414.4270215,-7.010125048757543,6.533316660165661,2.146508271573779,0.1988888888888889,-0.7744444444444445,-0.1688888888888889,0.0788715982926341,0.04110341893789114,-0.17125770471126275
1592251414.4370215,-7.169991850822108,6.7696785868366804,2.203437754661809,0.1988888888888889,-0.7744444444444445,-0.1688888888888889,0.11382051330299899,0.02273747637065937,-0.183804542381948
1592251414.4470215,-6.990424919954415,6.655344331687198,2.2299560427633365,0.1988888888888889,-0.7744444444444445,-0.1688888888888889,0.13198093470069794,0.02289785645105235,-0.19525071841572125
1592251414.4570215,-7.037587905165503,6.605128851219791,2.1511006757530637,0.2055438475928683,-0.7744444444444445,-0.17614884383868465,0.14031737040327422,0.018167311294650344,-0.19952495662853167
1592251414.4670215,-7.127879937408127,6.553648821660581,2.0884622314950922,0.2111111111111111,-0.7744444444444445,-0.18222222222222223,0.14491274954987796,0.01183139408531032,-0.19154551980734297
1592251414.4770215,-7.268894878706199,6.682261700563587,2.0602009311443275,0.2111111111111111,-0.7744444444444445,-0.18222222222222223,0.1447241898737763,-0.004275650379028011,-0.18726659039113808
1592251414.4870214,-7.232273826338847,6.693656843264465,2.1877261736611526,0.2111111111111111,-0.7744444444444445,-0.18222222222222223,0.14328903608253216,-0.01659310542495752,-0.1816276733578939
1592251414.4970214,-7.15,6.601590383726306,2.1499699491447064,0.2111111111111111,-0.7744444444444445,-0.18222222222222223,0.143422562404226,-0.02482888206872308,-0.16999284007718407
1592251414.5070214,-7.125249337696743,6.555049867539348,2.0447506623032567,0.20781102280401018,-0.7788445621872457,-0.17562204560802036,0.14344968760298082,-0.0370338495579107,-0.15495236816146554
1592251414.5170214,-7.058439255240326,6.418390974927699,2.125414326346232,0.20444444444444446,-0.7833333333333333,-0.1688888888888889,0.13836525853430265,-0.06143229207041623,-0.1653113261065802
1592251414.5270214,-7.216233168761221,6.562341786355476,2.065146992818671,0.20444444444444446,-0.7833333333333333,-0.1688888888888889,0.13208183524802072,-0.0747971847378155,-0.16950325525841584
1592251414.5370214,-7.203012815940271,6.569306179708491,2.1269871840597285,0.20444444444444446,-0.7833333333333333,-0.1688888888888889,0.13598735854851762,-0.08019498352677698,-0.1679879405044542
1592251414.5470214,-7.199854644560527,6.482374779433603,2.0794991177344118,0.20444444444444446,-0.7833333333333333,-0.1688888888888889,0.1496711538152397,-0.09085264097735822,-0.16547673709053087
1592251414.5570214,-7.234831040788741,6.471980599507037,2.0642991174365903,0.20737519104538268,-0.7833333333333333,-0.15618898695148994,0.17199288621587636,-0.1038449742281706,-0.16253378659197193
1592251414.5670214,-7.169864786695589,6.5067117377681365,2.082476982405399,0.2111111111111111,-0.7833333333333333,-0.14,0.19349474020207807,-0.11788347192694436,-0.1713194307858053
1592251414.5770214,-7.153736859577293,6.422316034082107,1.8321057873188005,0.2111111111111111,-0.7833333333333333,-0.14,0.19880677690549578,-0.1273630942430113,-0.17835656652920392
1592251414.5870214,-7.359520055424162,6.513670895147997,1.8457120332544972,0.2111111111111111,-0.7833333333333333,-0.14,0.19766302525964824,-0.12784985517987507,-0.17411005530030566
1592251414.5970213,-7.39068695652174,6.540437154150197,1.9051561264822134,0.2111111111111111,-0.7833333333333333,-0.14,0.19743355932894807,-0.11840623217269387,-0.15228329715627809
1592251414.6070213,-7.253379517488616,6.390138552465847,1.997130123050092,0.2205761715596034,-0.7898405623916718,-0.13645060233181538,0.19562735823752228,-0.12701620525777163,-0.1248798848811995
1592251414.6170213,-7.340470838755472,6.48245711581687,2.1,0.2288888888888889,-0.7955555555555556,-0.13333333333333333,0.2100895178876615,-0.14818767774421007,-0.11317462927174811
1592251414.6270213,-7.08304417147605,6.47857043407963,2.051237564842469,0.2288888888888889,-0.7955555555555556,-0.13333333333333333,0.2199218818480292,-0.15960421356190566,-0.11325942351336309
1592251414.6370213,-7.080706445586175,6.5174859878561415,1.8881071929005138,0.2288888888888889,-0.7955555555555556,-0.13333333333333333,0.22847975520194422,-0.1847325241881282,-0.12579683742965728
1592251414.6470213,-7.12260619207257,6.585330704003155,1.8553701439558272,0.2288888888888889,-0.7955555555555556,-0.13333333333333333,0.23911268886208922,-0.19503796257150022,-0.13977493923360446
1592251414.6570213,-7.2250421601758585,6.707197742708094,1.9251077791266118,0.2316067893741046,-0.8026220968171164,-0.12952827265403138,0.23900951015574257,-0.1876699221049979,-0.15310888551502774
1592251414.6670213,-7.10795296067015,6.530441396451338,1.8896511172991508,0.23444444444444446,-0.81,-0.12555555555555556,0.222181918996325,-0.1642537159271428,-0.1643247844827143
1592251414.6770213,-7.288343860535624,6.518466397170288,1.7255090955027792,0.23444444444444446,-0.81,-0.12555555555555556,0.1957057357185102,-0.14299653324286066,-0.1675823928802896
1592251414.6870213,-7.5230631067961165,6.617860436893204,1.667747572815534,0.23444444444444446,-0.81,-0.12555555555555556,0.1788643441766783,-0.13002266065515253,-0.16325858010340008
1592251414.6970212,-7.365675795838521,6.536091499199715,1.905197403521252,0.23444444444444446,-0.81,-0.12555555555555556,0.1417626555222614,-0.08579690615562857,-0.13341473492388117
1592251414.7070212,-7.291113470288157,6.530371156762719,1.9487009513304838,0.224258866063085,-0.802643748946796,-0.1300824792806042,0.12647564038630307,-0.08403445717441765,-0.1132237233075834
1592251414.7170212,-7.250076785139546,6.477833233711895,1.9632693457170443,0.21444444444444444,-0.7955555555555556,-0.13444444444444445,0.1244749819627194,-0.08920339066876974,-0.09175843444721131
1592251414.7270212,-7.17,6.42,1.9535927044329024,0.21444444444444444,-0.7955555555555556,-0.13444444444444445,0.12544553998709243,-0.08389038151431205,-0.07804058239423461
1592251414.7370212,-7.104280034081227,6.430953327653129,1.9502433020922085,0.21444444444444444,-0.7955555555555556,-0.13444444444444445,0.12305589459213191,-0.07326710611606746,-0.07726754186844347
1592251414.7470212,-7.187669908578098,6.515496401478312,1.88009395059327,0.21444444444444444,-0.7955555555555556,-0.13444444444444445,0.12205108507710959,-0.05624901499973147,-0.07442383447471837
1592251414.7570212,-7.301512254241853,6.641493401562079,1.8109830325882035,0.22894140706825866,-0.807553041864919,-0.11794790076906964,0.11639308404821194,-0.02700063250221601,-0.06899453286581508
1592251414.7670212,-7.287460226422622,6.501234851129619,1.7950795471547554,0.24666666666666667,-0.8222222222222222,-0.09777777777777778,0.1038136218837483,-0.0015525746489589102,-0.06781620606136525
1592251414.7770212,-7.332417161931125,6.375165676137752,1.6989570951721893,0.24666666666666667,-0.8222222222222222,-0.09777777777777778,0.0998670101511705,0.008426829869699887,-0.06048333871235906
1592251414.7870212,-7.513182861120421,6.436345097837016,1.684230065224677,0.24666666666666667,-0.8222222222222222,-0.09777777777777778,0.0976013594149849,0.02841984135526002,-0.024396965193561652
1592251414.7970212,-7.445118806782654,6.521734652591312,1.7552891087652187,0.24666666666666667,-0.8222222222222222,-0.09777777777777778,0.09418988978340329,0.024953671968937347,-0.00017993271210892461
1592251414.8070211,-7.31157723153159,6.3696531264262894,1.8101734367868554,0.24666666666666667,-0.816968985677338,-0.10350858128128781,0.08070255888614583,0.021672944907238707,0.0327816805306694
1592251414.8170211,-7.3058006928464865,6.24091637798063,1.9518327559612612,0.24666666666666667,-0.81,-0.1111111111111111,0.05648154472386503,0.03469016765501626,0.08386101947538858
1592251414.8270211,-7.216560505010878,6.27861692642391,2.0101683369592354,0.24666666666666667,-0.81,-0.1111111111111111,0.044367234095013586,0.034869859612493434,0.09503478528662078
1592251414.837021,-7.214433060304232,6.4581443534347445,2.062694140814521,0.24666666666666667,-0.81,-0.1111111111111111,0.026565289487005362,0.01261315314906259,0.05551466017848512
1592251414.847021,-7.2757024199625,6.3757024199625,1.9791404839925,0.24666666666666667,-0.81,-0.1111111111111111,0.02050298143285964,0.016585265172019862,0.025933948954973262
1592251414.857021,-7.246683065520877,6.247314314921892,1.882302015781235,0.24025577953124833,-0.8164108871354183,-0.10220710120080786,0.01850227147450702,0.01648801722124503,-0.0007560161590346153
1592251414.867021,-7.411942070616397,6.404846678635548,1.7402044284859366,0.22666666666666666,-0.83,-0.08333333333333333,0.02936323237329281,-0.009076939376600968,-0.04067758253620638
1592251414.877021,-7.430854871733108,6.364776105022281,1.7902849572443695,0.22666666666666666,-0.83,-0.08333333333333333,0.04748888391199234,-0.040409585259117295,-0.05888709996144556
1592251414.887021,-7.505870235426009,6.439161995515695,1.8699355381165919,0.22666666666666666,-0.83,-0.08333333333333333,0.06593549288532424,-0.07349395965540828,-0.0561672377475596
1592251414.897021,-7.326431054236169,6.534352680738684,1.9235689457638308,0.22666666666666666,-0.83,-0.08333333333333333,0.07397115088679805,-0.09619845118264908,-0.05392551215593991
1592251414.907021,-7.344632796423756,6.418448875328178,2.0630919605477898,0.22495691320356045,-0.834701822023542,-0.08034126477289749,0.07199483164476608,-0.09943368032760544,-0.050934010870001
1592251414.917021,-7.454739166857056,6.320814865585256,2.1816297311705126,0.2222222222222222,-0.8422222222222222,-0.07555555555555556,0.07368370452635567,-0.10046949426177643,-0.05438793725772692
1592251414.927021,-7.160242820772537,6.26657833502149,2.0292493635193956,0.2222222222222222,-0.8422222222222222,-0.07555555555555556,0.09963884695577238,-0.07880469271305764,-0.034506851653960405
1592251414.937021,-7.145598059487832,6.200733656752028,1.8520542389056784,0.2222222222222222,-0.8422222222222222,-0.07555555555555556,0.10730156436910192,-0.06694325449752755,-0.028537665326065526
1592251414.947021,-7.166650467962563,6.361986141108711,1.9629688624910007,0.2222222222222222,-0.8422222222222222,-0.07555555555555556,0.14217563682897136,-0.00893122611514827,-0.042888144399286954
1592251414.957021,-7.400721658502449,6.50153166550035,1.94991981572195,0.2222222222222222,-0.8336737034445222,-0.06368261280874997,0.1586279660854824,0.009817477042468103,-0.04830447176146723
1592251414.967021,-7.105093747720143,6.3740572943265,1.8272656306996424,0.2222222222222222,-0.8222222222222222,-0.04777777777777778,0.1725004003446172,0.015734665689233977,-0.043077589618717924
1592251414.977021,-7.150035273368607,6.319964726631393,1.682692533803645,0.2222222222222222,-0.8222222222222222,-0.04777777777777778,0.17875516498306415,0.01833442214672174,-0.0378129019747919
1592251414.987021,-7.377400570834111,6.5131763984102005,1.594502654111873,0.2222222222222222,-0.8222222222222222,-0.04777777777777778,0.15986096165616254,-0.02054494479932694,-0.0284852932056508
1592251414.997021,-7.77,6.57,1.61,0.2222222222222222,-0.8222222222222222,-0.04777777777777778,0.15817046346198613,-0.02617993877991494,-0.007635815477475192
1592251415.007021,-7.314726522507989,6.465746595104396,1.4306046598206807,0.21852552766833164,-0.8282293508722944,-0.04269482276617821,0.12480836187854395,-0.0871592171447563,0.015801563608538696
1592251415.017021,-6.920426279938475,6.530833725711775,1.6060445114103652,0.21333333333333335,-0.8366666666666667,-0.035555555555555556,0.12460429534182223,-0.09910644681482908,0.02774823273945665
1592251415.027021,-7.506663420967218,6.6118695228821815,1.8306848425835767,0.21333333333333335,-0.8366666666666667,-0.035555555555555556,0.07290545052583747,-0.08630131988206463,0.05969333357990424
1592251415.037021,-6.9193499107674,6.632721475312314,1.6314786436644855,0.21333333333333335,-0.8366666666666667,-0.035555555555555556,0.02802579837386308,-0.046821597946786725,0.09221726397123096
1592251415.047021,-7.024382701300474,6.584236611257126,1.553798341127078,0.21333333333333335,-0.8366666666666667,-0.035555555555555556,0.007269288589981758,-0.0187266048420177,0.10660738348366369
1592251415.057021,-7.203950950095338,6.784037740811362,1.861577355513183,0.2076025160540908,-0.8304582812808206,-0.038420964195176835,-0.03480079403428581,0.058952199247145246,0.16644719312661288
1592251415.067021,-7.05015962592712,6.66829732344405,1.929255079006772,0.2,-0.8222222222222222,-0.042222222222222223,-0.05778210857856449,0.08068375084849048,0.174518414793184
1592251415.077021,-7.127865136447434,6.119325682237167,1.67679770467115,0.2,-0.8222222222222222,-0.042222222222222223,-0.04386610878781519,0.05046320909673709,0.16128363497880682
1592251415.0870209,-7.219467987878205,6.15060801385348,1.7149619991341574,0.2,-0.8222222222222222,-0.042222222222222223,-0.030084896798519854,-0.006804377738091505,0.11698418981814498
1592251415.0970209,-7.419047326367547,6.282303665959514,1.774116620734778,0.2,-0.8222222222222222,-0.042222222222222223,7.36852008637566e-05,-0.06879098526955192,0.0650108717452286
1592251415.1070209,-7.348105137833135,6.461685746557987,1.8347336447171598,0.19491121490571992,-0.8205259605241289,-0.034164979156278724,0.02035138518224758,-0.1196074290906927,0.018137355344195888
1592251415.1170208,-6.94,6.27,1.81,0.18666666666666668,-0.8177777777777778,-0.021111111111111112,0.01090830782496456,-0.14726215563702155,-0.019634954084936207
1592251415.1270208,-7.129557319274519,6.377755651700524,1.753740580499126,0.18666666666666668,-0.8177777777777778,-0.021111111111111112,-0.022714290527556715,-0.08268826133931424,-0.04270561413147589
1592251415.1370208,-7.328296667953171,6.437870834941464,1.8746507140100348,0.18666666666666668,-0.8177777777777778,-0.021111111111111112,-0.06426611381581623,-0.0030605851711649583,-0.06429586502202866
1592251415.1470208,-7.548065476781353,6.581934523218647,1.7741924596477991,0.18666666666666668,-0.8177777777777778,-0.021111111111111112,-0.06590717335360673,0.06006646742228787,-0.08297348071894245
1592251415.1570208,-7.707057873485868,6.519803499327053,1.8003903095558547,0.18459697921339913,-0.8194335277403918,-0.015729923732615524,-0.038286251878792164,0.09898753478698256,-0.06825194605001984
1592251415.1670208,-7.7988975882283516,6.574316402407837,2.0142447967895505,0.1811111111111111,-0.8222222222222222,-0.006666666666666667,-0.009495768440131343,0.10014716689562457,-0.046523887810235795
1592251415.1770208,-7.285189916456188,6.440212988148436,1.8698331552360599,0.1811111111111111,-0.8222222222222222,-0.006666666666666667,0.029356397962780507,0.10022399894416928,0.022697180162737546
1592251415.1870208,-7.494304495437143,6.22577568563242,1.9949235510823242,0.1811111111111111,-0.8222222222222222,-0.006666666666666667,0.04946794544945475,0.0999758717525597,0.05614402105087542
1592251415.1970208,-7.91,6.32,2.2,0.1811111111111111,-0.8222222222222222,-0.006666666666666667,0.056723200689815706,0.09272061651219875,0.06763150851478027
1592251415.2070208,-7.386255230773999,6.034203217507207,1.9057670252007068,0.1811111111111111,-0.8208189454759617,0.004208728116852477,0.04834097036086012,0.11298465545837133,0.07130491777706026
1592251415.2170208,-8.18,6.13,2.2,0.1811111111111111,-0.8177777777777778,0.027777777777777776,0.04908738521234052,0.14508049407202864,0.0839939702522271
1592251415.2270207,-7.01004305418981,6.086209636697053,1.8525053817737265,0.1811111111111111,-0.8177777777777778,0.027777777777777776,0.06612486499373578,0.1516207822834513,0.07758915529794974
1592251415.2370207,-7.3195282274455415,6.219631763946342,1.848807058654743,0.1811111111111111,-0.8177777777777778,0.027777777777777776,0.09334072150784857,0.17646395208354762,0.07304549410500712
1592251415.2470207,-7.84,6.27,1.86,0.1811111111111111,-0.8177777777777778,0.027777777777777776,0.10799224746714915,0.19416787928436915,0.07853981633974483
1592251415.2570207,-7.566102387250142,6.296148926909298,1.7221116951819733,0.18278036331439754,-0.809765367202003,0.03011473086237877,0.13112496742106794,0.16929389142988113,0.09884043761059795
1592251415.2670207,-7.72,6.52,1.89,0.18666666666666668,-0.7911111111111111,0.035555555555555556,0.14180800172453928,0.16471544815696484,0.11562806294462433
1592251415.2770207,-7.33722589987588,6.183787753413322,1.5254282167976831,0.18666666666666668,-0.7911111111111111,0.035555555555555556,0.1511346726122846,0.14588315958575224,0.11454513019220387
1592251415.2870207,-7.735188824662813,6.317457369942196,1.458191233140655,0.18666666666666668,-0.7911111111111111,0.035555555555555556,0.1427629778351598,0.148513090532922,0.11989273314618351
1592251415.2970207,-7.13,6.3,1.4,0.18666666666666668,-0.7911111111111111,0.035555555555555556,0.12435470920459597,0.13962634015954636,0.11671889372712078
1592251415.3070207,-7.525847209229809,6.147656064858123,1.3555796694730278,0.18526539167792677,-0.7911111111111111,0.04088040051276721,0.11583510650474456,0.14645619257524253,0.11862541559147091
1592251415.3170207,-7.81,6.2,1.55,0.1811111111111111,-0.7911111111111111,0.056666666666666664,0.09381144729469522,0.15053464798451094,0.11780972450961724
1592251415.3270206,-7.461329060043067,6.342852421252942,1.5052997145575642,0.1811111111111111,-0.7911111111111111,0.056666666666666664,0.0776381561216124,0.12816111812618122,0.1084483763185611
1592251415.3370206,-7.635043451346397,6.2607949810718795,1.2795569153115403,0.1811111111111111,-0.7911111111111111,0.056666666666666664,0.08033528105857403,0.10086820124681288,0.09378254096720495
1592251415.3470206,-7.603428502686663,6.47027728767343,1.3354705670061753,0.1811111111111111,-0.7911111111111111,0.056666666666666664,0.09219628462552842,0.05742260877373291,0.07606298571066153
1592251415.3570206,-7.2277394141479325,6.353974400344197,1.2051880534939585,0.17851234368713126,-0.7911111111111111,0.06086467558232644,0.09184888271595397,0.004386163658363362,0.04677798877460609
1592251415.3670206,-7.81,6.6,1.32,0.16666666666666666,-0.7911111111111111,0.08,0.08290313946973066,-0.00545415391248228,0.016362461737446838
1592251415.3770206,-7.8545754047840335,6.193826737758646,1.286173262241354,0.16666666666666666,-0.7911111111111111,0.08,0.08126000990455898,-0.03508181804334588,0.0020871616718362695
1592251415.3870206,-7.524062270164256,6.205104192203971,1.2376562883059574,0.16666666666666666,-0.7911111111111111,0.08,0.08810163409609707,-0.014527384309280453,0.02895528613484218
1592251415.3970206,-7.75,6.18,1.2,0.16666666666666666,-0.7911111111111111,0.08,0.0839939702522271,0.0032724923474893677,0.05017821599483697
1592251415.4070206,-7.6698064305532885,6.278102170719765,1.3390161579892281,0.1655047784850298,-0.7899492229294742,0.08441517509021998,0.07430492887590767,0.008548360321405962,0.08665301939028776
1592251415.4170206,-7.48,6.46,1.6,0.16111111111111112,-0.7855555555555556,0.10111111111111111,0.06654067773228381,0.011999138607461015,0.1090830782496456
1592251415.4270205,-7.375509580105993,6.172754790052997,1.1347742560130452,0.16111111111111112,-0.7855555555555556,0.10111111111111111,0.060747390177118554,0.036161674126616486,0.07125375153916873
1592251415.4370205,-8.23,6.6,1.5,0.16111111111111112,-0.7855555555555556,0.10111111111111111,0.05999569303730508,0.053450708342326333,0.038179077387375956
1592251415.4470205,-7.758102217378734,6.652971109578987,1.2327022218268353,0.16111111111111112,-0.7855555555555556,0.10111111111111111,0.04973582337604323,0.023732841643645787,0.003449206788690003
1592251415.4570205,-7.185685042368847,6.433397124631058,1.221048271922308,0.15851143059654915,-0.7813015328953632,0.10441979540237181,0.017920657893763542,0.017636915182368672,-0.017546765594707345
1592251415.4670205,-7.91,6.52,1.41,0.14888888888888888,-0.7655555555555555,0.11666666666666667,-0.020725784867432664,0.042542400517361786,-0.009817477042468103
1592251415.4770205,-7.40203136434919,5.992441453214846,1.5882812336644014,0.14888888888888888,-0.7655555555555555,0.11666666666666667,-0.07471977027615917,0.04327316590644089,-0.028736576990265758
1592251415.4870205,-7.637480504193437,6.080641031928981,1.6335116974839374,0.14888888888888888,-0.7655555555555555,0.11666666666666667,-0.04577658618770821,0.01842920327101092,-0.04333346550093099
1592251415.4970205,-7.31,5.93,1.83,0.14888888888888888,-0.7655555555555555,0.11666666666666667,-0.04363323129985824,0.011999138607461015,-0.04690572364734761
1592251415.5070205,-7.749814408082583,6.438173731605534,1.3180177904678234,0.14678710008053297,-0.7624837103741123,0.11957683578592869,-0.00918257663095578,0.04430862158667079,-0.030722231950428957
1592251415.5170205,-7.5689640513126495,6.143239359586317,1.573103122513922,0.13444444444444445,-0.7444444444444445,0.13666666666666666,0.004814825757715128,0.06988850639425645,-0.04551406286608839
1592251415.5270205,-7.558068104205288,5.818450580544444,1.5305834715582007,0.13444444444444445,-0.7444444444444445,0.13666666666666666,0.03672829054024851,0.09714758651582424,-0.07245573931415832
1592251415.5370204,-7.987560411801153,6.01680496639817,1.5196594537915258,0.13444444444444445,-0.7444444444444445,0.13666666666666666,0.051073169318058116,0.08859437399649174,-0.0946672251260613
1592251415.5470204,-7.552731670862178,5.806758574575205,1.344703429830082,0.13444444444444445,-0.7444444444444445,0.13666666666666666,0.07315491198999655,0.04847499425267359,-0.10394788421904967
1592251415.5570204,-8.066017547331619,5.744425423840623,1.373627218154232,0.13845614266552325,-0.7436086739817197,0.1381710534995712,0.10805970929567282,0.02260841962876676,-0.08681290323418608
1592251415.5670204,-8.1,5.6,1.62,0.16111111111111112,-0.7388888888888889,0.14666666666666667,0.13308135546456762,-0.028361600344907853,-0.053450708342326333
1592251415.5770204,-7.853327717127888,5.961556304382948,1.3943471738177118,0.16111111111111112,-0.7388888888888889,0.14666666666666667,0.2102395753397459,-0.07486923004776741,-0.008234894999932393
1592251415.5870204,-7.226212477850361,6.083300891275026,1.1399026738250775,0.16111111111111112,-0.7388888888888889,0.14666666666666667,0.22169639083220344,-0.09841127913259423,-0.015008580650150122
1592251415.5970204,-7.732337753244935,6.217596248075038,1.3876182476350474,0.16111111111111112,-0.7388888888888889,0.14666666666666667,0.18897473414134724,-0.09652712529723832,-0.05482534580167919
1592251415.6070204,-7.242262014080196,6.482727884909703,1.6909048056320783,0.157473931231507,-0.737221848110737,0.15060694486957113,0.15038439581061333,-0.056374081416421674,-0.08255548932870363
1592251415.6170204,-6.94,6.5,1.57,0.13444444444444445,-0.7266666666666667,0.17555555555555555,0.10799224746714915,0.001090830782496456,-0.06654067773228381
1592251415.6270204,-7.674608007672021,6.224608007672021,1.390258664322438,0.13444444444444445,-0.7266666666666667,0.17555555555555555,0.06475055174264871,0.07356097394619737,-0.03787218951359282
1592251415.6370203,-7.861724573594441,6.3981901452937455,1.2810518003790272,0.13444444444444445,-0.7266666666666667,0.17555555555555555,0.06565485147145046,0.08219785500612665,0.010580989681132708
1592251415.6470203,-7.57,6.07,1.23,0.13444444444444445,-0.7266666666666667,0.17555555555555555,0.06326818538479445,0.08617563181722002,0.056723200689815706
1592251415.6570203,-7.981346791682613,6.042638410511545,1.1458856359229495,0.13444444444444445,-0.722915125228558,0.17630586384317726,0.05475889818621576,0.05704923928190516,0.07199483164476608
1592251415.6670203,-7.44,6.3,1.35,0.13444444444444445,-0.6933333333333334,0.18222222222222223,0.039269908169872414,0.03381575425739013,0.07199483164476608
1592251415.6770203,-7.532114358647096,6.4700804084237395,1.4119892788768347,0.13444444444444445,-0.6933333333333334,0.18222222222222223,-0.002825829511955846,0.06871259352130037,0.06196230709411113
1592251415.6870203,-7.02,6.11,1.46,0.13444444444444445,-0.6933333333333334,0.18222222222222223,-0.04908738521234052,0.11235557059713495,0.04799655442984406
1592251415.6970203,-7.450518179985214,6.133155453995564,1.8963418240473149,0.13444444444444445,-0.6933333333333334,0.18222222222222223,-0.08342029252704163,0.15179336656134282,0.05540121260795697
1592251415.7070203,-7.552931129985229,6.155689623338257,1.6235468980797638,0.13492337518463812,-0.6925123092072871,0.1823590595765633,-0.07504698261927704,0.1996892030760912,0.07226351116172515
1592251415.7170203,-7.75,6.09,1.83,0.14222222222222222,-0.68,0.18444444444444444,-0.02181661564992912,0.20071286397934787,0.07635815477475191
1592251415.7270203,-7.098150677948823,6.125519420939953,1.2335844632480375,0.14222222222222222,-0.68,0.18444444444444444,0.022122324062721733,0.18633656166440965,0.06564846289203821
1592251415.7370203,-7.154029251160665,6.28023670347117,1.0676303192129128,0.14222222222222222,-0.68,0.18444444444444444,0.049289014803466605,0.1895718844229264,0.06550670943338577
1592251415.7470202,-7.65,6.12,1.06,0.14222222222222222,-0.68,0.18444444444444444,0.053450708342326333,0.1712604328519436,0.062177354602297986
1592251415.7570202,-7.737488756908923,6.396726286518589,0.9553362628308558,0.14222222222222222,-0.6795615289840976,0.18571999649070609,0.07070833362897828,0.15474143732786366,0.04635785539413181
1592251415.7670202,-7.67,6.04,0.83,0.14222222222222222,-0.6677777777777778,0.22,0.06544984694978735,0.15053464798451094,0.031634092692397225
1592251415.7770202,-7.802165214823564,6.129786652886461,1.1605595747822235,0.14222222222222222,-0.6677777777777778,0.22,0.08181303343823393,0.11400598967931899,0.047822131022573475
1592251415.7870202,-7.963533301617508,8.38550951474786,1.5707278782112275,0.14222222222222222,-0.6677777777777778,0.22,0.10963643356048099,0.0822896379706501,0.19193328492212855
1592251415.7970202,-7.917787794729543,7.222948682385576,-0.004198335644937587,0.14222222222222222,-0.6677777777777778,0.22,0.08893765772086154,0.054803731877397885,0.33736052502019936
1592251415.8070202,-7.31096837944664,7.180745429841898,0.37125123517786557,0.14243803524374177,-0.6677777777777778,0.22010155906895038,0.07618367035487383,0.029409113180693267,0.457412995133937
1592251415.8170202,-8.26,6.38,2.21,0.16111111111111112,-0.6677777777777778,0.2288888888888889,0.061086523819801536,-0.06872233929727672,0.5825036378531075
1592251415.8270202,-6.856827608554763,7.0819701879455605,1.0302365521710952,0.16111111111111112,-0.6677777777777778,0.2288888888888889,0.1045606903587643,-0.12555193663826916,0.6404240659765964
1592251415.8370202,-6.8425014955373165,6.366118302983896,1.2814479194084851,0.16111111111111112,-0.6677777777777778,0.2288888888888889,0.08824236605490965,-0.12030727308688008,0.636514209071502
1592251415.8470201,-6.54,6.39,1.17,0.16111111111111112,-0.6677777777777778,0.2288888888888889,0.1090830782496456,-0.09599310885968812,0.6174102228929941
1592251415.8570201,-7.112720938073652,6.666485970104522,0.6466515565878694,0.16111111111111112,-0.6677777777777778,0.2288888888888889,0.05845746348334152,-0.05290747927134423,0.5850960007017362
1592251415.8670201,-6.93,6.22,1.2,0.14222222222222222,-0.6488888888888888,0.2288888888888889,-0.030543261909900768,-0.01854412330243975,0.5617778529856748
1592251415.8770201,-7.758950942656108,6.5754507342665915,1.1602951776214174,0.14222222222222222,-0.6488888888888888,0.2288888888888889,-0.06339871923091386,0.0025393259079556623,0.539814604047839
1592251415.88702,-7.436516045963608,6.636620022836042,0.9756213104001167,0.14222222222222222,-0.6488888888888888,0.2288888888888889,-0.08932587840031767,-0.03692903295812784,0.5350833053831449
1592251415.89702,-7.464984274579516,5.987045769764216,1.266584555878963,0.14222222222222222,-0.6488888888888888,0.2288888888888889,-0.10806275906214202,-0.04887928118190821,0.5519771461533183
1592251415.90702,-7.981170518255162,6.56877947295423,1.3567123127112188,0.14222222222222222,-0.6488888888888888,0.2288888888888889,-0.0669495767943323,-0.05960445916481509,0.5698524427914964
1592251415.91702,-7.77,6.27,1.31,0.14888888888888888,-0.6411111111111111,0.2288888888888889,-0.05781403147231216,-0.06763150851478027,0.5792311455056182
1592251415.92702,-7.340023774829358,6.633804995270598,1.567657540199913,0.14888888888888888,-0.6411111111111111,0.2288888888888889,-0.02327192117044814,-0.008002883647068996,0.616681273416949
1592251415.93702,-7.15,6.67,1.26,0.14888888888888888,-0.6411111111111111,0.2288888888888889,-0.016362461737446838,0.019634954084936207,0.6305001922829515
1592251415.94702,-6.944605168934315,6.606651910682898,1.345138988347113,0.14888888888888888,-0.6411111111111111,0.2288888888888889,-0.021088590314198786,0.03398078848293025,0.6276463216048077
1592251415.95702,-7.108434346722219,6.843294056376538,1.1722081895709915,0.14888888888888888,-0.6411111111111111,0.2288888888888889,-0.033995417162130455,0.07865826603346296,0.6425388141216519
1592251415.96702,-6.86,6.77,1.67,0.12222222222222222,-0.6344444444444445,0.2288888888888889,-0.04908738521234052,0.11562806294462433,0.6326818538479445
1592251415.97702,-7.184549457072894,6.87049815726335,1.300805857181726,0.12222222222222222,-0.6344444444444445,0.2288888888888889,-0.05405166493335119,0.18962874539035882,0.6224456255688802
1592251415.98702,-7.50737441588785,6.341507009345794,1.1948291471962618,0.12222222222222222,-0.6344444444444445,0.2288888888888889,-0.08753168357706119,0.23179532889724377,0.6207923080527435
1592251415.99702,-7.49,6.55,1.69,0.12222222222222222,-0.6344444444444445,0.2288888888888889,-0.06763150851478027,0.2498002491916884,0.6359543461954338
1592251416.00702,-7.322244250324165,6.461707500170614,1.0278062512796013,0.12222222222222222,-0.6344444444444445,0.2288888888888889,-0.03970097727831749,0.2854357545623478,0.6687004862657695
1592251416.01702,-7.21,6.52,0.97,0.1288888888888889,-0.6355555555555555,0.2222222222222222,-0.028361600344907853,0.3010692959690219,0.7254024703601433
1592251416.02702,-7.47329549372729,6.776952497148768,0.8473140068429568,0.1288888888888889,-0.6355555555555555,0.2222222222222222,-0.006844172587766997,0.24517098126811301,0.728841178203626
1592251416.03702,-7.222510854702905,6.712318228704392,1.0787072708518244,0.1288888888888889,-0.6355555555555555,0.2222222222222222,-0.013260134491273815,0.23304389305625373,0.7351162207438972
1592251416.04702,-6.97,6.93,1.07,0.1288888888888889,-0.6355555555555555,0.2222222222222222,0.007635815477475192,0.2083486794568231,0.74176493209759
1592251416.05702,-6.817320209499729,6.921517789416652,1.086964421166697,0.1288888888888889,-0.6355555555555555,0.2222222222222222,0.0252158626525491,0.21204974201999652,0.7658218387582174
1592251416.06702,-6.74,7.17,0.81,0.10777777777777778,-0.6411111111111111,0.2288888888888889,0.07744898555724837,0.22689280275926282,0.7701265324424978
1592251416.07702,-6.8418956818519066,7.282005985062076,0.7273621209872879,0.10777777777777778,-0.6411111111111111,0.2288888888888889,0.10744081596904786,0.1804334850316355,0.7489423094416388
1592251416.08702,-6.861245362502693,7.4531908375020945,0.5614002249934178,0.10777777777777778,-0.6411111111111111,0.2288888888888889,0.09576399758090198,0.13418503214440458,0.7819174996282197
1592251416.09702,-6.751602214442726,7.400326467475372,0.7711870064316535,0.10777777777777778,-0.6411111111111111,0.2288888888888889,0.06157852109530674,0.0910892103838539,0.859390202032979
1592251416.10702,-6.469887853130343,7.502768053407148,0.8821653911910771,0.10777777777777778,-0.6411111111111111,0.2288888888888889,0.04481655579398622,0.06408382184283751,0.9441312488340994
1592251416.11702,-6.22,7.64,0.88,0.10111111111111111,-0.6488888888888888,0.20555555555555555,0.032724923474893676,0.053450708342326333,1.036289243371633
1592251416.12702,-6.020824824824825,7.759505105105105,0.7704536536536537,0.10111111111111111,-0.6488888888888888,0.20555555555555555,0.027293263170138554,0.059968700708032494,1.1003828349677436
1592251416.1370199,-5.892015868843057,7.907984131156944,0.5346772458953708,0.10111111111111111,-0.6488888888888888,0.20555555555555555,0.03447544579363449,0.05158571435649803,1.1583568654995757
1592251416.1470199,-5.81,7.99,0.48,0.10111111111111111,-0.6488888888888888,0.20555555555555555,0.007635815477475192,0.04363323129985824,1.2020955223110943
1592251416.1570199,-5.81,8.06029264366975,0.4175176500713319,0.10111111111111111,-0.6488888888888888,0.20555555555555555,-0.026443019854978007,0.03340958070012228,1.2378782994101702
1592251416.1670198,-5.8,8.04,0.51,0.05444444444444444,-0.6522222222222223,0.23555555555555555,-0.09926560120717749,-0.0032724923474893677,1.2882711541283145
1592251416.1770198,-5.799346317103621,7.949584019975031,0.6400594257178527,0.05444444444444444,-0.6522222222222223,0.23555555555555555,-0.161643908356623,-0.06354692601470878,1.3486493052392228
1592251416.1870198,-5.677232181373724,7.883064276470306,0.6591928294109188,0.05444444444444444,-0.6522222222222223,0.23555555555555555,-0.19603865172350654,-0.11206805305541287,1.4164141513794521
1592251416.1970198,-5.44,7.94,0.83,0.05444444444444444,-0.6522222222222223,0.23555555555555555,-0.210530341021816,-0.14726215563702155,1.4868023565426693
1592251416.2070198,-5.370740507501389,8.009259492498611,0.8684774958325616,0.05444444444444444,-0.6522222222222223,0.23555555555555555,-0.2180853796615727,-0.1682483740807902,1.5438848707097201
1592251416.2170198,-5.11,8.16,0.84,0.03333333333333333,-0.6588888888888889,0.21777777777777776,-0.23125612588924865,-0.20180369476184434,1.6329736813971945
1592251416.2270198,-5.002676420978308,8.24943631585141,0.804225473659436,0.03333333333333333,-0.6588888888888889,0.21777777777777776,-0.23808531793751422,-0.24082764932336193,1.6885828166473569
1592251416.2370198,-4.385182684105772,8.454041086152971,0.8321232584589138,0.03333333333333333,-0.6588888888888889,0.21777777777777776,-0.238647044635036,-0.33404824003273115,1.7377781100464595
1592251416.2470198,-4.06476291376578,8.541454746176171,1.093491390822813,0.03333333333333333,-0.6588888888888889,0.21777777777777776,-0.2332156239868853,-0.41045799951669604,1.7631316585344041
1592251416.2570198,-3.9303326151599864,8.578796495788893,1.1831115898933424,0.03333333333333333,-0.6588888888888889,0.21777777777777776,-0.227512929793909,-0.4463035058725471,1.772093035123367
1592251416.2670197,-3.55,8.69,1.28,-0.024444444444444446,-0.6522222222222223,0.19666666666666666,-0.21707532571679475,-0.46469391334349025,1.7813266678167128
1592251416.2770197,-3.4767786959788065,8.746949903127595,1.1823715946384088,-0.024444444444444446,-0.6522222222222223,0.19666666666666666,-0.21618785846834088,-0.44073229763523547,1.7839890695620741
1592251416.2870197,-3.2211955179944924,8.914633937897635,0.9506950906846453,-0.024444444444444446,-0.6522222222222223,0.19666666666666666,-0.2287165856466824,-0.4008949695378894,1.7900533140766843
1592251416.2970197,-2.8448184089510087,9.113310460947966,0.9840301263714378,-0.024444444444444446,-0.6522222222222223,0.19666666666666666,-0.260245752791773,-0.3783926762147469,1.789660797478174
1592251416.3070197,-2.5714454864757217,9.287965383640511,1.1966535105188834,-0.024444444444444446,-0.6522222222222223,0.19666666666666666,-0.2933794860070019,-0.3717659295717011,1.768952214218656
1592251416.3170197,-2.28,9.3,1.52,-0.08444444444444445,-0.6644444444444444,0.18777777777777777,-0.3403392041388943,-0.3883357585687383,1.7191493132144147
1592251416.3270197,-2.112453811305889,9.219869214102816,1.7458231238920623,-0.08444444444444445,-0.6644444444444444,0.18777777777777777,-0.345106974750655,-0.413763868498129,1.678623263014448
1592251416.3370197,-1.8185367752896482,9.271575780457301,1.8502251114939003,-0.08444444444444445,-0.6644444444444444,0.18777777777777777,-0.31355764691873084,-0.41847384887602274,1.5994752484991244
1592251416.3470197,-1.689920455747998,9.410028925182546,1.8699059931567252,-0.08444444444444445,-0.6644444444444444,0.18777777777777777,-0.2606730604772035,-0.38286503960451296,1.5314688353499173
1592251416.3570197,-1.6085466859501216,9.439619386927228,1.7737369924865074,-0.08444444444444445,-0.6644444444444444,0.18777777777777777,-0.2243601006203973,-0.3659189916713367,1.4725611449155427
1592251416.3670197,-1.5,9.54,1.68,-0.14333333333333334,-0.65,0.19555555555555557,-0.17889624832941878,-0.3490658503988659,1.3777192782930239
1592251416.3770196,-1.40320538585209,9.644240353697748,1.516193729903537,-0.14333333333333334,-0.65,0.19555555555555557,-0.16671318548029487,-0.3385071959296252,1.3224893933769954
1592251416.3870196,-1.303237926783513,9.718149756123708,1.5076871951546336,-0.14333333333333334,-0.65,0.19555555555555557,-0.16461453300819553,-0.33488505022641196,1.2411203925965566
1592251416.3970196,-1.1020963019462147,9.690314445291932,1.8464362866914352,-0.14333333333333334,-0.65,0.19555555555555557,-0.18198580382152107,-0.3316468585393077,1.1744085016204264
1592251416.4070196,-0.9679111283936652,9.697338270644796,2.0187802248303166,-0.14333333333333334,-0.65,0.19555555555555557,-0.19177451448846897,-0.30439619874616697,1.1289069775122362
1592251416.4170196,-0.75,9.65,2.17,-0.16444444444444445,-0.6444444444444445,0.17333333333333334,-0.18762289458939044,-0.234528618236738,1.0439250588491082
1592251416.4270196,-0.7926534990083782,9.678435666005585,2.1273465009916217,-0.16444444444444445,-0.6444444444444445,0.17333333333333334,-0.16668540722460598,-0.18334809356726492,0.9935199966746272
1592251416.4370196,-0.8193906848723622,9.72756273948945,1.8846235630633061,-0.16444444444444445,-0.6444444444444445,0.17333333333333334,-0.12539078945399718,-0.10004753301424306,0.9084860747836104
1592251416.4470196,-1.0448972845336482,9.739370720188901,1.72943919716647,-0.16444444444444445,-0.6444444444444445,0.17333333333333334,-0.10486451235691197,-0.04692813268585462,0.8470562464867561
1592251416.4570196,-1.093188001689903,9.686899197296155,1.766463202365864,-0.16444444444444445,-0.6444444444444445,0.17333333333333334,-0.11304157273891483,-0.024807934496355228,0.810629950402159
1592251416.4670196,-1.2121002662961677,9.53237466712979,1.8921002662961677,-0.20415010355962077,-0.6160832593621757,0.18562318020231647,-0.1317314886817354,-0.012487278120526756,0.7672093989246582
1592251416.4770195,-1.26,9.42,1.93,-0.2111111111111111,-0.6111111111111112,0.18777777777777777,-0.12435470920459597,-0.031634092692397225,0.7406741013150936
1592251416.4870195,-1.1483805520753345,9.449765186113245,1.9820890756981773,-0.2111111111111111,-0.6111111111111112,0.18777777777777777,-0.09188592794553321,-0.06816147160884282,0.7276865888114684
1592251416.4970195,-0.9568776724076153,9.494027183909418,2.025520387932064,-0.2111111111111111,-0.6111111111111112,0.18777777777777777,-0.031540260868405404,-0.1261909049760639,0.7167251763563894
1592251416.5070195,-0.8285580840138698,9.581153532788903,1.9488464672110957,-0.2111111111111111,-0.6111111111111112,0.18777777777777777,0.018404113682328128,-0.16220503061064698,0.7023062775665043
1592251416.5170195,-0.600014481094127,9.75998873692679,1.8000088495575222,-0.25221891481183517,-0.6222213283275231,0.18111164744793062,0.08508102744472781,-0.20289233159666886,0.6610462624458724
1592251416.5270195,-0.39149460708782746,9.901047765793528,1.683482280431433,-0.25222222222222224,-0.6222222222222222,0.1811111111111111,0.0971259593179356,-0.2169425435414215,0.6275957922950411
1592251416.5370195,-0.1432625964593736,10.070818202451203,1.5022423967317295,-0.25222222222222224,-0.6222222222222222,0.1811111111111111,0.1027606666081086,-0.2365769587902978,0.5506678924888212
1592251416.5470195,0.015508703694920078,10.216414409713988,1.5354714699046625,-0.25222222222222224,-0.6222222222222222,0.1811111111111111,0.08964165698935142,-0.24077721133006943,0.4699220418196809
1592251416.5570195,0.36274879534503135,10.23,1.5677290662787526,-0.25222222222222224,-0.6222222222222222,0.1811111111111111,0.07701439873218249,-0.247879339721735,0.39596726983165215
1592251416.5670195,0.22741899126514514,10.23,1.8095970695970696,-0.2630152468614007,-0.6065232772925081,0.1811111111111111,0.047912951732509874,-0.2547441807601459,0.2624854216978623
1592251416.5770195,0.9357094307561598,10.22443500424809,1.7342650807136788,-0.2644444444444444,-0.6044444444444445,0.1811111111111111,0.031369031006930795,-0.24493460636407038,0.1825413098991372
1592251416.5870194,-1.1539650647628188,9.485625194006266,1.7636532437847448,-0.2644444444444444,-0.6044444444444445,0.1811111111111111,-0.014559822082459824,-0.1546950852695484,0.011554396582303464
1592251416.5970194,-0.9089805353374902,9.655515540908983,1.9133139714075724,-0.2644444444444444,-0.6044444444444445,0.1811111111111111,0.008480156106388737,-0.12932602069053403,-0.04035567001205807
1592251416.6070194,-0.6683261600781222,9.602426670042316,1.9367364099967448,-0.2644444444444444,-0.6044444444444445,0.1811111111111111,0.07592920408276693,-0.18567864031701828,-0.03296680866160878
1592251416.6170194,-0.7906764133297707,9.64209489636218,1.7575668969729359,-0.25329575481501276,-0.6155931340738762,0.1942868352186213,0.11287152602050074,-0.19091741424855443,-0.014335532668073915
1592251416.6270194,-0.7885407468382849,9.633905560128714,1.7721888797425729,-0.25222222222222224,-0.6166666666666667,0.19555555555555557,0.11169077033576767,-0.16823136319347648,-0.010163917650184557
1592251416.6370194,-0.6343137930045049,9.560637284439471,1.8424019396860922,-0.25222222222222224,-0.6166666666666667,0.19555555555555557,0.11572430995779975,-0.12000744289339357,0.009015387299497909
1592251416.6470194,-0.5214262172613816,9.60636513447003,1.8419478379328529,-0.25222222222222224,-0.6166666666666667,0.19555555555555557,0.11408382985257247,-0.060957600046312156,0.029566231104449774
1592251416.6570194,-0.6309053623788023,9.590248781277545,1.8757014624669461,-0.25222222222222224,-0.6166666666666667,0.19555555555555557,0.12837503217128132,-0.01424486742263563,0.03511389606535969
1592251416.6670194,-0.7054554981660304,9.606361254584924,1.870910996332061,-0.2756550307325066,-0.6077783599903519,0.18505119311991083,0.1520212611461346,0.03331831125065547,0.036790695338211554
1592251416.6770194,-0.7970615007585482,9.62,1.7710269576379973,-0.28444444444444444,-0.6044444444444445,0.1811111111111111,0.1747259114832776,0.04783628415849816,0.03091204902355373
1592251416.6870193,-0.8284975202034188,9.636995040406838,1.588547116135042,-0.28444444444444444,-0.6044444444444445,0.1811111111111111,0.19558109023241346,0.037037221615733244,0.020183074514629487
1592251416.6970193,-0.8385887886167216,9.674355154466886,1.5084672682996705,-0.28444444444444444,-0.6044444444444445,0.1811111111111111,0.20883700892257753,0.010547406020451455,0.015733448800197235
1592251416.7070193,-0.8134891627709308,9.676212737538703,1.488638212616113,-0.28444444444444444,-0.6044444444444445,0.1811111111111111,0.21176971976406836,-0.005022550232709988,0.016511009697202747
1592251416.7170193,-0.7620121248186856,9.67,1.5259151262692008,-0.29509494468619696,-0.5982316526367555,0.20951244508911784,0.2155455173962088,-0.050138537618473616,0.01767278128898803
1592251416.7270193,-0.7322981261367962,9.67,1.5446169789772006,-0.29777777777777775,-0.5966666666666667,0.21666666666666667,0.2139699578181105,-0.05974500636409738,0.01795692679899024
1592251416.7370193,-0.7,9.662591475010776,1.4610977001293202,-0.29777777777777775,-0.5966666666666667,0.21666666666666667,0.21404560593765418,-0.05437859356254153,0.02177670214689536
1592251416.7470193,-0.7150560037968675,9.675056003796868,1.4149439962031323,-0.29777777777777775,-0.5966666666666667,0.21666666666666667,0.21325130891150115,-0.037309027234777754,0.02126509119212491
1592251416.7570193,-0.7085969544616052,9.691403045538394,1.41,-0.29777777777777775,-0.5966666666666667,0.21666666666666667,0.2145778215499324,-0.022151949350527278,0.018859965904309182
1592251416.7670193,-0.7,9.714289083690398,1.3528436652384135,-0.28825172198418003,-0.6085742364086638,0.1960268791138715,0.21052905461419483,-0.002490570915089396,0.021350035605731472
1592251416.7770193,-0.7329280508937261,9.752928050893725,1.206519809148527,-0.28444444444444444,-0.6133333333333333,0.18777777777777777,0.20026691986426365,0.016549234173987466,0.022907446432425576
1592251416.7870193,-0.7317460279479326,9.76,1.1057142515313936,-0.28444444444444444,-0.6133333333333333,0.18777777777777777,0.18952751562209447,0.02503716616029253,0.025608552470103737
1592251416.7970192,-0.7217057288549472,9.776588542290105,1.0651171865648417,-0.28444444444444444,-0.6133333333333333,0.18777777777777777,0.16590854350924072,0.02165611563821709,0.025275174151575368
1592251416.8070192,-0.7298170898170898,9.773455273455273,1.0763618163618165,-0.28444444444444444,-0.6133333333333333,0.18777777777777777,0.15394680717256565,0.020011865949631724,0.024732148538518014
1592251416.8170192,-0.7662753736566887,9.76,1.1506884341417218,-0.2799235073175865,-0.6070040213557321,0.19953221430760854,0.1163434111503649,0.014105703657102748,0.020447541498652428
1592251416.8270192,-0.8076631509558339,9.743260821797408,1.1892935618545375,-0.2788888888888889,-0.6055555555555555,0.20222222222222222,0.10122195384324342,0.011720498575676324,0.020547934627790306
1592251416.8370192,-0.9523776547888437,9.748423893781183,1.144728318656452,-0.2788888888888889,-0.6055555555555555,0.20222222222222222,0.07641448219649319,0.014468325786706652,0.026467464394167667
1592251416.8470192,-0.8377005347593582,9.781757066462948,1.0809905780494016,-0.2788888888888889,-0.6055555555555555,0.20222222222222222,0.06250152051092375,0.002122495036683325,0.04022823926221078
1592251416.8570192,-0.6933828956131982,9.784586430975825,1.0754135690241753,-0.2788888888888889,-0.6055555555555555,0.20222222222222222,0.049456401879225405,-0.019216769231286054,0.053581993684463966
1592251416.8670192,-0.5633910688958611,9.794152232776035,1.0870761163880174,-0.2788888888888889,-0.6055555555555555,0.18728375429196334,0.02369822490873828,-0.03967188449381296,0.06263029293511693
1592251416.8770192,-0.54,9.786089072678037,1.085363024226012,-0.2788888888888889,-0.6055555555555555,0.1811111111111111,0.005740334322337988,-0.04102495374377481,0.05669258269925087
1592251416.8870192,-0.6186329712128634,9.738546811514855,1.0878632971212865,-0.2788888888888889,-0.6055555555555555,0.1811111111111111,-0.027988801074516016,-0.036696650204327934,0.03879435335016262
1592251416.8970191,-0.6918494795836669,9.724815052041635,1.1625892714171338,-0.2788888888888889,-0.6055555555555555,0.1811111111111111,-0.04569314601851007,-0.032603875319205916,0.029210334816028794
1592251416.9070191,-0.7452116724738675,9.709576655052265,1.2873283972125436,-0.2788888888888889,-0.6055555555555555,0.1811111111111111,-0.06411376928143521,-0.027178410022290617,0.020633425327311883
1592251416.9170191,-0.7254387157054276,9.693859678926357,1.3707016053682153,-0.2788888888888889,-0.6055555555555555,0.17633530583161094,-0.0715738059864238,-0.029107938742343423,0.020553538674902217
1592251416.9270191,-0.71,9.701449803353343,1.367100393293314,-0.2788888888888889,-0.6055555555555555,0.17333333333333334,-0.07157850504638749,-0.030385112897261455,0.023481922043443477
1592251416.937019,-0.6762918122815776,9.699775087368947,1.2760668996505242,-0.2788888888888889,-0.6055555555555555,0.17333333333333334,-0.06796240655943571,-0.0305677960720333,0.02617993877991494
1592251416.947019,-0.6393603543532101,9.676240236235474,1.2912792912935798,-0.2788888888888889,-0.6055555555555555,0.17333333333333334,-0.0695425925071288,-0.03688744354837594,0.02467898139249245
1592251416.957019,-0.6350866858322016,9.690346743328806,1.3557801724898146,-0.2788888888888889,-0.6055555555555555,0.17333333333333334,-0.07201374355960047,-0.04037965086720324,0.02233366316892579
1592251416.967019,-0.6516395339228164,9.692540699115776,1.4465581356912651,-0.2775956073419093,-0.6100820409699841,0.19402583808500676,-0.06991147195303261,-0.03827737926063539,0.01691675629835674
1592251416.977019,-0.6494239168929289,9.67294927792862,1.4905760831070711,-0.27666666666666667,-0.6133333333333333,0.2088888888888889,-0.06763150851478027,-0.03599741582238304,0.014180800172453926
1592251416.987019,-0.668956136328901,9.634029242447399,1.4905219318355494,-0.27666666666666667,-0.6133333333333333,0.2088888888888889,-0.06550678088104557,-0.036705658366961276,0.010639587449562775
1592251416.997019,-0.69,9.62,1.5331622520461354,-0.27666666666666667,-0.6133333333333333,0.2088888888888889,-0.04986126091760099,-0.035638471079910514,0.008726646259971648
1592251417.007019,-0.6697564493454804,9.62,1.5903653259817794,-0.27666666666666667,-0.6133333333333333,0.2088888888888889,-0.030397142006824862,-0.03435452783486218,0.010382817875044864
1592251417.017019,-0.6320890136327185,9.62,1.6259703287890939,-0.279983515993941,-0.6133333333333333,0.19628486144524637,-0.0061701482953799135,-0.0292569213600523,0.011999138607461015
1592251417.027019,-0.6068137898686679,9.641977016885553,1.5640689493433395,-0.2822222222222222,-0.6133333333333333,0.18777777777777777,0.009373623522854747,-0.019467440952577228,0.01104021034641277
1592251417.037019,-0.6102270377197321,9.690227037719731,1.3856071573079172,-0.2822222222222222,-0.6133333333333333,0.18777777777777777,0.02516340591745994,-0.005024501056057722,0.006875573658014685
1592251417.047019,-0.6398030587216852,9.7,1.3598030587216854,-0.2822222222222222,-0.6133333333333333,0.18777777777777777,0.02908165987961449,-0.0007415424955796376,0.001853856238949094
1592251417.057019,-0.6549425900252391,9.704942590025238,1.3897703601009563,-0.2822222222222222,-0.6133333333333333,0.18777777777777777,0.029991584061883382,-0.0016174588034372104,-0.0010783058689581404
1592251417.067019,-0.66,9.698823431933052,1.4155882840334741,-0.2753920972924204,-0.6040195266108763,0.19957526629288996,0.030543261909900768,-0.0026629051229846577,-0.0015720743404882018
1592251417.077019,-0.6685333818446425,9.69284446061488,1.4143110787702382,-0.27,-0.5966666666666667,0.2088888888888889,0.030232979390069685,-0.002802226604655076,-0.0017113958221586202
1592251417.087019,-0.7021200250278843,9.706060012513943,1.3454598873745205,-0.27,-0.5966666666666667,0.2088888888888889,0.02945243112740431,-0.004363323129985824,-0.001289357889732814
1592251417.097019,-0.6838929955078079,9.716526751123048,1.31,-0.27,-0.5966666666666667,0.2088888888888889,0.027316556816990075,-0.005075281233457235,0.0007119581034714111
1592251417.107019,-0.6651954010864406,9.72,1.319609197827119,-0.27,-0.5966666666666667,0.2088888888888889,0.02146303482670127,-0.003881852594744389,0.0021390316609883825
1592251417.117019,-0.6735296472900666,9.715490117569978,1.3390197648600446,-0.2755120785255827,-0.6056864315267111,0.2058823006022074,0.014886606163414397,-0.0007058059909604703,0.004748347921521809
