time,acc_x,acc_y,acc_z,mag_x,mag_y,mag_z,gyr_x,gyr_y,gyr_z
1592251531.0269103,-0.6893312738506269,9.74949845538797,0.7906687261493731,-0.2577777777777778,-0.6022222222222222,0.269647061198942,-0.0020722415046734426,0.05548647649355996,0.03259726673785429
1592251531.0369103,-0.6996310828380385,9.778893248514116,0.7322135029717682,-0.2577777777777778,-0.6022222222222222,0.27,-0.00953577870494702,0.05248060541876749,0.04112962877769838
1592251531.0469103,-0.7093265230655449,9.78,0.6367347693445502,-0.2577777777777778,-0.6022222222222222,0.27,-0.030164793949587446,0.04218621910627022,0.05264259403378096
1592251531.0569103,-0.6551750052677171,9.752587502633858,0.7579249877086601,-0.2577777777777778,-0.6022222222222222,0.27,-0.04857878373191495,0.0274971182905566,0.05743769446927169
1592251531.0669103,-0.6012916719713366,9.715208337122382,0.8395833257552334,-0.2577777777777778,-0.6022222222222222,0.27,-0.06763605174176301,0.01403535739074901,0.06160921315642652
1592251531.0769103,-0.5315838580863155,9.680633543234526,0.9765155122101059,-0.23625949248280687,-0.6086777078107135,0.24955762896977762,-0.08583008758608825,-0.003948670052627702,0.065380738103561
1592251531.0869102,-0.520638404444242,9.68,1.0268079777787897,-0.23555555555555555,-0.6088888888888889,0.24888888888888888,-0.09332397344107196,-0.014575239735488597,0.06340746362868681
1592251531.0969102,-0.67288320580869,9.671006870246547,1.0389931297534525,-0.23555555555555555,-0.6088888888888889,0.24888888888888888,-0.09086845246488004,-0.01821462578476556,0.05934419227837421
1592251531.1069102,-0.6089816656680647,9.688004074295986,1.1120162971839427,-0.23555555555555555,-0.6088888888888889,0.24888888888888888,-0.08366516548886084,-0.01363427368933617,0.0628327419452915
1592251531.1169102,-0.5523611111111111,9.649166666666668,1.1472222222222221,-0.23555555555555555,-0.6088888888888889,0.24888888888888888,-0.06879809143495008,-0.01086285654236054,0.07366137867358012
1592251531.1269102,-0.36557692307692313,9.681923076923077,1.0648076923076923,-0.24805555555555556,-0.5935042735042735,0.25273504273504277,-0.027249792047363386,0.008118298323579395,0.09081166264282994
1592251531.1369102,-0.494765470370812,9.671792297603433,1.0226884464051509,-0.25,-0.5911111111111111,0.25333333333333335,-0.02181661564992912,0.01090830782496456,0.09272061651219875
1592251531.1469102,-0.35797897004753987,9.696827240579845,0.9752879323669235,-0.25,-0.5911111111111111,0.25333333333333335,-0.01693928567760679,0.026515763736396015,0.08686782054541195
1592251531.1569102,-0.39288415797282344,9.61185973671196,1.1374665002472741,-0.25,-0.5911111111111111,0.25333333333333335,-0.010593694995130725,0.050475206190452954,0.08232978732234261
1592251531.1669102,-0.48025441696113075,9.620063604240283,1.2603180212014133,-0.25,-0.5911111111111111,0.25333333333333335,0.01936385244170093,0.08117297135228692,0.07232837660487926
1592251531.1769102,-0.6877389092728485,9.63,1.3889359573048699,-0.25,-0.5911111111111111,0.2621039952560967,0.06287645233235774,0.09705492237904112,0.07408944142032863
1592251531.1869102,-0.7563263135503084,9.646581578387577,1.4286903495710133,-0.25,-0.5911111111111111,0.26222222222222225,0.06326818538479445,0.09708393964218458,0.074176493209759
1592251531.1969101,-0.7912941701747672,9.622588340349534,1.394529595611685,-0.25,-0.5911111111111111,0.26222222222222225,0.142847275828261,0.08484100265088203,0.12518873067351963
1592251531.2069101,-0.6605531875463306,9.638492401779096,1.343768995552261,-0.25,-0.5911111111111111,0.26222222222222225,0.20080039728713533,0.09508861485883846,0.1609933620992694
1592251531.2169101,-0.6432891016634578,9.673554491682712,1.2393365249518655,-0.25,-0.5911111111111111,0.26222222222222225,0.23948232318274532,0.11575833596569055,0.18485393537721173
1592251531.22691,-0.61,9.72,1.04,-0.24333333333333335,-0.5966666666666667,0.23444444444444446,0.2912518189265538,0.1461713248545251,0.2247111411942699
1592251531.23691,-0.6535864424592749,9.813399519555588,0.7784813452443511,-0.24333333333333335,-0.5966666666666667,0.23444444444444446,0.299402464606683,0.1550011910079985,0.24237087350121672
1592251531.24691,-0.6981044026228391,9.933365409179936,0.4117993698373499,-0.24333333333333335,-0.5966666666666667,0.23444444444444446,0.28755527458876406,0.16430189296291953,0.2797336751067762
1592251531.25691,-0.7913207011567668,9.976528280462707,0.39,-0.24333333333333335,-0.5966666666666667,0.23444444444444446,0.24296302929665828,0.14877697905281112,0.31440211087488956
1592251531.26691,-0.8556500245360863,9.98695625306701,0.452606277603097,-0.24333333333333335,-0.5966666666666667,0.23444444444444446,0.20474551397323554,0.12677429920092856,0.3447488996212594
1592251531.27691,-0.88,9.99944802759862,0.6500644967751612,-0.28217522457210475,-0.591417762445211,0.2522907187973935,0.15064099866827013,0.08482988662657456,0.4030795628993699
1592251531.28691,-0.9105046878116896,9.96949531218831,0.7027065629363655,-0.28444444444444444,-0.5911111111111111,0.25333333333333335,0.13171526018180027,0.06293786798446936,0.4377334854650997
1592251531.29691,-0.8645489687444368,9.941818621093054,0.6481862109305461,-0.28444444444444444,-0.5911111111111111,0.25333333333333335,0.1059105669336691,0.025189616120939878,0.5054487784098167
1592251531.30691,-0.6938161842882458,9.907119196692262,0.6135595983461312,-0.28444444444444444,-0.5911111111111111,0.25333333333333335,0.09177787583427938,-9.211173577418352e-05,0.5625905702425028
1592251531.31691,-0.5868862275449103,9.9,0.5967065868263473,-0.28444444444444444,-0.5911111111111111,0.25333333333333335,0.0792975191587244,-0.013788884921257596,0.6067631919021603
1592251531.32691,-0.4982463157894737,9.874123157894736,0.5468719298245615,-0.27198522417154,-0.6006951267056531,0.2370405068226121,0.060062865248648276,-0.034539568325031904,0.65970973175612
1592251531.33691,-0.3914075148000483,9.880378156336837,0.5244327654947445,-0.27,-0.6022222222222222,0.23444444444444446,0.04536113783475144,-0.05237134334188584,0.6829540365394009
1592251531.34691,-0.17864589955499047,9.89,0.3626414494596313,-0.27,-0.6022222222222222,0.23444444444444446,0.0073403965878734816,-0.08450609900802725,0.7238067922733509
1592251531.35691,-0.16,9.841386965862975,0.4534304129863929,-0.27,-0.6022222222222222,0.23444444444444446,-0.025009424488360497,-0.09875599131428049,0.753214619057625
1592251531.36691,-0.10827562030148405,9.817068905075372,0.5575865695477739,-0.27,-0.6022222222222222,0.23444444444444446,-0.042213319988773965,-0.11132120824878869,0.7768502701114945
1592251531.37691,0.056241316131002375,9.719172455912666,0.8452343690358043,-0.28311953414594837,-0.5800199336675403,0.2596743178020375,-0.060876626958416516,-0.11969121815679136,0.8152214636667603
1592251531.38691,0.08090342442324504,9.699096575576755,0.8918068488464901,-0.28444444444444444,-0.5777777777777777,0.26222222222222225,-0.05801452775387322,-0.11285511147731055,0.8335850151664911
1592251531.39691,0.14097670200102036,9.66451164899949,0.9184961170001701,-0.28444444444444444,-0.5777777777777777,0.26222222222222225,-0.02951840904503504,-0.09485324294253264,0.8770685128703237
1592251531.40691,0.1672971058967943,9.642702894103206,0.9718913176903828,-0.28444444444444444,-0.5777777777777777,0.26222222222222225,0.009817090789181259,-0.07479581172989078,0.909841015602103
1592251531.41691,0.3650214517725938,9.608544927133453,1.0366191311597854,-0.28444444444444444,-0.5777777777777777,0.26222222222222225,0.04340760358871951,-0.05964245341530647,0.9374484657210094
1592251531.42691,0.5770921093995599,9.549544954416849,1.07809100911663,-0.30961647280729326,-0.5615957595445178,0.24424220196304447,0.09618197244141083,-0.020586559058663856,0.9820951686574876
1592251531.43691,0.675331770791239,9.535291764325546,1.047042350278833,-0.31555555555555553,-0.5577777777777778,0.24,0.12783125294189285,0.0048856400273349105,1.0011960630556491
1592251531.44691,0.8920765730964031,9.521745214181474,0.8779234269035969,-0.31555555555555553,-0.5577777777777778,0.24,0.19252681056917897,0.06020694844509218,1.0270790319849714
1592251531.45691,1.083317985611511,9.48561726618705,0.8328086330935252,-0.31555555555555553,-0.5577777777777778,0.24,0.23540567757667907,0.11545133266245296,1.037245407562564
1592251531.46691,1.1287042228049553,9.47625915543901,0.8075549326340536,-0.31555555555555553,-0.5577777777777778,0.24,0.2549477394905726,0.14040251770068612,1.0409192819764241
1592251531.4769099,1.2261703706596883,9.53617037065969,0.6790157403429286,-0.31187942385223955,-0.5522635802228038,0.2583806585165801,0.30793637888357145,0.20246233449416529,1.0459181480966646
1592251531.4869099,1.2493683933340858,9.578105180002257,0.5241582966557574,-0.3111111111111111,-0.5511111111111111,0.26222222222222225,0.3228456974156313,0.2242575413947847,1.0501944531466434
1592251531.4969099,1.2997837157406877,9.681610688333237,0.25064885277793675,-0.3111111111111111,-0.5511111111111111,0.26222222222222225,0.3309674965905378,0.2506210093215636,1.0635128270284793
1592251531.5069098,1.2766824633206482,9.683341231660323,0.29496445752854167,-0.3111111111111111,-0.5511111111111111,0.26222222222222225,0.30962404519752085,0.25852431073019655,1.080279192341754
1592251531.5169098,1.2525200483016998,9.69048797101898,0.33097594203796016,-0.3111111111111111,-0.5511111111111111,0.26222222222222225,0.29551743101669803,0.2611431397852811,1.0934915084890715
1592251531.5269098,1.0750069252077563,9.701944829178208,0.4827723915050785,-0.3576520980814609,-0.5332107315071304,0.23984674771724634,0.26740550763435483,0.24377134429558467,1.1425226143346876
1592251531.5369098,1.0508487857863296,9.7,0.45575607106835286,-0.3688888888888889,-0.5288888888888889,0.23444444444444446,0.25619623803031016,0.21759040028753515,1.1704454763560315
1592251531.5469098,1.1965658973869921,9.692812321190157,0.3093724966622163,-0.3688888888888889,-0.5288888888888889,0.23444444444444446,0.22518779450777354,0.1627714890846292,1.2106522919100118
1592251531.5569098,1.4704015770646754,9.603413666153163,0.27,-0.3688888888888889,-0.5288888888888889,0.23444444444444446,0.1885078292459654,0.1131485085063415,1.2410149599000477
1592251531.5669098,1.6514913621083287,9.525328887051252,0.27,-0.3688888888888889,-0.5288888888888889,0.23444444444444446,0.16186156484310937,0.07778625340610157,1.247482216981425
1592251531.5769098,1.8597970162100128,9.461156218619998,0.27,-0.38811807647555746,-0.5192742950955546,0.23444444444444446,0.12820583008830344,0.035915576129477336,1.2329651649848157
1592251531.5869098,2.09184338408849,9.394656361364373,0.2383750636367844,-0.39555555555555555,-0.5155555555555555,0.23444444444444446,0.10446753173884094,-0.0005555881316875767,1.1909623035250514
1592251531.5969098,2.3341074421129653,9.302357023154814,0.19117851157740695,-0.39555555555555555,-0.5155555555555555,0.23444444444444446,0.07494782723345737,-0.01610535039621405,1.134787295390598
1592251531.6069098,2.5892623775743147,9.351734455926753,0.15608851469108226,-0.39555555555555555,-0.5155555555555555,0.23444444444444446,0.04850369341264882,-0.025499692430487553,1.0596433683949325
1592251531.6169097,2.672737597647805,9.356904960940877,0.16636879882390246,-0.39555555555555555,-0.5155555555555555,0.23444444444444446,0.03613388365542432,-0.02512809880685885,1.0178558979898855
1592251531.6269097,2.859951655789219,9.240036258158087,0.237484892434131,-0.42554346950286037,-0.495563612924019,0.23444444444444446,0.019090197885603916,-0.007641089012802709,0.9193157697265766
1592251531.6369097,2.876998510427011,9.200799404170805,0.2822020854021847,-0.43555555555555553,-0.4888888888888889,0.23444444444444446,0.017038679330270486,0.0137892060037623,0.8857315763661411
1592251531.6469097,2.880202268332201,9.341011341661005,0.24449432916949773,-0.43555555555555553,-0.4888888888888889,0.23444444444444446,0.02762621745419388,0.05770128815592755,0.8260505811395131
1592251531.6569097,2.8587780094423274,9.3041395259664,0.1809725118029094,-0.43555555555555553,-0.4888888888888889,0.23444444444444446,0.034188435821731436,0.08418169656490493,0.7660786919947842
1592251531.6669097,2.900375086965728,9.301210562932937,0.1646973592667655,-0.43555555555555553,-0.4888888888888889,0.23444444444444446,0.03461737085287,0.0920510518478587,0.7370556738236588
1592251531.6769097,2.8732134057848726,9.193213405784872,0.2870032738195687,-0.43224629773382683,-0.478299263859357,0.23775370226617315,0.03056689798814717,0.11096148377645215,0.661929586229165
1592251531.6869097,3.182880420836541,9.356794457274827,0.3953774698486015,-0.43,-0.4711111111111111,0.24,0.041780974319120354,0.1105134465582309,0.5992208365293938
1592251531.6969097,3.32371948983334,9.43542683672222,0.2673782649443788,-0.43,-0.4711111111111111,0.24,0.0368355077666384,0.1379235311278583,0.5748944475188097
1592251531.7069097,3.076215635079097,9.151560948139046,0.37378436492090306,-0.43,-0.4711111111111111,0.24,0.037369987315353806,0.196621480668917,0.5462998169433284
1592251531.7169096,3.137375107051099,9.218616186126178,0.6329956465886383,-0.43,-0.4711111111111111,0.24,0.05555300208097361,0.2167251964387275,0.5208195782303476
1592251531.7269096,3.0565263157894735,9.241904605263157,0.6010361842105263,-0.46744480994152043,-0.4711111111111111,0.21739181286549708,0.09081704503155938,0.2445294553219218,0.4835527269736436
1592251531.7369096,3.040006213592233,9.230003106796117,0.4385669902912621,-0.4888888888888889,-0.4711111111111111,0.20444444444444446,0.11679756063054199,0.26421535557998654,0.4626675521920364
1592251531.7469096,2.9543017316556623,9.193477015074125,0.493458328142519,-0.4888888888888889,-0.4711111111111111,0.20444444444444446,0.15509732937510748,0.31001677193144234,0.44724062082354693
1592251531.7569096,2.9191574432761485,9.201528776978417,0.49965688987271717,-0.4888888888888889,-0.4711111111111111,0.20444444444444446,0.1955003287833538,0.33477442779094296,0.4588704646157383
1592251531.7669096,2.9805748765770708,9.198161821173889,0.47298793198025235,-0.4888888888888889,-0.4711111111111111,0.20444444444444446,0.22511216960372088,0.3495295881149574,0.47041129076733845
1592251531.7769096,3.041546157165836,9.211546157165836,0.356686806073208,-0.4905923688214088,-0.45975457822764504,0.20046965793523133,0.2489503606707736,0.3660821515452727,0.4744872961598001
1592251531.7869096,3.163468065811634,9.37929783650732,0.3474893120870579,-0.4922222222222222,-0.4488888888888889,0.19666666666666666,0.24628638633292765,0.370882466048795,0.4517571322639649
1592251531.7969096,3.1722217132386628,9.433334860284013,0.23832340815391664,-0.4922222222222222,-0.4488888888888889,0.19666666666666666,0.23877051586047254,0.3607007124875729,0.4229984932092395
1592251531.8069096,3.1185367460719715,9.380162949822605,0.0967475924987329,-0.4922222222222222,-0.4488888888888889,0.19666666666666666,0.21308456027701939,0.3439487040400941,0.34989077390065193
1592251531.8169096,3.1114378207115063,9.334281089644247,0.1257027241106175,-0.4922222222222222,-0.4488888888888889,0.19666666666666666,0.19462781113924757,0.34579512369682125,0.3217862526092311
1592251531.8269095,3.1275959879521595,9.282787963856478,0.11480802409568092,-0.4922222222222222,-0.44613244176714656,0.1877082135210041,0.14690521214910932,0.3566597832311553,0.28302323483103803
1592251531.8369095,3.2439400288366227,9.29261579706227,0.2082779129494458,-0.4922222222222222,-0.4444444444444444,0.18222222222222223,0.10993196911473921,0.37135921916180825,0.2752686216629797
1592251531.8469095,3.0198414103071656,9.087750867469317,-0.07102652476654014,-0.4922222222222222,-0.4444444444444444,0.18222222222222223,0.07999205578861088,0.3814680539962338,0.27623622493992694
1592251531.8569095,3.189818199011797,9.100783706470601,-0.16143573134116646,-0.4922222222222222,-0.4444444444444444,0.18222222222222223,0.053590224513708776,0.3550240419397529,0.27904477285630436
1592251531.8669095,3.2378243169184997,9.318168010647458,-0.10969466844124325,-0.4922222222222222,-0.4444444444444444,0.18222222222222223,0.03020601218312722,0.3053618214227617,0.28517730998361235
1592251531.8769095,3.1875368752685094,9.417077187455249,-0.0555008592295575,-0.5113245660095151,-0.43998723089407604,0.17840175346476364,-0.0017660976828310672,0.2181626026685162,0.2920363563599481
1592251531.8869095,3.360098921532168,9.338663443659353,0.03212867236891037,-0.5255555555555556,-0.43666666666666665,0.17555555555555555,-0.027060148758293823,0.15982833153260959,0.2918404375451489
1592251531.8969095,3.473371147613031,9.315841894193266,-0.17943635664450913,-0.5255555555555556,-0.43666666666666665,0.17555555555555555,-0.07279139639652867,0.07428708642016921,0.2776839106855387
1592251531.9069095,3.7333355717574825,9.280851880276286,-0.131703760552571,-0.5255555555555556,-0.43666666666666665,0.17555555555555555,-0.12234246965004644,0.022695852050018835,0.27533755636806245
1592251531.9169095,3.7888166746314744,9.231656802558541,0.061124140719773554,-0.5255555555555556,-0.43666666666666665,0.17555555555555555,-0.1465005028824453,0.011992682563790026,0.27689028963096224
1592251531.9269094,3.5826914397472542,9.245791183992779,0.3173085602527456,-0.5216947662270364,-0.4328058773381475,0.16332972268191165,-0.17941407704178364,-0.012869275958890643,0.25386998178912024
1592251531.9369094,3.6699405600248265,9.183267288916474,0.29679215105869994,-0.5188888888888888,-0.43,0.15444444444444444,-0.18799226831285637,-0.040730112675834824,0.21596288194942154
1592251531.9469094,3.6189890172936647,9.123258749282845,0.33707892795672484,-0.5188888888888888,-0.43,0.15444444444444444,-0.19047867008766942,-0.044675023422884215,0.1973669253989415
1592251531.9569094,3.6983199306852947,9.094159965342648,0.3061256870549373,-0.5188888888888888,-0.43,0.15444444444444444,-0.1880579805086755,-0.07203845542473922,0.12602650122749276
1592251531.9669094,3.9191820972174853,8.866126547234538,0.07158565209541196,-0.5188888888888888,-0.43,0.15444444444444444,-0.2013193017317611,-0.08726646259971647,0.08666002484730326
1592251531.9769094,4.022138052429748,8.599654868925631,0.10703715345445405,-0.531701277564734,-0.4340460174765826,0.1497240907217647,-0.2385310969851625,-0.06144736820136289,0.08850788522218038
1592251531.9869094,4.058521328143618,8.640211692747636,0.25147867185638256,-0.54,-0.43666666666666665,0.14666666666666667,-0.25214320883449665,-0.03815598529082061,0.11229422273836878
1592251531.9969094,3.962560751780339,9.018269583731003,0.5351552749431026,-0.54,-0.43666666666666665,0.14666666666666667,-0.2533633681385229,0.018936617367854562,0.17282304134089968
1592251532.0069094,3.8974631881815323,9.373559805604584,0.6163911119707923,-0.54,-0.43666666666666665,0.14666666666666667,-0.24831039573194183,0.05576002340443676,0.21064728639500174
1592251532.0169094,3.8608257070116285,9.438894928782771,0.5828982316108168,-0.54,-0.43666666666666665,0.14666666666666667,-0.2405018043422268,0.06470518774706616,0.2237031003624439
1592251532.0269094,3.5773446220792735,8.915117775044934,0.8612420773815155,-0.5459671638339693,-0.42961456395379394,0.14015703339324567,-0.18101486026730873,0.07641656081229736,0.23828228965326353
1592251532.0369093,3.846767077990161,8.865162109847569,0.6371372691346076,-0.5522222222222222,-0.4222222222222222,0.13333333333333333,-0.1339710261063932,0.05481844773744539,0.2422023079501891
1592251532.0469093,3.8572770004372536,8.754977044162658,0.6830542195015303,-0.5522222222222222,-0.4222222222222222,0.13333333333333333,-0.07568980032176847,0.0666952160678889,0.2538715473340995
1592251532.0569093,4.167956520709498,9.064048594501148,0.6060792857650319,-0.5522222222222222,-0.4222222222222222,0.13333333333333333,-0.040578068134483225,0.08160892907820219,0.2681312281839385
1592251532.0669093,3.9069068173287764,8.976613460816658,0.6309778550403983,-0.5522222222222222,-0.4222222222222222,0.13333333333333333,-0.01118564316347485,0.08851729453904578,0.2873219103780331
1592251532.0769093,3.831742852527863,8.820586335002423,0.6358633500242288,-0.5486934438880813,-0.42692726000107684,0.12098260916383999,0.02149505755300519,0.09220365681007557,0.308125954479599
1592251532.0869093,3.918943704478693,8.852970504205063,0.7376568347350207,-0.5455555555555556,-0.4311111111111111,0.11,0.030935725715232572,0.10975629348086963,0.31801138912906196
1592251532.0969093,3.814693505826308,8.934693505826308,0.5557090815683161,-0.5455555555555556,-0.4311111111111111,0.11,0.05563236990731925,0.08962577294870702,0.3217282141805908
1592251532.1069093,3.685564835686321,8.815515719539684,0.5937966544074029,-0.5455555555555556,-0.4311111111111111,0.11,0.04097848383992001,0.04974263428315983,0.3158089058838912
1592251532.1169093,3.864910159562928,8.832879233151221,0.6392972525196742,-0.5455555555555556,-0.4311111111111111,0.11,0.0422647927860241,-0.008920151951334204,0.3103876255754647
1592251532.1269093,4.130669841809832,8.768962068378976,0.39085388671542776,-0.5532724008240253,-0.42838751866341596,0.10773033962692068,0.060547732456268065,-0.06732557862973516,0.3038495692486754
1592251532.1369092,3.9,8.42,0.45,-0.5644444444444444,-0.42444444444444446,0.10444444444444445,0.053450708342326333,-0.07635815477475191,0.2999784651865254
1592251532.1469092,4.312792814228779,9.143594075307835,0.5904883707096544,-0.5644444444444444,-0.42444444444444446,0.10444444444444445,0.09272061651219875,-0.11938416494186363,0.29193145497532347
1592251532.1569092,4.170282110694408,9.189780474404605,0.4116926641664477,-0.5644444444444444,-0.42444444444444446,0.10444444444444445,0.09024487386818009,-0.11818929912224954,0.27716333926295933
1592251532.1669092,4.267509808583997,9.031664486981335,0.03165140886933776,-0.5644444444444444,-0.42444444444444446,0.10444444444444445,0.08990275587414243,-0.12350596824027334,0.24510191266064224
1592251532.1769092,4.146337543053961,8.760750733511927,0.20549368541905855,-0.5774648126886933,-0.4217318677268926,0.09739174497880966,0.06233606011415374,-0.11943316848512367,0.20703248823903475
1592251532.1869092,4.001335993229356,8.594189739249586,0.5257074920404626,-0.5911111111111111,-0.41888888888888887,0.09,0.029981031027808833,-0.1310117971718661,0.18609745480694392
1592251532.1969092,4.284138257104464,8.766092171402976,0.2561867316976061,-0.5911111111111111,-0.41888888888888887,0.09,-0.018092709478896327,-0.1756085007462811,0.14179274648889095
1592251532.2069092,4.053890378813275,8.660459269192089,0.34715554810593363,-0.5911111111111111,-0.41888888888888887,0.09,-0.04501624236905086,-0.21208174886450498,0.12283950392559026
1592251532.2169092,4.13,8.75,0.28,-0.5911111111111111,-0.41888888888888887,0.09,-0.038179077387375956,-0.24870941840919195,0.11453723216212788
1592251532.2269092,4.61556349235723,8.343685184499796,0.2385532403123728,-0.5911111111111111,-0.4144089138918703,0.09241229422916383,-0.05978030452460592,-0.20466809955800042,0.1125011950329936
1592251532.2369092,4.45,8.73,0.48,-0.5911111111111111,-0.40444444444444444,0.09777777777777778,-0.022907446432425576,-0.18435040224190105,0.12980886311707826
1592251532.2469091,4.634814920030681,8.91423510695719,0.3617712564983949,-0.5911111111111111,-0.40444444444444444,0.09777777777777778,-0.010279455546074739,-0.10316868119686509,0.16450993155943874
1592251532.2569091,4.9,8.92,0.16,-0.5911111111111111,-0.40444444444444444,0.09777777777777778,-0.01090830782496456,-0.04908738521234052,0.17016960206944715
1592251532.2669091,4.595764944732687,8.689616061357997,0.34499706744868036,-0.5911111111111111,-0.40444444444444444,0.09777777777777778,-0.03490594525643644,0.01589984908888078,0.18397283157809266
1592251532.276909,4.494018952386489,8.538177722225452,0.48649526190337766,-0.5940404950616567,-0.41448804656060045,0.08438630828956972,-0.060845920832254784,0.06360866968635967,0.18367041659773395
1592251532.286909,4.414259186366899,8.471875709092593,0.5467771886359952,-0.5988888888888889,-0.4311111111111111,0.06222222222222222,-0.07153249962796558,0.09255444976330333,0.17917319291091113
1592251532.296909,4.677465394033282,8.64,0.4763275198640748,-0.5988888888888889,-0.4311111111111111,0.06222222222222222,-0.07925827867112774,0.09336946758431186,0.16347225757050668
1592251532.306909,4.61,8.64,0.44,-0.5988888888888889,-0.4311111111111111,0.06222222222222222,-0.08944812416470939,0.09053895494720585,0.15271630954950383
1592251532.316909,4.512402798331764,8.257509753800619,0.3076362168707117,-0.5988888888888889,-0.4311111111111111,0.06222222222222222,-0.11971974235358218,0.12045615952922689,0.1468939470491992
1592251532.326909,4.752169522927281,8.382342751273738,0.4025706345530338,-0.6014413051309763,-0.4264316813339509,0.06264762492923678,-0.12331359484127398,0.1380244003360247,0.1445007723305574
1592251532.336909,4.53,8.37,0.31,-0.6055555555555555,-0.41888888888888887,0.06333333333333334,-0.10581058590215622,0.1407171709420428,0.14180800172453928
1592251532.346909,4.567217103708954,8.248296716276872,0.6513394755492559,-0.6055555555555555,-0.41888888888888887,0.06333333333333334,-0.08277403334593411,0.19338628472653505,0.14492304129430472
1592251532.356909,4.637327710213155,8.666358702759252,0.6585314502419249,-0.6055555555555555,-0.41888888888888887,0.06333333333333334,-0.05403535198847015,0.2029217713504683,0.1432976768731741
1592251532.366909,4.692812886707915,8.788236398549179,0.5419658630253893,-0.6055555555555555,-0.41888888888888887,0.06333333333333334,-0.04966796692132615,0.23006186749852914,0.14452956285198904
1592251532.376909,4.4680898112474505,8.574775471881374,0.49556188687797453,-0.6067727882640305,-0.4164544234719389,0.06089886791638338,-0.06825661632227815,0.2700603110841225,0.1510187710254816
1592251532.386909,4.43,8.67,0.54,-0.6088888888888889,-0.4122222222222222,0.056666666666666664,-0.08072147790473774,0.2825251726665821,0.1461713248545251
1592251532.396909,4.54760465116279,8.489069767441862,0.5219069767441861,-0.6088888888888889,-0.4122222222222222,0.056666666666666664,-0.08368194191211765,0.2716701379728557,0.14321086084714518
1592251532.406909,4.335132385315642,8.859222942821443,0.4663449753079074,-0.6088888888888889,-0.4122222222222222,0.056666666666666664,-0.09206574160320909,0.2620080521036491,0.15424309620550708
1592251532.416909,4.299166601577755,8.640694368507381,0.6718749511833164,-0.6088888888888889,-0.4122222222222222,0.056666666666666664,-0.11298431274814899,0.2540878284674495,0.18050597563406623
1592251532.426909,4.455049959152894,8.813549927732042,0.7976999937158299,-0.6083777763812955,-0.41158333158773047,0.05423888225559814,-0.11742248746504222,0.22921080960336,0.1966386147769551
1592251532.436909,4.340833280965248,8.611474266323132,0.7801281970715768,-0.6044729326825726,-0.40670227696432687,0.03569087468666429,-0.13946552265085935,0.20525098874921094,0.20718093595278067
1592251532.446909,4.340324717814494,8.827685260919353,0.979421315229838,-0.6044444444444445,-0.4066666666666667,0.035555555555555556,-0.1872441462929977,0.1855752001779979,0.20110932288512434
1592251532.456909,4.048720350073613,8.793378864714542,0.9708447161786357,-0.6044444444444445,-0.4066666666666667,0.035555555555555556,-0.18163077534048885,0.12289255787498235,0.19081814280552478
1592251532.466909,4.338950310157664,8.673796362109073,0.8207102933574567,-0.6044444444444445,-0.4066666666666667,0.035555555555555556,-0.1860404639559944,0.06552732793567902,0.16039258359955288
1592251532.476909,4.433807185319204,8.65346988886017,0.6919759627810804,-0.6044444444444445,-0.4066666666666667,0.035555555555555556,-0.20230047528362227,0.05148459088000041,0.14265438942395886
1592251532.486909,4.698623940967478,8.631376059032524,0.542111232577207,-0.6233333333333333,-0.41333333333333333,0.02666666666666667,-0.19316752872665752,0.0014815205175228597,0.12072238281652907
1592251532.496909,4.693413500956546,8.636586499043455,0.4743755124350916,-0.6233333333333333,-0.41333333333333333,0.02666666666666667,-0.16872758280327183,-0.02182168373500767,0.09457732438686066
1592251532.506909,4.579281642889714,8.621154322193995,0.5171612598527784,-0.6233333333333333,-0.41333333333333333,0.02666666666666667,-0.1604253515999295,-0.04017186342504976,0.06511451827656732
1592251532.516909,4.258240505504527,8.566509022213538,0.7698957722623934,-0.6233333333333333,-0.41333333333333333,0.02666666666666667,-0.1827786423514679,-0.04911317972566513,0.02934925307410583
1592251532.5269089,4.5799582835313695,8.576123649487918,0.6929489793526917,-0.621502834480406,-0.41333333333333333,0.024728491410625983,-0.2138073839301173,-0.11883311495828291,0.025338800848262025
1592251532.5369089,4.33559035594271,8.50107304818766,0.9844292192750644,-0.6044444444444445,-0.41333333333333333,0.006666666666666667,-0.24604460397143235,-0.14193252676150236,0.05042299541873866
1592251532.5469089,4.597852156882438,8.215839150303822,0.7750999347160147,-0.6044444444444445,-0.41333333333333333,0.006666666666666667,-0.26404697689122186,-0.18679577391521204,0.07021582923041549
1592251532.5569088,4.515785473578547,8.328331540833155,0.714409550440955,-0.6044444444444445,-0.41333333333333333,0.006666666666666667,-0.27643992148701985,-0.22847527778774573,0.07791935598285486
1592251532.5669088,4.45,8.43,0.84,-0.6044444444444445,-0.41333333333333333,0.006666666666666667,-0.28361600344907856,-0.2454369260617026,0.08835729338221293
1592251532.5769088,4.786156892263385,8.263727582144261,0.7440103416677575,-0.6109226047621126,-0.41009425317449927,0.01044559351863973,-0.2780202300276893,-0.2591985082122016,0.11957216805265519
1592251532.5869088,4.93,8.4,0.85,-0.6311111111111111,-0.4,0.022222222222222223,-0.26398104936414235,-0.2748893571891069,0.13526301702956053
1592251532.5969088,4.874668860551213,8.341530234471412,0.8346935417523652,-0.6311111111111111,-0.4,0.022222222222222223,-0.25894150986672654,-0.260377403944879,0.16249205592032565
1592251532.6069088,5.19,8.1,0.62,-0.6311111111111111,-0.4,0.022222222222222223,-0.25089107997418486,-0.2552544031041707,0.16907877128695067
1592251532.6169088,5.077196038632258,8.21016661833917,1.0404608212700466,-0.6311111111111111,-0.4,0.022222222222222223,-0.2346655043247162,-0.29626322201377137,0.14368379855224575
1592251532.6269088,5.0010897903239915,8.091103496544283,1.164427692397422,-0.629383900537556,-0.4,0.01753407923685839,-0.21199574625428172,-0.2914940596430307,0.12569226605367093
1592251532.6369088,5.073322522522522,8.133667747747749,1.2389967567567568,-0.6233333333333333,-0.4,0.0011111111111111111,-0.1215811294441857,-0.29994434478583326,0.09482696161667768
1592251532.6469088,5.01,8.14,1.22,-0.6233333333333333,-0.4,0.0011111111111111111,-0.062177354602297986,-0.31306843457648287,0.07963064712224129
1592251532.6569088,5.165342639593908,8.38673540609137,0.46037436548223354,-0.6233333333333333,-0.4,0.0011111111111111111,0.010391270645697523,-0.3059700747478709,0.037194837937686895
1592251532.6669087,4.763545774898556,7.855154659357869,0.7077351035808358,-0.6233333333333333,-0.4,0.0011111111111111111,0.045040645295321334,-0.28368620427682656,0.03529404856870172
1592251532.6769087,4.861669179326608,8.09950906490394,0.9595090649039391,-0.6231915076389157,-0.4,0.001187478792720588,0.049312306600636784,-0.2900110405518598,0.02104710113642733
1592251532.6869087,5.03,8.05,0.91,-0.6088888888888889,-0.4,0.008888888888888889,0.07199483164476608,-0.2748893571891069,0.053450708342326333
1592251532.6969087,5.396360948530743,8.495574126591444,0.9496065890303506,-0.6088888888888889,-0.4,0.008888888888888889,0.12059942896175807,-0.24896690528671117,0.061011423480525094
1592251532.7069087,4.985112883059284,8.261916770860365,0.8074059307839297,-0.6088888888888889,-0.4,0.008888888888888889,0.11949112066585478,-0.22884895888305598,0.0529093974949411
1592251532.7169087,5.049788124417562,8.037195681606386,0.7484129551808415,-0.6088888888888889,-0.4,0.008888888888888889,0.14392032716731734,-0.25389800442452715,0.05100936717604249
1592251532.7269087,5.13091150458038,8.066695092574685,0.6599147222759482,-0.6088888888888889,-0.4,0.008888888888888889,0.17046789124584688,-0.27964109686431343,0.036528877678662725
1592251532.7369087,4.940180008571836,8.211815800752417,0.8510005238344683,-0.6166666666666667,-0.39444444444444443,0.013333333333333334,0.2009011191703459,-0.29368121476468945,0.019565657058227777
1592251532.7469087,5.192484327780414,8.566242163890207,0.77,-0.6166666666666667,-0.39444444444444443,0.013333333333333334,0.23450630523164634,-0.3109897016235,0.0016911296276605936
1592251532.7569087,5.12,8.53,0.77,-0.6166666666666667,-0.39444444444444443,0.013333333333333334,0.2574360646691636,-0.2825251726665821,0.0032724923474893677
1592251532.7669086,5.313513222331048,8.40051028403526,0.5040235063663075,-0.6166666666666667,-0.39444444444444443,0.013333333333333334,0.271505538134922,-0.22798042835826518,0.0027254743644940837
1592251532.7769086,5.387457786483839,8.458022722820765,0.6354805093046033,-0.6166666666666667,-0.39444444444444443,0.013333333333333334,0.2589582704141878,-0.21005576018578764,-0.006236859721744673
1592251532.7869086,5.21,8.22,0.93,-0.6166666666666667,-0.4,0.008888888888888889,0.2399827721492203,-0.1407171709420428,0.019634954084936207
1592251532.7969086,5.62352393694375,8.48821825373742,0.6626955965330696,-0.6166666666666667,-0.4,0.008888888888888889,0.23878292808743068,-0.07899522280393988,0.035262305903517276
1592251532.8069086,5.042481257878326,8.257756252902542,0.663818748756054,-0.6166666666666667,-0.4,0.008888888888888889,0.21589859191971436,-0.04072787121267568,0.023482859127418564
1592251532.8169086,5.325070686779867,8.356619542146754,0.5878856503941783,-0.6166666666666667,-0.4,0.008888888888888889,0.21658388544632232,-0.020310769729671163,0.00012268952194732525
1592251532.8269086,5.348916388720436,8.340722407519708,0.4368628714372347,-0.6166666666666667,-0.4,0.008888888888888889,0.23479202344122882,-0.0029696859249983103,-0.019819556853426453
1592251532.8369086,4.98,8.17,0.22,-0.6233333333333333,-0.4,0.008888888888888889,0.22689280275926282,0.01090830782496456,-0.05563236990731925
1592251532.8469086,5.22840883923518,8.332276250707483,0.656585623938775,-0.6233333333333333,-0.4,0.008888888888888889,0.20182900798447137,0.034038741468803334,-0.07549031120366866
1592251532.8569086,5.177717908082409,8.41323296354992,0.43404120443740096,-0.6233333333333333,-0.4,0.008888888888888889,0.21584792499480981,0.036872154928473705,-0.06589067396965519
1592251532.8669086,4.979880468795553,8.257228236574605,0.30661930769081264,-0.6233333333333333,-0.4,0.008888888888888889,0.1999243856834733,0.07533251815089527,-0.03984853547966023
1592251532.8769085,4.92281627179258,8.297988377291015,0.7386767992847564,-0.6233333333333333,-0.4,0.008888888888888889,0.19547814406423863,0.10645620948553813,-0.018506575707333703
1592251532.8869085,5.212181724845996,8.453762833675565,0.23652977412731008,-0.6166666666666667,-0.4066666666666667,0.0,0.20036791954299377,0.11006527393367987,-0.020272205332616377
1592251532.8969085,5.046788271792121,8.465441907116698,0.4601541834806746,-0.6166666666666667,-0.4066666666666667,0.0,0.16356800338153485,0.14188143452616006,-0.020985878456541356
1592251532.9069085,5.0562790587342255,8.598200730619602,0.3719216718853781,-0.6166666666666667,-0.4066666666666667,0.0,0.15453881153434088,0.14092011680567124,-0.029804914686545756
1592251532.9169085,4.762031320293922,8.470906189078601,0.5579686797060777,-0.6166666666666667,-0.4066666666666667,0.0,0.16169522167414802,0.16009305885043806,-0.01656016152578678
1592251532.9269085,4.878986003300532,8.358704235682415,0.427408471364831,-0.6161627583209394,-0.4070985881058615,0.001007816691454611,0.1813913378944432,0.17316860331799386,0.008766583161060541
1592251532.9369085,4.72,8.34,0.39,-0.6088888888888889,-0.41333333333333333,0.015555555555555555,0.17016960206944715,0.20071286397934787,0.025089107997418484
1592251532.9469085,5.149616536026875,8.476784661441075,0.4492920313535501,-0.6088888888888889,-0.41333333333333333,0.015555555555555555,0.16753905936227975,0.18306328723030027,0.04197767827629881
1592251532.9569085,4.763874131589702,8.456236207601146,0.5236534532080098,-0.6088888888888889,-0.41333333333333333,0.015555555555555555,0.15503883851427971,0.15789274070861656,0.0456820495574609
1592251532.9669085,5.001077891881418,8.407364270490215,0.3389221081185817,-0.6088888888888889,-0.41333333333333333,0.015555555555555555,0.16679927101449457,0.14705960901061846,0.05153681920871199
1592251532.9769084,5.009204805270296,8.236699089323775,0.33079519472970353,-0.6088888888888889,-0.41333333333333333,0.015555555555555555,0.19073500670092583,0.13730801299022052,0.0453312581048224
1592251532.9869084,4.87,8.2,0.33,-0.6166666666666667,-0.41333333333333333,0.0,0.20180369476184434,0.1407171709420428,0.0370882466048795
1592251532.9969084,5.032223413614869,8.521871219619488,0.0746780490487188,-0.6166666666666667,-0.41333333333333333,0.0,0.22869804792837123,0.1526142503514164,0.024240814016254067
1592251533.0069084,4.86,8.54,0.12,-0.6166666666666667,-0.41333333333333333,0.0,0.23561944901923448,0.15162547876700738,0.00545415391248228
1592251533.0169084,4.87935063396137,8.617402535845478,0.1780519018841095,-0.6166666666666667,-0.41333333333333333,0.0,0.22084366198911598,0.17203013704669481,-0.0022855440556750206
1592251533.0269084,4.907174870365062,8.50542616671444,0.2014125648174688,-0.6166666666666667,-0.41333333333333333,0.0,0.19866084462711175,0.17014515736368724,-0.011228704014877789
1592251533.0369084,5.03324809208057,8.211459777305143,0.3132480920805705,-0.6233333333333333,-0.39444444444444443,-0.021111111111111112,0.18073154075566827,0.17164263986926617,-0.013205425769538605
1592251533.0469084,5.14,8.31,0.42,-0.6233333333333333,-0.39444444444444443,-0.021111111111111112,0.19416787928436915,0.148352986419518,-0.008726646259971648
1592251533.0569084,4.841165442301806,8.204693908784819,0.23529002142638505,-0.6233333333333333,-0.39444444444444443,-0.021111111111111112,0.212968599910454,0.16368847454837485,0.004363323129985824
1592251533.0669084,5.108340951475482,8.521186236150218,0.3405931180751088,-0.6233333333333333,-0.39444444444444443,-0.021111111111111112,0.21518684461954415,0.1698592296586304,0.004949684065470444
1592251533.0769083,4.8706123157933225,8.413824916809888,0.2869124584049439,-0.6233333333333333,-0.39444444444444443,-0.021111111111111112,0.21685988793362793,0.15563836148891835,0.008295770693637985
1592251533.0869083,4.917462092204013,8.513655230510032,0.23111732271404503,-0.6233333333333333,-0.41333333333333333,-0.006666666666666667,0.19035824174378344,0.18184227669329683,0.02166165385627535
1592251533.0969083,4.9,8.47,0.17,-0.6233333333333333,-0.41333333333333333,-0.006666666666666667,0.19416787928436915,0.15707963267948966,0.01308996938995747
1592251533.1069083,4.902931341351599,8.475896122107761,-0.2918256836200852,-0.6233333333333333,-0.41333333333333333,-0.006666666666666667,0.19769617942228485,0.1785728409182013,0.008090774457090374
1592251533.1169083,4.940344496294263,8.396206423277519,-0.020690365083722205,-0.6233333333333333,-0.41333333333333333,-0.006666666666666667,0.19984765521019512,0.18954120570881494,-0.025352608158987766
1592251533.1269083,4.882777930277244,8.313968471824635,-0.1440472922630485,-0.6233333333333333,-0.41333333333333333,-0.006666666666666667,0.18818565564874196,0.181467513704732,-0.05944152995400475
1592251533.1369083,4.86,8.21,0.06,-0.5822222222222222,-0.4,-0.021111111111111112,0.17016960206944715,0.1810779098944117,-0.07199483164476608
1592251533.1469083,4.886196107784431,8.695833832335328,0.0894565868263473,-0.5822222222222222,-0.4,-0.021111111111111112,0.16554941115190638,0.19044092854351338,-0.041095906644404656
1592251533.1569083,4.686763852966533,8.478793008856494,0.055941688220079944,-0.5822222222222222,-0.4,-0.021111111111111112,0.1489693199183045,0.1638879419931759,-0.021078793747511655
1592251533.1669083,4.78,8.6,0.0,-0.5822222222222222,-0.4,-0.021111111111111112,0.11235557059713495,0.13744467859455345,-0.01090830782496456
1592251533.1769083,4.9703726901623515,8.721838521703905,0.06091926085195226,-0.5822222222222222,-0.4,-0.021111111111111112,0.08660518616574166,0.10255706097782703,0.0023822131718836004
1592251533.1869082,4.67,8.51,0.34,-0.5966666666666667,-0.4,-0.027777777777777776,0.044724062082354694,0.02399827721492203,0.0032724923474893677
1592251533.1969082,4.911794806517311,8.308058553971486,0.0,-0.5966666666666667,-0.4,-0.027777777777777776,0.046082601845076857,0.021213270701341592,1.1996916956172679e-05
1592251533.2069082,5.24,8.58,0.0,-0.5966666666666667,-0.4,-0.027777777777777776,0.06654067773228381,-0.020725784867432664,-0.04908738521234052
1592251533.2169082,5.071540448562877,8.094440116445938,-0.22791586370904918,-0.5966666666666667,-0.4,-0.027777777777777776,0.11302136694090642,-0.0012687521754511065,-0.11178226833094776
1592251533.2269082,5.241857126044486,8.22093876270056,-0.19726530932485975,-0.5966666666666667,-0.4,-0.027777777777777776,0.141120107768687,0.010514271896784914,-0.14806357884107763
1592251533.2369082,5.178373639798204,8.166954957808294,-0.14148790806053888,-0.5822222222222222,-0.39444444444444443,-0.027777777777777776,0.16610068455073618,0.04936668803785677,-0.19119734394103394
1592251533.2469082,5.341118246235607,8.36819154118689,-0.07312466784765279,-0.5822222222222222,-0.39444444444444443,-0.027777777777777776,0.18272495326389987,0.07541440257141004,-0.200978421854077
1592251533.2569082,5.238050236130572,8.753819087653744,0.09402511806528621,-0.5822222222222222,-0.39444444444444443,-0.027777777777777776,0.19888037695721855,0.054923604460391254,-0.21496108744631393
1592251533.2669082,4.673012249143636,8.451716314855002,-0.15912444627773095,-0.5822222222222222,-0.39444444444444443,-0.027777777777777776,0.1649389590106391,0.06766400317805843,-0.21980908354450457
1592251533.2769082,4.703101024049929,8.368972183862695,0.14928549651177392,-0.5822222222222222,-0.39444444444444443,-0.027777777777777776,0.1780676637607957,0.01350809608366247,-0.2362199644822003
1592251533.2869081,4.51,8.02,0.09,-0.5777777777777777,-0.4,0.0,0.17344209441693648,0.001090830782496456,-0.2552544031041707
1592251533.2969081,4.977643678160919,8.462135841170323,0.07299477533960293,-0.5777777777777777,-0.4,0.0,0.21517919509330166,-0.04806619890300031,-0.27194924337471676
1592251533.3069081,4.801823916026675,8.399968461853287,-0.02732720225341262,-0.5777777777777777,-0.4,0.0,0.2517898329382741,-0.02905107409996147,-0.2649724009593095
1592251533.3169081,4.82,8.3,-0.2,-0.5777777777777777,-0.4,0.0,0.2716168648416175,-0.014180800172453926,-0.26398104936414235
1592251533.326908,4.813329248252235,8.386719772720943,-0.32674428320753146,-0.5777777777777777,-0.4,0.0,0.25488054373925356,-0.0018104758794023155,-0.2523383912059761
1592251533.336908,4.77,8.5,-0.19,-0.57,-0.38666666666666666,-0.027777777777777776,0.21162117180431245,0.011999138607461015,-0.2596177262341565
1592251533.346908,4.778853356582389,8.544266782911945,-0.24312013949433303,-0.57,-0.38666666666666666,-0.027777777777777776,0.1758883704169092,0.011999138607461015,-0.2528574665122154
1592251533.356908,4.833019454880471,8.870566895594534,-0.02654095575390653,-0.57,-0.38666666666666666,-0.027777777777777776,0.12377850497159622,0.001200621260162351,-0.22485525751076857
1592251533.366908,4.501723230682299,8.35397972877525,0.025376818759711824,-0.57,-0.38666666666666666,-0.027777777777777776,0.07005931583781672,-0.013641394443660476,-0.1947423799009594
1592251533.376908,4.938691199321938,8.546541884446956,0.09943918632575223,-0.57,-0.38666666666666666,-0.027777777777777776,0.043398777417167404,-0.03626245734602959,-0.15757920513278156
1592251533.386908,4.72,8.61,0.05,-0.5822222222222222,-0.39444444444444443,-0.021111111111111112,-0.014180800172453926,-0.007635815477475192,-0.11780972450961724
1592251533.396908,5.007934258582908,8.6739853907962,-0.19794338933528122,-0.5822222222222222,-0.39444444444444443,-0.021111111111111112,-0.009818473053043794,-0.0277025202267618,-0.13176917129172966
1592251533.406908,4.82950408386555,8.374560698201064,-0.06516984300653927,-0.5822222222222222,-0.39444444444444443,-0.021111111111111112,-0.038075576000949934,-0.021592570814522608,-0.15955178647037016
1592251533.416908,4.966195488721805,8.478631578947368,-0.24294736842105263,-0.5822222222222222,-0.39444444444444443,-0.021111111111111112,-0.04637425120595084,-0.0026852481066867682,-0.1694609721475848
1592251533.426908,5.042658598795247,8.538734465729636,-0.19037933467194879,-0.5822222222222222,-0.39444444444444443,-0.021111111111111112,-0.059816265669760345,0.021692478668820146,-0.18915569327887763
1592251533.436908,4.81072606161532,8.381192815510884,0.0,-0.5822222222222222,-0.39444444444444443,-0.013333333333333334,-0.07638644085903694,0.06325121373422343,-0.23480582186273127
1592251533.446908,4.94882098898726,8.609727920535521,0.0001813863096523429,-0.5822222222222222,-0.39444444444444443,-0.013333333333333334,-0.08188156030676648,0.060048456175996336,-0.28799581505990535
1592251533.456908,4.558141662497319,8.519163748123793,0.058977914373525835,-0.5822222222222222,-0.39444444444444443,-0.013333333333333334,-0.10467921248461594,0.07745912121600933,-0.29301791848234743
1592251533.466908,4.361695252929564,8.430912828500533,-0.04850035317769366,-0.5822222222222222,-0.39444444444444443,-0.013333333333333334,-0.1005484678364105,0.07853981633974483,-0.24843914573600717
1592251533.476908,4.5592063463314805,8.537264955716951,0.12622099867784758,-0.5822222222222222,-0.39444444444444443,-0.013333333333333334,-0.12292224427994226,0.07853981633974483,-0.21695012703770322
1592251533.486908,4.77,8.85,0.02,-0.5777777777777777,-0.4,-0.012222222222222223,-0.14289883250703572,0.074176493209759,-0.17344209441693648
1592251533.496908,4.560715264456015,8.693036448342012,0.27413146458912424,-0.5777777777777777,-0.4,-0.012222222222222223,-0.1347454670842497,0.061131108533301365,-0.16691940207870767
1592251533.506908,4.615031579477114,8.559622556050428,0.12779849525678766,-0.5777777777777777,-0.4,-0.012222222222222223,-0.1134806845543713,0.06646522180965773,-0.1890705009565699
1592251533.516908,4.670027931460493,8.339976365687274,-0.20995487994843423,-0.5777777777777777,-0.4,-0.012222222222222223,-0.07962642840728508,0.07199905035972229,-0.22035367739061218
1592251533.526908,4.767655368748993,8.257368534135468,-0.052249019713165396,-0.5777777777777777,-0.4,-0.012222222222222223,-0.06488096495659522,0.08674451381041216,-0.24083348773879254
1592251533.536908,4.7,8.33,0.1,-0.5777777777777777,-0.38666666666666666,-0.02666666666666667,-0.02945243112740431,0.1341721862470641,-0.23671027980173093
1592251533.546908,4.514705882352941,8.522156862745097,0.07254901960784313,-0.5777777777777777,-0.38666666666666666,-0.02666666666666667,-0.012234415835058292,0.14614993601565263,-0.2307214049174367
1592251533.556908,4.439757818077967,8.512421819220334,-0.12539854348136514,-0.5777777777777777,-0.38666666666666666,-0.02666666666666667,0.009474043698294438,0.14098135043756102,-0.20988861538170048
1592251533.566908,4.430392303555982,8.81744628620859,0.3503848222009211,-0.5777777777777777,-0.38666666666666666,-0.02666666666666667,0.014009625454474917,0.11451624336700023,-0.1696141003252548
1592251533.5769079,4.310446118729934,8.815055764841242,0.5493308219050976,-0.5777777777777777,-0.38666666666666666,-0.02666666666666667,0.0052149027198323695,0.1158916461394373,-0.11011714785571508
1592251533.5869079,4.55,9.27,0.35,-0.5633333333333334,-0.39444444444444443,-0.02666666666666667,0.0032724923474893677,0.07308566242726255,-0.038179077387375956
1592251533.5969079,4.361549920127795,9.060611022364217,0.4686537539936102,-0.5633333333333334,-0.39444444444444443,-0.02666666666666667,-0.007386544960804077,0.06547206434991008,-0.019145082193994807
1592251533.6069078,4.349071809884622,8.53583433786809,-0.002972274840709499,-0.5633333333333334,-0.39444444444444443,-0.02666666666666667,-0.007693672526038807,0.03742092463412028,-0.01090830782496456
1592251533.6169078,4.52013475177305,8.41904255319149,-0.305886524822695,-0.5633333333333334,-0.39444444444444443,-0.02666666666666667,0.006888480345637193,0.03305371998734828,-0.005259970560420853
1592251533.6269078,4.45850315508454,8.38,-0.06695008494458377,-0.5633333333333334,-0.39444444444444443,-0.02666666666666667,0.004982712221050219,0.04800575426068908,-0.004052095279312789
1592251533.6369078,4.49,8.53,-0.21,-0.5966666666666667,-0.39444444444444443,-0.05444444444444444,0.015271630954950384,0.04690572364734761,-0.01854412330243975
1592251533.6469078,4.382550209622679,8.560699940107806,-0.056500299460970266,-0.5966666666666667,-0.39444444444444443,-0.05444444444444444,-0.003147010874765377,0.041045246701528953,-0.02356738925599859
1592251533.6569078,4.578914746368545,8.707348847821129,0.1365054376758689,-0.5966666666666667,-0.39444444444444443,-0.05444444444444444,-0.023709081374342314,0.014299182979254633,-0.023091449982169065
1592251533.6669078,4.538860037998734,8.842279924002533,0.0713914774269429,-0.5966666666666667,-0.39444444444444443,-0.05444444444444444,-0.053671973393837884,0.007235327708057783,-0.01623811117326105
1592251533.6769078,4.495328996317989,8.728250186008356,-0.00934200736402313,-0.5966666666666667,-0.39444444444444443,-0.05444444444444444,-0.08731378597189338,0.00957060054108963,-0.0039255715320345285
1592251533.6869078,4.7214410931511415,8.583771038160307,0.10658923512747875,-0.5909180692106871,-0.38198914995648875,-0.04869584698846489,-0.12199050935068739,0.027839324890105516,-0.007374677750074023
1592251533.6969078,4.768859807390397,8.835794221711929,0.15657942217119292,-0.59,-0.38,-0.04777777777777778,-0.12931136023846657,0.05760400366951972,-0.040619663333808266
1592251533.7069077,4.579112459148498,8.778705958723194,0.07700541702108608,-0.59,-0.38,-0.04777777777777778,-0.1397674981654024,0.08462511575220402,-0.09994922007760668
1592251533.7169077,4.596905962271297,8.629929229094179,0.10064711590806882,-0.59,-0.38,-0.04777777777777778,-0.13382695917913917,0.07791995159913145,-0.1635849076122615
1592251533.7269077,4.492209438124487,8.651533370820538,0.35294303386824694,-0.59,-0.38,-0.04777777777777778,-0.13359664431683824,0.06241836691411909,-0.21256450758157147
1592251533.7369077,4.316682673837879,8.155776027660393,0.2400240107568191,-0.606929184274555,-0.3747096299142016,-0.059416591966534336,-0.10404809586624211,0.01730232371879295,-0.268391203204825
1592251533.7469077,4.786840742688403,8.371978884349339,0.33675539015412,-0.6077777777777778,-0.37444444444444447,-0.06,-0.07381325066287535,-0.013453211936841129,-0.29614548853017836
1592251533.7569077,4.5285798545787355,8.664730258809172,0.32689174759749834,-0.6077777777777778,-0.37444444444444447,-0.06,-0.02934915523799523,-0.024123572721997815,-0.3354895081441242
1592251533.7669077,4.527599709775296,8.632400290224703,0.14720087067411283,-0.6077777777777778,-0.37444444444444447,-0.06,-0.0035468669165883357,-0.010534376539403189,-0.3446339336266053
1592251533.7769077,4.488924011110871,8.634593139682607,0.10270343015869599,-0.6077777777777778,-0.37444444444444447,-0.06,0.015417612163649926,0.00828283050158422,-0.33862996736079976
1592251533.7869077,4.266396168443882,8.436396168443883,-0.006228086029278879,-0.6077777777777778,-0.3665756973311646,-0.06590156033495993,0.02169142541915282,0.04508129782749902,-0.327285116043427
1592251533.7969077,4.484375171656138,8.855111919802251,0.17200906344410877,-0.6077777777777778,-0.3655555555555556,-0.06666666666666667,0.02086457293664208,0.07669662389766468,-0.33091861753287555
1592251533.8069077,4.554729984488724,9.215204868154158,-0.034427395298890356,-0.6077777777777778,-0.3655555555555556,-0.06666666666666667,0.004624857001164488,0.0731445706735527,-0.3401365785140058
1592251533.8169076,3.8819262855257577,8.53901022764764,0.06733138520997314,-0.6077777777777778,-0.3655555555555556,-0.06666666666666667,-0.0296519651928645,0.08135766304413593,-0.36109198086006733
1592251533.8269076,4.032963203903233,8.617222402927425,0.1995680016263468,-0.6077777777777778,-0.3655555555555556,-0.06666666666666667,-0.04128099298392077,0.04625029379153412,-0.38346070518591885
1592251533.8369076,4.254078128639404,8.852256014374603,0.21136658569859912,-0.6141407587336446,-0.3846444984231561,-0.06666666666666667,-0.059250336163829395,0.03168378315062894,-0.3998876830521139
1592251533.8469076,4.116813138393751,8.927825355497696,0.3079699579411176,-0.6144444444444445,-0.38555555555555554,-0.06666666666666667,-0.07725908967979075,0.03574442522632238,-0.3863597665608538
1592251533.8569076,3.9503886090755023,9.001262024681928,0.27165063375742965,-0.6144444444444445,-0.38555555555555554,-0.06666666666666667,-0.08569904919453765,0.023108697980844528,-0.36874319515799364
1592251533.8669076,4.1791951763323825,9.121708182493826,0.13969888039126369,-0.6144444444444445,-0.38555555555555554,-0.06666666666666667,-0.10023579229271977,0.028224537121032525,-0.34214819809460967
1592251533.8769076,3.8821342313977123,9.07530229962935,0.1846977003706508,-0.6144444444444445,-0.38555555555555554,-0.06666666666666667,-0.11351630915127282,0.06473955268792345,-0.31463279486688855
1592251533.8869076,3.829319570655099,9.155759427540133,0.21881328562834437,-0.6036726508986903,-0.37478376200980135,-0.04806084145127301,-0.1053117802737861,0.08142395731724433,-0.29774157649234234
1592251533.8969076,3.6140269015593383,9.260389239376265,0.16834900607070588,-0.6022222222222222,-0.37333333333333335,-0.04555555555555556,-0.11701026669175857,0.08885512045281065,-0.2790989434250949
1592251533.9069076,3.661440017805475,9.154887602937903,0.009379034052971302,-0.6022222222222222,-0.37333333333333335,-0.04555555555555556,-0.15997605182820604,0.09093954938101825,-0.25073399839922933
1592251533.9169075,3.8178778417406574,9.22945799590204,0.32521367938335444,-0.6022222222222222,-0.37333333333333335,-0.04555555555555556,-0.20105259779315693,0.058392760360967105,-0.23366927900970355
1592251533.9269075,3.797297709923664,9.12545165394402,0.3579732824427481,-0.6022222222222222,-0.37333333333333335,-0.04555555555555556,-0.21540951886153967,0.04537273168507587,-0.21689365936892097
1592251533.9369075,4.045874178403756,8.85926572769953,0.2511188732394366,-0.6067482524778299,-0.3887218362023996,-0.0690909128847157,-0.2621579177588725,0.038945711212805954,-0.1606801322098773
1592251533.9469075,4.024057544644171,8.93487217204554,0.33963254979259216,-0.6077777777777778,-0.39222222222222225,-0.07444444444444444,-0.2778882673406979,0.04478853441450248,-0.1445490225475391
1592251533.9569075,3.6611573111573112,8.902461884961886,0.5526091476091476,-0.6077777777777778,-0.39222222222222225,-0.07444444444444444,-0.2923426497090502,0.059331783034028904,-0.14343649944677975
1592251533.9669075,3.677074298930327,9.072685747325817,0.49719427580225495,-0.6077777777777778,-0.39222222222222225,-0.07444444444444444,-0.256163008276042,0.0401165976309515,-0.1750342952887764
1592251533.9769075,3.599085318442073,8.999651869654345,0.4926143351947409,-0.6077777777777778,-0.39222222222222225,-0.07444444444444444,-0.2467012472846187,0.05141871119726879,-0.19529668519660193
1592251533.9869075,3.886547276060765,8.987273441592457,0.45145429544264015,-0.613353559164193,-0.3968687067109016,-0.08652530411501078,-0.2244532188556375,0.03312141389354466,-0.2605104189475955
1592251533.9969075,3.9649226354364604,8.918452708729205,0.4146131771823012,-0.6144444444444445,-0.3977777777777778,-0.08888888888888889,-0.24250200030374755,0.03616619911715021,-0.26057353038083925
1592251534.0069075,3.9247381492019096,8.918733182234654,0.6227282152673964,-0.6144444444444445,-0.3977777777777778,-0.08888888888888889,-0.26167316662624107,0.049213606385248854,-0.21351719845832712
1592251534.0169075,3.8479015280135824,8.789229202037351,0.6423769100169779,-0.6144444444444445,-0.3977777777777778,-0.08888888888888889,-0.2522411914180557,0.04679126975539806,-0.15171659739943325
1592251534.0269074,3.8062684430742126,8.55692798942964,0.5962684430742128,-0.6144444444444445,-0.3977777777777778,-0.08888888888888889,-0.2534984081647192,0.05653955388664052,-0.12929011194447287
1592251534.0369074,4.650385627438527,9.49576444968696,-0.1304573087741584,-0.6442043976650637,-0.3937561624776941,-0.09854076560908973,-0.22596429504030818,0.019805096369221786,-0.1870704023084817
1592251534.0469074,4.3007947289217885,9.094445845365437,0.5633318420303413,-0.6555555555555556,-0.39222222222222225,-0.10222222222222223,-0.18570099689276356,0.0032205395738161527,-0.2637039383271117
1592251534.0569074,3.477284115356335,8.80115329103238,0.46699436289861396,-0.6555555555555556,-0.39222222222222225,-0.10222222222222223,-0.08598702898401639,0.019078324712031913,-0.3700116372481392
1592251534.0669074,3.6232402592777264,8.461778141842961,0.974562765629081,-0.6555555555555556,-0.39222222222222225,-0.10222222222222223,-0.036632199203160534,0.017578726275425175,-0.40746136302837893
1592251534.0769074,3.5781377192630353,8.37452695379922,0.9464191386023362,-0.6555555555555556,-0.39222222222222225,-0.10222222222222223,0.04575219187819621,0.014937196502387146,-0.4216420235239517
1592251534.0869074,3.6240398909811695,8.697399653121902,0.848759910802775,-0.644520014315604,-0.39646666116066515,-0.12599108027750247,0.09008516285508207,0.016680981082633183,-0.413756494259448
1592251534.0969074,3.615720945057572,8.8338670863381,0.972837164827284,-0.6411111111111111,-0.3977777777777778,-0.13333333333333333,0.11727045886759102,-0.003379754404591293,-0.40427638662456794
1592251534.1069074,3.8256388441787386,8.860225594645001,0.6929327303850183,-0.6411111111111111,-0.3977777777777778,-0.13333333333333333,0.170784704550234,-0.040516555996004386,-0.3802898747707385
1592251534.1169074,3.666363029537273,8.89568193196176,0.5752273106539204,-0.6411111111111111,-0.3977777777777778,-0.13333333333333333,0.16005457607679607,-0.04415385094525789,-0.3608666230395383
1592251534.1269073,3.5462331486066896,8.9037475926581,0.630019258735212,-0.6411111111111111,-0.3977777777777778,-0.13333333333333333,0.153125108492675,-0.04261018354087029,-0.35226845892072667
1592251534.1369073,3.5144298720688547,9.183513861647004,0.954766240229515,-0.6259979312431082,-0.41289095764578065,-0.12696988917838475,0.14772091833561765,-0.03333253017586736,-0.3237789756332165
1592251534.1469073,3.5617487694748404,9.417443355164139,0.844261074726437,-0.62,-0.41888888888888887,-0.12444444444444444,0.11675328309605196,-0.02057908647557922,-0.29973396786676965
1592251534.1569073,3.151649780734916,9.230632088310903,0.6041403296537123,-0.62,-0.41888888888888887,-0.12444444444444444,0.03997804918745253,-0.01534816890793365,-0.2565672599313126
1592251534.1669073,3.4201066004672898,9.76884929906542,0.7649547313084112,-0.62,-0.41888888888888887,-0.12444444444444444,-0.006587993502115717,-0.037861767965832016,-0.22991074668525258
1592251534.1769073,3.3299842851410997,9.77946602915608,0.7907773839775311,-0.62,-0.41888888888888887,-0.12444444444444444,-0.029495687958621404,-0.047911754992593016,-0.21937005319812236
1592251534.1869073,3.2202885397352072,9.420256985784459,0.7936654630623596,-0.62,-0.42753481597143156,-0.12916040467128592,-0.05685648068783323,-0.10315531194804195,-0.20667210508346529
1592251534.1969073,3.4200125546735785,9.336307710999515,0.7326907500404989,-0.62,-0.4311111111111111,-0.13111111111111112,-0.05900452669046843,-0.13100209734011525,-0.2053738109138728
1592251534.2069073,3.5665113957744135,9.106371651971386,0.42018632507070375,-0.62,-0.4311111111111111,-0.13111111111111112,-0.0650794617181994,-0.14872337165110597,-0.19600964298617526
1592251534.2169073,3.5708684822996206,9.196483197909435,0.41177983749132335,-0.62,-0.4311111111111111,-0.13111111111111112,-0.07058509398208203,-0.14726215563702155,-0.18916206568696628
1592251534.2269073,3.484630447948678,9.33980417666719,0.3711307507682645,-0.62,-0.4311111111111111,-0.13111111111111112,-0.10758430841675141,-0.13613333757200277,-0.18259322044216125
1592251534.2369072,3.588768135532126,9.214454357033432,0.4839343966837884,-0.6157345829203088,-0.4424855566569543,-0.1268456940314199,-0.13748606273075523,-0.106296480878986,-0.18456754608244666
1592251534.2469072,3.7034023704542696,9.160064722300877,0.4631434812507585,-0.6133333333333333,-0.4488888888888889,-0.12444444444444444,-0.14290024452859795,-0.09271779246907429,-0.1985467346515395
1592251534.2569072,3.863627368421053,9.367254736842105,0.4314334210526316,-0.6133333333333333,-0.4488888888888889,-0.12444444444444444,-0.15604894112039663,-0.07300146751449775,-0.25689728038083004
1592251534.2669072,3.7536479704500745,9.380667683783676,0.6229317059461196,-0.6133333333333333,-0.4488888888888889,-0.12444444444444444,-0.15171784485366113,-0.06831017370149746,-0.29010238889135803
1592251534.2769072,3.3802977868082413,9.264851106595879,0.7485110659587949,-0.6133333333333333,-0.4488888888888889,-0.12444444444444444,-0.11312156636258074,-0.07748146905895344,-0.36181210954554344
1592251534.2869072,3.597376473291966,9.357207721855609,0.6351948520962605,-0.6306147061076639,-0.45824963247498457,-0.11940404405193138,-0.07708917148351838,-0.07783290183776848,-0.415844506086752
1592251534.2969072,3.6120516643830096,9.295164020311114,0.4041033287660192,-0.64,-0.4633333333333333,-0.11666666666666667,-0.06511034158454113,-0.07008036075826167,-0.4374954584678366
1592251534.3069072,3.3281949514163793,8.938849930594827,0.24951262145905093,-0.64,-0.4633333333333333,-0.11666666666666667,-0.09876547119235546,-0.028450488668914684,-0.45262332759105467
1592251534.3169072,3.5902919866685985,8.75967396029561,0.025231125923779185,-0.64,-0.4633333333333333,-0.11666666666666667,-0.11528940116350585,-0.02245465918761162,-0.4661589713216917
1592251534.3269072,3.747729621346495,8.789783296059229,-0.03603300686357677,-0.64,-0.4633333333333333,-0.11666666666666667,-0.11910926595544166,-0.02269873576909761,-0.47974850539824465
1592251534.3369071,3.6672417727073277,8.90682053532251,0.7194883720930233,-0.6319625566769052,-0.4633333333333333,-0.11666666666666667,-0.12342690473386708,0.0026608804238939443,-0.5475106096191362
1592251534.3469071,3.586694586264499,8.706631767169377,0.5229075594663906,-0.6266666666666667,-0.4633333333333333,-0.11666666666666667,-0.10325237046471224,0.018918393008134547,-0.6010843078236476
1592251534.3569071,3.4868849909064803,8.916230018187038,0.42646118502919494,-0.6266666666666667,-0.4633333333333333,-0.11666666666666667,-0.09418066119791216,0.03851466943628412,-0.6511629361735553
1592251534.3669071,3.4070856011875312,9.043366732640607,0.5754766617186211,-0.6266666666666667,-0.4633333333333333,-0.11666666666666667,-0.08147253729803007,0.04060744878421751,-0.6807111979710279
1592251534.376907,3.1174685067072203,9.181065891912748,0.8584011621308759,-0.6266666666666667,-0.4633333333333333,-0.11666666666666667,-0.03381575425739013,0.04286214513740307,-0.7545492945613302
1592251534.386907,3.2156781093457085,9.415259842035711,0.7213688189557147,-0.6266666666666667,-0.4681636395299999,-0.12977749777190448,-0.03652554969703958,0.06315343343272199,-0.7858571712057381
1592251534.396907,3.146343875132794,9.31450845795538,0.8289948516793331,-0.6266666666666667,-0.4711111111111111,-0.13777777777777778,-0.04745073789954858,0.07159440573359717,-0.7879437026493048
1592251534.406907,2.942202598305885,9.129151948729413,0.9663313212608986,-0.6266666666666667,-0.4711111111111111,-0.13777777777777778,-0.061646639156388565,0.09486856981543779,-0.75313223047388
1592251534.416907,3.0684008486702523,9.278509399516455,0.9243632506044308,-0.6266666666666667,-0.4711111111111111,-0.13777777777777778,-0.033867451250856745,0.09061433406157335,-0.730844783212175
1592251534.426907,2.9565303564662337,9.238843452155411,0.9612396164271765,-0.6266666666666667,-0.4711111111111111,-0.13777777777777778,-0.018165643905347507,0.09147644180058806,-0.7237798162514403
1592251534.436907,2.5617006190613303,9.228453786351857,0.9186596602361071,-0.6152577022746905,-0.49012605176440477,-0.13872852481044246,0.020703327510407467,0.10861076705207028,-0.7029785638038055
1592251534.446907,2.339689686524094,9.337183855793178,0.8339617345930347,-0.6,-0.5155555555555555,-0.14,0.04080333242794082,0.1119806770199114,-0.6877466657539506
1592251534.456907,2.178389844663437,9.442796614887813,0.64471187573075,-0.6,-0.5155555555555555,-0.14,0.06286698121191032,0.10730262085753679,-0.657001835347421
1592251534.466907,2.106829069767442,9.431626744186046,0.6058546511627907,-0.6,-0.5155555555555555,-0.14,0.06297543684456167,0.1050034979638975,-0.6484678242009208
1592251534.476907,2.0838847943344176,9.510576028327911,0.7244608226623296,-0.6,-0.5155555555555555,-0.14,0.0423699749656673,0.08715687199118964,-0.6474040495921944
1592251534.486907,2.0807980902973573,9.44779331604075,0.7276057291079282,-0.5938653935315715,-0.511977035115639,-0.14255608602851189,0.019829532937721654,0.06429242058100564,-0.6664566829851913
1592251534.496907,2.0533267273905254,9.419262929227486,0.7674103433819887,-0.5866666666666667,-0.5077777777777778,-0.14555555555555555,0.0061799332409941555,0.05377231613734111,-0.6890443266632329
1592251534.506907,1.8007819473420128,9.470861700161091,0.7239680988723691,-0.5866666666666667,-0.5077777777777778,-0.14555555555555555,-0.0169264431740464,0.030073277379401128,-0.7435508733134887
1592251534.516907,1.5548104688782654,9.545442802646193,0.6064558887440243,-0.5866666666666667,-0.5077777777777778,-0.14555555555555555,-0.022907446432425576,0.028333972707387,-0.7774170946308778
1592251534.526907,1.4866547667090926,9.590836308322727,0.5705575388818178,-0.5866666666666667,-0.5077777777777778,-0.14555555555555555,-0.022968264489898138,0.03069530705358217,-0.7879751423360128
1592251534.536907,1.1961568100032716,9.654768637999345,0.6247686379993457,-0.5763648480001939,-0.5155041417776324,-0.1408338886667555,-0.029303185841325404,0.038104454744336505,-0.8030248484880671
1592251534.546907,0.92,9.71,0.68,-0.56,-0.5277777777777778,-0.13333333333333333,-0.03599741582238304,0.04145156973486533,-0.8050331174823844
1592251534.556907,0.9084368373220236,9.76,0.6820842169039685,-0.56,-0.5277777777777778,-0.13333333333333333,-0.07469894200319338,0.011647204410745253,-0.7803987150762157
1592251534.566907,0.9381497169549898,9.755991053402479,0.6467843711650371,-0.56,-0.5277777777777778,-0.13333333333333333,-0.08731936104825605,-0.003777078772946439,-0.7706118595144459
1592251534.576907,0.9217619038128076,9.61607936539573,0.8843611105574711,-0.56,-0.5277777777777778,-0.13333333333333333,-0.12098611991136618,-0.026847856035591772,-0.7458880128632248
1592251534.586907,1.0147312986235788,9.597365649311788,0.9263171753441054,-0.5550895671254737,-0.5400538599640934,-0.12514927854245628,-0.12113796607842629,-0.03754860200153809,-0.7312026089014245
1592251534.596907,1.0395478713651864,9.609849290455061,0.9184929045506216,-0.5466666666666666,-0.5611111111111111,-0.1111111111111111,-0.1285207540015807,-0.0323961262532252,-0.72427875985548
1592251534.606907,0.9977380629776164,9.604087312340795,0.7954761259552328,-0.5466666666666666,-0.5611111111111111,-0.1111111111111111,-0.11830320261603412,-0.007341454929751499,-0.7279261139673749
1592251534.616907,0.8189789123196448,9.60480577136515,0.8431076581576027,-0.5466666666666666,-0.5611111111111111,-0.1111111111111111,-0.12443945743409071,0.0012179531267385514,-0.7465096222603022
1592251534.6269069,0.67,9.6,0.92,-0.5466666666666666,-0.5611111111111111,-0.1111111111111111,-0.1265363707695889,0.004363323129985824,-0.755945732270044
1592251534.6369069,0.5965714933152051,9.6066530704736,1.0301223657375935,-0.5377415212629353,-0.5611111111111111,-0.12301130498275298,-0.12580173467496403,-2.224671888164092e-05,-0.7664933960633605
1592251534.6469069,0.55,9.6,1.09,-0.52,-0.5611111111111111,-0.14666666666666667,-0.12217304763960307,-0.01090830782496456,-0.767944870877505
1592251534.6569068,0.53292723232093,9.61,0.9996729158356602,-0.52,-0.5611111111111111,-0.14666666666666667,-0.11764114891658457,-0.034472216955774376,-0.775749261948013
1592251534.6669068,0.55,9.61,0.92,-0.52,-0.5611111111111111,-0.14666666666666667,-0.11453723216212788,-0.042542400517361786,-0.7788531787024696
1592251534.6769068,0.5349129030451261,9.5519303224361,0.9070174193909748,-0.52,-0.5611111111111111,-0.14666666666666667,-0.09765785744526426,-0.010123050595250477,-0.7779729134333173
1592251534.6869068,0.5156230932790977,9.582013959508181,0.914097716557271,-0.518657360327879,-0.5635726171766664,-0.14823307961747456,-0.08222123157001344,0.039149197765264085,-0.7819135958779528
1592251534.6969068,0.3,9.59,0.97,-0.5133333333333333,-0.5733333333333334,-0.15444444444444444,-0.06654067773228381,0.09490227807719166,-0.7853981633974483
1592251534.7069068,-0.0024339708561020024,9.7,0.9841216985428051,-0.5133333333333333,-0.5733333333333334,-0.15444444444444444,-0.04529890904184651,0.1789112745731212,-0.7936088258344153
1592251534.7169068,-0.12,9.7,0.99,-0.5133333333333333,-0.5733333333333334,-0.15444444444444444,-0.04145156973486533,0.20071286397934787,-0.789761486527434
1592251534.7269068,-0.544528260391467,9.789416798288581,1.060583201711418,-0.5133333333333333,-0.5733333333333334,-0.15444444444444444,-0.04269395265178743,0.19467681878774476,-0.7648389135851997
1592251534.7369068,-0.6488306680276738,9.835947601224907,1.0486492004083021,-0.5075671997277985,-0.5790994669388682,-0.1441935402568271,-0.053637647812934494,0.16382034089697145,-0.7363789473765737
1592251534.7469068,-0.720783411641869,9.899888084051161,1.070223831897677,-0.49333333333333335,-0.5933333333333334,-0.11888888888888889,-0.062348268509161336,0.13145336668907207,-0.7118241755220047
1592251534.7569067,-0.814652302850572,9.882956484899836,1.0583041820492647,-0.49333333333333335,-0.5933333333333334,-0.11888888888888889,-0.08244311956460233,0.07285320977428367,-0.6513918827217945
1592251534.7669067,-0.86,9.800890165628982,1.0888555013341668,-0.49333333333333335,-0.5933333333333334,-0.11888888888888889,-0.09270674479691857,0.03351309388354523,-0.5926679077775804
1592251534.7769067,-0.86,9.73,1.18,-0.49333333333333335,-0.5933333333333334,-0.11888888888888889,-0.09381144729469522,0.014180800172453926,-0.5650503453331642
1592251534.7869067,-0.7883086406780848,9.842088893558895,1.2207950684739588,-0.4870979416949786,-0.5959314131826479,-0.12044773679847758,-0.103699491548654,-0.028844529177199374,-0.5071767882975047
1592251534.7969067,-0.75,9.98,1.42,-0.4666666666666667,-0.6044444444444445,-0.12555555555555556,-0.10035643198967394,-0.044724062082354694,-0.47123889803846897
1592251534.8069067,-1.528516436370092,10.124648933337278,1.3132106399976329,-0.4666666666666667,-0.6044444444444445,-0.12555555555555556,-0.07273111095388551,0.0009246741156830763,-0.40894047629218944
1592251534.8169067,-2.11,10.48,1.1,-0.4666666666666667,-0.6044444444444445,-0.12555555555555556,-0.05017821599483697,0.01854412330243975,-0.370882466048795
1592251534.8269067,-2.381923023176891,9.567339748068592,1.4395745912602558,-0.4666666666666667,-0.6044444444444445,-0.12555555555555556,0.00274439985340194,-0.0784810208371249,-0.15001306654793586
1592251534.8369067,-0.5433735458853942,9.658901335631194,1.4599612236105126,-0.4649585906457944,-0.6070065584757528,-0.12833117908947295,0.03066310760121339,-0.2576926754435036,-0.006497986384660061
1592251534.8469067,-1.02,9.36,1.67,-0.4577777777777778,-0.6177777777777778,-0.14,0.06326818538479445,-0.23125612588924865,-0.03381575425739013
1592251534.8569067,-0.3578544468661953,9.691455531338047,1.2174905640316835,-0.4577777777777778,-0.6177777777777778,-0.14,0.10619928606350192,-0.20195835138280646,-0.02442667083597846
1592251534.8669066,-0.49325890509203923,9.606521157064309,1.2280439875687306,-0.4577777777777778,-0.6177777777777778,-0.14,0.11515370932440892,-0.18036692709608554,-0.03156284837736542
1592251534.8769066,-0.64,9.65,1.19,-0.4577777777777778,-0.6177777777777778,-0.14,0.12108221685710661,-0.148352986419518,-0.039269908169872414
1592251534.8869066,-0.31188543539686614,9.821539393049795,0.869081134637261,-0.4549986748702392,-0.6186462474363835,-0.14104216359032698,0.13631870233383486,-0.11211735790818275,-0.021475568412511418
1592251534.8969066,-0.43,9.56,1.08,-0.44,-0.6233333333333333,-0.14666666666666667,0.12435470920459597,-0.11671889372712078,-0.019634954084936207
1592251534.9069066,-0.25162852187757656,9.61476672447616,1.0612213914081825,-0.44,-0.6233333333333333,-0.14666666666666667,0.11667448268227004,-0.08252288540484597,-0.018632945392141224
1592251534.9169066,-0.17,9.71,1.0,-0.44,-0.6233333333333333,-0.14666666666666667,0.11890055529211369,-0.04690572364734761,-0.014180800172453926
1592251534.9269066,-0.28939300590913497,9.648643998837548,1.0635170008718395,-0.44,-0.6233333333333333,-0.14666666666666667,0.14128723913010943,0.02018811508272875,-0.018741345676987015
1592251534.9369066,-0.6894031830238727,9.571676188532953,1.1118370400598516,-0.44418036379574843,-0.6252072895176343,-0.1439278076280729,0.14615377867482976,0.06950635305596756,-0.03177561209099697
1592251534.9469066,-0.4140100211383387,9.705475351653227,0.9601286568021086,-0.4722222222222222,-0.6377777777777778,-0.12555555555555556,0.16333300040805762,0.025610739127105195,-0.03225942946525402
1592251534.9569066,-0.5,9.78,0.92,-0.4722222222222222,-0.6377777777777778,-0.12555555555555556,0.15707963267948966,0.008726646259971648,-0.031634092692397225
1592251534.9669065,-0.600254097717826,9.696624317047029,0.926497268188116,-0.4722222222222222,-0.6377777777777778,-0.12555555555555556,0.155238483240965,0.004676117495217404,-0.04216031174903851
1592251534.9769065,-0.5616205826814136,9.698397794712706,0.8804051456703534,-0.4722222222222222,-0.6377777777777778,-0.12555555555555556,0.15376294579513863,-0.002356435049718833,-0.03499497411360992
1592251534.9869065,-0.36361613164283785,9.719612557323982,0.8309040329107095,-0.4722222222222222,-0.6377777777777778,-0.12555555555555556,0.1591626795517434,-4.226343974536107e-05,-0.02419550660040038
1592251534.9969065,-0.4551655319370095,9.77033106387402,0.7820861701574762,-0.44555555555555554,-0.6311111111111111,-0.14,0.15553911270377238,-0.006436644295552992,-0.016476244668711865
1592251535.0069065,-0.48,9.82,0.72,-0.44555555555555554,-0.6311111111111111,-0.14,0.14944381720201447,0.009817477042468103,-0.01308996938995747
1592251535.0169065,-0.45675236877137115,9.75922868105766,0.5202571063141135,-0.44555555555555554,-0.6311111111111111,-0.14,0.12749730752609414,0.01491736934351187,-0.013826538561015412
1592251535.0269065,-0.4471104479758395,9.808441791903357,0.5144477601208025,-0.44555555555555554,-0.6311111111111111,-0.14,0.10120304751069757,0.013865598942896006,-0.014665975537747076
1592251535.0369065,-0.44924929342986564,9.78277478802896,0.5490750706570134,-0.4474054142415287,-0.6317277306731021,-0.13732798189803883,0.07898727277013509,0.012989075250061074,-0.019351276421610924
1592251535.0469065,-0.54,9.81,0.54,-0.46555555555555556,-0.6377777777777778,-0.1111111111111111,0.05126904677733343,0.011999138607461015,-0.0272707695624114
1592251535.0569065,-0.44124161716803983,9.755092929680016,0.6640371718720062,-0.46555555555555556,-0.6377777777777778,-0.1111111111111111,0.010413577711500463,0.010718525424024383,-0.013110243501071123
1592251535.0669065,-0.3567157279489904,9.689779224229543,0.7238730074388948,-0.46555555555555556,-0.6377777777777778,-0.1111111111111111,-0.016418655172283733,0.0007325722773630556,-0.003989009357756168
1592251535.0769064,-0.37,9.63,0.87,-0.46555555555555556,-0.6377777777777778,-0.1111111111111111,-0.031634092692397225,0.002181661564992912,-0.001090830782496456
1592251535.0869064,-0.3544362012041173,9.753450378714314,1.080492911244902,-0.4645697330657517,-0.6380516173582789,-0.11253507692971666,-0.035405964787507606,0.04426298534609032,-0.003541333726978201
1592251535.0969064,-0.44,9.82,1.09,-0.44555555555555554,-0.6433333333333333,-0.14,-0.02399827721492203,0.07744898555724837,-0.008726646259971648
1592251535.1069064,-0.6091585483962855,9.699393266108359,1.0196279838204296,-0.44555555555555554,-0.6433333333333333,-0.14,-0.006912137219503834,0.10621831909670754,-0.026837432637307552
1592251535.1169064,-0.64,9.63,0.85,-0.44555555555555554,-0.6433333333333333,-0.14,0.006544984694978735,0.1112647398146385,-0.032724923474893676
1592251535.1269064,-0.646406166053643,9.636953754597677,0.6217969169731785,-0.44555555555555554,-0.6433333333333333,-0.14,0.02220864211951581,0.09358121739817046,-0.027100272309884158
1592251535.1369064,-0.6275279867865663,9.76412002202239,0.6365920352358231,-0.4450977753308456,-0.6426924410187393,-0.13880977141575418,0.02256011822401461,0.06421588091137514,-0.015643382241993128
1592251535.1469064,-0.6,9.81,0.71,-0.44,-0.6355555555555555,-0.12555555555555556,0.006544984694978735,0.02617993877991494,-0.007635815477475192
1592251535.1569064,-0.49712066368992575,9.611206636899258,1.0216726994108167,-0.44,-0.6355555555555555,-0.12555555555555556,-0.014825920419630885,-0.012198548319318474,0.001570434340094372
1592251535.1669064,-0.49,9.54,1.1,-0.44,-0.6355555555555555,-0.12555555555555556,-0.02181661564992912,-0.02617993877991494,0.00545415391248228
1592251535.1769063,-0.4922611325635807,9.55021761046965,1.2079564779060699,-0.44,-0.6355555555555555,-0.12555555555555556,0.0021249112237377004,-0.025288284058006708,0.0028266649865352515
1592251535.1869063,-0.5401332252085265,9.590488492431263,1.199023015137473,-0.44005921120378955,-0.6355900954244328,-0.1255259499536608,0.031968342856867005,-0.021845680881622143,0.0010859865772142852
1592251535.1969063,-0.57,9.7,0.98,-0.4533333333333333,-0.6433333333333333,-0.11888888888888889,0.10690141668465267,-0.028361600344907853,0.0
1592251535.2069063,-0.5787827786596004,9.666598365494353,0.8420819614067767,-0.4533333333333333,-0.6433333333333333,-0.11888888888888889,0.10704537068856071,-0.03066486440743661,-7.19770019540236e-05
1592251535.2169063,-0.4852472091406383,9.7216192887408,0.7760568535110388,-0.4533333333333333,-0.6433333333333333,-0.11888888888888889,0.10824574102373274,-0.049870789770188814,-0.00067216216954003
1592251535.2269063,-0.42,9.76,0.73,-0.4533333333333333,-0.6433333333333333,-0.11888888888888889,0.1090830782496456,-0.06326818538479445,-0.001090830782496456
1592251535.2369063,-0.4757305949864089,9.750711567502265,0.7671537299909393,-0.4533333333333333,-0.6433333333333333,-0.11888888888888889,0.098950970159976,-0.0521228664861579,-7.761997352949716e-05
1592251535.2469063,-0.43,9.71,0.84,-0.43333333333333335,-0.6355555555555555,-0.12555555555555556,0.09599310885968812,-0.04363323129985824,-0.001090830782496456
1592251535.2569063,-0.4372223601363093,9.704762022973979,0.741110559454763,-0.43333333333333335,-0.6355555555555555,-0.12555555555555556,0.0951706592283906,-0.023530739623326878,0.00055406848009857
1592251535.2669063,-0.4922781025599957,9.770502923039961,0.5163313846400256,-0.43333333333333335,-0.6355555555555555,-0.12555555555555556,0.09251407470230988,-0.005993119422031595,-0.0008423283426837239
1592251535.2769063,-0.5,9.84,0.47,-0.43333333333333335,-0.6355555555555555,-0.12555555555555556,0.08072147790473774,0.0032724923474893677,0.0
1592251535.2869062,-0.4643564023536005,9.866732698234799,0.389801905295601,-0.43333333333333335,-0.6355555555555555,-0.12555555555555556,0.05253265610881987,0.01202074738760181,0.002916085013370814
1592251535.2969062,-0.52,9.83,0.4,-0.44555555555555554,-0.6433333333333333,-0.1111111111111111,0.007635815477475192,0.015271630954950384,0.002181661564992912
1592251535.3069062,-0.4418631066862767,9.771863106686276,0.55,-0.44555555555555554,-0.6433333333333333,-0.1111111111111111,-0.0343300330261218,0.023571052641684534,0.0038821925848290546
1592251535.3169062,-0.47221974593269445,9.77555605081346,0.5648131639551297,-0.44555555555555554,-0.6433333333333333,-0.1111111111111111,-0.057732995087014155,0.03599741582238304,0.006221811590410288
1592251535.3269062,-0.5898014140555576,9.738344473206352,0.6791388169841208,-0.44555555555555554,-0.6433333333333333,-0.1111111111111111,-0.06981317007977318,0.034884922673769705,0.005316888685940111
1592251535.3369062,-0.5330844569794846,9.67352509369084,0.8411872657729011,-0.44555555555555554,-0.6433333333333333,-0.1111111111111111,-0.06981317007977318,0.028698062406958637,0.010619911771778172
1592251535.3469062,-0.46,9.65,0.91,-0.43333333333333335,-0.6355555555555555,-0.1111111111111111,-0.06544984694978735,0.0272707695624114,0.017453292519943295
1592251535.3569062,-0.455438202247191,9.642280898876406,0.8997359550561798,-0.43333333333333335,-0.6355555555555555,-0.1111111111111111,-0.04965179821834009,0.04247560245259093,0.019261742879014665
1592251535.3669062,-0.42,9.66,0.82,-0.43333333333333335,-0.6355555555555555,-0.1111111111111111,-0.0370882466048795,0.05890486225480862,0.016362461737446838
1592251535.3769062,-0.5541232037347729,9.71164928149391,0.8458767962652272,-0.43333333333333335,-0.6355555555555555,-0.1111111111111111,-0.028091737291524182,0.06864376351511062,0.017273383817687515
1592251535.3869061,-0.5923672404989423,9.726946896199577,0.8076327595010577,-0.43333333333333335,-0.6355555555555555,-0.1111111111111111,-0.025588670938567246,0.05779714265229722,0.015604672915716225
1592251535.3969061,-0.5633531270041091,9.719970309493837,0.7383976627633548,-0.46555555555555556,-0.6488888888888888,-0.13333333333333333,-0.02544839994917446,0.031462543546037065,0.017090761836380187
1592251535.4069061,-0.5283741113251065,9.776503554699573,0.6169928906008513,-0.46555555555555556,-0.6488888888888888,-0.13333333333333333,-0.034498492890379984,0.013116658523162142,0.015271630954950384
1592251535.416906,-0.5135266793424631,9.800290019013696,0.5694199619726107,-0.46555555555555556,-0.6488888888888888,-0.13333333333333333,-0.04681081514705338,0.006223555989832905,0.015271630954950384
1592251535.426906,-0.4837183952079125,9.746281604792088,0.6873525109702584,-0.46555555555555556,-0.6488888888888888,-0.13333333333333333,-0.06421461804079272,-0.0009556261173538466,0.014866016959522556
1592251535.436906,-0.5056291356132897,9.72437086438671,0.7896026328620186,-0.46555555555555556,-0.6488888888888888,-0.13333333333333333,-0.06979149706447005,-0.00015892911397137025,0.012475925949375126
1592251535.446906,-0.4803306863171385,9.69,0.8786186694738769,-0.4533333333333333,-0.6355555555555555,-0.1111111111111111,-0.06921045093629435,-0.003911283772376701,0.008726646259971648
1592251535.456906,-0.4232179358717435,9.69,0.8624914829659318,-0.4533333333333333,-0.6355555555555555,-0.1111111111111111,-0.06509882459928762,0.0003132586195024893,0.00849263135963849
1592251535.466906,-0.46299553418069395,9.684224207030802,0.8187713271498913,-0.4533333333333333,-0.6355555555555555,-0.1111111111111111,-0.06154731332588528,0.01247166956477054,0.006544984694978735
1592251535.476906,-0.540825810404166,9.649174189595835,0.932477431212498,-0.4533333333333333,-0.6355555555555555,-0.1111111111111111,-0.05691321206294206,0.014280729604643272,0.006274738872167705
1592251535.486906,-0.5483835162261024,9.641616483773898,0.955150548678307,-0.4533333333333333,-0.6355555555555555,-0.1111111111111111,-0.048669033907321246,0.00521213363346037,0.0038014854254814594
1592251535.496906,-0.4864627755910265,9.687074448817947,0.9793883267730796,-0.4577777777777778,-0.6288888888888889,-0.11888888888888889,-0.0242506821449619,-0.012577915597946928,0.0032724923474893677
1592251535.506906,-0.46648430332729185,9.72,0.8966008816092726,-0.4577777777777778,-0.6288888888888889,-0.11888888888888889,-0.015079879447324862,-0.014888127939699342,0.0030807408398638467
1592251535.516906,-0.44272571916832815,9.718787619861388,0.7496990411088958,-0.4577777777777778,-0.6288888888888889,-0.11888888888888889,-0.015106551275153614,-0.011635217657143674,0.002181661564992912
