time,acc_x,acc_y,acc_z,mag_x,mag_y,mag_z,gyr_x,gyr_y,gyr_z
1592251575.8768675,-0.537036281451258,9.770277211088443,0.5973134925397016,-0.4666666666666667,-0.6488888888888888,-0.06555555555555556,-0.03201786231246428,-0.008019585097542248,0.0029189617662746677
1592251575.8868675,-0.5224122209282157,9.75,0.55,-0.4666666666666667,-0.6488888888888888,-0.06555555555555556,-0.031897225176665205,-0.005868003061596516,0.003535624831757351
1592251575.8968675,-0.53,9.773426751816471,0.55,-0.4666666666666667,-0.6488888888888888,-0.06555555555555556,-0.02863618395244395,-0.0028986917109512004,0.003852230689679608
1592251575.9068675,-0.553728059532476,9.785763164280514,0.5879648952519615,-0.4540117015826795,-0.6520526301598857,-0.06133723386089317,-0.026068941034676687,0.0036236616845706504,0.0032724923474893677
1592251575.9168675,-0.5778935056254874,9.765787011250975,0.6321064943745126,-0.44,-0.6555555555555556,-0.056666666666666664,-0.029050949016970057,0.007635815477475192,0.0032724923474893677
1592251575.9268675,-0.5756169554119371,9.738766089176126,0.6287660891761255,-0.44,-0.6555555555555556,-0.056666666666666664,-0.031021377905672106,0.0021213823969491313,0.00265977756076425
1592251575.9368675,-0.5681083074086877,9.724054153704344,0.6616209240695933,-0.44,-0.6555555555555556,-0.056666666666666664,-0.029246079476441908,-0.01191052981593434,0.002181661564992912
1592251575.9468675,-0.5465382843453424,9.72,0.7169234313093154,-0.44,-0.6555555555555556,-0.056666666666666664,-0.021508855228294165,-0.024417904830965773,0.0012026979769052422
1592251575.9568675,-0.5495839947897586,9.72489599869744,0.7597919973948793,-0.44,-0.6555555555555556,-0.06373866478519061,-0.005612980863635853,-0.03911108121871885,-0.0016022118270689182
1592251575.9668674,-0.5600874397925157,9.731416080029641,0.7643356798814376,-0.44,-0.6555555555555556,-0.07111111111111111,0.004962128201251755,-0.04891383844020122,-0.003890373822213555
1592251575.9768674,-0.531501677852349,9.77150167785235,0.6197441275167785,-0.44,-0.6555555555555556,-0.07111111111111111,0.02811649896522779,-0.060513807154774384,-0.010499398802610952
1592251575.9868674,-0.5305864328477821,9.8,0.5023518597086692,-0.44,-0.6555555555555556,-0.07111111111111111,0.035740867725750095,-0.063845919974025,-0.01308996938995747
1592251575.9968674,-0.5369301302035576,9.8,0.4944883550339263,-0.44,-0.6555555555555556,-0.07111111111111111,0.038067453771635444,-0.06800948848241772,-0.013579572973335442
1592251576.0068674,-0.5254756554307116,9.808904868913858,0.49109513108614233,-0.44346300457761134,-0.652587265917603,-0.06467981689554723,0.03344168509467337,-0.06981317007977318,-0.014666485428720514
1592251576.0168674,-0.40724905171616244,9.813724905171616,0.5113754741419188,-0.4477777777777778,-0.6488888888888888,-0.056666666666666664,0.01933487217802963,-0.0636526101380764,-0.01321811097438479
1592251576.0268674,-0.22640116205633445,9.816527219906531,0.5234727800934698,-0.4477777777777778,-0.6488888888888888,-0.056666666666666664,0.007439529316966861,-0.05216359139932156,-0.014135166326911067
1592251576.0368674,-0.14749908189496877,9.82,0.5124972456849064,-0.4477777777777778,-0.6488888888888888,-0.056666666666666664,0.0013628374300598395,-0.03953951122408472,-0.018272517253768213
1592251576.0468674,-0.20184691524661158,9.82441763680333,0.49,-0.4477777777777778,-0.6488888888888888,-0.056666666666666664,-0.005327101972178013,0.0070223343557742415,-0.037872336826525486
1592251576.0568674,-0.3633459541324102,9.838773258329727,0.49,-0.43900451944805036,-0.6518133083321314,-0.04740600509639886,-0.01659363195628182,0.048649471643123256,-0.06705977818795256
1592251576.0668674,-0.47828958243142194,9.851184226061632,0.48644732181510486,-0.42777777777777776,-0.6555555555555556,-0.035555555555555556,-0.02945243112740431,0.06763150851478027,-0.08726646259971647
1592251576.0768673,-0.5669142841403625,9.876148570484217,0.40617143171927506,-0.42777777777777776,-0.6555555555555556,-0.035555555555555556,-0.03473703846065375,0.06175972258894755,-0.09020235556263283
1592251576.0868673,-0.5680258205512161,9.884007041968514,0.3729847424015541,-0.42777777777777776,-0.6555555555555556,-0.035555555555555556,-0.041666919306155854,0.05650529058651721,-0.09315643671879574
1592251576.0968673,-0.30073971284783896,9.826354721728833,0.5191622261693309,-0.42777777777777776,-0.6555555555555556,-0.035555555555555556,-0.07201622523249268,0.05056515737586906,-0.09390283424302158
1592251576.1068673,-0.19021788836583725,9.830217888365837,0.5904357767316745,-0.4364819049042317,-0.6532849136964806,-0.04766564547062194,-0.09283945618050032,0.050320823596798854,-0.0891003591929841
1592251576.1168673,-0.20877159595507294,9.848771595955073,0.63,-0.4533333333333333,-0.6488888888888888,-0.07111111111111111,-0.10456691099904802,0.0644071691885116,-0.09060595399448333
1592251576.1268673,-0.1653153576994325,9.879369284601134,0.5263245023376165,-0.4533333333333333,-0.6488888888888888,-0.07111111111111111,-0.12967126236266296,0.09419862181836584,-0.08516736148737275
1592251576.1368673,-0.13012914691943128,9.94206437598736,0.42877409162717217,-0.4533333333333333,-0.6488888888888888,-0.07111111111111111,-0.1439474000589781,0.10965309333981978,-0.0804540261868176
1592251576.1468673,0.003290428913393241,10.059032296040497,0.5456775104971943,-0.4533333333333333,-0.6488888888888888,-0.07111111111111111,-0.17971966868542483,0.13946448985979285,-0.11260192036573627
1592251576.1568673,0.20373716707464107,10.112747433414928,0.6579123890248804,-0.45122708949861773,-0.6535226253252632,-0.07616609631442849,-0.20228923023454007,0.16527295909249307,-0.1611314606724329
1592251576.1668673,0.3863199300699301,10.162880244755245,0.7089597902097902,-0.4477777777777778,-0.6611111111111111,-0.08444444444444445,-0.2145053417425608,0.1910350781166313,-0.20367569959902632
1592251576.1768672,0.37906631737805746,10.27546684131097,0.5709336826219426,-0.4477777777777778,-0.6611111111111111,-0.08444444444444445,-0.23412122233869925,0.23897903637267845,-0.3224829574419719
1592251576.1868672,0.3928888303981623,10.242888830398163,0.5685186160030627,-0.4477777777777778,-0.6611111111111111,-0.08444444444444445,-0.2637952594160707,0.2778064003215303,-0.4223698512520373
1592251576.1968672,0.3792283206625873,10.230350763335188,0.5908418320044502,-0.4477777777777778,-0.6611111111111111,-0.08444444444444445,-0.2762021095687717,0.29589063093578305,-0.46100400747387743
1592251576.2068672,0.2805199957113756,10.28701333047425,0.7380533218970016,-0.43647852312481883,-0.6611111111111111,-0.07976889079494419,-0.3171772266254166,0.3459780675416545,-0.5961055542726831
1592251576.2168672,0.30004682779456193,10.299918051359517,0.7901990181268883,-0.41555555555555557,-0.6611111111111111,-0.07111111111111111,-0.3348965434963635,0.3665574538186476,-0.6699246210821723
1592251576.2268672,0.29504816061274225,10.234495183938726,0.9779807357549031,-0.41555555555555557,-0.6611111111111111,-0.07111111111111111,-0.3397990422555343,0.4110124304257326,-0.8650155818070551
1592251576.2368672,0.2510329754785407,10.179318634868027,1.1158462425246776,-0.41555555555555557,-0.6611111111111111,-0.07111111111111111,-0.3229626210968468,0.43023804888342615,-1.0303340937809395
1592251576.2468672,0.26,10.13,1.21,-0.41555555555555557,-0.6611111111111111,-0.07111111111111111,-0.3141592653589793,0.4341506514335895,-1.1017390903214204
1592251576.2568672,-0.06286100473079523,10.042446496958775,1.183061500337914,-0.4192973893018948,-0.6631521113363871,-0.07111111111111111,-0.2603512540300006,0.44866540948696537,-1.311538852402853
1592251576.2668672,-0.16,9.98,1.19,-0.42777777777777776,-0.6677777777777778,-0.07111111111111111,-0.23234695667174513,0.4494222823885398,-1.413716694115407
1592251576.2768672,-0.5559995453382968,9.676363843028048,1.1476366116336563,-0.42777777777777776,-0.6677777777777778,-0.07111111111111111,-0.1779839937777189,0.4178874124898902,-1.5779162829366806
1592251576.2868671,-0.7596799538672241,9.561568033830701,1.0640640092265552,-0.42777777777777776,-0.6677777777777778,-0.07111111111111111,-0.13564002056101082,0.3810769466227134,-1.6667178563550582
1592251576.2968671,-0.83,9.51,1.05,-0.42777777777777776,-0.6677777777777778,-0.07111111111111111,-0.11671889372712078,0.3621558197888234,-1.698423528346982
1592251576.3068671,-1.1543970043236567,9.452351760345893,0.9197135577516986,-0.4113087639832544,-0.6760122846750395,-0.07522836455974195,-0.06684627374018132,0.301278964223579,-1.7697915449748602
1592251576.316867,-1.5,9.48,0.74,-0.37444444444444447,-0.6944444444444444,-0.08444444444444445,-0.04799655442984406,0.2748893571891069,-1.7976891295541593
1592251576.326867,-1.8630786885245902,9.507344262295081,0.6342655737704919,-0.37444444444444447,-0.6944444444444444,-0.08444444444444445,-0.06041485817733322,0.20287270892869086,-1.8752060685044156
1592251576.336867,-1.8,9.45,0.64,-0.37444444444444447,-0.6944444444444444,-0.08444444444444445,-0.074176493209759,0.16471544815696484,-1.9002272231088262
1592251576.346867,-1.983015512906984,9.140995769207187,0.8699858973572874,-0.37444444444444447,-0.6944444444444444,-0.08444444444444445,-0.0994843827075482,0.07624030304633456,-1.9116771004258426
1592251576.356867,-2.0858837808567054,9.134379878253725,0.8287597565074505,-0.3555908262895603,-0.7056287941973418,-0.08700086724510671,-0.10442041521639264,0.025823077381899144,-1.8794151559992704
1592251576.366867,-2.15,9.17,0.9,-0.3088888888888889,-0.7333333333333333,-0.09333333333333334,-0.1090830782496456,0.008726646259971648,-1.8467765147664998
1592251576.376867,-2.3565709131658785,9.296570913165878,0.4991630907152814,-0.3088888888888889,-0.7333333333333333,-0.09333333333333334,-0.15312170015681256,0.01954637458252286,-1.83867806443916
1592251576.386867,-2.5741368782903433,9.347459313925816,0.3478501887064593,-0.3088888888888889,-0.7333333333333333,-0.09333333333333334,-0.22770827081556405,0.06919492162767292,-1.8730221934144817
1592251576.396867,-2.88,9.48,0.46,-0.3088888888888889,-0.7333333333333333,-0.09333333333333334,-0.27052603405912107,0.10144726277217041,-1.8980455615438332
1592251576.406867,-3.0412887936364013,9.123562626220995,0.5201001524955694,-0.2920129873103537,-0.7370517523252139,-0.09333333333333334,-0.3856791542354854,0.15160398855087445,-1.9986398245865264
1592251576.416867,-3.42,8.73,0.78,-0.24333333333333335,-0.7477777777777778,-0.09333333333333334,-0.44724062082354693,0.17671458676442586,-2.0496710403108405
1592251576.426867,-4.117263921857521,8.577575236692041,0.7745278437150418,-0.24333333333333335,-0.7477777777777778,-0.09333333333333334,-0.5179842605427075,0.19966768909765495,-2.0633579293530246
1592251576.436867,-4.155394157663065,8.213401360544218,0.9382993197278912,-0.24333333333333335,-0.7477777777777778,-0.09333333333333334,-0.5449854319361995,0.18083346602158334,-2.0304206488186933
1592251576.446867,-4.301679392017573,8.043482612623784,0.9861815089727011,-0.24333333333333335,-0.7477777777777778,-0.09333333333333334,-0.5505018639387477,0.173773136988726,-1.9748215437943444
1592251576.456867,-4.629868257422664,8.064729131043059,0.9122986942328618,-0.22713029172495985,-0.7534390814722697,-0.08942898595782166,-0.554186761061578,0.16511312745008622,-1.9072129997545433
1592251576.466867,-4.77,8.04,0.97,-0.1511111111111111,-0.78,-0.07111111111111111,-0.5748678223756323,0.15162547876700738,-1.8478673455489965
1592251576.476867,-5.012405009212037,8.213670128968518,1.0220250460601854,-0.1511111111111111,-0.78,-0.07111111111111111,-0.6341318190607146,0.12429936813261544,-1.788686243964365
1592251576.486867,-4.936839516887249,7.922701959933463,1.1539929124177333,-0.1511111111111111,-0.78,-0.07111111111111111,-0.673067601360236,0.09434435840598208,-1.7458121459857712
1592251576.496867,-4.86,7.78,1.39,-0.1511111111111111,-0.78,-0.07111111111111111,-0.6850417314077744,0.08835729338221293,-1.7158768208669253
1592251576.506867,-5.473911888824214,8.013306897555298,1.6408869324796276,-0.14017033695511577,-0.7770161525029103,-0.07774188332686587,-0.687940361822715,0.07061375288703757,-1.6384323195893051
1592251576.516867,-5.04,7.69,1.76,-0.07777777777777778,-0.76,-0.11555555555555555,-0.6795875774952921,0.031634092692397225,-1.576250480707379
1592251576.526867,-5.556966292134832,7.767633840052875,1.9159352280237938,-0.07777777777777778,-0.76,-0.11555555555555555,-0.6180929834686876,0.01693491358232601,-1.4427214015706828
1592251576.536867,-5.92,7.91,1.98,-0.07777777777777778,-0.76,-0.11555555555555555,-0.5901394533305827,0.002181661564992912,-1.3580843242080878
1592251576.546867,-5.8843860536607195,7.7133402727785665,1.9403017685857151,-0.07777777777777778,-0.76,-0.11555555555555555,-0.5308724947670367,-0.04414459338078649,-1.1899363363286737
1592251576.556867,-6.092819227144204,7.515771159283695,1.9728524033930255,-0.0711221698607184,-0.7628524033930255,-0.11682329039690019,-0.49181453688566057,-0.07338776395141783,-1.0424073132936393
1592251576.5668669,-6.23,7.31,1.99,-0.03111111111111111,-0.78,-0.12444444444444444,-0.47123889803846897,-0.10799224746714915,-0.8955720724295902
1592251576.5768669,-6.616371333534926,7.458158451768975,1.9876897490172363,-0.03111111111111111,-0.78,-0.12444444444444444,-0.44236338346340404,-0.15445497572868097,-0.7093471037114487
1592251576.5868669,-6.0031153781289905,6.985276218469174,2.3562307562579807,-0.03111111111111111,-0.78,-0.12444444444444444,-0.42312182056507736,-0.20851306489890553,-0.581730908012412
1592251576.5968668,-6.07,7.04,2.49,-0.03111111111111111,-0.78,-0.12444444444444444,-0.39924406639370286,-0.22907446432425577,-0.5246896063807953
1592251576.6068668,-6.004881628280664,7.387326191751473,2.3830251740760575,-0.025064095697196927,-0.775929893471404,-0.1258399095399631,-0.3700449744346384,-0.22454614354404118,-0.48618053369296194
1592251576.6168668,-5.79,7.45,2.58,0.02666666666666667,-0.7411111111111112,-0.13777777777777778,-0.33488505022641196,-0.21380283336930533,-0.46469391334349025
1592251576.6268668,-5.7152003902121775,7.64266753380484,2.34,0.02666666666666667,-0.7411111111111112,-0.13777777777777778,-0.29529513192047185,-0.14700020017555546,-0.4825544753678434
1592251576.6368668,-5.84,7.92,2.34,0.02666666666666667,-0.7411111111111112,-0.13777777777777778,-0.284706834231575,-0.09708393964218458,-0.4908738521234052
1592251576.6468668,-5.289729442553275,7.489085614214597,2.589919521457665,0.02666666666666667,-0.7411111111111112,-0.13777777777777778,-0.282750997240334,-0.03289807496585999,-0.5146375259174444
1592251576.6568668,-6.008978054639469,7.657996009934449,2.555069826147144,0.02878198951363725,-0.7423357717067257,-0.1386684400291338,-0.26572115563254395,0.029784685721429636,-0.5187938971717216
1592251576.6668668,-5.91,7.64,2.87,0.04777777777777778,-0.7533333333333333,-0.14666666666666667,-0.24216443371421323,0.05235987755982988,-0.495237175253391
1592251576.6768668,-5.8530474176197185,7.538668076661967,2.7957112642957855,0.04777777777777778,-0.7533333333333333,-0.14666666666666667,-0.17560398898200638,0.07584848518307633,-0.4182879757878567
1592251576.6868668,-5.86368483098761,7.482630338024781,2.8005095633345363,0.04777777777777778,-0.7533333333333333,-0.14666666666666667,-0.1166000085245535,0.10954447355788738,-0.3647368621513149
1592251576.6968668,-5.87,7.47,2.63,0.04777777777777778,-0.7533333333333333,-0.14666666666666667,-0.07526732399225547,0.1308996938995747,-0.3392483733563978
1592251576.7068667,-6.08513068013068,7.298973863973864,2.4279573804573804,0.04831934956934957,-0.7532478219978219,-0.1470372157872158,-0.003999010918843185,0.1779173516233561,-0.3154179972561264
1592251576.7168667,-6.28,7.26,3.11,0.06888888888888889,-0.75,-0.16111111111111112,0.05126904677733343,0.18216874067690814,-0.3217950808364545
1592251576.7268667,-5.79973107027151,7.026971816852547,2.3595358238481605,0.06888888888888889,-0.75,-0.16111111111111112,0.14750587949057226,0.19396675159257082,-0.35348643753191233
1592251576.7368667,-6.947899842684846,7.159040377556371,2.7557524908232827,0.06888888888888889,-0.75,-0.16111111111111112,0.19929827324777277,0.21225868145669438,-0.40064378476012596
1592251576.7468667,-7.11,6.77,2.25,0.06888888888888889,-0.75,-0.16111111111111112,0.20071286397934787,0.1832595714594046,-0.4374231437810788
1592251576.7568667,-5.712934986700047,7.250501095290252,2.301718040995149,0.06907978233279438,-0.7499443227455276,-0.16112701889810324,0.20692988257378417,0.16811287997132754,-0.5218153585839647
1592251576.7668667,-6.12,7.32,2.54,0.09555555555555556,-0.7422222222222222,-0.16333333333333333,0.16144295580947549,0.1854412330243975,-0.5770494839406253
1592251576.7768667,-6.477686124617071,7.260688569742278,2.518622860515444,0.09555555555555556,-0.7422222222222222,-0.16333333333333333,0.1182324325512423,0.1721058489351937,-0.5991115142898006
1592251576.7868667,-6.292065795839381,7.401140783744557,2.3371223996129658,0.09555555555555556,-0.7422222222222222,-0.16333333333333333,0.11474463249958367,0.17072678597857135,-0.5742568093712905
1592251576.7968667,-6.330105157196527,7.34,2.455753626575111,0.09555555555555556,-0.7422222222222222,-0.16333333333333333,0.11069447087021285,0.1606238768167117,-0.5086715452808306
1592251576.8068666,-6.2398120672601385,7.340313221233102,1.8129442795911639,0.09576436971095725,-0.7422222222222222,-0.16333333333333333,0.132209194354263,0.16159329120910737,-0.4470014508695871
1592251576.8168666,-6.21,7.39,2.28,0.1288888888888889,-0.7422222222222222,-0.16333333333333333,0.16689710972195776,0.1854412330243975,-0.409061543436171
1592251576.8268666,-6.377201947833875,7.049047352513153,2.148184540467928,0.1288888888888889,-0.7422222222222222,-0.16333333333333333,0.2072513156566547,0.18494777649332528,-0.4014224614498598
1592251576.8368666,-6.59,7.18,2.14,0.1288888888888889,-0.7422222222222222,-0.16333333333333333,0.22689280275926282,0.1778054175469223,-0.4112432050011639
1592251576.8468666,-6.50045890929371,6.896783850535793,1.9700703103214754,0.1288888888888889,-0.7422222222222222,-0.16333333333333333,0.24188304604213995,0.19000883434856394,-0.44170935743317197
1592251576.8568666,-6.784501055650719,7.27272198542007,2.1956331912520417,0.1288888888888889,-0.7422222222222222,-0.16333333333333333,0.2464395448182074,0.19729923239027192,-0.4535562542509474
1592251576.8668666,-6.44,7.12,2.11,0.15555555555555556,-0.7511111111111111,-0.15444444444444444,0.24870941840919195,0.20289452554434081,-0.4494222823885398
1592251576.8768666,-6.63,6.85976483827221,2.194647257408316,0.15555555555555556,-0.7511111111111111,-0.15444444444444444,0.26911960295760995,0.22606038213126028,-0.41600497077983895
1592251576.8868666,-6.688075866390322,6.73678724634887,1.9187113799585482,0.15555555555555556,-0.7511111111111111,-0.15444444444444444,0.29927563198244667,0.234528618236738,-0.37109235646590233
1592251576.8968666,-6.83,6.9,1.94,0.15555555555555556,-0.7511111111111111,-0.15444444444444444,0.3108867730114899,0.234528618236738,-0.3556108350938446
1592251576.9068666,-6.6563224364185345,6.698899663221461,1.94,0.15555555555555556,-0.7511111111111111,-0.15444444444444444,0.3118838931829828,0.2305401375507665,-0.3586021956083233
1592251576.9168665,-7.28,7.21,2.1,0.19333333333333333,-0.7644444444444445,-0.14666666666666667,0.3239767424014474,0.2301652951067522,-0.37960911230876665
1592251576.9268665,-7.351223052113393,6.837887172523058,1.7352820686923556,0.19333333333333333,-0.7644444444444445,-0.14666666666666667,0.3145318254564811,0.19987935643185556,-0.36524203208756184
1592251576.9368665,-6.873713453086184,6.716456143703421,2.0278888782725013,0.19333333333333333,-0.7644444444444445,-0.14666666666666667,0.30743949342701926,0.17000820789147122,-0.3750710019417995
1592251576.9468665,-6.86911735063741,6.700720158424244,1.89,0.19333333333333333,-0.7644444444444445,-0.14666666666666667,0.3196374897988332,0.13714948675046504,-0.3848162154319037
1592251576.9568665,-6.720796187916615,6.485654472479092,1.89,0.19333333333333333,-0.7644444444444445,-0.14666666666666667,0.3236823220486209,0.12420602355114432,-0.37996241673215847
1592251576.9668665,-7.11,6.71,1.46,0.18777777777777777,-0.7655555555555555,-0.13444444444444445,0.3687008044838021,0.1287180323345818,-0.3501566811813624
1592251576.9768665,-6.863838532110092,6.614071700776288,1.7051539872971067,0.18777777777777777,-0.7655555555555555,-0.13444444444444445,0.38765092930684075,0.15700788572894014,-0.35678613020482064
1592251576.9868665,-7.20496245832034,6.951242353731379,1.3418430206059442,0.18777777777777777,-0.7655555555555555,-0.13444444444444445,0.40763043478538025,0.1939176949796351,-0.3225456337506567
1592251576.9968665,-7.19,6.45,1.08,0.18777777777777777,-0.7655555555555555,-0.13444444444444445,0.38069994309126315,0.20289452554434081,-0.29561514205653955
1592251577.0068665,-7.292990249829594,6.484330083276531,1.08,0.18777777777777777,-0.7655555555555555,-0.13444444444444445,0.3853809820417265,0.21693764239573105,-0.28625306415561275
1592251577.0168664,-7.57,6.7,1.43,0.21444444444444444,-0.7655555555555555,-0.12777777777777777,0.3763366199612773,0.2083486794568231,-0.27052603405912107
1592251577.0268664,-7.482300581234432,6.334298920564628,0.9767002491004705,0.21444444444444444,-0.7655555555555555,-0.12777777777777777,0.3683518473239877,0.18378346007656152,-0.24363719113381402
1592251577.0368664,-7.42,6.45,0.95,0.21444444444444444,-0.7655555555555555,-0.12777777777777777,0.3567016658763411,0.15271630954950383,-0.22907446432425577
1592251577.0468664,-7.6179229005132685,6.71630337446762,1.2774653270721852,0.21444444444444444,-0.7655555555555555,-0.12777777777777777,0.333871055291323,0.09133030461283038,-0.20342844533981413
1592251577.0568664,-7.442808563550846,6.470387630426556,1.033595718224577,0.2154654508538922,-0.7661326461348087,-0.12720068719852468,0.32550468394568166,0.037265166772879145,-0.1890649708787555
1592251577.0668664,-7.287581507547686,6.726393275471885,1.1024184924523142,0.24,-0.78,-0.11333333333333333,0.30596025230185153,-0.012477453704249892,-0.13950130872345856
1592251577.0768664,-7.321059044500096,6.730529522250048,1.006070602966673,0.24,-0.78,-0.11333333333333333,0.2797968348772269,-0.01858263124713104,-0.10974527830808173
1592251577.0868664,-7.08,6.61,0.99,0.24,-0.78,-0.11333333333333333,0.2552544031041707,-0.009817477042468103,-0.10799224746714915
1592251577.0968664,-7.280741962891976,6.502967851567903,0.915226738327175,0.24,-0.78,-0.11333333333333333,0.20927043998189687,0.03410082861035696,-0.08811448659360177
1592251577.1068664,-7.289029619237685,6.53611847695074,1.1970070540812898,0.24,-0.78,-0.11333333333333333,0.15864402830464708,0.049469560726664946,-0.08540235739660625
1592251577.1168664,-7.45,6.57,1.19,0.24444444444444444,-0.7866666666666666,-0.08666666666666667,0.1090830782496456,0.10253809355466686,-0.06763150851478027
1592251577.1268663,-7.296270975761343,6.48408328154133,1.4837290242386576,0.24444444444444444,-0.7866666666666666,-0.08666666666666667,0.047193176880273954,0.120068673028746,-0.042181050108989745
1592251577.1368663,-7.444970117140808,6.393491035142243,1.2946746354291179,0.24444444444444444,-0.7866666666666666,-0.08666666666666667,0.0016136107178707434,0.14635204341351865,-0.025599031619721515
1592251577.1468663,-7.258143635138335,6.325672549769594,1.3387279383640238,0.24444444444444444,-0.7866666666666666,-0.08666666666666667,-0.03877395497983405,0.13930101616572824,-0.032106144284502085
1592251577.1568663,-7.5713620385042715,6.356230442780904,1.224135839571608,0.24444444444444444,-0.7866666666666666,-0.08666666666666667,-0.059607386445441043,0.1493010632692196,-0.028772795250004965
1592251577.1668663,-7.33,6.31,1.51,0.2577777777777778,-0.7944444444444444,-0.06333333333333334,-0.07963064712224129,0.11344640137963141,-0.04145156973486533
1592251577.1768663,-7.5754000989935655,5.858762580432272,1.2318874773139745,0.2577777777777778,-0.7944444444444444,-0.06333333333333334,-0.06832963301656278,0.10577513075215592,-0.05890486225480862
1592251577.1868663,-8.02,6.22,1.13,0.2577777777777778,-0.7944444444444444,-0.06333333333333334,-0.03599741582238304,0.0916297857297023,-0.05890486225480862
1592251577.1968663,-7.631247607299332,5.847498404866221,1.5062486707218512,0.2577777777777778,-0.7944444444444444,-0.06333333333333334,0.0070214256526831735,0.019226443548158854,-0.07499467429733228
1592251577.2068663,-7.791818877876557,5.954545918584372,1.5954549321536433,0.2577777777777778,-0.7944444444444444,-0.06333333333333334,0.060541340431357026,-0.017750952117106717,-0.07110231685888327
1592251577.2168663,-7.58,5.95,1.2,0.2577777777777778,-0.8133333333333334,-0.06555555555555556,0.11780972450961724,-0.07635815477475191,-0.061086523819801536
1592251577.2268662,-7.916977719945827,6.147936107496615,1.4196805374830708,0.2577777777777778,-0.8133333333333334,-0.06555555555555556,0.17740340597936552,-0.12433327322246655,-0.051909606064938496
1592251577.2368662,-7.274224280278555,6.090621485150884,1.2106214851508843,0.2577777777777778,-0.8133333333333334,-0.06555555555555556,0.23715732020066488,-0.14187579523788416,-0.04282020512614746
1592251577.2468662,-7.07,5.98,1.1,0.2577777777777778,-0.8133333333333334,-0.06555555555555556,0.27707101875409984,-0.12980886311707826,-0.038179077387375956
1592251577.2568662,-7.811815297849842,6.389277405710257,0.9550475854776173,0.2577777777777778,-0.8133333333333334,-0.06555555555555556,0.30497429329966474,-0.14190028208682307,-0.021437112660036978
1592251577.2668662,-7.14,5.93,1.11,0.24888888888888888,-0.7944444444444444,-0.05333333333333334,0.31852258848896514,-0.15598880189699318,-0.02181661564992912
1592251577.2768662,-7.349899359560842,5.957378177334022,1.0826218226659772,0.24888888888888888,-0.7944444444444444,-0.05333333333333334,0.3205135857292717,-0.13906532535438718,-0.009870632208089576
1592251577.2868662,-7.845638581038571,6.299042733388181,0.886914775202052,0.24888888888888888,-0.7944444444444444,-0.05333333333333334,0.2806104249299927,-0.18736759489117852,-0.04374926701877259
1592251577.2968662,-7.36,5.99,1.09,0.24888888888888888,-0.7944444444444444,-0.05333333333333334,0.26616271092913524,-0.1854412330243975,-0.061086523819801536
1592251577.3068662,-7.98940021420921,6.451560157086755,0.9892959657265262,0.24888888888888888,-0.7944444444444444,-0.05333333333333334,0.23229196727278453,-0.19093378604975167,-0.037285460709933486
1592251577.3168662,-7.7,6.71,1.07,0.25555555555555554,-0.7944444444444444,-0.03111111111111111,0.17562375598192942,-0.222529479629277,-0.019634954084936207
1592251577.3268661,-7.568150919090324,6.350138235148393,0.8313709557548431,0.25555555555555554,-0.7944444444444444,-0.03111111111111111,0.1338661720821483,-0.1872194877142701,0.058792390429095134
1592251577.3368661,-7.54,6.2,0.7,0.25555555555555554,-0.7944444444444444,-0.03111111111111111,0.09599310885968812,-0.1810779098944117,0.10690141668465267
1592251577.3468661,-7.559252536038441,6.219252536038441,0.9117778964228511,0.25555555555555554,-0.7944444444444444,-0.03111111111111111,0.08234229054098315,-0.18002784694681898,0.10585135373705999
1592251577.3568661,-7.427952291880368,6.236505963514954,1.0107827993322474,0.25555555555555554,-0.7944444444444444,-0.03111111111111111,0.08001178737754668,-0.18358812173129027,0.0842043301859059
1592251577.366866,-7.57,6.35,1.23,0.25555555555555554,-0.8222222222222222,-0.03111111111111111,0.08726646259971647,-0.19525871006686563,0.0545415391248228
1592251577.376866,-7.435425885177035,6.223836767353471,1.1963564712942587,0.25555555555555554,-0.8222222222222222,-0.03111111111111111,0.10469867605312864,-0.1860838608808592,0.04628417485741704
1592251577.386866,-7.40720477190474,6.3058813279120685,1.0966913900183193,0.25555555555555554,-0.8222222222222222,-0.03111111111111111,0.12274241832014118,-0.17605685201576451,0.06536148288166413
1592251577.396866,-7.649449873047627,6.529257328614296,1.0500550126952375,0.25555555555555554,-0.8222222222222222,-0.03111111111111111,0.14624333630419672,-0.18211473208965442,0.09498029048100258
1592251577.406866,-7.488093406170655,6.311426098330384,1.0661906593829347,0.25555555555555554,-0.8222222222222222,-0.03111111111111111,0.16736484842710916,-0.1662735979974701,0.11786192861415773
1592251577.416866,-7.5499068948163055,6.380961248112732,0.9628837443381982,0.25555555555555554,-0.8155555555555556,-0.0044444444444444444,0.19755538373499543,-0.14113659455443703,0.14111628215436034
1592251577.426866,-7.350076470315614,6.399617648421931,1.0188529452657924,0.25555555555555554,-0.8155555555555556,-0.0044444444444444444,0.22164718928232757,-0.14932703455810814,0.10570214487567178
1592251577.436866,-7.359795847430134,6.35102076284933,0.873062288547991,0.25555555555555554,-0.8155555555555556,-0.0044444444444444444,0.24815267864035281,-0.13448396051761402,0.09191929040949866
1592251577.446866,-7.616317103620474,6.419274892870399,0.8561450214259203,0.25555555555555554,-0.8155555555555556,-0.0044444444444444444,0.2509764339771072,-0.12434845211943135,0.08180605160206955
1592251577.456866,-7.560296847422555,6.417503651634107,0.9186034021057756,0.25555555555555554,-0.8207710188735385,0.0035793452755293184,0.23071310048693416,-0.12511165521362336,0.07154098270454082
1592251577.466866,-7.260357555839572,6.360068468139493,1.0398554561499604,0.25555555555555554,-0.8299890112862542,0.017760872064322857,0.19312186079437985,-0.13416139810257163,0.0610989716788313
1592251577.476866,-7.4100129806185935,6.791287319278457,1.1431339241752831,0.25555555555555554,-0.83,0.017777777777777778,0.13784896125330062,-0.13826315567288425,0.0948370215828178
1592251577.486866,-7.316706158864159,6.491337778204144,1.0467061588641597,0.25555555555555554,-0.83,0.017777777777777778,0.08398010464606051,-0.09346506875574057,0.12371647273659464
1592251577.496866,-7.45786622212961,6.546799333194415,1.0721337778703897,0.2546961172466486,-0.830148179018777,0.017333240721446597,0.0657407957727912,-0.06143520779987021,0.14295702227163648
1592251577.506866,-7.416737065319981,6.485105597979971,1.1132629346800191,0.23813020686499228,-0.8330043704638902,0.008764666386107128,0.07134891456104964,-0.026104059433842024,0.1440786460292882
1592251577.516866,-7.38,6.43,1.15,0.22333333333333333,-0.8355555555555556,0.0011111111111111111,0.07635815477475191,0.00545415391248228,0.14508049407202864
1592251577.526866,-7.513071161048689,6.444007490636704,1.1289887640449439,0.22333333333333333,-0.8355555555555556,0.0011111111111111111,0.09851386763422114,0.004690163813879893,0.14584448417063103
1592251577.536866,-7.55096536351166,6.51662122770919,1.024826817558299,0.22333333333333333,-0.8355555555555556,0.0011111111111111111,0.16509205785870637,-0.02574384962192618,0.15136221670830302
1592251577.546866,-7.470310806463586,6.3805439113112765,0.6912820766622949,0.22333333333333333,-0.8355555555555556,0.0011111111111111111,0.2255773597934214,-0.06530151814946522,0.1798768920031045
1592251577.556866,-7.3780929495991465,6.232948719358634,0.7681209928407253,0.22333333333333333,-0.8355555555555556,0.0011111111111111111,0.240840227932622,-0.068958773339487,0.19502533506777084
1592251577.566866,-7.285840582419636,6.085344931871418,0.8465355049433086,0.22333333333333333,-0.8355555555555556,0.0011111111111111111,0.25593498621425825,-0.07248088360520213,0.21012009334940707
1592251577.576866,-7.393738458587907,6.602545549193128,0.574449710950985,0.21698777135446634,-0.8228644315978215,0.033896514668590616,0.2398376727369345,-0.126038460118985,0.1369168215770885
1592251577.586866,-6.783482628922103,6.580280857171138,1.2361803424725328,0.21666666666666667,-0.8222222222222222,0.035555555555555556,0.21285905905773436,-0.11027807403238093,0.08318499770567117
1592251577.596866,-7.309649698171006,6.27,0.4909195423011082,0.21666666666666667,-0.8222222222222222,0.035555555555555556,0.16677769721626057,-0.04677198164096675,0.05666110618685316
1592251577.606866,-7.249185872601135,6.27,0.64963708442202,0.21666666666666667,-0.8222222222222222,0.035555555555555556,0.14616650904153813,-0.02368745088527762,0.045943288335997506
1592251577.6168659,-7.568698858892291,6.220191344280545,1.0386988588922907,0.20227749945882426,-0.8155810681262949,0.051051581779385846,0.0929001193510941,-0.022882399524672734,0.002336117496135437
1592251577.6268659,-7.297796401005206,6.492203598994794,1.0681589929994615,0.20222222222222222,-0.8155555555555556,0.051111111111111114,0.09374450639112926,-0.013692437522051132,0.005253331201784393
1592251577.6368659,-7.004656015650473,6.2641571568307794,0.9519954352787741,0.20222222222222222,-0.8155555555555556,0.051111111111111114,0.08952068023892826,-0.02918034584908355,0.03763490683073443
1592251577.6468658,-7.825676807144851,6.500022327658387,1.1420178621267094,0.20222222222222222,-0.8155555555555556,0.051111111111111114,0.09782648395658838,-0.08495906474860271,0.06855063163293734
1592251577.6568658,-7.176363598681893,6.4016186193032265,1.1916851464218357,0.20222222222222222,-0.8155555555555556,0.051111111111111114,0.150012213039065,-0.05543645397684912,0.09800546343145569
1592251577.6668658,-7.500549490135225,6.502186599423631,1.3033886610507648,0.20222222222222222,-0.834353493928422,0.07826368876080692,0.18393330032526203,-0.05011265370357021,0.1343869790740542
1592251577.6768658,-7.3506884115141,6.160342402452494,1.0858605143926245,0.20222222222222222,-0.8355555555555556,0.08,0.20402310006037944,-0.0413762789777929,0.14613377783099485
1592251577.6868658,-7.528617995191418,6.249533475124838,0.8095686147586463,0.20222222222222222,-0.8355555555555556,0.08,0.21087698795949392,-0.03753475691177062,0.1519721257046853
1592251577.6968658,-7.517390286579022,6.201824458526436,1.0767899366310414,0.20222222222222222,-0.8355555555555556,0.08,0.21719877024826706,-0.01477785282906104,0.17130830436268588
1592251577.7068658,-7.602925578787151,6.4258880076904585,0.9655932067611952,0.20222222222222222,-0.8355555555555556,0.08,0.22674328649964165,-0.00856909055214171,0.17921135974507865
1592251577.7168658,-7.173676623615107,6.613264675276978,1.2137084532043827,0.1796126039732577,-0.8138880047336313,0.09130480912448226,0.2088932268306769,0.0016129098599488526,0.14685762614594272
1592251577.7268658,-7.305580174927114,6.517898309037901,0.812970029154519,0.17555555555555555,-0.81,0.09333333333333334,0.16462841067342154,0.029610579329013592,0.14259846286929453
1592251577.7368658,-7.476595996683643,6.371941253109084,0.885133246476371,0.17555555555555555,-0.81,0.09333333333333334,0.10695064166725735,0.05150987451375098,0.13544867660962065
1592251577.7468657,-7.381239890904779,6.587520218190442,1.0881401636428318,0.17555555555555555,-0.81,0.09333333333333334,0.07319067089746659,0.07397361653487848,0.13694819730564348
1592251577.7568657,-7.555880419594183,6.602017082915117,0.9590982267619217,0.17555555555555555,-0.81,0.09333333333333334,0.040487059007557884,0.08508014239230752,0.15728568636570722
1592251577.7668657,-7.142451263283834,5.951635583081146,0.8618368639594624,0.17555555555555555,-0.8047846044369374,0.11419491558558346,0.03245776244152837,0.07402072604404113,0.17399860313270232
1592251577.7768657,-6.888018031784841,6.229915189486553,0.9057021699266504,0.17555555555555555,-0.8044444444444444,0.11555555555555555,0.04411997119669345,0.052432138431500463,0.17809387761249537
1592251577.7868657,-7.551231525762612,6.772860500932156,0.8145907973305234,0.17555555555555555,-0.8044444444444444,0.11555555555555555,0.059862209137547535,-0.005999996664416418,0.18386067636899944
1592251577.7968657,-6.792113651949772,6.167648922836806,0.7731910516234304,0.17555555555555555,-0.8044444444444444,0.11555555555555555,0.07180933340282573,-0.006150333380356907,0.15900557959111658
1592251577.8068657,-7.5832266164469555,6.372071563088513,0.8640238543628375,0.17555555555555555,-0.8044444444444444,0.11555555555555555,0.05684634427783765,-0.00459945295724939,0.13376657706093806
1592251577.8168657,-7.55,6.66,1.12,0.1688888888888889,-0.7911111111111111,0.1511111111111111,0.0545415391248228,0.00545415391248228,0.06872233929727672
1592251577.8268657,-7.109654248843438,6.54257446635825,0.8778098368638909,0.1688888888888889,-0.7911111111111111,0.1511111111111111,0.0329261176111832,0.026269004258950037,0.0334972079417159
1592251577.8368657,-7.424508070523963,6.376979389123417,0.8954462378942141,0.1688888888888889,-0.7911111111111111,0.1511111111111111,-0.022837559583186912,0.041484021070287,-0.033910616174457495
1592251577.8468657,-7.419825790569968,6.544207299753835,0.6643902669948873,0.1688888888888889,-0.7911111111111111,0.1511111111111111,-0.030409283474699716,0.047326662253838796,-0.06058861668077338
1592251577.8568656,-7.73081318636705,6.517774597568154,0.5628530540161988,0.1688888888888889,-0.7911111111111111,0.1511111111111111,-0.02810173005557553,0.04148580281831009,-0.09012503578237208
1592251577.8668656,-7.279549462460087,6.1206180976652895,0.729690951167355,0.16218264314054806,-0.7911111111111111,0.16452360260779278,0.003767339741746041,0.02328057913439737,-0.09644395490679954
1592251577.8768656,-7.6366634657704155,6.245626375385108,0.6787884607690153,0.16111111111111112,-0.7911111111111111,0.16666666666666666,0.011257733313888123,0.008070349597850284,-0.09662588062316724
1592251577.8868656,-7.738631145765649,6.371485813298679,0.5689148797920728,0.16111111111111112,-0.7911111111111111,0.16666666666666666,0.04002382652095454,-0.02895344160766584,-0.08779640270046145
1592251577.8968656,-7.493241327157576,6.318310331789394,0.5686149447017677,0.16111111111111112,-0.7911111111111111,0.16666666666666666,0.06163946644870192,-0.007502903020849997,-0.06174226995471846
1592251577.9068656,-7.507475423394297,6.31,0.7259906768669762,0.16111111111111112,-0.7911111111111111,0.16666666666666666,0.05548113275291062,-0.012890199379734674,-0.04227773549714667
1592251577.9168656,-7.694196183483812,6.621972748619242,0.7753705724774284,0.16111111111111112,-0.7701304876659575,0.17213987278279372,0.045895739237956104,-0.01655774126338041,-0.021473316191443277
1592251577.9268656,-7.619316440570746,6.430134251774795,0.6400671258873972,0.16111111111111112,-0.7655555555555555,0.17333333333333334,0.03422518958307588,-0.04733413561031935,-0.022743672302151276
1592251577.9368656,-7.798260821857684,6.373695616393263,0.7684347396719153,0.16111111111111112,-0.7655555555555555,0.17333333333333334,0.023720826646663206,-0.1018693634749162,-0.005309503777995314
1592251577.9468656,-7.461008227057354,6.604032201032508,0.9447177105678791,0.16111111111111112,-0.7655555555555555,0.17333333333333334,0.03407966119783852,-0.11496388557301354,0.015623506875548235
1592251577.9568655,-7.912312946884576,6.321164453524004,1.0179551838610827,0.16111111111111112,-0.7655555555555555,0.17333333333333334,0.03634094673722312,-0.13614869028618654,0.02411875329087446
1592251577.9668655,-7.528263251862341,6.17,1.0149332019947055,0.16111111111111112,-0.7609135559249455,0.1677629337766012,0.023237052877078203,-0.137788858103283,0.03529448374084697
1592251577.9768655,-7.571571077344727,6.156802224819637,0.9836044496392728,0.16111111111111112,-0.76,0.16666666666666666,0.0173665923344174,-0.14499177146838194,0.029889976891275365
1592251577.9868655,-7.604913780736235,6.03538604998135,0.7166304191891659,0.16111111111111112,-0.76,0.16666666666666666,0.0008005414097694407,-0.15862225074989064,0.018092336014535228
1592251577.9968655,-7.455519409402506,6.32344177179248,0.8927067699671439,0.16111111111111112,-0.76,0.16666666666666666,-0.005808000250356947,-0.1582251974772357,0.03558498594676347
1592251578.0068655,-7.110901334055665,6.52599512426356,1.0976345906412948,0.16111111111111112,-0.76,0.16666666666666666,-0.03195217472323827,-0.16207779022030872,0.07705304508225812
1592251578.0168655,-7.495950873638896,6.635515320334262,1.137460116485186,0.15080470442587435,-0.748756647252469,0.19852283278467123,-0.04915229917382106,-0.14539871059809498,0.08559775944523153
1592251578.0268655,-7.084849617948302,6.464415542188262,1.249855308079987,0.14888888888888888,-0.7466666666666667,0.20444444444444446,-0.055944846551565515,-0.12066368968320129,0.07611448683536806
1592251578.0368655,-6.920579243162233,6.002367928062945,1.0738351442487823,0.14888888888888888,-0.7466666666666667,0.20444444444444446,-0.0738550067003878,-0.06596505912079337,0.062017306144289144
1592251578.0468655,-7.548195065368164,6.229456513859017,0.9041332978903361,0.14888888888888888,-0.7466666666666667,0.20444444444444446,-0.10942879840412328,-0.060962338715131736,0.02090925511334686
1592251578.0568655,-7.68,6.3,0.88,0.14888888888888888,-0.7466666666666667,0.20444444444444446,-0.11671889372712078,-0.062177354602297986,0.011999138607461015
1592251578.0668654,-7.3301936596365564,6.016500862183314,0.9699031701817217,0.14888888888888888,-0.7433010567272406,0.20977332684853578,-0.09819589541396934,-0.010770995394590617,0.001207018223582098
1592251578.0768654,-7.379646725914135,6.39976212583455,0.9451766370429323,0.14888888888888888,-0.7350588790143108,0.22282344156067463,-0.10359038811241136,0.02429320714528264,0.030876728065013313
1592251578.0868654,-7.643896066609245,6.472065747918461,0.9796712604076945,0.14888888888888888,-0.7333333333333333,0.22555555555555556,-0.10904721832297438,0.04807845286499273,0.03535726132355366
1592251578.0968654,-7.607082891841226,6.49806830222512,0.9712877985165865,0.14888888888888888,-0.7333333333333333,0.22555555555555556,-0.1086430206281633,0.07073053840757483,0.035927177309205756
1592251578.1068654,-7.8082913074479805,6.467589939716082,0.8189388734037726,0.14888888888888888,-0.7333333333333333,0.22555555555555556,-0.10553984038674953,0.09299136202760544,0.03572667030697636
1592251578.1168654,-7.613910909777275,6.260120800302,0.7322782181955455,0.13773520406023237,-0.7187477454804748,0.21440187072689904,-0.09713891356044176,0.10223460458271522,0.0433297423279066
1592251578.1268654,-7.749411812627291,6.357799592668025,0.7992810590631364,0.13444444444444445,-0.7144444444444444,0.2111111111111111,-0.09691758239372565,0.08859732058738791,0.0513569797353196
1592251578.1368654,-7.934086732141447,6.4013910318860425,0.728695331630638,0.13444444444444445,-0.7144444444444444,0.2111111111111111,-0.09596464541132313,0.054133630049464976,0.07266833255365678
1592251578.1468654,-7.727654391864185,6.255791027638809,0.8122652341507423,0.13444444444444445,-0.7144444444444444,0.2111111111111111,-0.10014878676321826,0.05651993918421151,0.08444433047195049
1592251578.1568654,-7.552469674719881,6.286931262698396,1.0154979783146587,0.13444444444444445,-0.7144444444444444,0.2111111111111111,-0.11039119306200024,0.06103440812893977,0.09070412328620225
1592251578.1668653,-7.530537009211472,6.34414679558372,0.962488077350232,0.1514850141184498,-0.7066341833438586,0.21537125352961245,-0.11444676311669903,0.06469420415876356,0.0503220614207512
1592251578.1768653,-7.601209407528793,6.368429616636278,0.887220209107485,0.16111111111111112,-0.7022222222222222,0.21777777777777776,-0.11562806294462433,0.06981317007977318,0.02945243112740431
1592251578.1868653,-7.500657710092249,6.318540569141227,0.7681757114265338,0.16111111111111112,-0.7022222222222222,0.21777777777777776,-0.08600857804282724,0.07351560569249782,0.019826098534320262
1592251578.1968653,-7.6563054234062795,6.552897716460514,0.7466241674595623,0.16111111111111112,-0.7022222222222222,0.21777777777777776,-0.05965178553989289,0.08543218549038634,0.024710430917500473
1592251578.2068653,-7.781866714896696,6.648466497861566,0.6353994935846969,0.16111111111111112,-0.7022222222222222,0.21777777777777776,-0.06251191286982366,0.07371100368185368,0.0326885756015105
1592251578.2168653,-7.4508563955178095,6.671608809377725,0.8006713598346626,0.15701517385891076,-0.6874768481143009,0.24071502639009984,-0.0880239888688929,0.05413500061412459,0.04214470362924266
1592251578.2268653,-7.465518647077817,6.786174523732645,0.7981970455279302,0.15555555555555556,-0.6822222222222222,0.24888888888888888,-0.10825447656549225,0.034578798666957705,0.044724062082354694
1592251578.2368653,-7.293713313922028,6.592570537761859,0.8387147311190704,0.15555555555555556,-0.6822222222222222,0.24888888888888888,-0.15849780545206454,0.013876928091504426,0.05731540130710597
1592251578.2468653,-7.338931354359926,6.559465677179963,0.986152133580705,0.15555555555555556,-0.6822222222222222,0.24888888888888888,-0.16836882056617192,0.01996402474399729,0.06723767610239843
1592251578.2568653,-7.24441812587165,6.6033254377614945,1.0916627188807473,0.15555555555555556,-0.6822222222222222,0.24888888888888888,-0.17433665148282942,0.026043261954622626,0.07310056165009035
1592251578.2668653,-7.515477856961059,6.57872391193688,1.2618582972766608,0.16509784791154097,-0.6774510760442295,0.2520696530075507,-0.17389144784566404,0.04367557074865709,0.05732233859478576
1592251578.2768652,-7.452108037959283,6.5114745721469705,1.1775805012571985,0.1688888888888889,-0.6755555555555556,0.25333333333333335,-0.1735281823682196,0.05202401952995264,0.04732200711167121
1592251578.2868652,-6.806316027448268,6.600979041438374,0.8429326027980212,0.1688888888888889,-0.6755555555555556,0.25333333333333335,-0.1796343970811682,0.05487782881044215,0.028058095349543857
1592251578.2968652,-6.0458363083115705,5.912823154515178,0.6739590770778925,0.1688888888888889,-0.6755555555555556,0.25333333333333335,-0.1697313566143138,0.0842178758351307,0.11411971241345448
1592251578.3068652,-8.067454173108198,7.281163089525569,0.31230489690204183,0.1688888888888889,-0.6755555555555556,0.25333333333333335,-0.13744796376766916,0.11339480226056056,0.2016988539371448
1592251578.3168652,-8.604698513601944,7.928989436290549,0.6508516406469104,0.1494765926064421,-0.6718224216550851,0.2525867065532392,-0.10461574021845883,0.11811554871422666,0.2752014018927097
1592251578.3268652,-7.501780491789887,7.267411976145739,1.1717253492361734,0.14,-0.67,0.25222222222222224,-0.09817477042468103,0.11904509638591398,0.3091748700013479
1592251578.3368652,-7.427470817120622,6.5401494163424125,1.1796975356679638,0.14,-0.67,0.25222222222222224,-0.06520536503122006,0.13715169644352962,0.340729979057345
1592251578.3468652,-7.759077235772358,6.5733597560975605,1.0178658536585365,0.14,-0.67,0.25222222222222224,-0.055033078117667236,0.13019974414747282,0.3334607622291036
1592251578.3568652,-7.352585156128804,6.655775546838641,1.2610340624515215,0.14,-0.67,0.25222222222222224,-0.07199483164476608,0.05176834910611657,0.28352244772077456
1592251578.3668652,-7.026266523758485,6.736738120757413,1.0731118256520187,0.1496399507760708,-0.6559108411734349,0.24851454884681037,-0.055250832452491086,-0.022579690559585447,0.22685538948483636
1592251578.3768651,-6.893379090574825,6.747758712260489,0.9922412877395106,0.15444444444444444,-0.6488888888888888,0.24666666666666667,-0.04739095327351999,-0.04654835256245815,0.19973491771587187
1592251578.3868651,-6.777732332811082,6.783350375195844,1.214836590528023,0.15444444444444444,-0.6488888888888888,0.24666666666666667,-0.07450352356474345,-0.09809789265534206,0.12939937805628957
1592251578.3968651,-6.6341940287752506,7.0209701438762515,1.1905791079191987,0.15444444444444444,-0.6488888888888888,0.24666666666666667,-0.09467011004789516,-0.07390850826408192,0.09307228780090404
1592251578.4068651,-6.69556972972973,6.991771891891892,1.1551899099099099,0.15444444444444444,-0.6488888888888888,0.24666666666666667,-0.10246906656893483,-0.04776179978360734,0.082654587288191
1592251578.416865,-7.3010625873582855,6.910837397111353,1.2804503804938656,0.16183282428258355,-0.6529189142551466,0.24532332487791408,-0.11885142640145925,0.01813035639714866,0.04784916775788073
1592251578.426865,-7.611838629632595,6.995633955014808,1.3170115264548148,0.16666666666666666,-0.6555555555555556,0.24444444444444444,-0.11518921594928076,0.04741970550928352,0.031646666104122145
1592251578.436865,-7.3670911549061415,6.806855077739067,1.208397379231449,0.16666666666666666,-0.6555555555555556,0.24444444444444444,-0.09039646797691668,0.07831649977842776,0.018456713899089587
1592251578.446865,-7.184665162718804,6.841174750386431,1.0913393491247858,0.16666666666666666,-0.6555555555555556,0.24444444444444444,-0.07726697535775426,0.08508480103472357,0.00927267685845402
1592251578.456865,-7.388472682302019,6.64825449405945,0.8398909058787156,0.16666666666666666,-0.6555555555555556,0.24444444444444444,-0.09210974934682299,0.09749250132389342,-0.02392687527951018
1592251578.466865,-7.1761287817396004,6.552639113992436,1.1266629524581306,0.1537986223662885,-0.6326790323548832,0.23872531364427635,-0.1023858280746952,0.09754073608209952,-0.0480893354516265
1592251578.476865,-7.117492811531424,6.525618955151425,1.1831300646028604,0.14666666666666667,-0.62,0.23555555555555555,-0.09653895196381646,0.10110582569017013,-0.06054096585759327
1592251578.486865,-7.1873937397034595,6.558470228289009,1.0586119086843961,0.14666666666666667,-0.62,0.23555555555555555,-0.08276871748862565,0.14187444253567366,-0.06170764784784858
1592251578.496865,-7.311672138167285,6.434679322485489,1.0261092872775714,0.14666666666666667,-0.62,0.23555555555555555,-0.0670889476145891,0.1565852607783254,-0.05781403147231216
1592251578.506865,-7.578858104709206,6.471141895290795,1.0418682041558642,0.14666666666666667,-0.62,0.23555555555555555,-0.04933650811905778,0.1546639593566451,-0.05491522348489868
1592251578.516865,-7.610301065308013,6.597032190829088,0.9517635479388605,0.13708005249343833,-0.6273309402501158,0.2349916370747774,-0.030296953430759027,0.13446308287653252,-0.022480511735246556
1592251578.526865,-7.614295796986519,6.680643933386202,0.7512172878667724,0.12777777777777777,-0.6344444444444445,0.23444444444444446,-0.013691353656405954,0.10948913373680169,0.01597725400751371
1592251578.536865,-7.525556211044707,6.659256418806269,0.6350029497011824,0.12777777777777777,-0.6344444444444445,0.23444444444444446,-0.00010122927568348775,0.08823594695638672,0.0774081077319931
1592251578.546865,-7.341380655414028,6.788302232067612,0.8494401772170186,0.12777777777777777,-0.6344444444444445,0.23444444444444446,-0.006579576304632918,0.08782205585637168,0.0939966450469136
1592251578.556865,-7.211534689429714,6.801626589175445,1.0307213948419907,0.12777777777777777,-0.6344444444444445,0.23444444444444446,-0.018048078603345192,0.08594573714958309,0.09298676654365638
1592251578.566865,-7.056392432468441,6.7478966125970095,0.7998354594810645,0.1456495575614251,-0.6264329569552233,0.23444444444444446,-0.04495350605502448,0.1116223672133699,0.09962322860590889
1592251578.576865,-7.207849914838193,6.67884380322613,0.9119810974184284,0.16,-0.62,0.23444444444444446,-0.05110678647257976,0.11494288292401206,0.10334939507843523
1592251578.586865,-7.548440651916366,6.699439339118184,1.0776741058563606,0.16,-0.62,0.23444444444444446,-0.027222988303071155,0.10856226950840117,0.12636627228056332
1592251578.596865,-7.652768805174729,6.8669521174891175,0.7716333753712217,0.16,-0.62,0.23444444444444446,-0.006409191106660964,0.09277493394752585,0.14335516109156896
1592251578.606865,-7.41295123032587,6.716637109288406,0.6272830857902904,0.16,-0.62,0.23444444444444446,-0.05352600976233729,0.07184906511945267,0.1762724508737771
1592251578.616865,-7.393037519957424,6.731965141032465,0.9071420968600319,0.17149791555792088,-0.6169742327479155,0.22960321684110935,-0.054327175491806934,0.039815613830088845,0.20506639053165696
1592251578.626865,-7.2589510091145835,6.66524169921875,0.9681453450520833,0.1811111111111111,-0.6144444444444445,0.22555555555555556,-0.06714761214471288,0.009782323316079058,0.20886772955327954
1592251578.636865,-7.499646663933587,6.833777031874551,1.031358511837655,0.1811111111111111,-0.6144444444444445,0.22555555555555556,-0.09159124274392125,-0.005904707161786443,0.21274755492757283
1592251578.646865,-7.541039704663603,6.898043396368568,1.135198523318014,0.1811111111111111,-0.6144444444444445,0.22555555555555556,-0.0946888457301606,-0.009136991931410267,0.2275764108696226
1592251578.656865,-7.632614469907512,6.6838218142056585,1.1917818579434143,0.1811111111111111,-0.6144444444444445,0.22555555555555556,-0.06423367673344625,0.009109025960209823,0.3613029450766077
1592251578.6668649,-7.701122103306652,6.6988868903078815,1.0811221033066523,0.17173050467501408,-0.6119758638033663,0.23246758135057444,-0.05102718496519973,-0.0013287683899984547,0.46504934817800636
1592251578.6768649,-7.695692347622962,6.775818229008954,0.9541817709910456,0.16,-0.6088888888888889,0.2411111111111111,-0.04689199211826916,-0.0460620603882632,0.5441979567113759
1592251578.6868649,-7.310238233738763,6.799562136435748,0.8596716023268112,0.16,-0.6088888888888889,0.2411111111111111,-0.04746905035313656,-0.10073854003320945,0.5946938304823363
1592251578.6968648,-7.175227822918914,6.821273699096379,0.8634220176889337,0.16,-0.6088888888888889,0.2411111111111111,-0.0539484206401045,-0.13647827588650152,0.6162094749798053
1592251578.7068648,-7.270503002556633,6.87,1.0062474978694729,0.16,-0.6088888888888889,0.2411111111111111,-0.0715091171712471,-0.1430241579533788,0.6129979543066479
1592251578.7168648,-7.204243742513082,6.827590315869113,1.2153949940104658,0.15319350748516627,-0.6115067706253634,0.23639892398545698,-0.08572440296885236,-0.13916341966292045,0.6146634420707177
1592251578.7268648,-7.315375213302115,6.7939755545855,1.297849914679154,0.14555555555555555,-0.6144444444444445,0.2311111111111111,-0.08235220477514624,-0.12668904985089627,0.6306749485776036
1592251578.7368648,-7.370012868025531,6.8499227918468195,1.154839149680873,0.14555555555555555,-0.6144444444444445,0.2311111111111111,-0.05943834633345233,-0.12272337592427668,0.727102584148418
1592251578.7468648,-7.320673802421477,6.972922442533778,0.9657299526232672,0.14555555555555555,-0.6144444444444445,0.2311111111111111,-0.033999505363057195,-0.14541153317333197,0.8235897779696381
1592251578.7568648,-7.181034751382265,7.152821341034751,0.864106705173757,0.14555555555555555,-0.6144444444444445,0.2311111111111111,-0.016278687193492694,-0.18115992272727327,0.911118841205172
1592251578.7668648,-7.010385212462544,7.202191053828658,0.7911155637387631,0.14127786402236744,-0.6180640295879113,0.2311111111111111,-0.01967260288915537,-0.2208678520179599,1.00759148173717
1592251578.7768648,-6.94,7.35,0.77,0.13111111111111112,-0.6266666666666667,0.2311111111111111,-0.032724923474893676,-0.2454369260617026,1.069014166846527
1592251578.7868648,-6.584739414590549,7.3478938107474026,0.7321061892525975,0.13111111111111112,-0.6266666666666667,0.2311111111111111,-0.06705724113070934,-0.30973823824334806,1.146749966195151
1592251578.7968647,-6.326332351007087,7.40516671131786,0.788500937675053,0.13111111111111112,-0.6266666666666667,0.2311111111111111,-0.08484853716690553,-0.3346124155911316,1.1612075533512085
1592251578.8068647,-6.22,7.41,0.89,0.13111111111111112,-0.6266666666666667,0.2311111111111111,-0.09381144729469522,-0.3425208657038872,1.1617347833587257
1592251578.8168647,-6.03922600619195,7.713897058823529,0.9538970588235295,0.12417698658410734,-0.6288729790161679,0.23489336085311316,-0.11695023090545208,-0.32156374365812324,1.156543205586612
1592251578.8268647,-5.81,7.85,1.09,0.10666666666666667,-0.6344444444444445,0.24444444444444444,-0.14508049407202864,-0.29343348049154666,1.1737339219661866
1592251578.8368647,-5.867366576970513,7.792215775311133,1.046705348133199,0.10666666666666667,-0.6344444444444445,0.24444444444444444,-0.21981252334208526,-0.19284800339054628,1.210005941198638
1592251578.8468647,-5.98,7.81,0.94,0.10666666666666667,-0.6344444444444445,0.24444444444444444,-0.2476185876266955,-0.15598880189699318,1.2326387842209952
1592251578.8568647,-5.9740337722146775,7.717983113892661,1.077030957863455,0.10666666666666667,-0.6344444444444445,0.24444444444444444,-0.29103181078148627,-0.14485741594601417,1.30134270363259
1592251578.8668647,-5.8600485348980405,7.806079177079938,0.9884802057300156,0.09258691811446348,-0.6344444444444445,0.2395805313082288,-0.29511249620863056,-0.16889181010535143,1.3622553918203935
1592251578.8768647,-5.76,7.96,0.95,0.04555555555555556,-0.6344444444444445,0.22333333333333333,-0.29343348049154666,-0.2083486794568231,1.4126258633329105
1592251578.8868647,-5.2196661911554925,8.205166904422255,0.8274499286733238,0.04555555555555556,-0.6344444444444445,0.22333333333333333,-0.3451634771895521,-0.26917888138433815,1.4940573304713456
1592251578.8968647,-4.883037992969615,8.344493667838398,0.9011181200943805,0.04555555555555556,-0.6344444444444445,0.22333333333333333,-0.4150657088632447,-0.289339411398787,1.522015017133652
1592251578.9068646,-4.79,8.36,1.02,0.04555555555555556,-0.6344444444444445,0.22333333333333333,-0.4483314516060434,-0.29779680362153244,1.5293447570600311
1592251578.9168646,-4.761686459879678,8.348313540120321,1.2944085475427767,0.04269886536274536,-0.6388593292878784,0.21787965205615023,-0.5271101615064834,-0.3044547577830476,1.54920565007804
1592251578.9268646,-4.796865441176471,8.310127941176471,1.4412794117647059,0.03333333333333333,-0.6533333333333333,0.2,-0.5673855252891643,-0.3122497500325901,1.5643839261648786
1592251578.9368646,-4.2580508451873875,8.349980444158698,1.6080312893460849,0.03333333333333333,-0.6533333333333333,0.2,-0.5968970578325062,-0.3702126084574541,1.5997979197720062
1592251578.9468646,-4.105359829937659,8.524615329495784,1.6159801275467551,0.03333333333333333,-0.6533333333333333,0.2,-0.6222039170279545,-0.402440765712165,1.6449646909482594
1592251578.9568646,-4.02,8.69,1.68,0.03333333333333333,-0.6533333333333333,0.2,-0.6414085001079161,-0.41233403578366035,1.6711527587845705
1592251578.9668646,-4.015525708758092,8.54155257087581,1.704063546394821,0.02244553579548743,-0.6522070094501079,0.195306983819894,-0.6604756361454563,-0.3901189612966693,1.6643338691505685
1592251578.9768646,-3.6,8.5,1.97,-0.03111111111111111,-0.6466666666666666,0.17222222222222222,-0.6523168079328807,-0.37742745074377376,1.6307920198322017
1592251578.9868646,-3.729400526640148,8.79662670177601,2.2132833772200122,-0.03111111111111111,-0.6466666666666666,0.17222222222222222,-0.7214201954641686,-0.3428594088782745,1.650062273782982
1592251578.9968646,-3.176685781750717,8.682391875286124,2.495389248969954,-0.03111111111111111,-0.6466666666666666,0.17222222222222222,-0.7053242504595599,-0.3027448223539426,1.6201886231680627
1592251579.0068645,-3.0379690504532553,8.580229832432927,2.97842871531911,-0.03111111111111111,-0.6466666666666666,0.17222222222222222,-0.6255060031862733,-0.25708507305944905,1.5608494003710427
1592251579.0168645,-3.0577164773565424,8.626366720755273,3.1102249594335447,-0.038923472816377376,-0.6466666666666666,0.16758363245972038,-0.5092821646601823,-0.22281823841953957,1.5047746746842299
1592251579.0268645,-2.73,8.72,3.04,-0.06666666666666667,-0.6466666666666666,0.1511111111111111,-0.4003348971761993,-0.2083486794568231,1.4562590946327687
1592251579.0368645,-2.584187962648113,8.89069524731239,2.7774470979048416,-0.06666666666666667,-0.6466666666666666,0.1511111111111111,-0.2890707565466837,-0.16288930309820784,1.4243968836043075
1592251579.0468645,-2.49,9.01,2.52,-0.06666666666666667,-0.6466666666666666,0.1511111111111111,-0.2596177262341565,-0.14508049407202864,1.4148075248979033
1592251579.0568645,-2.393425234464874,9.055097393101565,2.5645130344921716,-0.06666666666666667,-0.6466666666666666,0.1511111111111111,-0.25474085953087966,-0.1504496564699584,1.393941831576335
1592251579.0668645,-2.2461545487034904,9.043845451296509,2.682299964261605,-0.07421514513759282,-0.6441030324689936,0.1492595975239028,-0.2472834072035943,-0.16795917857618603,1.3700001658455792
1592251579.0768645,-2.0521561001480566,9.021413607937596,3.005335557863567,-0.12555555555555556,-0.6266666666666667,0.13666666666666666,-0.1964383201517715,-0.2200856262444884,1.3303125289056328
1592251579.0868645,-1.84,8.96,3.05,-0.12555555555555556,-0.6266666666666667,0.13666666666666666,-0.1538071403320003,-0.24870941840919195,1.3089969389957472
1592251579.0968645,-1.6941929319301268,9.078593384114338,2.9007033079428313,-0.12555555555555556,-0.6266666666666667,0.13666666666666666,0.00242858339851363,-0.2896268912268664,1.2508307576457598
1592251579.1068645,-1.62,9.2,2.84,-0.12555555555555556,-0.6266666666666667,0.13666666666666666,0.07526732399225547,-0.3043417883165112,1.2184579840485412
1592251579.1168644,-0.8527031283556447,9.503572553511347,2.5218337031999427,-0.13110057190127347,-0.627372396019758,0.13565848187653612,0.1353640647088898,-0.2929468664160132,1.1686839587710214
1592251579.1268644,-0.98,9.84,2.44,-0.18666666666666668,-0.6344444444444445,0.12555555555555556,0.12544553998709243,-0.24434609527920614,1.1290098598838318
1592251579.1368644,-1.0443272938566373,9.879694680682478,2.33,-0.18666666666666668,-0.6344444444444445,0.12555555555555556,0.08874762076695916,-0.14340261643452853,1.006785298709838
1592251579.1468644,-1.170187961833704,9.606604012722098,2.352883994547672,-0.18666666666666668,-0.6344444444444445,0.12555555555555556,0.07859566608279969,-0.10595763167590691,0.8869617167602486
1592251579.1568644,-1.43,9.52,2.39,-0.18666666666666668,-0.6344444444444445,0.12555555555555556,0.0839939702522271,-0.09381144729469522,0.8323038870447959
1592251579.1668644,-1.542130302788208,9.557837740672685,2.379284572980746,-0.1885744720513435,-0.6335700336431342,0.12722488526714779,0.11064564083893709,-0.10386653319938882,0.7629519910188497
1592251579.1768644,-1.44,9.4,2.37,-0.21333333333333335,-0.6222222222222222,0.14888888888888888,0.14508049407202864,-0.13526301702956053,0.7123125009701857
1592251579.1868644,-1.3489006755330377,9.422292326366899,2.1759650094996834,-0.21333333333333335,-0.6222222222222222,0.14888888888888888,0.1892138334047952,-0.19221583449032764,0.6761951674509513
1592251579.1968644,-1.2027329371165645,9.521815567484662,2.102723351226994,-0.21333333333333335,-0.6222222222222222,0.14888888888888888,0.20815010893765507,-0.23561840336089235,0.6582676495578685
1592251579.2068644,-1.12,9.56,2.16,-0.21333333333333335,-0.6222222222222222,0.14888888888888888,0.21162117180431245,-0.25089107997418486,0.6457718232379019
1592251579.2168643,-0.9381156930126002,9.64075372279496,2.189874379534173,-0.21364040558313183,-0.6222222222222222,0.14870743710491705,0.19825714107228448,-0.23512613860350756,0.6247445708941917
1592251579.2268643,-0.79,9.7,2.18,-0.23777777777777778,-0.6222222222222222,0.13444444444444445,0.17671458676442586,-0.19634954084936207,0.6010477611555471
1592251579.2368643,-0.8392302367068722,9.613427057539207,2.0887416460313655,-0.23777777777777778,-0.6222222222222222,0.13444444444444445,0.1405266088427282,-0.14313540136832478,0.5647758150843116
1592251579.2468643,-1.0025098714911336,9.515934620815086,2.095320314930481,-0.23777777777777778,-0.6222222222222222,0.13444444444444445,0.11402532195931944,-0.13096814002664067,0.5504603041485008
1592251579.2568643,-1.16,9.47,2.22,-0.23777777777777778,-0.6222222222222222,0.13444444444444445,0.10471975511965977,-0.13526301702956053,0.5475970528132209
1592251579.2668643,-1.124785633392655,9.417178450088983,2.237607183303673,-0.23777777777777778,-0.6222222222222222,0.13444444444444445,0.12200556690629305,-0.15639012032433455,0.5456764070591504
1592251579.2768643,-1.1032935095076088,9.465989661629349,2.2034129809847824,-0.2577777777777778,-0.6166666666666667,0.15555555555555556,0.16929468196086042,-0.21795763943540072,0.5363555434659082
1592251579.2868643,-1.11,9.58,2.19,-0.2577777777777778,-0.6166666666666667,0.15555555555555556,0.19416787928436915,-0.2530727415391778,0.5312345910757741
1592251579.2968643,0.2087122071516646,10.06589025893958,2.017726757090012,-0.2577777777777778,-0.6166666666666667,0.15555555555555556,0.20798099819578336,-0.3172912812984244,0.48333942607180497
1592251579.3068643,0.5035008068464091,10.290662520624444,2.227237502946349,-0.2577777777777778,-0.6166666666666667,0.15555555555555556,0.1825454177797429,-0.2956264750037658,0.4113298733689571
1592251579.3168643,1.5605742208039455,11.142405127554259,2.348915018222037,-0.2577777777777778,-0.6166666666666667,0.15555555555555556,0.16595422037969254,-0.23506860449358202,0.3474537633787632
1592251579.3268642,-3.0,9.22,2.67,-0.27111111111111114,-0.5844444444444444,0.17,0.10799224746714915,-0.07963064712224129,0.1112647398146385
1592251579.3368642,-0.9081127144023958,9.35786768309284,2.392144568472638,-0.27111111111111114,-0.5844444444444444,0.17,0.08419048610542011,0.20795431131196138,-0.046048828995363666
1592251579.3468642,-0.54,9.79,1.92,-0.27111111111111114,-0.5844444444444444,0.17,0.15489797111449674,0.07090400086226964,0.00545415391248228
1592251579.3568642,-0.5986042042741513,9.487054290650052,2.1290700518255403,-0.27111111111111114,-0.5844444444444444,0.17,0.1582042773318137,0.06775835816671327,-0.0060037722174191566
1592251579.3668642,-0.8672660571827869,9.470771754110135,1.9581034181564083,-0.27111111111111114,-0.5844444444444444,0.17,0.16442079955801647,0.062429910544253724,-0.021101040481054524
1592251579.3768642,-1.11,9.57,1.86,-0.2733333333333333,-0.6044444444444445,0.17,0.13962634015954636,0.04363323129985824,-0.008726646259971648
1592251579.3868642,-1.1001738961075094,9.401395898834199,2.2054645112823796,-0.2733333333333333,-0.6044444444444445,0.17,0.13180031749490592,0.029985114443494436,0.013457909669198576
1592251579.3968642,-0.8614096661443895,9.595261178739303,1.997545618898397,-0.2733333333333333,-0.6044444444444445,0.17,0.15080237943027153,0.018027198092048096,0.04901049985117336
1592251579.4068642,-0.66,9.66,1.94,-0.2733333333333333,-0.6044444444444445,0.17,0.15707963267948966,0.025089107997418484,0.05999569303730508
1592251579.4168642,-0.9648378629192629,9.53298422378364,2.0162094657298155,-0.2733333333333333,-0.6044444444444445,0.17,0.15707963267948966,0.06296018440367805,0.047064105971753034
1592251579.4268641,-0.8589165339881804,9.609396065520684,1.8428952694497664,-0.27111111111111114,-0.6044444444444445,0.14888888888888888,0.16234971975215895,0.04366037181262133,0.04957370669971466
1592251579.4368641,-0.83,9.66,1.72,-0.27111111111111114,-0.6044444444444445,0.14888888888888888,0.16471544815696484,0.015271630954950384,0.04799655442984406
1592251579.4468641,-0.7647233719477848,9.672361685973891,1.61,-0.27111111111111114,-0.6044444444444445,0.14888888888888888,0.14262499607098006,-0.013106185850121937,0.03772418831452525
1592251579.456864,-0.7741785147228638,9.683880990184758,1.6138809901847575,-0.27111111111111114,-0.6044444444444445,0.14888888888888888,0.12381704834799526,-0.028964170986451435,0.033148273830903685
1592251579.466864,-0.7514755340646652,9.699016310623556,1.6290163106235565,-0.27111111111111114,-0.6044444444444445,0.14888888888888888,0.10895798225416445,-0.03556820036148735,0.03479928117466267
1592251579.476864,-0.78,9.63,1.8,-0.2788888888888889,-0.6044444444444445,0.17777777777777778,0.08508480103472357,-0.032724923474893676,0.03490658503988659
1592251579.486864,-0.6541367461240835,9.641066046159258,1.8436037230444549,-0.2788888888888889,-0.6044444444444445,0.17777777777777778,0.06946430728994911,-0.0054983963255065,0.041626001129777365
1592251579.496864,-0.5894758503240456,9.646841383225318,1.7596068877430342,-0.2788888888888889,-0.6044444444444445,0.17777777777777778,0.0614739573556823,0.018113807871471495,0.04257098844742011
1592251579.506864,-0.7864169974738362,9.58,1.91,-0.2788888888888889,-0.6044444444444445,0.17777777777777778,0.051708469318279535,0.04571773767281935,0.031634092692397225
1592251579.516864,-0.7637123782028149,9.58,1.91,-0.2788888888888889,-0.6044444444444445,0.17777777777777778,0.04758065305066416,0.05892674972918856,0.031634092692397225
1592251579.526864,-0.78,9.615154078262728,1.8462557912993895,-0.28444444444444444,-0.59,0.15555555555555556,0.0545415391248228,0.06931817668209446,0.03621843805890874
1592251579.536864,-0.7891722334420797,9.651006680130497,1.7359732794780178,-0.28444444444444444,-0.59,0.15555555555555556,0.05254046820825002,0.07484759336570376,0.04274250760901906
1592251579.546864,-0.83,9.7,1.54,-0.28444444444444444,-0.59,0.15555555555555556,0.04363323129985824,0.06326818538479445,0.04363323129985824
1592251579.556864,-0.8771888127349105,9.743594406367455,1.4888018645441816,-0.28444444444444444,-0.59,0.15555555555555556,0.02400336197039354,0.025315409762672193,0.04188891899895821
1592251579.566864,-0.9235551625027637,9.76677758125138,1.4810741395828728,-0.28444444444444444,-0.59,0.15555555555555556,0.002929261304238675,-0.008403151303175586,0.037674098865727236
1592251579.576864,-0.6405209733976641,9.625416699622981,1.836041551319571,-0.27111111111111114,-0.59,0.17777777777777778,-0.04080387008413362,-0.06564299782471805,0.037554126745290795
1592251579.586864,-0.49,9.59,1.96,-0.27111111111111114,-0.59,0.17777777777777778,-0.061086523819801536,-0.0839939702522271,0.032724923474893676
1592251579.596864,-0.4145987671158147,9.556934155256124,1.9745987671158147,-0.27111111111111114,-0.59,0.17777777777777778,-0.0617632423653555,-0.06428719069380483,0.02735830499861522
1592251579.606864,-0.47,9.52,2.03,-0.27111111111111114,-0.59,0.17777777777777778,-0.04363323129985824,-0.02399827721492203,0.015271630954950384
1592251579.616864,-0.6949014238773275,9.561648411829134,2.021670317634173,-0.27111111111111114,-0.59,0.17777777777777778,-0.024552056040428174,0.007803681550794743,0.006185357021888447
1592251579.626864,-0.83,9.6,1.96,-0.2788888888888889,-0.59,0.18444444444444444,-0.002181661564992912,0.032724923474893676,0.0
1592251579.636864,-0.89,9.60179828895728,1.9116079848660248,-0.2788888888888889,-0.59,0.18444444444444444,0.010013639937510595,0.02821006612546853,0.005715704439205602
1592251579.646864,-0.89,9.63,1.78,-0.2788888888888889,-0.59,0.18444444444444444,0.01308996938995747,0.008726646259971648,0.009817477042468103
1592251579.656864,-0.6845387585176224,9.599317344814702,1.9127306207411887,-0.2788888888888889,-0.59,0.18444444444444444,0.009743010913472802,-0.01921431846339746,0.01556949547093159
1592251579.666864,-0.6248408561211237,9.59185510701514,1.942579571939438,-0.2788888888888889,-0.59,0.18444444444444444,0.008929007043665681,-0.02654035329166155,0.018825510950160072
1592251579.676864,-0.6336807687800304,9.562760576585024,2.013558654634947,-0.2788888888888889,-0.5844444444444444,0.16333333333333333,0.018557443889283317,-0.012273629625412074,0.01606132954580865
1592251579.686864,-0.6692404343084728,9.592278697074581,1.942404343084728,-0.2788888888888889,-0.5844444444444444,0.16333333333333333,0.030446700292579593,0.007456398096389411,0.013172825153722078
1592251579.696864,-0.6636971918798943,9.618521123248042,1.850739438375979,-0.2788888888888889,-0.5844444444444444,0.16333333333333333,0.0434296628738664,0.01935072544471667,0.014019479743998543
1592251579.7068639,-0.71,9.601680055885435,1.855799860286413,-0.2788888888888889,-0.5844444444444444,0.16333333333333333,0.055182968961474135,0.02945243112740431,0.011999138607461015
1592251579.7168639,-0.71,9.616330073349632,1.819174816625917,-0.2788888888888889,-0.5844444444444444,0.16333333333333333,0.06077621046639453,0.02945243112740431,0.011999138607461015
1592251579.7268639,-0.7413656950412263,9.648634304958774,1.835902914876321,-0.27111111111111114,-0.5966666666666667,0.16333333333333333,0.06237434007051097,0.02652589846717517,0.009370554385326366
1592251579.7368639,-0.7478404819058834,9.638920240952942,1.7970428914353005,-0.27111111111111114,-0.5966666666666667,0.16333333333333333,0.056134283486710596,0.020285430921855828,0.006544984694978735
1592251579.7468638,-0.7287868564232934,9.629393428211648,1.6960657178835326,-0.27111111111111114,-0.5966666666666667,0.16333333333333333,0.050938213188068605,0.007569648759622227,0.006809651566390596
1592251579.7568638,-0.71,9.620434421643473,1.7930409515043226,-0.27111111111111114,-0.5966666666666667,0.16333333333333333,0.045767504814722665,0.00640282054459328,0.01090830782496456
1592251579.7668638,-0.71,9.628004403775696,1.8460308264298735,-0.27111111111111114,-0.5966666666666667,0.16333333333333333,0.04494174786144512,0.00392554968476065,0.01090830782496456
1592251579.7768638,-0.71,9.62,1.86,-0.27111111111111114,-0.5844444444444444,0.19111111111111112,0.04799655442984406,0.001090830782496456,0.006544984694978735
1592251579.7868638,-0.7016757522895769,9.59502725686873,1.86,-0.27111111111111114,-0.5844444444444444,0.19111111111111112,0.04799655442984406,-0.007081480296793117,0.004728915566247719
1592251579.7968638,-0.7288001118776803,9.63059994406116,1.732999720305799,-0.27111111111111114,-0.5844444444444444,0.19111111111111112,0.05153082175720905,-0.010013808277374817,-0.0021162178200240076
1592251579.8068638,-0.7102858256693778,9.639714174330622,1.7794283486612443,-0.27111111111111114,-0.5844444444444444,0.19111111111111112,0.055601191163460746,-0.013152326877674472,-0.0010284732947794541
1592251579.8168638,-0.7177181790796165,9.632281820920385,1.7645636418407669,-0.27111111111111114,-0.5844444444444444,0.19111111111111112,0.05479044717483266,-0.014773814854930649,0.0005930146824767205
1592251579.8268638,-0.731354190664885,9.639322904667559,1.7727083813297702,-0.29777777777777775,-0.5844444444444444,0.18444444444444444,0.052064438987304694,-0.01628860209431554,0.0031247730612267736
1592251579.8368638,-0.7482912711275759,9.63,1.805899050706182,-0.29777777777777775,-0.5844444444444444,0.18444444444444444,0.04795927574878445,-0.015271630954950384,0.001090830782496456
1592251579.8468637,-0.7003382820001477,9.63005638033336,1.690112760666716,-0.29777777777777775,-0.5844444444444444,0.18444444444444444,0.04691802392797846,-0.015290081375896665,0.0010969809228118827
1592251579.8568637,-0.7583578569417065,9.64,1.7121895240777245,-0.29777777777777775,-0.5844444444444444,0.18444444444444444,0.049027675205765536,-0.018603833309014727,0.0021518065617054227
1592251579.8668637,-0.7140643480709659,9.64,1.7712475359053788,-0.29777777777777775,-0.5844444444444444,0.18444444444444444,0.047417117774399414,-0.020214390740380853,0.0013465278460223606
1592251579.8768637,-0.69,9.629427559547233,1.821717321358302,-0.28444444444444444,-0.5966666666666667,0.16333333333333333,0.04478650564905717,-0.02175417208322664,0.00012488713340495525
1592251579.8868637,-0.6902824596071138,9.619435080785772,1.8477403231430898,-0.28444444444444444,-0.5966666666666667,0.16333333333333333,0.04587651599170147,-0.020479292360031397,0.002243284691843229
1592251579.8968637,-0.7,9.60003489932886,1.769965100671141,-0.28444444444444444,-0.5966666666666667,0.16333333333333333,0.048027009839610404,-0.011976297050136257,0.004378550834868996
1592251579.9068637,-0.6990250965250965,9.610584942084941,1.7590250965250966,-0.28444444444444444,-0.5966666666666667,0.16333333333333333,0.056829546161854455,-0.005326539346035783,0.008790453543194895
1592251579.9168637,-0.6622200772200773,9.632667953667953,1.722220077220077,-0.28444444444444444,-0.5966666666666667,0.16333333333333333,0.06084435096268359,-0.0005087735850408184,0.011199336423692379
1592251579.9268637,-0.659462771432773,9.672148914268908,1.6819415714915935,-0.28444444444444444,-0.5966666666666667,0.19111111111111112,0.061825739327277314,0.007577212931638414,0.008550838622461313
1592251579.9368637,-0.65,9.71,1.54,-0.28444444444444444,-0.5966666666666667,0.19111111111111112,0.05563236990731925,0.006544984694978735,0.00545415391248228
1592251579.9468637,-0.6595939745828089,9.681218076251573,1.5016241016687644,-0.28444444444444444,-0.5966666666666667,0.19111111111111112,0.044120426825761075,-0.0018273375461544837,-0.001871628048509287
1592251579.9568636,-0.7176838002207246,9.68,1.5961396670345411,-0.28444444444444444,-0.5966666666666667,0.19111111111111112,0.02580497290241792,-0.0042791037293976545,-0.009522709140409513
1592251579.9668636,-0.7127455851379813,9.665491170275963,1.6362720743100934,-0.28444444444444444,-0.5966666666666667,0.19111111111111112,0.017175768956928725,-0.0059459909380837755,-0.011400144850566056
