time,acc_x,acc_y,acc_z,mag_x,mag_y,mag_z,gyr_x,gyr_y,gyr_z
1592251590.7768533,-0.6927447476454962,9.71,0.5572552523545038,-0.25222222222222224,-0.5988888888888889,0.1988888888888889,-0.0019890473490640523,-0.017453292519943295,0.004662728652175022
1592251590.7868533,-0.7,9.703603943929675,0.5308118317890236,-0.25222222222222224,-0.5988888888888889,0.1988888888888889,-0.00715412906921957,-0.01815099400475173,0.009640362821332897
1592251590.7968533,-0.6872574542512434,9.725485091497513,0.5518563643718916,-0.25222222222222224,-0.5988888888888889,0.1988888888888889,-0.007336650144960339,-0.017849125244934098,0.016864125010000595
1592251590.8068533,-0.853190837493467,9.735189143402959,0.5844325697911222,-0.25222222222222224,-0.5988888888888889,0.1988888888888889,-0.009168899928092833,-0.010631112913846639,0.024358001504541586
1592251590.8168533,-1.0834311926605504,9.705871559633028,0.6434311926605504,-0.25222222222222224,-0.5988888888888889,0.21604689092762489,-0.013578341336616435,-0.018538118729325093,0.04313885478008461
1592251590.8268533,-1.0591228635923895,9.68914543695582,0.6739954853273137,-0.25222222222222224,-0.5988888888888889,0.23444444444444446,-0.013775212332331898,-0.04263808125674877,0.0652961245854046
1592251590.8368533,-0.7667068681964131,9.730658626360718,0.5400603022946198,-0.25222222222222224,-0.5988888888888889,0.23444444444444446,-0.008726646259971648,-0.07976775914400547,0.10042169902059472
1592251590.8468533,-0.7018956691925528,9.770173884679078,0.47,-0.25222222222222224,-0.5988888888888889,0.23444444444444446,-0.012676398528224109,-0.09537275256708808,0.11237453847318932
1592251590.8568532,-0.6854411165124666,9.79056986043594,0.4688602791281166,-0.25222222222222224,-0.5988888888888889,0.23444444444444446,-0.01645271143492922,-0.10026019529558072,0.11459939429265309
1592251590.8668532,-0.5247217235188509,9.757360861759427,0.5115898663474965,-0.25222222222222224,-0.596256843318483,0.23760289912893146,-0.04478303178952735,-0.116202092787877,0.11149365543067406
1592251590.8768532,-0.44351324595097613,9.715197402288839,0.585197402288837,-0.25222222222222224,-0.5933333333333334,0.2411111111111111,-0.055448656949731744,-0.11404060675103367,0.10565412967540287
1592251590.8868532,-0.7086381750721451,9.749382987494847,0.6406170125051532,-0.25222222222222224,-0.5933333333333334,0.2411111111111111,-0.06674259460242574,-0.08877506793090299,0.09837668729482295
1592251590.8968532,-1.0556618497109826,9.734009393063584,0.8237276011560694,-0.25222222222222224,-0.5933333333333334,0.2411111111111111,-0.05739716702082201,-0.07461897326849709,0.12170495197361705
1592251590.9068532,-1.210642530796368,9.731773755132728,0.949755653230004,-0.25222222222222224,-0.5933333333333334,0.2411111111111111,-0.0468622885080411,-0.07160785830488792,0.13961646710318984
1592251590.9168532,-1.37201197053407,9.75,1.098011049723757,-0.2544449560057295,-0.6013351749539595,0.23533200327399223,-0.00959599620679548,-0.06763150851478027,0.2061720401330019
1592251590.9268532,-1.4528181988391686,9.751409099419584,1.1840909941958435,-0.2577777777777778,-0.6133333333333333,0.22666666666666666,0.018762330306375197,-0.06747779961253221,0.24888302001284707
1592251590.9368532,-1.4003828740415063,9.774917955562534,1.1506563554997253,-0.2577777777777778,-0.6133333333333333,0.22666666666666666,0.09037189463108826,-0.06599824556096626,0.34830862639254
1592251590.9468532,-1.2196000777019644,9.828639972804313,0.9582400505062769,-0.2577777777777778,-0.6133333333333333,0.22666666666666666,0.15299553976850386,-0.06605198511792693,0.43421170490112837
1592251590.9568532,-1.1173095413868233,9.864230152871059,0.8534683184183518,-0.2577777777777778,-0.6133333333333333,0.22666666666666666,0.19412370551859437,-0.05961910628265854,0.5097062146489418
1592251590.9668531,-1.0325560296912542,9.86645031735217,0.7154566643955965,-0.2530448675806728,-0.6062339680376758,0.22351139320193,0.22341229097256107,-0.048629374754698924,0.5901150057658012
1592251590.9768531,-0.9105253500339064,9.857373249830468,0.5757971997287487,-0.24444444444444444,-0.5933333333333334,0.21777777777777776,0.2389492481655809,-0.04547105207170875,0.6473151035986183
1592251590.9868531,-0.8801467849709717,9.81,0.4402201774564575,-0.24444444444444444,-0.5933333333333334,0.21777777777777776,0.2361788746973978,-0.0441606334650728,0.7400346168545584
1592251590.996853,-0.8683686069137819,9.804326278617244,0.3573051144689745,-0.24444444444444444,-0.5933333333333334,0.21777777777777776,0.220587723794069,-0.06022771109645475,0.7830926051322453
1592251591.006853,-0.8855449975139495,9.796817855367108,0.3482735760455224,-0.24444444444444444,-0.5933333333333334,0.21777777777777776,0.21002442839715119,-0.0699025409460481,0.7974866728711842
1592251591.016853,-0.8425088932411368,9.746784443822694,0.49894000559574725,-0.25945037327186893,-0.5969061735303391,0.21349036954137077,0.17776299465426598,-0.0893710391963472,0.8201120360164295
1592251591.026853,-0.8921199036784855,9.733640288964544,0.5589400481607574,-0.2911111111111111,-0.6044444444444445,0.20444444444444446,0.15833631176911483,-0.09450518415122103,0.8334098896412979
1592251591.036853,-0.7745684605528098,9.73604063701263,0.45659893831228265,-0.2911111111111111,-0.6044444444444445,0.20444444444444446,0.15053464798451094,-0.10646951718208268,0.8641650115145496
1592251591.046853,-0.6155017125765835,9.782006850306335,0.3634948622702494,-0.2911111111111111,-0.6044444444444445,0.20444444444444446,0.14513709055553364,-0.10853953098965206,0.8943114521965789
1592251591.056853,-0.5882300180146013,9.749115009007301,0.35460168768370154,-0.2911111111111111,-0.6044444444444445,0.20444444444444446,0.1369523516114455,-0.10214230411326576,0.925198300091261
1592251591.066853,-0.46802093963790303,9.752071285482103,0.2563983066863212,-0.2932131382998828,-0.5963866735541529,0.20444444444444446,0.13176458248574957,-0.10695035708374642,0.9491307217700864
1592251591.076853,-0.2763698526059869,9.804740920832701,0.12933292812642458,-0.29777777777777775,-0.5788888888888889,0.20444444444444446,0.12504955233485357,-0.1194823538100536,0.9593574120525536
1592251591.086853,-0.03214818417639429,9.819654399048854,-0.12355544747081712,-0.29777777777777775,-0.5788888888888889,0.20444444444444446,0.08524373314613788,-0.13631343684678454,0.9721241467816781
1592251591.096853,0.0,9.75,-0.22,-0.29777777777777775,-0.5788888888888889,0.20444444444444446,0.06654067773228381,-0.14508049407202864,0.9773843811168246
1592251591.106853,0.08088515833651279,9.869325086849134,0.05489045964778409,-0.29777777777777775,-0.5788888888888889,0.20444444444444446,0.009937930836177777,-0.14275351691011448,0.9964619708117002
1592251591.116853,0.00332495549272175,9.60132998219709,0.13666247774636087,-0.304887771843474,-0.5788888888888889,0.2068144424663432,-0.017816674310614698,-0.15511490353212798,1.0082903394069143
1592251591.126853,0.15,9.66,0.21,-0.3244444444444444,-0.5788888888888889,0.21333333333333335,-0.02181661564992912,-0.17671458676442586,1.0242901047641721
1592251591.136853,0.40898520026408447,9.71333819322183,0.40177954445422537,-0.3244444444444444,-0.5788888888888889,0.21333333333333335,-0.03434673606571635,-0.18370713255978244,1.0496599324460718
1592251591.146853,0.6989414408971167,9.700793919327161,0.1699117867414264,-0.3244444444444444,-0.5788888888888889,0.21333333333333335,-0.033758018814664295,-0.17678194478093934,1.0879064427775682
1592251591.156853,0.82,9.61,0.18,-0.3244444444444444,-0.5788888888888889,0.21333333333333335,-0.04036073895236887,-0.16907877128695067,1.1104657365813921
1592251591.166853,0.7966320191643996,9.787753461366682,0.4217341345568233,-0.3309638141125412,-0.5689681089591764,0.21333333333333335,-0.03404947523831643,-0.15136947966339662,1.1707064889682264
1592251591.176853,0.67,9.46,0.31,-0.35,-0.54,0.21333333333333335,-0.028361600344907853,-0.1538071403320003,1.2064588454410803
1592251591.186853,0.9530458191999138,9.457176546599904,0.37934636300005387,-0.35,-0.54,0.21333333333333335,0.004008287751738311,-0.16286603392609042,1.2784308890417173
1592251591.196853,1.0,9.51,0.35,-0.35,-0.54,0.21333333333333335,0.017453292519943295,-0.1679879405044542,1.296997800388286
1592251591.206853,1.2788752830985375,9.559706729108287,0.25070899389658746,-0.35,-0.54,0.21333333333333335,0.030620601146600736,-0.17877356074764783,1.3563213497182236
1592251591.216853,1.3228561072852483,9.411429865893439,0.26381116346502353,-0.35634891869034674,-0.5387302162619306,0.20613789215094036,0.03745179097041248,-0.18066237413783184,1.412884831858657
1592251591.226853,1.42,9.29,0.11,-0.38333333333333336,-0.5333333333333333,0.17555555555555555,0.04363323129985824,-0.17889624832941878,1.48352986419518
1592251591.236853,1.61,9.486763150247022,0.33446701540249923,-0.38333333333333336,-0.5333333333333333,0.17555555555555555,0.06719948753530158,-0.1752312027247468,1.609813641542074
1592251591.2468529,1.660185676392573,9.345941644562336,0.11124668435013263,-0.38333333333333336,-0.5333333333333333,0.17555555555555555,0.08916167257991588,-0.17778516339446218,1.7186979349595883
1592251591.2568529,1.72,9.21,0.22,-0.38333333333333336,-0.5333333333333333,0.17555555555555555,0.09272061651219875,-0.1712604328519436,1.7649642060792656
1592251591.2668529,1.944356855810963,9.263812248834594,0.13376209612602474,-0.3984653056850453,-0.5246864919894979,0.17555555555555555,0.10657741136076634,-0.17609627981936252,1.8241039625498325
1592251591.2768528,1.62,8.98,0.35,-0.43,-0.5066666666666667,0.17555555555555555,0.10362892433716332,-0.1679879405044542,1.8336865453765423
1592251591.2868528,2.2906826002294007,9.290825308757235,0.16287310944543734,-0.43,-0.5066666666666667,0.17555555555555555,0.12221806124947587,-0.21501313789591156,1.772795643081741
1592251591.2968528,2.6505052980609816,9.330851053605324,0.2259840457483361,-0.43,-0.5066666666666667,0.17555555555555555,0.11863945203986762,-0.2271582568587156,1.685185603942075
1592251591.3068528,3.02,9.51,0.17,-0.43,-0.5066666666666667,0.17555555555555555,0.12108221685710661,-0.2399827721492203,1.6253378659197195
1592251591.3168528,2.8092455202766424,8.829811380069161,-0.0057736560829927674,-0.4435807398092843,-0.4973920150895945,0.1775429808934996,0.1112647398146385,-0.2529369106454504,1.4837561918646072
1592251591.3268528,3.09,8.9,-0.09,-0.47555555555555556,-0.47555555555555556,0.18222222222222223,0.1112647398146385,-0.26289021858164585,1.399535893942953
1592251591.3368528,3.3826746565331773,9.033483032606096,-0.19633732826658873,-0.47555555555555556,-0.47555555555555556,0.18222222222222223,0.11390472365387476,-0.281892664158329,1.3058518179766383
1592251591.3468528,3.5620470858455353,8.971958799885156,-0.2860235429227677,-0.47555555555555556,-0.47555555555555556,0.18222222222222223,0.09403153955205937,-0.25808671093693175,1.2655645389446044
1592251591.3568528,3.61,8.93,-0.31,-0.47555555555555556,-0.47555555555555556,0.18222222222222223,0.09599310885968812,-0.25416357232167425,1.2479104151759455
1592251591.3668528,3.660295399515739,8.907060532687652,-0.14852881355932204,-0.4840846919558784,-0.46673231100349744,0.1866338444982513,0.0882931641536439,-0.2193533395988469,1.1908027560631271
1592251591.3768528,3.55,8.76,-0.2,-0.5077777777777778,-0.44222222222222224,0.1988888888888889,0.08508480103472357,-0.210530341021816,1.1442814908387822
1592251591.3868527,3.815902194422187,9.086143606709918,0.006264312853782733,-0.5077777777777778,-0.44222222222222224,0.1988888888888889,0.08211447295862953,-0.24008810813111198,1.0714189906964962
1592251591.3968527,3.69,9.0,-0.06,-0.5077777777777778,-0.44222222222222224,0.1988888888888889,0.07199483164476608,-0.2574360646691636,1.048288381979094
1592251591.4068527,4.04824490614829,9.166595924918632,0.23164898122965805,-0.5077777777777778,-0.44222222222222224,0.1988888888888889,0.05731732387136534,-0.28147726212865976,1.0134676374283558
1592251591.4168527,4.293085999412973,9.275761667155855,0.19921866744936895,-0.513676222156997,-0.4377983889378078,0.19372775005707205,0.027889152472101348,-0.26845995509244963,0.9748863241954292
1592251591.4268527,4.383487268434873,8.982654958926549,0.061360844113608426,-0.5344444444444445,-0.4222222222222222,0.17555555555555555,0.005181781262809283,-0.2322157500494762,0.9213888476766079
1592251591.4368527,4.41643066650769,8.776442589722189,0.12156456420651007,-0.5344444444444445,-0.4222222222222222,0.17555555555555555,-0.01827741797245439,-0.14631798287173542,0.8471180375902609
1592251591.4468527,4.74,8.82,-0.09,-0.5344444444444445,-0.4222222222222222,0.17555555555555555,-0.019634954084936207,-0.11780972450961724,0.7744898555724837
1592251591.4568527,4.634282204887299,8.851427401629099,0.2217161573934405,-0.5344444444444445,-0.4222222222222222,0.17555555555555555,-0.039082704438635034,-0.023127041768590765,0.651757876451042
1592251591.4668527,4.737789703836215,8.871684555754324,0.16203504936063076,-0.5391928929525829,-0.41589095754470434,0.1683198244955351,-0.050032692389155094,0.035985707441891134,0.5671672494356833
1592251591.4768527,4.69,8.8,0.17,-0.5577777777777778,-0.39111111111111113,0.14,-0.06654067773228381,0.08290313946973066,0.5028729907308661
1592251591.4868526,4.501342329545454,8.623382575757576,0.01119460227272727,-0.5577777777777778,-0.39111111111111113,0.14,-0.09077762583006173,0.10813867290599277,0.4183826459883369
1592251591.4968526,4.682971146779202,8.7426449180872,-0.09884065530240167,-0.5577777777777778,-0.39111111111111113,0.14,-0.12848480935640422,0.1371838092021297,0.3574842740536124
1592251591.5068526,4.590730077626019,8.73926992237398,-0.05287609315122335,-0.5577777777777778,-0.39111111111111113,0.14,-0.16425690692796616,0.15185957274646816,0.3031568483243231
1592251591.5168526,4.616813732917184,8.698201872670525,-0.08681373291718433,-0.5586435427882657,-0.38991235955812786,0.14086576501048792,-0.1887550434676452,0.15493928921025507,0.26020956663779876
1592251591.5268526,4.488725581395349,8.710632558139535,0.10730232558139535,-0.5722222222222222,-0.3711111111111111,0.15444444444444444,-0.2302687971903007,0.19395986039096286,0.20736236548418444
1592251591.5368526,4.601727264006139,8.759036358403684,0.07709636415963163,-0.5722222222222222,-0.3711111111111111,0.15444444444444444,-0.2534126843439494,0.21132763953791736,0.16891494784201608
1592251591.5468526,4.30437455291144,8.561339119652821,0.07589298488244552,-0.5722222222222222,-0.3711111111111111,0.15444444444444444,-0.2613903457636318,0.22219836522560543,0.13753238619621727
1592251591.5568526,4.490460800503263,8.62221888023905,0.04175807973578674,-0.5722222222222222,-0.3711111111111111,0.15444444444444444,-0.23938859232454834,0.20398535632683729,0.10755214523884893
1592251591.5668526,4.183246897816193,8.481688439249583,0.2154546049831385,-0.572611836863875,-0.37158730678424223,0.15414141083427008,-0.196505363614121,0.2028803468513293,0.10872889664109316
1592251591.5768526,4.498290822851031,8.693890348531703,0.3587818828617266,-0.5822222222222222,-0.38333333333333336,0.14666666666666667,-0.16354322799129203,0.15422943177166562,0.06606066044777295
1592251591.5868526,4.492497925716238,8.518436722143589,0.2731348528478696,-0.5822222222222222,-0.38333333333333336,0.14666666666666667,-0.13747896504210716,0.09578920032842933,0.042952027733942764
1592251591.5968525,4.7127906150017775,8.62583505154639,0.10951368645574121,-0.5822222222222222,-0.38333333333333336,0.14666666666666667,-0.12069016924917775,0.07627974525316614,0.0156475468314353
1592251591.6068525,4.940839419709855,8.727157778889445,0.3724486243121561,-0.5822222222222222,-0.38333333333333336,0.14666666666666667,-0.09220882643001378,0.07704738084354848,-0.012266242084907921
1592251591.6168525,4.454083581509776,8.395026867797489,0.378638806163408,-0.5832809285395715,-0.38560198972765336,0.141826866358784,-0.08414831511012857,0.09539917600452852,-0.013238452603747371
1592251591.6268525,4.48,8.3,0.37,-0.59,-0.4,0.1111111111111111,-0.0643590161672909,0.0916297857297023,-0.014180800172453926
1592251591.6368525,4.731628189550426,8.345115431348724,0.5469015795868772,-0.59,-0.4,0.1111111111111111,-0.050263043662005596,0.16907612042235165,0.0015812407333150329
1592251591.6468525,4.566144644788241,8.513072322394121,-0.0030723223941206343,-0.59,-0.4,0.1111111111111111,0.027691323576655855,0.13336172480739727,0.024227897925201018
1592251591.6568525,4.394062530532486,8.406403517342453,0.16465461651196875,-0.59,-0.4,0.1111111111111111,0.06986400801658323,0.14479582294158916,0.06538526038855698
1592251591.6668525,4.861234196384954,8.537539423546653,0.3367704934049829,-0.59,-0.4,0.1111111111111111,0.13512923971659624,0.1054578750676087,0.0975708541036319
1592251591.6768525,4.473931794386,8.345323328513736,0.37532332851373584,-0.6222222222222222,-0.38555555555555554,0.10222222222222223,0.17636189006878397,0.05793873980278354,0.15795884544460098
1592251591.6868525,5.001610772235215,8.365132000867952,0.38161969284181596,-0.6222222222222222,-0.38555555555555554,0.10222222222222223,0.1960249768093691,0.025000767456916387,0.17123066164270023
1592251591.6968524,5.33,8.46,0.44,-0.6222222222222222,-0.38555555555555554,0.10222222222222223,0.20398535632683729,0.02181661564992912,0.17998707911191522
1592251591.7068524,4.96418284789644,8.452305825242718,0.46632686084142394,-0.6222222222222222,-0.38555555555555554,0.10222222222222223,0.20328637737882985,0.024650481056560286,0.17600678232465067
1592251591.7168524,5.13112114371708,8.454153498871332,0.3597742663656885,-0.6215667586322214,-0.38555555555555554,0.10063038207507734,0.19281357470113428,0.04061190089325971,0.14316230630777413
1592251591.7268524,4.6,7.63,0.14,-0.6144444444444445,-0.38555555555555554,0.08333333333333333,0.20180369476184434,0.019634954084936207,0.1341721862470641
1592251591.7368524,5.18,8.12,-0.27,-0.6144444444444445,-0.38555555555555554,0.08333333333333333,0.18216874067690814,0.017453292519943295,0.12762720155208535
1592251591.7468524,5.396505464407508,8.195208775274564,-0.10826374157514566,-0.6144444444444445,-0.38555555555555554,0.08333333333333333,0.19416787928436915,-0.029095811681715572,0.14745275298676255
1592251591.7568524,4.945964793500338,7.912714962762356,-0.18109004739336493,-0.6144444444444445,-0.38555555555555554,0.08333333333333333,0.20092556490376154,-0.005737755145033829,0.17664368645628797
1592251591.7668524,5.437558463708222,8.004122798386303,-0.064502935484929,-0.6152842737453581,-0.38616634050167453,0.08234080779588995,0.226293166040622,-0.03406455340664004,0.16836271345360473
1592251591.7768524,5.54,8.06,0.01,-0.6266666666666667,-0.39444444444444443,0.06888888888888889,0.2181661564992912,0.05126904677733343,0.17344209441693648
1592251591.7868524,5.56,8.191861731632292,-0.22904190408955677,-0.6266666666666667,-0.39444444444444443,0.06888888888888889,0.24675399793180974,0.1255096773827049,0.16017219927993925
1592251591.7968524,5.555362061519267,8.241741446326598,-0.008258553673400837,-0.6266666666666667,-0.39444444444444443,0.06888888888888889,0.23242594624181984,0.23109911514343082,0.14153904982855256
1592251591.8068523,5.54,8.38,0.13,-0.6266666666666667,-0.39444444444444443,0.06888888888888889,0.22907446432425577,0.29561514205653955,0.12980886311707826
1592251591.8168523,5.19020261115901,8.220188138933366,0.3297684443897032,-0.6266956111179538,-0.39444444444444443,0.06886798456295931,0.1766451250678437,0.35784143558142956,0.12652689872005496
1592251591.8268523,5.33,8.35,0.17,-0.6466666666666666,-0.39444444444444443,0.05444444444444444,0.1287180323345818,0.3916082509162277,0.11999138607461016
1592251591.8368523,5.030102934153977,8.081660211174192,0.25105534037247307,-0.6466666666666666,-0.39444444444444443,0.05444444444444444,0.07113424041513063,0.4010200016475958,0.13664445434672642
1592251591.8468523,5.295144622162629,8.330301216358587,0.2540903649075759,-0.6466666666666666,-0.39444444444444443,0.05444444444444444,0.07244102124004881,0.38403815065398,0.15479939829165548
1592251591.8568523,4.99,8.25,0.23,-0.6466666666666666,-0.39444444444444443,0.05444444444444444,0.06981317007977318,0.3665191429188092,0.1810779098944117
1592251591.8668523,5.2025744409333985,8.181976178901312,0.17898213417598446,-0.6466666666666666,-0.39444444444444443,0.05444444444444444,0.05219008155537165,0.34889605439440763,0.1875706267191912
1592251591.8768523,5.246211582393254,8.193238030192413,0.24283059748946095,-0.6322222222222222,-0.4011111111111111,0.03333333333333333,0.04161375184856732,0.3331298970491397,0.18600107345237055
1592251591.8868523,5.136066421770748,8.01538171277207,0.034344403628457906,-0.6322222222222222,-0.4011111111111111,0.03333333333333333,0.041436631701809175,0.3018143167381052,0.17560881794887326
1592251591.8968523,5.382546866759362,7.897764060027808,0.0803603106870595,-0.6322222222222222,-0.4011111111111111,0.03333333333333333,0.03470467909771717,0.27760082245677464,0.16625208809657882
1592251591.9068522,5.79,8.02,0.17,-0.6322222222222222,-0.4011111111111111,0.03333333333333333,0.03381575425739013,0.23671027980173093,0.1538071403320003
1592251591.9168522,5.709518701072775,7.698074804291099,0.25048129892722526,-0.6322222222222222,-0.4011111111111111,0.03333333333333333,0.037717597736728635,0.20647099283685755,0.14795437511299253
1592251591.9268522,6.06,7.74,0.1,-0.6322222222222222,-0.39444444444444443,0.01888888888888889,0.061086523819801536,0.19307704850187268,0.13199052468207118
1592251591.9368522,5.7587066866939445,7.662586626612109,0.32647226394571915,-0.6322222222222222,-0.39444444444444443,0.01888888888888889,0.08707374369988245,0.2436400808047629,0.1218908904464717
1592251591.9468522,5.578384758897819,7.88,0.12997847301951782,-0.6322222222222222,-0.39444444444444443,0.01888888888888889,0.1198073631720808,0.27252288997848584,0.09581299967265279
1592251591.9568522,5.22,7.88,0.28,-0.6322222222222222,-0.39444444444444443,0.01888888888888889,0.13526301702956053,0.29343348049154666,0.0839939702522271
1592251591.9668522,5.229028430796356,7.952227446370849,0.29805686159271233,-0.6322222222222222,-0.39444444444444443,0.01888888888888889,0.15299029944410825,0.2963880275606379,0.08103942318313583
1592251591.9768522,5.15,8.11,0.44,-0.6133333333333333,-0.39444444444444443,-0.03,0.1679879405044542,0.26725354171163174,0.08290313946973066
1592251591.9868522,5.06368455158113,7.756450233281493,0.34068299637117677,-0.6133333333333333,-0.39444444444444443,-0.03,0.18014343717897602,0.17483093858583815,0.09147710334957061
1592251591.9968522,5.504037688607762,7.834616415189651,0.214616415189651,-0.6133333333333333,-0.39444444444444443,-0.03,0.18466458719021447,0.11674091111064222,0.10318848083481515
1592251592.0068521,5.528902475910643,7.793414855463855,0.1679272350170678,-0.6133333333333333,-0.39444444444444443,-0.03,0.20196993769361052,0.08085453823827218,0.09939866154071192
1592251592.0168521,5.510779069265005,7.684674415590027,-0.0314302380849501,-0.6133333333333333,-0.39444444444444443,-0.03,0.22272798603901145,0.06503888235606196,0.08358300565850173
1592251592.0268521,5.68,7.91,0.08,-0.6133333333333333,-0.3688888888888889,-0.015555555555555555,0.2617993877991494,0.07635815477475191,0.074176493209759
1592251592.0368521,5.6895332384631025,8.043465338483433,-0.10113153079894287,-0.6133333333333333,-0.3688888888888889,-0.015555555555555555,0.29091700772195667,0.0825976447582106,0.06273742824008474
1592251592.046852,5.344437795579577,7.980364829649647,-0.09916417334234147,-0.6133333333333333,-0.3688888888888889,-0.015555555555555555,0.296372754093104,0.13962634015954636,0.09260954359688808
1592251592.056852,5.565764602886984,8.184979945843597,-0.17423539711301586,-0.6133333333333333,-0.3688888888888889,-0.015555555555555555,0.28913653953492,0.14004555391141238,0.08859048602867368
1592251592.066852,5.617001038337032,8.407004499460472,-0.122998961662968,-0.6133333333333333,-0.3688888888888889,-0.015555555555555555,0.25094484753581164,0.14377157264303267,0.06157685022442634
1592251592.076852,5.77,8.5,-0.17,-0.64,-0.38222222222222224,-0.03888888888888889,0.1974403716318585,0.11562806294462433,0.009817477042468103
1592251592.086852,5.716664285532056,8.231210551827946,-0.31727224022246603,-0.64,-0.38222222222222224,-0.03888888888888889,0.13083337633050848,0.12283388565682787,-0.02955181007794376
1592251592.096852,5.3069613643440565,7.948115403961772,-0.22151931782797193,-0.64,-0.38222222222222224,-0.03888888888888889,0.08887758640412609,0.07849362148900699,-0.06670640959779855
1592251592.106852,5.47,7.93,-0.14,-0.64,-0.38222222222222224,-0.03888888888888889,0.04145156973486533,0.11999138607461016,-0.05781403147231216
1592251592.116852,5.512742454652175,7.904354527208695,-0.17419396372174045,-0.64,-0.38222222222222224,-0.03888888888888889,0.029329125568811818,0.11439641184412391,-0.04102910878085346
1592251592.126852,5.67,7.92,0.02,-0.6077777777777778,-0.38222222222222224,-0.03888888888888889,-0.0032724923474893677,0.1308996938995747,0.00545415391248228
1592251592.136852,5.536460612691466,7.8087171772428885,0.21289022611232677,-0.6077777777777778,-0.38222222222222224,-0.03888888888888889,-0.01864865130685293,0.13494605152045985,0.045917730121333766
1592251592.146852,5.789319407008086,8.024495090489026,0.1737321909896034,-0.6077777777777778,-0.38222222222222224,-0.03888888888888889,-0.06341666774198063,0.14951805838060755,0.11887362055051663
1592251592.156852,5.66,8.2,0.34,-0.6077777777777778,-0.38222222222222224,-0.03888888888888889,-0.0916297857297023,0.1636246173744684,0.15817046346198613
1592251592.166852,5.361306260575296,7.992573792066178,0.016415115623237497,-0.6077777777777778,-0.38222222222222224,-0.03888888888888889,-0.13959836698437575,0.1636246173744684,0.14911978775355716
1592251592.176852,5.381278494453607,7.919387072724398,0.20007003592165012,-0.6077777777777778,-0.38,-0.03111111111111111,-0.1843427625079794,0.12676561207584428,0.10791200561666886
1592251592.186852,5.807692203420464,8.3078973408942,0.0010769717371167664,-0.6077777777777778,-0.38,-0.03111111111111111,-0.2060495384995576,0.06577990809950551,0.04072436564273635
1592251592.196852,5.7958796010448825,7.992160531940157,-0.05522631203989552,-0.6077777777777778,-0.38,-0.03111111111111111,-0.22966645567719784,0.035920557714293117,0.01851663882226334
1592251592.206852,5.863363579663199,7.853485705088224,-0.12220167796712472,-0.6077777777777778,-0.38,-0.03111111111111111,-0.22247276863110846,-0.012793092581820546,-0.012692992402777705
1592251592.216852,5.593324346618916,7.423110677423898,0.004379212522382964,-0.6077777777777778,-0.38,-0.03111111111111111,-0.22155224641896334,-0.025680403551852214,-0.006249336917761872
1592251592.226852,6.07,7.55,0.0,-0.6077777777777778,-0.37333333333333335,-0.03111111111111111,-0.19198621771937624,-0.02399827721492203,0.004363323129985824
1592251592.236852,5.876248466508547,7.869690030260898,0.24218941686431666,-0.6077777777777778,-0.37333333333333335,-0.03111111111111111,-0.16768095197721367,-0.0007497621572012947,0.011760577921078786
1592251592.246852,5.721888587951101,7.672644023131542,-0.014711953736915306,-0.6077777777777778,-0.37333333333333335,-0.03111111111111111,-0.11469996645205743,0.01790652109189629,-0.004632178063348357
1592251592.256852,5.773160851247704,7.743160851247705,0.12993410392135682,-0.6077777777777778,-0.37333333333333335,-0.03111111111111111,-0.06021428341232193,0.02881209684285362,-0.04050132025554682
1592251592.266852,5.826021929350762,7.796021929350761,0.2960689208166793,-0.6077777777777778,-0.37333333333333335,-0.03111111111111111,-0.009141791214787996,0.018103348478854572,-0.06109506710939114
1592251592.276852,5.84,7.966998233903075,0.201472146556111,-0.6252220259892305,-0.3610197463605432,-0.06599960753401649,0.05372606907477141,0.001167989256440214,-0.09676276708623419
1592251592.286852,5.492553152990139,7.507828643807112,0.261271148104587,-0.6266666666666667,-0.36,-0.06888888888888889,0.0927991744876685,-0.005830857169226057,-0.09246293450974709
1592251592.2968519,5.8829659502655485,7.800057576810444,0.02127487963468505,-0.6266666666666667,-0.36,-0.06888888888888889,0.11718149650697135,-0.023627908030047506,-0.08962003004322362
1592251592.3068519,5.652411757705581,7.73772819231227,0.07381744615018446,-0.6266666666666667,-0.36,-0.06888888888888889,0.12091361385576109,-0.03012175440653697,-0.04314777720081935
1592251592.3168519,5.731229122228036,7.675492011107981,0.017705155551978102,-0.6266666666666667,-0.36,-0.06888888888888889,0.12363045937890901,-0.036489161127439704,-0.012938068777914258
1592251592.3268518,5.88,8.07,0.27,-0.6,-0.3466666666666667,-0.03111111111111111,0.10362892433716332,-0.02181661564992912,0.02945243112740431
1592251592.3368518,5.871486368275259,8.291354424843272,0.014591048257763528,-0.6,-0.3466666666666667,-0.03111111111111111,0.08412636806917248,-0.0004566730707010608,0.031309817438641536
1592251592.3468518,5.3259057895286865,7.9540803636743656,-0.13881884209426273,-0.6,-0.3466666666666667,-0.03111111111111111,0.06129736001294891,0.015142786614693657,-0.02016355501903968
1592251592.3568518,5.6300884625632825,8.000176925126565,-0.06998525623945288,-0.6,-0.3466666666666667,-0.03111111111111111,0.031626051218469946,0.04030284034009248,-0.06439922353692727
1592251592.3668518,5.674791899813483,8.089583799626965,-0.06253468336441957,-0.6,-0.3466666666666667,-0.03111111111111111,0.02756239409881022,0.011044509078542455,-0.08471750913522591
1592251592.3768518,5.41,7.82,-0.16,-0.6077777777777778,-0.35333333333333333,-0.03111111111111111,-0.01090830782496456,0.01308996938995747,-0.09381144729469522
1592251592.3868518,5.6981511785017265,7.890090827203123,0.10478756943401893,-0.6077777777777778,-0.35333333333333333,-0.03111111111111111,-0.029597853396561624,0.003745196604158939,-0.08106857531406085
1592251592.3968518,5.666090031841716,7.98009844194356,0.07485233708466006,-0.6077777777777778,-0.35333333333333333,-0.03111111111111111,-0.0588020657514728,0.001090830782496456,-0.0602442394449063
1592251592.4068518,5.623939701098487,7.981313233699496,0.06868676630050446,-0.6077777777777778,-0.35333333333333333,-0.03111111111111111,-0.09249988926131597,0.03141336544151443,-0.04075760572661455
1592251592.4168518,5.62,7.9472247553481,0.08311009786076018,-0.6077777777777778,-0.35333333333333333,-0.03111111111111111,-0.1206804218504805,0.07675497600034874,-0.028883493487138166
1592251592.4268517,5.561780158122928,7.963268481072612,0.040097278391080994,-0.6133225246232132,-0.336699092797027,-0.05698659638980985,-0.15213375416604358,0.10906185539695301,-0.03488536218719401
1592251592.4368517,5.4550301866716016,7.866396567278111,0.19403876847632487,-0.6144444444444445,-0.3333333333333333,-0.06222222222222222,-0.18141690995369414,0.1263332482926835,-0.056865663982313575
1592251592.4468517,5.542884061763936,8.287257262496729,0.2714420308819681,-0.6144444444444445,-0.3333333333333333,-0.06222222222222222,-0.20882229585780754,0.12497706228123619,-0.09647015105742474
1592251592.4568517,5.452425366881329,8.230910440257595,0.23266716142778485,-0.6144444444444445,-0.3333333333333333,-0.06222222222222222,-0.22022212874499186,0.12341594343482311,-0.11333389990705488
1592251592.4668517,5.326910655718081,8.0802927868617,0.17744068851595607,-0.6144444444444445,-0.3333333333333333,-0.06222222222222222,-0.22898470862294526,0.12232062095007894,-0.12593010848161287
1592251592.4768517,5.37,7.74,0.12,-0.6077777777777778,-0.3333333333333333,-0.04777777777777778,-0.22689280275926282,0.09490227807719166,-0.19307704850187268
1592251592.4868517,5.37,7.74,0.12,-0.6077777777777778,-0.3333333333333333,-0.04777777777777778,-0.22689280275926282,0.09490227807719166,-0.19307704850187268
1592251592.4968517,5.540280026906499,8.044711627095841,0.2096210667928947,-0.6077777777777778,-0.3333333333333333,-0.04777777777777778,-0.1926763063130117,0.09685750644554887,-0.1715695364499434
1592251592.5068517,5.480923952860402,8.0997690117849,0.4216439202059741,-0.6077777777777778,-0.3333333333333333,-0.04777777777777778,-0.15852322013958198,0.06904989906933004,-0.1660597207637202
1592251592.5168517,5.3931274987963915,8.121718125300903,0.6455248780692023,-0.6077777777777778,-0.3333333333333333,-0.04777777777777778,-0.12500334399911123,0.03792429979603575,-0.1627077331496731
1592251592.5268517,5.205062465103294,7.79278301228364,0.611518355667225,-0.6077777777777778,-0.32118136981202305,-0.060942404925863884,-0.03580369590850377,-0.022534890567395816,-0.14255353218500805
1592251592.5368516,5.272436116413812,7.88186208513346,0.5892474630764594,-0.6077777777777778,-0.32,-0.06222222222222222,-0.028361600344907853,-0.0272707695624114,-0.1407171709420428
1592251592.5468516,5.334311734602116,7.895093278396363,0.43960481352495867,-0.6077777777777778,-0.32,-0.06222222222222222,0.01552931678653438,-0.02889635908579815,-0.13258922332510906
1592251592.5568516,5.205375695369428,7.5583867429287785,0.22,-0.6077777777777778,-0.32,-0.06222222222222222,0.09646198746759971,-0.03468359847626258,-0.11951045644888676
1592251592.5668516,5.294284120809976,7.687164369065324,0.3085961274453724,-0.6077777777777778,-0.32,-0.06222222222222222,0.15303171264399096,-0.060309271008786365,-0.12669315975532952
1592251592.5768516,5.282288067726805,7.849111085688136,0.494534950234527,-0.6077777777777778,-0.32,-0.06222222222222222,0.18116589018289814,-0.07470350137752957,-0.13389027493970113
1592251592.5868516,5.208824091332712,7.721831314072693,0.15830358807082945,-0.6077777777777778,-0.32,-0.07276680128404267,0.2633102595961454,-0.08952645455780477,-0.09471722824197831
1592251592.5968516,5.311383409604965,7.697340487086424,0.07734048708642366,-0.6077777777777778,-0.32,-0.07555555555555556,0.30726042482077004,-0.10879882304494896,-0.060349548880535606
1592251592.6068516,5.591566643817808,8.06619330134493,0.07128111187273974,-0.6077777777777778,-0.32,-0.07555555555555556,0.30803352354398245,-0.12267773768466855,-0.037701537573098964
1592251592.6168516,5.450695492481408,8.060231830827135,0.16297270760223287,-0.6077777777777778,-0.32,-0.07555555555555556,0.2960237102200511,-0.13232322638481123,-0.04287510222010185
1592251592.6268516,5.470783224400872,7.910694989106753,0.03104248366013071,-0.5850530137981118,-0.31526567417090295,-0.051883926410070204,0.2873722400357338,-0.12612843808153765,-0.053412802566769
1592251592.6368515,5.512220760233919,7.8733344298245616,-0.1388797514619883,-0.5811111111111111,-0.31444444444444447,-0.04777777777777778,0.28628251856472714,-0.11162918733593968,-0.053329584661141245
1592251592.6468515,5.513257252080054,8.010684731279513,-0.26674274791994607,-0.5811111111111111,-0.31444444444444447,-0.04777777777777778,0.25931558303282076,-0.06857295410579026,-0.045967650874700415
1592251592.6568515,5.458699354289363,7.877547955249651,-0.2614498923815606,-0.5811111111111111,-0.31444444444444447,-0.04777777777777778,0.2159240179278844,-0.04818727372652123,-0.025137948856267227
1592251592.6668515,5.501326406305984,7.914158007882479,-0.07394177714080974,-0.5811111111111111,-0.31444444444444447,-0.04777777777777778,0.17934573236432025,-0.04231561636775821,-0.014118207356324651
1592251592.6768515,5.697055060543752,8.200582590815626,0.21376056659812656,-0.6154502068895489,-0.31444444444444447,-0.05984286548371538,0.1415774743144846,-0.04673874703682153,-0.0034394689580154415
1592251592.6868515,5.720128709183463,8.225321772958656,0.21545048214211812,-0.6222222222222222,-0.31444444444444447,-0.06222222222222222,0.11698565361181108,-0.0442277866698652,0.0021255015892686397
1592251592.6968515,5.784561173550492,8.241422874194718,-0.018829796134645943,-0.6222222222222222,-0.31444444444444447,-0.06222222222222222,0.06978560802246381,-0.02770884199646748,-0.010625446888030292
1592251592.7068515,5.621795248707857,8.16514059462279,-0.009084356773673481,-0.6222222222222222,-0.31444444444444447,-0.06222222222222222,0.04584556585332952,0.010086447599108133,-0.037322613064905655
1592251592.7168515,5.63764358093962,8.191688133322168,0.05955447617452475,-0.6222222222222222,-0.31444444444444447,-0.06222222222222222,0.04319203907582802,0.016362461737446838,-0.07133494342431208
1592251592.7268515,5.517846378567103,8.162942391962664,-0.06483308988563896,-0.6130648283396867,-0.3010605610776618,-0.04813392394139838,0.031185192255309455,0.012213115389263911,-0.12482455651516572
1592251592.7368515,5.7129364466122565,8.13,-0.05294296614671368,-0.6077777777777778,-0.29333333333333333,-0.04,0.03567638801591502,0.008149175499469105,-0.16984833720601664
1592251592.7468514,5.867270701302319,7.980509552661513,-0.049898089467697374,-0.6077777777777778,-0.29333333333333333,-0.04,0.031931812995803,0.028019413183223554,-0.17209801018931278
1592251592.7568514,5.809071596049547,7.893214361840703,0.057714042109750605,-0.6077777777777778,-0.29333333333333333,-0.04,0.04068796493562681,0.08707156343520536,-0.16053914451954213
1592251592.7668514,5.630885825579752,7.966983268411811,0.1994094496134983,-0.6077777777777778,-0.29333333333333333,-0.04,0.04201308988961883,0.11800996076946758,-0.14013605647489052
1592251592.7768514,5.574436653197052,8.137084620869977,0.10847872593296887,-0.6261439928162058,-0.28950703853366083,-0.06984509943744552,0.042614612633578866,0.1637613925676623,-0.11328045612153831
1592251592.7868514,5.652611550514848,8.213479331443068,0.14174376958662885,-0.6344444444444445,-0.2877777777777778,-0.08333333333333333,0.03594963805269752,0.2049824222189117,-0.09898072523801336
1592251592.7968514,5.382857863508612,8.212023829541907,0.36142809099425877,-0.6344444444444445,-0.2877777777777778,-0.08333333333333333,0.0590476458175611,0.19595999773248218,-0.1292763530120579
1592251592.8068514,5.549808256421263,8.002166177768238,0.2741086546946173,-0.6344444444444445,-0.2877777777777778,-0.08333333333333333,0.09335280460323989,0.18152260859933153,-0.16360370139466524
1592251592.8168514,5.443335184979447,7.8833340739917785,0.14740843609969262,-0.6344444444444445,-0.2877777777777778,-0.08333333333333333,0.11005259788746047,0.17808823450460323,-0.16693754677018496
1592251592.8268514,5.369820977891443,7.895892586734865,0.19982097789144262,-0.656825348752865,-0.27565478794404996,-0.08333333333333333,0.16315703980918794,0.1519956351626965,-0.17242915652135518
1592251592.8368514,5.41,8.028223606865742,0.18873618622149071,-0.6611111111111111,-0.2733333333333333,-0.08333333333333333,0.1726549418960144,0.17087288398941075,-0.16521290084980564
1592251592.8468513,5.4565902535677555,8.164355295829049,-0.4401432118582428,-0.6611111111111111,-0.2733333333333333,-0.08333333333333333,0.17622699462463373,0.17770227410808176,-0.14122976920997823
1592251592.8568513,5.367983994826611,8.03972799288659,-0.4399733247110177,-0.6611111111111111,-0.2733333333333333,-0.08333333333333333,0.14843036124868628,0.1902979033557468,-0.1317170895307882
1592251592.8668513,5.303060668628915,8.069182005886747,-0.24044194526204807,-0.6611111111111111,-0.2733333333333333,-0.08333333333333333,0.09290626332726669,0.20630805004896619,-0.12610968020651073
1592251592.8768513,5.3795238386495,8.0033331294535,-0.12714272607725008,-0.6463491917863611,-0.28399471951231947,-0.08743386647909722,0.05524276127375933,0.2053099389455658,-0.13136719757203885
1592251592.8868513,5.359303270019883,7.960696729980118,0.06325140657388216,-0.6411111111111111,-0.2877777777777778,-0.08888888888888889,0.029630506172442332,0.20226044179366254,-0.13308135546456762
1592251592.8968513,5.4057695854831875,8.096077419676464,0.2151539170966375,-0.6411111111111111,-0.2877777777777778,-0.08888888888888889,-0.0006965231475164323,0.1605113761522085,-0.13721394527567052
1592251592.9068513,5.599861740109746,8.361629645604198,0.2354419763736132,-0.6411111111111111,-0.2877777777777778,-0.08888888888888889,-0.01808759129067249,0.1357195490413278,-0.14021996769414194
1592251592.9168513,5.537946076836893,8.368075463515126,0.20756333803173227,-0.6411111111111111,-0.2877777777777778,-0.08888888888888889,-0.025676569397902048,0.12845223374642933,-0.1397521825050496
1592251592.9268513,5.318691782945736,8.310427596899224,0.1439119379844961,-0.6550230490956073,-0.282367579672696,-0.09816351421188631,-0.05235849076720718,0.13061428521297921,-0.13896223561432045
1592251592.9368513,5.423850041523313,8.380490924190296,-0.07105920037964172,-0.6611111111111111,-0.28,-0.10222222222222223,-0.10073973043689165,0.15854532411503858,-0.13879482919220787
1592251592.9468513,5.429094684385382,8.35515780730897,-0.15393687707641196,-0.6611111111111111,-0.28,-0.10222222222222223,-0.12902924526962128,0.17796849856091682,-0.13929564810339087
1592251592.9568512,5.377039395734597,8.24463788507109,-0.011512144549763015,-0.6611111111111111,-0.28,-0.10222222222222223,-0.18291165912378463,0.20424732050246197,-0.159096344862236
1592251592.9668512,5.4296673001939775,8.377304700511393,0.1884860003526853,-0.6611111111111111,-0.28,-0.10222222222222223,-0.2022665342820936,0.20143342314564494,-0.20162223516697408
1592251592.9768512,5.357018633540373,8.516832298136645,0.34832298136645967,-0.6611111111111111,-0.29366459627329194,-0.10753623188405798,-0.2094937130111206,0.20042152408091715,-0.28273520840731126
1592251592.9868512,5.374982399469913,8.506366836460016,0.3118341823000787,-0.6611111111111111,-0.3,-0.11,-0.20458175124092673,0.193252596951816,-0.344421179933253
1592251592.9968512,5.179436521924905,8.15333707205042,0.27730385087859855,-0.6611111111111111,-0.3,-0.11,-0.20824019647241843,0.1911195773364443,-0.4732264904192235
1592251593.0068512,5.300879545236497,8.398016645879304,0.38588961911158015,-0.6611111111111111,-0.3,-0.11,-0.19572715087876758,0.18945432443476093,-0.5328496705484
1592251593.0168512,4.984483950819337,8.10559685767476,0.4666612794337268,-0.6611111111111111,-0.3,-0.11,-0.19558126623654715,0.21468898135200112,-0.5515961780264222
1592251593.0268512,5.160920034140743,8.095536686582099,0.19834064219913472,-0.6611111111111111,-0.30467688926823044,-0.12325118625998632,-0.18049067777142724,0.22589934637012987,-0.5613549020268318
1592251593.0368512,5.211539331287352,8.14939428202229,0.2607446293005977,-0.6611111111111111,-0.30666666666666664,-0.1288888888888889,-0.17150199786612588,0.24018099289389944,-0.559713185709097
1592251593.0468512,4.976190560233977,7.948286016842317,0.2421912661993848,-0.6611111111111111,-0.30666666666666664,-0.1288888888888889,-0.13845247730271285,0.2801772544307155,-0.5737042182017162
1592251593.0568511,6.259107142857143,8.930682603686636,-0.09159562211981567,-0.6611111111111111,-0.30666666666666664,-0.1288888888888889,-0.060789310133095985,0.24041351206938236,-0.6582591965907545
1592251593.0668511,6.408783990426169,9.034733727810652,0.029788910311814354,-0.6611111111111111,-0.30666666666666664,-0.1288888888888889,-0.03508528373332927,0.245315231091087,-0.697266709191932
1592251593.0768511,4.836754250386399,7.987470376094796,0.6491705306543019,-0.6611111111111111,-0.3110985173736333,-0.1466162917167554,-0.008039327327981356,0.3353914070193173,-0.741563176172337
1592251593.0868511,4.732065097505457,7.958036280008447,0.530245464998944,-0.6611111111111111,-0.31444444444444447,-0.16,0.020020877743841155,0.31409232516476093,-0.7574224867114454
1592251593.096851,4.765704215080947,8.051052797899752,0.37358452039476886,-0.6611111111111111,-0.31444444444444447,-0.16,0.06400526116050191,0.3072248080952488,-0.7458954944562998
1592251593.106851,4.766459783913565,8.235893557422969,0.4429671868747499,-0.6611111111111111,-0.31444444444444447,-0.16,0.09041171318126037,0.2988221583666642,-0.7365027539266611
1592251593.116851,4.504137624268843,8.531254364699864,0.7673344750127883,-0.6611111111111111,-0.31444444444444447,-0.16,0.1456107101775256,0.23889858877980583,-0.724831399350887
1592251593.126851,4.595826373556046,8.71144443377812,0.49221528911074847,-0.6561797844691192,-0.3313518500741309,-0.15859104953085945,0.21486032942979982,0.1580462349011431,-0.7176878732412455
1592251593.136851,4.632705911249386,8.752658834124775,0.5293175863762896,-0.6533333333333333,-0.3411111111111111,-0.15777777777777777,0.23596338133816308,0.12178548744796695,-0.7129464671
1592251593.146851,4.543288516516177,8.82933623935011,0.44917999377282125,-0.6533333333333333,-0.3411111111111111,-0.15777777777777777,0.2668280964017724,0.02888547947781899,-0.6901631925839381
1592251593.156851,4.643317730225449,8.67939147879251,0.2571503630110814,-0.6533333333333333,-0.3411111111111111,-0.15777777777777777,0.25882753041607565,0.0,-0.6660999571437367
1592251593.166851,4.6121057655973425,8.795469262743383,0.23168652174777749,-0.6533333333333333,-0.3411111111111111,-0.15777777777777777,0.2217031722200424,-0.0012171155816235988,-0.653993330301365
1592251593.176851,4.436675956833133,8.938891985611045,0.02139546942346955,-0.6533333333333333,-0.3616962835733293,-0.15351877657869814,0.15062871742458037,0.015240274474927231,-0.6522257786926782
1592251593.186851,4.308619692282971,8.8737922307476,0.027243000040171945,-0.6533333333333333,-0.37333333333333335,-0.1511111111111111,0.09851276013365123,0.02198580769794337,-0.6627175396138024
1592251593.196851,4.134653086872284,8.468666806304654,0.047809603602660095,-0.6533333333333333,-0.37333333333333335,-0.1511111111111111,-0.0017378921588445673,-0.02112202999170234,-0.7209337598502702
1592251593.206851,4.175252336448597,8.343546417445483,-0.021537694704049842,-0.6533333333333333,-0.37333333333333335,-0.1511111111111111,-0.037679538057073844,-0.0461907367419356,-0.7508894427439002
1592251593.216851,4.477210869276121,8.630884347710449,0.06809521698656856,-0.6533333333333333,-0.37333333333333335,-0.1511111111111111,-0.12222004828327462,-0.08447384102156505,-0.8250514749661599
1592251593.226851,4.2218442220311925,8.38161549797372,0.32780547709689306,-0.6507791286312715,-0.3905742150722502,-0.15366531581317286,-0.15717943237652515,-0.09954162439609238,-0.8716985448359627
1592251593.236851,4.069730188221989,8.215230632522822,0.5856918975684627,-0.6488888888888888,-0.4033333333333333,-0.15555555555555556,-0.16951928046230408,-0.09464214943433444,-0.8904074790592587
1592251593.246851,4.094356059548082,8.731190123732649,0.49687316705304024,-0.6488888888888888,-0.4033333333333333,-0.15555555555555556,-0.1653289738242869,-0.07308779515789335,-0.9209325551659887
1592251593.256851,4.158297529271681,9.205628845008931,0.5360736257193888,-0.6488888888888888,-0.4033333333333333,-0.15555555555555556,-0.15371846568241107,-0.04714831389256195,-0.9418554228878772
1592251593.266851,4.045089581502265,9.25247312554932,0.5968190115610845,-0.6488888888888888,-0.4033333333333333,-0.15555555555555556,-0.14562786382848114,-0.035731548404973834,-0.95630769550819
1592251593.276851,3.5522413960252064,9.083900145419292,0.8,-0.6334628103624711,-0.4155456455000808,-0.15555555555555556,-0.12149792755085297,-0.03614916978970078,-1.0261001541750503
1592251593.286851,3.4652749781763355,8.9681088802476,0.9083445758273153,-0.6222222222222222,-0.42444444444444446,-0.15555555555555556,-0.10468547458717278,-0.06141279484743657,-1.0730077623142602
1592251593.296851,3.481991818274215,8.977045939628011,0.8662328488667548,-0.6222222222222222,-0.42444444444444446,-0.15555555555555556,-0.06794928407432194,-0.09909267476007932,-1.1879191845778108
1592251593.306851,3.3528433550054517,8.826715664499455,0.6570096514961838,-0.6222222222222222,-0.42444444444444446,-0.15555555555555556,-0.045262010857375766,-0.11448802738144505,-1.229202643028173
1592251593.316851,2.9924110330756855,8.9544795385883,1.0766622199552713,-0.6222222222222222,-0.42444444444444446,-0.15555555555555556,0.001353833692153957,-0.12780302188615744,-1.2962322457837225
1592251593.326851,3.272385680785578,9.27340832478382,0.9388648688260296,-0.6189520331558291,-0.43565652124350646,-0.17003782142101065,0.04198447486541733,-0.12359853788794456,-1.3398624300485649
1592251593.336851,3.4277805420483243,9.51650872629952,0.49238154472464096,-0.6144444444444445,-0.45111111111111113,-0.19,0.08155605864250888,-0.12782822954769862,-1.3645599421146437
1592251593.3468509,2.76850292528623,9.163637432466478,0.4326198807490972,-0.6144444444444445,-0.45111111111111113,-0.19,0.09886881887680884,-0.11155626520389735,-1.4056024435484893
1592251593.3568509,2.7009002691021773,9.036934273831852,0.5044768816765881,-0.6144444444444445,-0.45111111111111113,-0.19,0.11635262970143953,-0.1299070672419968,-1.4226954776870466
1592251593.3668509,2.4031602964118566,9.369317472698908,0.6658159126365055,-0.6144444444444445,-0.45111111111111113,-0.19,0.11087307880903544,-0.1021464325490638,-1.4286338901542504
1592251593.3768508,2.1527382618159203,9.316398087686567,0.7632280006218906,-0.6116394589552239,-0.47214850228026534,-0.17176759432006633,0.10781934603948197,-0.08165204203775361,-1.4103373573349305
1592251593.3868508,1.9385151619680767,9.176406911474176,0.6263084449183104,-0.6077777777777778,-0.5011111111111111,-0.14666666666666667,0.10809873422515069,-0.05729411748745332,-1.3934275973149988
1592251593.3968508,1.6150371445354341,9.567851836494938,0.5085926540202481,-0.6077777777777778,-0.5011111111111111,-0.14666666666666667,0.08679780602428505,-0.01792194909537472,-1.3410673866160654
1592251593.4068508,1.5002156344857491,9.56390034296527,0.4591950171482635,-0.6077777777777778,-0.5011111111111111,-0.14666666666666667,0.08988717420173738,-0.014130100858677632,-1.3210702989904668
1592251593.4168508,1.0975616973427236,9.449783985322838,0.3728703320115997,-0.6077777777777778,-0.5011111111111111,-0.14666666666666667,0.09650485743120078,-0.008302437875537475,-1.2861803897487245
1592251593.4268508,0.9464238410596026,9.60994481236203,0.305364238410596,-0.590831493745401,-0.5172504292371842,-0.1385970076036301,0.08262862576287724,-0.015576244848958776,-1.255661815372096
1592251593.4368508,0.8680142740316705,9.705814437588282,0.39617128838004606,-0.5611111111111111,-0.5455555555555556,-0.12444444444444444,0.05193444463402686,-0.011743603123434077,-1.2311380910658323
1592251593.4468508,0.6746818806708825,9.925390156722573,0.1605202089634314,-0.5611111111111111,-0.5455555555555556,-0.12444444444444444,0.011617632763266491,-0.06687329564204146,-1.1727644412344456
1592251593.4568508,0.49,9.91,0.14,-0.5611111111111111,-0.5455555555555556,-0.12444444444444444,-0.016362461737446838,-0.07526732399225547,-1.1464631524037752
1592251593.4668508,0.36906102532179363,9.906040683547863,0.306275427217414,-0.5611111111111111,-0.5455555555555556,-0.12444444444444444,-0.06496673939927511,-0.09279401906952212,-1.0459855218615288
1592251593.4768507,0.3938397658968681,9.910446852261943,0.3994637772856691,-0.554871085099652,-0.5565673661640128,-0.1277479876269816,-0.07887093058707333,-0.11312503593635403,-0.9699630393284735
1592251593.4868507,0.28,9.81,0.52,-0.5422222222222223,-0.5788888888888889,-0.13444444444444445,-0.08617563181722002,-0.10362892433716332,-0.9217520112095053
1592251593.4968507,0.16190373236231226,9.833807464724623,0.5535722007282659,-0.5422222222222223,-0.5788888888888889,-0.13444444444444445,-0.0681763343013156,-0.08035747457409699,-0.8229262240863151
1592251593.5068507,0.14,9.79,0.57,-0.5422222222222223,-0.5788888888888889,-0.13444444444444445,-0.05563236990731925,-0.07199483164476608,-0.7864889941799448
1592251593.5168507,0.1571353223334594,9.81216169416635,0.5792970164998109,-0.5422222222222223,-0.5788888888888889,-0.13444444444444445,-0.015501681767428388,-0.07304732062518288,-0.706457668712641
1592251593.5268507,0.11163539858459073,9.874752971024169,0.6226235144879156,-0.5387242029050014,-0.5835529146451833,-0.13590195249328646,0.0015386919052739934,-0.08156330678809177,-0.6541918235498363
1592251593.5368507,0.06943049252773884,9.841139014944522,0.6394304925277389,-0.5288888888888889,-0.5966666666666667,-0.14,0.010970431453124981,-0.11212444063637791,-0.6036469235657784
1592251593.5468507,0.19087098444429434,9.815565160622228,0.5967819274667387,-0.5288888888888889,-0.5966666666666667,-0.14,0.004979817733767222,-0.1386305190413411,-0.5751332797214549
1592251593.5568507,0.35853011477931607,9.757015501124128,0.5463029227310378,-0.5288888888888889,-0.5966666666666667,-0.14,0.0006875422134712606,-0.15469632682998413,-0.5537751745038201
1592251593.5668507,0.3606194690265487,9.658795098706603,0.6184683458134785,-0.5288888888888889,-0.5966666666666667,-0.14,0.013185760520619174,-0.15731057098674384,-0.5375167070866114
1592251593.5768507,0.2642286454168095,9.613462812749914,0.7230743745001713,-0.5258108331111873,-0.5996164701202974,-0.13935873837964552,0.03964884713928985,-0.15657478228535127,-0.5276267364941137
1592251593.5868506,0.1444430986985846,9.67111166524176,0.5722204806687565,-0.5022222222222222,-0.6222222222222222,-0.13444444444444445,0.07926724410578692,-0.11405217669591092,-0.5387492981199783
1592251593.5968506,0.04078512704602469,9.72842974590795,0.3624587069372346,-0.5022222222222222,-0.6222222222222222,-0.13444444444444445,0.0998425675396894,-0.07848798555345249,-0.5534568849082202
1592251593.6068506,0.03,9.75,0.26,-0.5022222222222222,-0.6222222222222222,-0.13444444444444445,0.10690141668465267,-0.056723200689815706,-0.5628686837681712
1592251593.6168506,-0.015859412422161902,9.788789118633243,0.21,-0.5022222222222222,-0.6222222222222222,-0.13444444444444445,0.10569976982593662,-0.030828705834324184,-0.5650503453331642
1592251593.6268506,-0.05115089237425635,9.807649900847306,0.2476015864431224,-0.4949108026360595,-0.6167386575326003,-0.127394146986359,0.08977515708183424,-0.011808189141118116,-0.565306701382932
1592251593.6368506,-0.12,9.8,0.37,-0.4711111111111111,-0.5988888888888889,-0.10444444444444445,0.07308566242726255,-0.007635815477475192,-0.5661411761156606
1592251593.6468506,-0.12073327708810414,9.752969748101723,0.43,-0.4711111111111111,-0.5988888888888889,-0.10444444444444445,0.04852147319351712,0.02686483378754867,-0.5490938193705801
1592251593.6568506,-0.18586307889438036,9.706547684422478,0.4837799743730551,-0.4711111111111111,-0.5988888888888889,-0.10444444444444445,0.06255074899425632,0.05149308341250843,-0.5253681059229742
1592251593.6668506,-0.2749325504745781,9.701871836896421,0.6057082650433154,-0.4711111111111111,-0.5988888888888889,-0.10444444444444445,0.08736119786317843,0.0729762119600816,-0.5120677926509446
1592251593.6768506,-0.4641664112257757,9.68845168761282,0.6272630360001362,-0.4693122017491078,-0.6056347989964012,-0.1087168541792022,0.11113474366641621,0.09865518774181811,-0.5017691937706819
1592251593.6868505,-0.5157945877224845,9.764302579004722,0.40943788594260805,-0.4622222222222222,-0.6322222222222222,-0.12555555555555556,0.1407171709420428,0.11528135864579236,-0.4974188368183839
1592251593.6968505,-2.078825748051295,10.440284385214987,-0.016519235604727178,-0.4622222222222222,-0.6322222222222222,-0.12555555555555556,0.1447703053539182,0.12096216238552031,-0.4974188368183839
1592251593.7068505,-3.828913683410882,10.111154686164657,0.24244990979014336,-0.4622222222222222,-0.6322222222222222,-0.12555555555555556,0.12453618632271714,0.13507459986183087,-0.434829947632584
1592251593.7168505,-2.551045685279188,8.85074111675127,0.990263959390863,-0.4622222222222222,-0.6322222222222222,-0.12555555555555556,0.07982555698794623,0.032081499429583576,-0.26368093246865343
1592251593.7268505,-1.140628288576217,9.901570721440542,0.3120941653349963,-0.46331588087288283,-0.6334981573146596,-0.12500872623022524,0.06601143964597146,-0.22814353589094158,-0.060235567819035024
1592251593.7368505,-0.94,9.4,1.24,-0.4688888888888889,-0.64,-0.12222222222222222,0.11890055529211369,-0.35124751196385884,0.016362461737446838
1592251593.7468505,-0.39080666118639124,9.782482829943518,0.6782551510169447,-0.4688888888888889,-0.64,-0.12222222222222222,0.21454950184769578,-0.399163565158846,0.04886772068574939
1592251593.7568505,0.7257238831037958,10.017364796775277,0.40809203896540136,-0.4688888888888889,-0.64,-0.12222222222222222,0.25435136230354505,-0.3795887760278031,0.04641014130494705
1592251593.7668505,1.65,10.16,0.1,-0.4688888888888889,-0.64,-0.12222222222222222,0.2748893571891069,-0.3665191429188092,0.028361600344907853
1592251593.7768505,0.0006630021460035402,9.773846617220737,-0.0203452430254885,-0.4657765562708901,-0.6420748884119992,-0.12040669486172291,0.23416400863292025,-0.06785147348865367,-0.03172374607887325
1592251593.7868505,-0.07,10.03,-0.25,-0.44222222222222224,-0.6577777777777778,-0.10666666666666667,0.21489366415180183,-0.10253809355466686,-0.007635815477475192
1592251593.7968504,-0.461485117875429,9.839868058290666,-0.06392758678894953,-0.44222222222222224,-0.6577777777777778,-0.10666666666666667,0.13564458991960615,0.013504010039185013,-0.01901573438288215
1592251593.8068504,-0.44,9.89,-0.2,-0.44222222222222224,-0.6577777777777778,-0.10666666666666667,0.1090830782496456,0.03381575425739013,-0.017453292519943295
1592251593.8168504,-0.5554506708760852,9.839056037884768,0.03776795580110497,-0.44222222222222224,-0.6577777777777778,-0.10666666666666667,0.06678415598428854,0.04105363604293963,-0.014677054997261312
1592251593.8268504,-0.5269928929278808,9.70325177676803,0.2086714047147462,-0.4445105095775025,-0.65850039483734,-0.10582361343051079,0.04802324375342838,0.03410560878431703,-0.015416558218413833
1592251593.8368504,-0.42,9.73,0.28,-0.4633333333333333,-0.6644444444444444,-0.09888888888888889,0.039269908169872414,0.01854412330243975,-0.007635815477475192
1592251593.8468504,-0.4689283776451438,9.726190992946282,0.4370238741182854,-0.4633333333333333,-0.6644444444444444,-0.09888888888888889,0.04806136504877155,0.015596275927386253,-0.009375936204843385
1592251593.8568504,-0.49,9.67,0.43,-0.4633333333333333,-0.6644444444444444,-0.09888888888888889,0.061086523819801536,0.016362461737446838,-0.01090830782496456
1592251593.8668504,-0.4827656139245491,9.69034063164527,0.4621843742616366,-0.4633333333333333,-0.6644444444444444,-0.09888888888888889,0.08701727344600843,0.022632011015501607,-0.010055755310976721
1592251593.8768504,-0.5983316023738872,9.630844584569733,0.4566528189910979,-0.4612941806791955,-0.6644444444444444,-0.0983327563468513,0.11581232271404157,0.028269470460199234,-0.01109030177376534
1592251593.8868504,-0.58,9.75,0.31,-0.4388888888888889,-0.6644444444444444,-0.09222222222222222,0.14180800172453928,0.015271630954950384,-0.01308996938995747
1592251593.8968503,-0.6237888652266504,9.82,0.12442774566473988,-0.4388888888888889,-0.6644444444444444,-0.09222222222222222,0.15932614010237725,-0.015535859573454696,-0.010225932937538575
1592251593.9068503,-0.51,9.82,-0.03,-0.4388888888888889,-0.6644444444444444,-0.09222222222222222,0.16907877128695067,-0.04036073895236887,-0.011999138607461015
1592251593.9168503,-0.45394827277964284,9.787589837309548,-0.09379491865477443,-0.4388888888888889,-0.6644444444444444,-0.09222222222222222,0.15438888352378596,-0.05843497358516686,-0.008105704147116947
1592251593.9268503,-0.3014302829993803,9.819046478000413,-0.10809295600082627,-0.4394715967775253,-0.663755789666965,-0.09222222222222222,0.14149465545597087,-0.060462445130439385,-0.005246127682694895
1592251593.9368503,-0.33,9.8,-0.07,-0.45111111111111113,-0.65,-0.09222222222222222,0.11344640137963141,-0.04799655442984406,-0.001090830782496456
1592251593.9468503,-0.35464563607387267,9.854881878691291,0.025590606543545513,-0.45111111111111113,-0.65,-0.09222222222222222,0.08520933081679773,-0.007403884830179612,-0.002512351922440921
1592251593.9568503,-0.3636978508217446,9.84,0.1510129582806574,-0.45111111111111113,-0.65,-0.09222222222222222,0.06302616161446811,0.0390963198958563,-0.013331993160283802
1592251593.9668503,-0.4874103204549078,9.827450178030505,0.3125896795450922,-0.45111111111111113,-0.65,-0.09222222222222222,0.05618865476616157,0.09384188180395868,-0.026466776783411382
1592251593.9768503,-0.420540468725089,9.790300260402827,0.379459531274911,-0.45111111111111113,-0.65,-0.09222222222222222,0.06429350950925715,0.1165354750846263,-0.03700308794943563
1592251593.9868503,-0.45,9.68,0.29,-0.4444444444444444,-0.6377777777777778,-0.10666666666666667,0.07963064712224129,0.148352986419518,-0.04145156973486533
1592251593.9968503,-0.7571115805098051,9.644165786544114,-0.09094368167156681,-0.4444444444444444,-0.6377777777777778,-0.10666666666666667,0.10007149514468136,0.16771552082826147,-0.027695045537700316
1592251594.0068502,-0.6539632571045833,9.788018371447707,-0.18198162855229166,-0.4444444444444444,-0.6377777777777778,-0.10666666666666667,0.11530047970753074,0.10393312741013107,-0.016251040642784608
1592251594.0168502,-0.5537981400437636,9.825370897155361,-0.09602352297592999,-0.4444444444444444,-0.6377777777777778,-0.10666666666666667,0.10974014267776751,0.04546204371731825,-0.010150872643223448
1592251594.0268502,-0.5002603938730853,9.810074398249453,0.04929321663019692,-0.4444444444444444,-0.6377777777777778,-0.10666666666666667,0.093888545400329,0.026273268065682143,-0.007647988862575262
1592251594.0368502,-0.54,9.74,0.13,-0.4444444444444444,-0.6644444444444444,-0.09222222222222222,0.08726646259971647,0.01854412330243975,-0.006544984694978735
1592251594.0468502,-0.5442045340050379,9.75,0.1440624685138539,-0.4444444444444444,-0.6644444444444444,-0.09222222222222222,0.08634917557596682,0.01026062361325155,-0.009659430224812698
1592251594.0568502,-0.5215198962560937,9.75191998270935,0.05767993083739584,-0.4444444444444444,-0.6644444444444444,-0.09222222222222222,0.09590582353591401,0.0,-0.00809833338760601
1592251594.0668502,-0.5524745207794265,9.76,0.08707908679657109,-0.4444444444444444,-0.6644444444444444,-0.09222222222222222,0.10663148834084012,-0.0011151777123552071,-0.005932087217777368
1592251594.0768502,-0.4638797063948883,9.76,0.07231328439914805,-0.4444444444444444,-0.6644444444444444,-0.09222222222222222,0.11629568341086154,-0.006752624836534362,-0.00834813598528272
1592251594.0868502,-0.5650045145654137,9.74,0.03501354369624103,-0.4388888888888889,-0.6444444444444445,-0.08666666666666667,0.13308037053918306,-0.02018086193887672,-0.013362430854235443
1592251594.0968502,-0.5449634486945962,9.770219307832422,-0.10569447480267151,-0.4388888888888889,-0.6444444444444445,-0.08666666666666667,0.13662854907213484,-0.02101643464314046,-0.014455501432531784
1592251594.1068501,-0.5273446664441371,9.862655333555862,-0.39531066711172574,-0.4388888888888889,-0.6444444444444445,-0.08666666666666667,0.13107233551738529,-0.028361600344907853,-0.014981978996897285
1592251594.1168501,-0.5297856264276929,9.866085749428922,-0.39825724828676856,-0.4388888888888889,-0.6444444444444445,-0.08666666666666667,0.10768219161162879,-0.029002068096908144,-0.013113353919120108
1592251594.1268501,-0.5666359163591635,9.851345633456335,-0.3540369003690037,-0.4388888888888889,-0.6444444444444445,-0.08666666666666667,0.08597557908699834,-0.031413913932978196,-0.009093610859003358
1592251594.13685,-0.5,9.83,-0.22,-0.4388888888888889,-0.6644444444444444,-0.09222222222222222,0.05781403147231216,-0.03381575425739013,-0.004363323129985824
1592251594.14685,-0.5282878873101661,9.816848450759336,-0.24540901420850555,-0.4388888888888889,-0.6644444444444444,-0.09222222222222222,0.024656094247168248,-0.017236785644818176,-0.0007173057374617203
1592251594.15685,-0.5257422989161438,9.842343601445142,-0.3104295018064271,-0.4388888888888889,-0.6644444444444444,-0.09222222222222222,0.008658404516780674,-0.010073124302294473,0.00171721842449902
1592251594.16685,-0.5485782721808559,9.808578272180856,-0.24583062707454922,-0.4388888888888889,-0.6644444444444444,-0.09222222222222222,-0.008555882851390296,-0.007010244035814938,0.004363323129985824
1592251594.17685,-0.5410528393289675,9.801052839328968,-0.11789826859244643,-0.4388888888888889,-0.6644444444444444,-0.09222222222222222,-0.024973830464290216,-0.009472936177749927,0.004363323129985824
1592251594.18685,-0.5459876295474397,9.804012370452561,-0.03996907386859935,-0.4633333333333333,-0.65,-0.08444444444444445,-0.04450859473994463,-0.010043064937712773,0.00545415391248228
1592251594.19685,-0.518870068167734,9.805160090890313,-0.016694897748399093,-0.4633333333333333,-0.65,-0.08444444444444445,-0.047591858688186627,-0.020444345568251074,0.005656501783310996
1592251594.20685,-0.4835270289146529,9.74150300321274,-0.08549099036178237,-0.4633333333333333,-0.65,-0.08444444444444445,-0.04565094064778645,-0.022358755044275033,0.006381032477914036
1592251594.21685,-0.5610034461787959,9.747993107642408,-0.05899655382120413,-0.4633333333333333,-0.65,-0.08444444444444445,-0.0442862260901911,-0.012104838407589396,0.005563612910523177
1592251594.22685,-0.5687330225015204,9.73253395499696,-0.05126697749847963,-0.4633333333333333,-0.65,-0.08444444444444445,-0.04091356217479764,-0.004516344597954108,0.006406778889371542
1592251594.23685,-0.5,9.766662820882607,-0.028319873089126046,-0.4444444444444444,-0.6577777777777778,-0.07777777777777778,-0.038179077387375956,-0.006726999580376544,0.007635815477475192
1592251594.24685,-0.4951447052547346,9.751618431581756,0.02028941050946919,-0.4444444444444444,-0.6577777777777778,-0.07777777777777778,-0.038532164385124544,-0.008341989472972364,0.007635815477475192
1592251594.25685,-0.47427673590953834,9.75786163204523,-0.023584896135692472,-0.4444444444444444,-0.6577777777777778,-0.07777777777777778,-0.03966095967555901,-0.012232398366397636,0.007519185598006881
1592251594.26685,-0.5111109605744479,9.735556157702208,0.039998645170031155,-0.4444444444444444,-0.6577777777777778,-0.07777777777777778,-0.032482697265367635,-0.014180800172453926,0.0059390496986048745
1592251594.27685,-0.5182141647473242,9.707143341010703,0.1039274827259179,-0.4444444444444444,-0.6577777777777778,-0.07777777777777778,-0.023959464122623814,-0.014180800172453926,0.0020648528155394995
1592251594.28685,-0.593156631608668,9.748631326321734,0.1513686736782664,-0.45666666666666667,-0.6577777777777778,-0.09888888888888889,-0.011792013965340914,-0.017108957427169655,-0.0012401299204410194
1592251594.29685,-0.5463319538733377,9.74244536408444,0.14043708732446758,-0.45666666666666667,-0.6577777777777778,-0.09888888888888889,0.005273101160779448,-0.022750233096131157,-0.0020482876441069065
1592251594.30685,-0.52,9.756940712616823,-0.00407904984423676,-0.45666666666666667,-0.6577777777777778,-0.09888888888888889,0.020636103539958144,-0.02934119229906854,-0.001090830782496456
1592251594.31685,-0.5164560429911138,9.730885989252222,-0.03911401074777844,-0.45666666666666667,-0.6577777777777778,-0.09888888888888889,0.02993566330204646,-0.029231418259263717,-0.001090830782496456
1592251594.32685,-0.48699237820940605,9.73825190544765,-0.031748094552351516,-0.45666666666666667,-0.6577777777777778,-0.09888888888888889,0.033953147365676895,-0.0364628895737985,-0.001090830782496456
1592251594.33685,-0.5305889908256881,9.792647247706421,-0.03867637614678899,-0.4444444444444444,-0.6644444444444444,-0.07777777777777778,0.0391255232055195,-0.04980931003410509,-0.001090830782496456
1592251594.34685,-0.5960754572988958,9.809018864324724,-0.04471703512914073,-0.4444444444444444,-0.6644444444444444,-0.07777777777777778,0.03796502678809664,-0.05614691861941764,-0.0008767801832171438
1592251594.35685,-0.5561632880788544,9.799040822019714,-0.17520411009856796,-0.4444444444444444,-0.6644444444444444,-0.07777777777777778,0.03536963530230953,-0.07100863094894856,0.000881570609138618
1592251594.36685,-0.5227227325425845,9.790544546508515,-0.1250990814233479,-0.4444444444444444,-0.6644444444444444,-0.07777777777777778,0.02915542708040871,-0.07181662921656873,-0.0012096324012946965
1592251594.37685,-0.5601284223668955,9.79802568447338,-0.05776883973958799,-0.4444444444444444,-0.6644444444444444,-0.07777777777777778,0.025075099290321413,-0.06936843254251635,-0.0028417635173296147
1592251594.3868499,-0.5525562994522216,9.79744370054778,-0.09616555082166768,-0.45666666666666667,-0.6644444444444444,-0.07111111111111111,0.022882881162217195,-0.07354509937278145,0.0009514062759083514
1592251594.3968499,-0.5602144398802478,9.78108728445775,-0.07978556011975214,-0.45666666666666667,-0.6644444444444444,-0.07111111111111111,0.014322796270275242,-0.046787119311763214,-0.00011860433558439268
1592251594.4068499,-0.4783311326982929,9.788331132698293,-0.15916556634914647,-0.45666666666666667,-0.6644444444444444,-0.07111111111111111,0.006180894330057962,-0.04608796063854173,-0.0009998081912662626
1592251594.4168499,-0.46495667617458697,9.768898516405647,-0.14173887304235508,-0.45666666666666667,-0.6644444444444444,-0.07111111111111111,0.0015808954594255546,-0.04818623605398948,6.0076610556735736e-05
1592251594.4268498,-0.5326758516764437,9.753849810738568,-0.028873580539260535,-0.45666666666666667,-0.6644444444444444,-0.07111111111111111,-0.0066269002297639126,-0.03587454252020528,0.0008808561794756826
1592251594.4368498,-0.4745482331366233,9.77,0.05090964662732467,-0.45111111111111113,-0.6711111111111111,-0.09222222222222222,-0.007536588423247209,-0.03421266247430206,0.0011900578367244387
1592251594.4468498,-0.5123767233162068,9.76923767233162,0.04780275730593076,-0.45111111111111113,-0.6711111111111111,-0.09222222222222222,-0.006046042402768583,-0.038179077387375956,0.00209850451629122
1592251594.4568498,-0.42204522308064235,9.76022724700896,-0.09795477691935767,-0.45111111111111113,-0.6711111111111111,-0.09222222222222222,0.00027267683586450957,-0.03790640055151145,0.0009173091596735863
1592251594.4668498,-0.46087853755387986,9.764542059728209,-0.059121462446120134,-0.45111111111111113,-0.6711111111111111,-0.09222222222222222,0.005450080424214498,-0.03272899696316146,-0.0023774022147309516
1592251594.4768498,-0.4997118520271174,9.768856872447458,-0.020288147972882614,-0.45111111111111113,-0.6711111111111111,-0.09222222222222222,0.010627484012564487,-0.02755159337481147,-0.00567211358913549
1592251594.4868498,-0.5218672308912986,9.77906638455435,-0.014668077228246496,-0.48333333333333334,-0.6577777777777778,-0.08666666666666667,0.014282641819166766,-0.028056075404769332,-0.004363323129985824
1592251594.4968498,-0.5380543048791694,9.77194569512083,-0.06583708536249196,-0.48333333333333334,-0.6577777777777778,-0.08666666666666667,0.015271630954950384,-0.02487686558430296,-0.004044959510312538
1592251594.5068498,-0.5193806034785459,9.79,-0.11876120695709169,-0.48333333333333334,-0.6577777777777778,-0.08666666666666667,0.0151364995965157,-0.022839880753208235,-0.0010232651032791142
1592251594.5168498,-0.5090273419213898,9.789675780640463,-0.09805468384277963,-0.48333333333333334,-0.6577777777777778,-0.08666666666666667,0.013125336235723865,-0.02174588195839633,7.073369153279029e-05
1592251594.5268497,-0.48721119336997415,9.782403731123324,-0.05442238673994833,-0.48333333333333334,-0.6577777777777778,-0.08666666666666667,0.013918593782237188,-0.020159366865369684,0.0016572487845594335
1592251594.5368497,-0.5099594551339047,9.74005405982146,-0.010040544866095246,-0.4633603632440635,-0.6710930911706243,-0.07224174382441623,0.013091443642891101,-0.013098814907559249,2.9485058672591193e-06
1592251594.5468497,-0.5207413010590015,9.78,-0.032223903177004534,-0.4633333333333333,-0.6711111111111111,-0.07222222222222222,0.01628159833602123,-0.014261663573879533,-0.003353355748914975
1592251594.5568497,-0.5394753542554117,9.779213031383117,-0.08868838563852907,-0.4633333333333333,-0.6711111111111111,-0.07222222222222222,0.014323875104479617,-0.01644830669666225,-0.005396923939672003
1592251594.5668497,-0.52124402329827,9.751866034947405,-0.043110058245675036,-0.4633333333333333,-0.6711111111111111,-0.07222222222222222,0.01929569935796228,-0.01943140124875185,-0.003408194238278938
1592251594.5768497,-0.52,9.75,-0.04,-0.4633333333333333,-0.6711111111111111,-0.07222222222222222,0.018826818700292135,-0.022867495623512486,-0.004080627732133438
1592251594.5868497,-0.53,9.77,-0.06,-0.4388888888888889,-0.65,-0.07222222222222222,0.01854412330243975,-0.02617993877991494,-0.001090830782496456
1592251594.5968497,-0.49811533306770023,9.81782700039845,-0.09188466693229978,-0.4388888888888889,-0.65,-0.07222222222222222,0.016805084493469777,-0.02009330294852004,-0.00022131137801146986
1592251594.6068497,-0.48014748142926855,9.83,-0.277345334273166,-0.4388888888888889,-0.65,-0.07222222222222222,0.007764517303789364,-0.0034977205435391696,0.0
1592251594.6168497,-0.48962252748529855,9.820377472514702,-0.24150989005880574,-0.4388888888888889,-0.65,-0.07222222222222222,-0.00391038862754488,0.012472331432083457,-0.002099309837276377
1592251594.6268497,-0.5338870142592794,9.79805649287036,-0.17416947861108087,-0.4388888888888889,-0.65,-0.07222222222222222,-0.016331649656456546,0.023462519046232096,0.0018077806104973286
1592251594.6368496,-0.5896899678268499,9.780077508043286,-0.0706200643463001,-0.4510163790582042,-0.65,-0.07222222222222222,-0.03154954453288814,0.030517897462048044,0.00651962024712601
1592251594.6468496,-0.5800918847048767,9.78,-0.08981623059024645,-0.45111111111111113,-0.65,-0.07222222222222222,-0.03811893898866384,0.03270487734198964,0.014110638707289794
1592251594.6568496,-0.5410004223171132,9.78,-0.11924968326216508,-0.45111111111111113,-0.65,-0.07222222222222222,-0.03605198039533322,0.028470729490808207,0.020562091148582134
1592251594.6668496,-0.37039762118802294,9.798844708756887,-0.09173293686467049,-0.45111111111111113,-0.65,-0.07222222222222222,-0.03599741582238304,0.018083406145311787,0.012503229507755807
1592251594.6768496,-0.6196579914772207,9.749510946101651,-0.02508550213069481,-0.45111111111111113,-0.65,-0.07222222222222222,-0.03521062990564817,0.03554936860484541,0.0033444935233773957
1592251594.6868496,-0.4462935168576344,9.788651389244793,-0.00977523154079877,-0.43156064802951355,-0.65,-0.07982518008728794,-0.03170764799866652,0.018017216534674595,0.006397874082440135
1592251594.6968496,-0.5397321428571429,9.7201875,0.059812499999999984,-0.4311111111111111,-0.65,-0.08,-0.028370365949410056,0.015277474691285186,0.003281257951991571
1592251594.7068496,-0.5107720613922724,9.749227938607728,-0.0666544006334863,-0.4311111111111111,-0.65,-0.08,-0.016671264126091698,0.013146115278801992,0.0011469766713409764
1592251594.7168496,-0.5195690887363217,9.759569088736322,-0.012585467582069972,-0.4311111111111111,-0.65,-0.08,-0.016362461737446838,0.008914666768349556,0.0021346564378984354
