time,acc_x,acc_y,acc_z,mag_x,mag_y,mag_z,gyr_x,gyr_y,gyr_z
1592314152.3271306,-0.15345295325208536,9.745515682249305,0.9158745420055608,-0.43333333333333335,-0.5366666666666666,-0.2222222222222222,-0.046225764995201854,0.046411628296941045,-0.0007141720127068632
1592314152.3371305,-0.1515790708037243,9.738420929196275,0.9031581416074486,-0.43333333333333335,-0.5366666666666666,-0.2222222222222222,-0.06717234599023122,0.08761121823715924,-0.005339363281345021
1592314152.3471305,-0.22804258215784895,9.734536172143857,0.9698978935824226,-0.43333333333333335,-0.5366666666666666,-0.2222222222222222,-0.08674936681411752,0.12817866038430606,-0.011099552823930395
1592314152.3571305,-0.31,9.726272577420826,1.0940613053694805,-0.4424849483861163,-0.5341245513742269,-0.22628960669012574,-0.1082501782753977,0.1692805786161573,-0.017268203636777096
1592314152.3671305,-0.28318105849582176,9.69659052924791,1.1364763231197772,-0.4533333333333333,-0.5311111111111111,-0.2311111111111111,-0.13499076511281488,0.20005623854175045,-0.02329181995327739
1592314152.3771305,-0.39491563019884335,9.658044838786342,1.1374300879347223,-0.4533333333333333,-0.5311111111111111,-0.2311111111111111,-0.14733526368122593,0.21218788877108832,-0.026990435643500007
1592314152.3871305,-0.6265687148277355,9.586119273764355,1.2717891064653306,-0.4533333333333333,-0.5311111111111111,-0.2311111111111111,-0.16551306486953613,0.22555778432152646,-0.02963156503579268
1592314152.3971305,-0.5637548605802785,9.59,1.3387473827644654,-0.4533333333333333,-0.5311111111111111,-0.2311111111111111,-0.16907909756821768,0.22116700156527414,-0.026316904405102606
1592314152.4071305,-0.3668081554363656,9.584453877029091,1.4332767378254536,-0.44901968213373744,-0.5274136957971718,-0.23357605465373732,-0.15418309781726164,0.18424977752900568,-0.006554245113300642
1592314152.4171305,-0.3210604900459418,9.572979836651353,1.4863256125574273,-0.44555555555555554,-0.5244444444444445,-0.23555555555555555,-0.1445240812800891,0.17280991788668992,-0.0031388878498501424
1592314152.4271305,-0.4963226091903166,9.514559130269895,1.5947354781619367,-0.44555555555555554,-0.5244444444444445,-0.23555555555555555,-0.11654576458895957,0.16305034712685995,-0.015961320627999626
1592314152.4371305,-0.5559558379921972,9.496481920926678,1.5745983992277683,-0.44555555555555554,-0.5244444444444445,-0.23555555555555555,-0.10336607724638841,0.15955744144240122,-0.025176723694343452
1592314152.4471304,-0.4089841711943197,9.56938489300355,1.5144920855971598,-0.44555555555555554,-0.5244444444444445,-0.23555555555555555,-0.05599124452660044,0.1342626698078427,-0.03152328295929895
1592314152.4571304,-0.34864051964556786,9.611359480354432,1.440775585130794,-0.44092761911486095,-0.5315967098527906,-0.23387266957712116,-0.007031693850906746,0.09990060666498687,-0.03898425198515258
1592314152.4671304,-0.1811913191879569,9.623799638299499,1.3662003617005019,-0.43333333333333335,-0.5433333333333333,-0.2311111111111111,0.03564890234764215,0.052489830324030096,-0.06743559298337645
1592314152.4771304,-0.08123696337618239,9.634605061039695,1.3422503840245776,-0.43333333333333335,-0.5433333333333333,-0.2311111111111111,0.042407468744605735,0.04142718500599798,-0.07342868015937669
1592314152.4871304,-0.013455455773662878,9.74757424037723,1.2020593923017828,-0.43333333333333335,-0.5433333333333333,-0.2311111111111111,0.04919970763814156,0.031898702019142834,-0.09143753435361422
1592314152.4971304,0.009601166941768071,9.774800583470883,1.2584046677670724,-0.43333333333333335,-0.5433333333333333,-0.2311111111111111,0.04808356630524338,0.031023418394599503,-0.11392814903433265
1592314152.5071304,0.00010248166381995188,9.794923138752136,1.3,-0.43333333333333335,-0.5400170802773033,-0.24492883217790282,0.044729651590031505,0.03489540602453296,-0.14500224096455325
1592314152.5171304,-0.007039445670266712,9.795187937908876,1.3222180931366856,-0.43333333333333335,-0.5366666666666666,-0.2588888888888889,0.04181551780571799,0.03870399193300416,-0.16196787035510368
1592314152.5271304,0.15348924426832722,9.725071940749128,1.3707194074912727,-0.43333333333333335,-0.5366666666666666,-0.2588888888888889,0.03811629724044485,0.0726932865089431,-0.16907877128695067
1592314152.5371304,0.14818380743982495,9.744307867947864,1.32,-0.43333333333333335,-0.5366666666666666,-0.2588888888888889,0.04731523922795183,0.11891747141974636,-0.17597287164669187
1592314152.5471303,0.014743366150961086,9.781442475386779,1.3123716830754806,-0.43333333333333335,-0.5366666666666666,-0.2588888888888889,0.05444017828980601,0.13936762966904037,-0.19241289467129957
1592314152.5571303,-0.04733249973950193,9.834221458094545,1.306222083289917,-0.42883960651283776,-0.5366666666666666,-0.25024710654178195,0.06086828946506639,0.14275334293721229,-0.2191355186461486
1592314152.5671303,0.02167638555397658,10.002089234086343,1.2549958347625814,-0.41888888888888887,-0.5366666666666666,-0.2311111111111111,0.06940422212556682,0.14548944202623498,-0.27498215290814515
1592314152.5771303,0.03192930246062277,10.169958626696669,1.0819293024606227,-0.41888888888888887,-0.5366666666666666,-0.2311111111111111,0.06538420865997902,0.1685220730774905,-0.35456307696473266
1592314152.5871303,-0.05709270169532283,10.238061801130215,0.9941994308845337,-0.41888888888888887,-0.5366666666666666,-0.2311111111111111,0.06038177482321451,0.18811621888700136,-0.40012806296386355
1592314152.5971303,0.026466547548143735,10.16939964264443,1.0705316656740123,-0.41888888888888887,-0.5366666666666666,-0.2311111111111111,0.03772814868868346,0.20751980398790768,-0.528196030713842
1592314152.6071303,-0.07445162012841572,10.268939077198747,0.8820501717186799,-0.41228116237784745,-0.5323910789242281,-0.23577538864831682,0.02231393968855198,0.24231457157799796,-0.6460181438069373
1592314152.6171303,-0.24748219082097395,10.487825528436296,0.7021744715637043,-0.4,-0.5244444444444445,-0.24444444444444444,-0.002027138881451139,0.29162634216613564,-0.7430133428961962
1592314152.6271303,-0.005349934208892973,10.11101616226818,0.9762752302688746,-0.4,-0.5244444444444445,-0.24444444444444444,-0.1066551341270911,0.3320434575680981,-0.8826667201712468
1592314152.6371303,0.006183501595438613,9.797130302871789,1.185739394256421,-0.4,-0.5244444444444445,-0.24444444444444444,-0.14331514790114014,0.35348400893095344,-0.9625902917645688
1592314152.6471303,-0.039591913341913344,9.76567353067353,1.2760816173316174,-0.4,-0.5244444444444445,-0.24444444444444444,-0.13163873058479889,0.3707489200022249,-1.0332038792777478
1592314152.6571302,-0.19408930669800234,9.7837955346651,1.2731022326674502,-0.3937955346650999,-0.5347852200026113,-0.24616790703747224,-0.10299185865102849,0.38137674526888726,-1.115757099060999
1592314152.6671302,-0.47,9.77,1.28,-0.38,-0.5577777777777778,-0.25,-0.08944812416470939,0.38288160465625604,-1.1857330605736476
1592314152.6771302,-0.833321744981496,9.639349557025906,1.1126713020074015,-0.38,-0.5577777777777778,-0.25,-0.07414101704883896,0.32507136546321463,-1.3086979605913036
1592314152.6871302,-0.89,9.56,1.09,-0.38,-0.5577777777777778,-0.25,-0.06981317007977318,0.3065234498815041,-1.3482668471656194
1592314152.6971302,-0.9234507602975162,9.500176140446275,1.2261969588099353,-0.38,-0.5577777777777778,-0.25,-0.06150137125952398,0.25580374813848017,-1.420292247408431
1592314152.7071302,-0.8601084536378654,9.508884579472815,1.3010069668893198,-0.37854118285490834,-0.5630295195001077,-0.2523341074321466,-0.05219511298785617,0.2330964278536284,-1.4787778596379182
1592314152.7171302,-0.72,9.59,1.36,-0.37444444444444447,-0.5777777777777777,-0.2588888888888889,-0.042542400517361786,0.22907446432425577,-1.53588974175501
1592314152.7271302,-0.9081273235461724,9.771593443868552,1.2372114732300346,-0.37444444444444447,-0.5777777777777777,-0.2588888888888889,-0.027779227958409924,0.312133956896837,-1.6829561452017343
1592314152.7371302,-0.9029163170889566,9.747221756118607,1.228472804851739,-0.37444444444444447,-0.5777777777777777,-0.2588888888888889,-0.04938793436530008,0.37756642923237477,-1.8076280133929727
1592314152.7471302,-0.8328951196450651,9.540920248745364,1.4559217033966105,-0.37444444444444447,-0.5777777777777777,-0.2588888888888889,-0.07697543139090714,0.42302723596741154,-1.8965675370071526
1592314152.7571301,-0.9616495349975527,9.338350465002447,1.5864398759993474,-0.3605162161672196,-0.5802894254999003,-0.2604872101666032,-0.0911214788746183,0.4662788126938135,-1.9699819272215493
1592314152.7671301,-1.2,9.1,1.65,-0.30666666666666664,-0.59,-0.26666666666666666,-0.08072147790473774,0.5061454830783556,-2.0245819323134224
1592314152.7771301,-2.010061869461011,8.828868513460788,1.5377988963825875,-0.30666666666666664,-0.59,-0.26666666666666666,-0.0211855012459208,0.5310836829880333,-2.082773234005086
1592314152.78713,-2.649405808177302,8.598410871226596,1.4037079671379442,-0.30666666666666664,-0.59,-0.26666666666666666,0.032255630732347565,0.5022479357307602,-2.119997217645317
1592314152.79713,-2.86,8.63,1.33,-0.30666666666666664,-0.59,-0.26666666666666666,0.06326818538479445,0.48214720586343357,-2.131483348998075
1592314152.80713,-3.02002017756255,8.340532687651331,1.2660984665052462,-0.2956243386243386,-0.5976734821989059,-0.26666666666666666,0.1251477845628468,0.4421074652188114,-2.1254198617647164
1592314152.81713,-3.81,8.59,1.0,-0.2411111111111111,-0.6355555555555555,-0.26666666666666666,0.15598880189699318,0.42215151282612845,-2.095485933175692
1592314152.82713,-4.153233004670472,8.313741567202907,0.9760508562532434,-0.2411111111111111,-0.6355555555555555,-0.26666666666666666,0.14431968630260714,0.32390881313632053,-2.0245366461366707
1592314152.83713,-4.29,8.112381701215153,0.9586242554205384,-0.2411111111111111,-0.6355555555555555,-0.26666666666666666,0.1499545349736622,0.23584780354044044,-1.9617526783142556
1592314152.84713,-4.29,8.01,0.97,-0.2411111111111111,-0.6355555555555555,-0.26666666666666666,0.15926129424448257,0.18435040224190105,-1.9220438387587555
1592314152.85713,-4.4210022845275185,8.33728930425753,0.8872893042575285,-0.22574284065997463,-0.6397469020422292,-0.26666666666666666,0.17574799515142495,0.1063547552769343,-1.8024226781596915
1592314152.86713,-4.48,8.43,0.98,-0.14333333333333334,-0.6622222222222223,-0.26666666666666666,0.16471544815696484,0.074176493209759,-1.7049685130419607
1592314152.87713,-4.637405498752775,8.63510375263836,0.8261267509114334,-0.14333333333333334,-0.6622222222222223,-0.26666666666666666,0.08919704261319975,0.07237084099456169,-1.5884489416469065
1592314152.88713,-4.755240720498075,8.008840359298512,0.9274616225464569,-0.14333333333333334,-0.6622222222222223,-0.26666666666666666,0.007109504270597953,0.07710526576788707,-1.5496110564835561
1592314152.89713,-4.791095168480517,7.723005396430054,1.1289048315194832,-0.14333333333333334,-0.6622222222222223,-0.26666666666666666,-0.028897811783752645,0.08517057990236371,-1.5469022363524216
1592314152.90713,-5.1156610169491525,7.916067796610169,0.9080338983050847,-0.1364871311989956,-0.6625561833019461,-0.2680025109855618,-0.03594071727323633,0.09790360345050113,-1.5412871971183455
1592314152.91713,-5.6,8.12,1.01,-0.09777777777777778,-0.6644444444444444,-0.27555555555555555,-0.02945243112740431,0.10253809355466686,-1.5347989109725135
1592314152.92713,-5.860420279783667,7.780226304498897,0.7499676707858718,-0.09777777777777778,-0.6644444444444444,-0.27555555555555555,0.014749138269966357,0.09544240361314815,-1.4406080772338108
1592314152.93713,-6.25,7.99,0.72,-0.09777777777777778,-0.6644444444444444,-0.27555555555555555,0.03599741582238304,0.09053895494720585,-1.3417218624706408
1592314152.94713,-5.744496698558145,7.764631066279092,0.795436117581381,-0.09777777777777778,-0.6644444444444444,-0.27555555555555555,0.021941076235677218,0.04969503089646279,-1.1782218316754274
1592314152.95713,-5.705397127784291,7.5870468200468935,0.9145010257913248,-0.09386739611827537,-0.6652387407190308,-0.27512785756154745,0.01776432475837273,0.04769663191289521,-1.0400705050146954
1592314152.96713,-5.794349679223922,7.668502674983905,0.9096175106000399,-0.02666666666666667,-0.6788888888888889,-0.2677777777777778,-0.01049582283042453,0.034721797380303704,-0.8667800919151415
1592314152.97713,-5.775993472884425,7.4928719308533696,0.9669011498941894,-0.02666666666666667,-0.6788888888888889,-0.2677777777777778,-0.035999891127440085,0.025079206777190326,-0.7858154052678497
1592314152.98713,-6.2422366288492706,7.956366193154734,0.8464281628372581,-0.02666666666666667,-0.6788888888888889,-0.2677777777777778,-0.039554445592020405,0.03135631511397716,-0.7155376744115797
1592314152.99713,-5.926840586892268,7.748886037415267,1.1461331657846765,-0.02666666666666667,-0.6788888888888889,-0.2677777777777778,-0.0545617915361224,0.01784262533812038,-0.6679777717060081
1592314153.00713,-5.684402789550743,7.007755259304924,1.5292806503814442,-0.02574580668361974,-0.6789400477768359,-0.2677777777777778,-0.06806941272695684,-0.007248136386092464,-0.6423847587738568
1592314153.01713,-6.19,7.79,1.1,-0.006666666666666667,-0.68,-0.2677777777777778,-0.0545415391248228,-0.02181661564992912,-0.6174102228929941
1592314153.02713,-6.059466729312269,7.245134198625712,1.933583132671639,-0.006666666666666667,-0.68,-0.2677777777777778,-0.053176575205643284,-0.053281513293487834,-0.5474921147253764
1592314153.0371299,-5.644136983660288,7.361912324673447,1.6158630163397119,-0.006666666666666667,-0.68,-0.2677777777777778,-0.024865363340604796,-0.06467122290496208,-0.5081805052712762
1592314153.0471299,-6.03,7.96,1.23,-0.006666666666666667,-0.68,-0.2677777777777778,0.001090830782496456,-0.06326818538479445,-0.48432886742842646
1592314153.0571299,-5.740008566702115,7.520012997754932,1.5699899562802788,-0.006666666666666667,-0.68,-0.2677777777777778,-0.020725140396924278,-0.06326818538479445,-0.4854196659873975
1592314153.0671299,-5.4687688385011155,7.803286436279197,1.5317789008787508,0.03333333333333333,-0.6933333333333334,-0.2611111111111111,-0.055528218737128696,-0.05071595787354613,-0.4874966622714992
1592314153.0771298,-5.767376770679791,7.644452994228895,1.3429622504809255,0.03333333333333333,-0.6933333333333334,-0.2611111111111111,-0.11392795083191892,-0.028281342102859937,-0.47358317452037185
1592314153.0871298,-6.102801447998285,7.523918407201886,1.3565602895996571,0.03333333333333333,-0.6933333333333334,-0.2611111111111111,-0.15869461506997032,-0.026127721059254344,-0.4507219840536787
1592314153.0971298,-6.17,7.45,1.37,0.03333333333333333,-0.6933333333333334,-0.2611111111111111,-0.18435040224190105,-0.032724923474893676,-0.42433317439112134
1592314153.1071298,-5.831964107278468,7.219719413245933,1.6965394300331746,0.033613920087400245,-0.6932294123133086,-0.2610279742950913,-0.21580085133320012,-0.033836159101956594,-0.41664634680223
1592314153.1171298,-6.04,7.19,1.33,0.06333333333333334,-0.6822222222222222,-0.25222222222222224,-0.19634954084936207,-0.03599741582238304,-0.4112432050011639
1592314153.1271298,-6.214108062429028,6.911118652124541,1.3384089048511898,0.06333333333333334,-0.6822222222222222,-0.25222222222222224,-0.13914563946322717,-0.0375268892310467,-0.4403905710854796
1592314153.1371298,-6.106103551277796,6.90332037361908,1.132975202693092,0.06333333333333334,-0.6822222222222222,-0.25222222222222224,-0.05248343712264739,-0.043936828886186725,-0.4751374117121798
1592314153.1471298,-6.252308768326369,7.07842818188257,1.0038945746865926,0.06333333333333334,-0.6822222222222222,-0.25222222222222224,0.006467647658837438,-0.0352433990349495,-0.4871856828641284
1592314153.1571298,-6.259735462851476,6.8482006516042215,1.338095828316453,0.06333333333333334,-0.6822222222222222,-0.25222222222222224,0.051834742859877436,-0.04334466603513522,-0.5139198639647412
1592314153.1671298,-6.46,7.14,1.08,0.07777777777777778,-0.6844444444444444,-0.2611111111111111,0.10690141668465267,-0.05890486225480862,-0.559596191420682
1592314153.1771297,-6.147046632124352,7.241450777202072,1.2080310880829015,0.07777777777777778,-0.6844444444444444,-0.2611111111111111,0.11416420194635188,-0.06366382349243566,-0.5841314060674027
1592314153.1871297,-6.240828799249531,7.059163696060038,1.1691674484052532,0.07777777777777778,-0.6844444444444444,-0.2611111111111111,0.14798910328044132,-0.08681196682856657,-0.5870033915779116
1592314153.1971297,-6.631187194620059,7.3255935973100295,1.0986016006724926,0.07777777777777778,-0.6844444444444444,-0.2611111111111111,0.17859500473282353,-0.08492841952151862,-0.5803258160980528
1592314153.2071297,-6.278607730162344,7.149303865081172,1.142674033729707,0.07777777777777778,-0.6844444444444444,-0.2611111111111111,0.19381893416829274,-0.08412716007754655,-0.5859346322058573
1592314153.2171297,-6.571300044166169,7.122114260476475,0.8169928035125094,0.10444444444444445,-0.6844444444444444,-0.2822222222222222,0.23828886846522676,-0.07538263901275319,-0.6177740787662234
1592314153.2271297,-6.47,7.18,0.94,0.10444444444444445,-0.6844444444444444,-0.2822222222222222,0.23671027980173093,-0.07853981633974483,-0.6501351463678877
1592314153.2371297,-6.295049957039401,7.232479440284767,0.6161075242420523,0.10444444444444445,-0.6844444444444444,-0.2822222222222222,0.22768432789168044,-0.0994008336964768,-0.6754559437707355
1592314153.2471297,-6.7978237317912305,7.36654271283215,0.7915013542200424,0.10444444444444445,-0.6844444444444444,-0.2822222222222222,0.21918336558634355,-0.10779541722932953,-0.6747404432452457
1592314153.2571297,-6.490796427787131,7.2667588390308175,0.9680420540223995,0.10444444444444445,-0.6844444444444444,-0.2822222222222222,0.2049494851296744,-0.10695813014364308,-0.6680421465597544
1592314153.2671297,-6.51,7.02,0.92,0.14222222222222222,-0.6911111111111111,-0.25222222222222224,0.19962203319685143,-0.1090830782496456,-0.6326818538479445
1592314153.2771297,-6.661801545343636,6.659257421716145,1.0038161854412362,0.14222222222222222,-0.6911111111111111,-0.25222222222222224,0.202377988999754,-0.09403121043810665,-0.6276054760616818
1592314153.2871296,-6.7608953507868454,6.808621523868835,0.9973046060983497,0.14222222222222222,-0.6911111111111111,-0.25222222222222224,0.21507658844479702,-0.06773589111019748,-0.6144643082827062
1592314153.2971296,-6.50272776465071,6.648968092206129,0.9115234212947098,0.14222222222222222,-0.6911111111111111,-0.25222222222222224,0.22238744201417554,-0.04763472152477182,-0.6086299608273497
1592314153.3071296,-7.0625629047095115,6.686794790858751,1.0023074980610018,0.14222222222222222,-0.6911111111111111,-0.25222222222222224,0.23559145074713453,-0.03690646442924261,-0.5946007015485807
1592314153.3171296,-7.08,6.74,0.89,0.14888888888888888,-0.6855555555555556,-0.24666666666666667,0.23671027980173093,-0.038179077387375956,-0.5857761302005968
1592314153.3271296,-7.196974420687339,6.713684092690026,1.1721067950296653,0.14888888888888888,-0.6855555555555556,-0.24666666666666667,0.22159663186758596,-0.08459677850900464,-0.5807813634373088
1592314153.3371296,-6.97,6.75,0.7,0.14888888888888888,-0.6855555555555556,-0.24666666666666667,0.1908953869368798,-0.09053895494720585,-0.5530512067257032
1592314153.3471296,-7.380157021628268,6.619842978371732,1.2235340952611315,0.14888888888888888,-0.6855555555555556,-0.24666666666666667,0.1338038046597156,-0.10549218231099032,-0.49352666569112597
1592314153.3571296,-7.244887021023564,6.755112978976436,1.4095303460926003,0.14888888888888888,-0.6855555555555556,-0.24666666666666667,0.09875909301533317,-0.08612536798120005,-0.44003736897075285
1592314153.3671296,-7.12,6.72,1.36,0.19333333333333333,-0.6733333333333333,-0.23222222222222222,0.07526732399225547,-0.05890486225480862,-0.3741549583962844
1592314153.3771296,-7.064272128945602,6.545845802552048,1.2616916051040967,0.19333333333333333,-0.6733333333333333,-0.23222222222222222,0.059315964069385996,-0.019777428746171874,-0.32275975912684496
1592314153.3871295,-7.349790675547098,6.483455756422455,1.206334919124643,0.19333333333333333,-0.6733333333333333,-0.23222222222222222,0.051891577988885634,-0.006190853902411855,-0.29209708304574034
1592314153.3971295,-7.29318104022916,6.3585940512007495,1.262355018285982,0.19333333333333333,-0.6733333333333333,-0.23222222222222222,0.04281271556615272,-0.030489572290613463,-0.2852206195195132
1592314153.4071295,-7.21006125353559,6.2528052317725695,1.2245732970616319,0.19333333333333333,-0.6733333333333333,-0.23222222222222222,0.02797586833635325,-0.07335157539892305,-0.27697792661406906
1592314153.4171295,-7.6,6.54,1.38,0.19333333333333333,-0.6888888888888889,-0.23777777777777778,0.015271630954950384,-0.13526301702956053,-0.26289021858164585
1592314153.4271295,-7.181565426539072,6.49,1.3508945294508983,0.19333333333333333,-0.6888888888888889,-0.23777777777777778,-0.0028577857366114097,-0.19349175511275063,-0.2390801754078977
1592314153.4371295,-7.223682974375837,6.47333255043803,1.3768414871879182,0.19333333333333333,-0.6888888888888889,-0.23777777777777778,0.014027642683251688,-0.2101858007215832,-0.19655990822036232
1592314153.4471295,-6.966535433070867,6.306062992125984,1.234488188976378,0.19333333333333333,-0.6888888888888889,-0.23777777777777778,0.00030921187535332606,-0.19411634397181027,-0.1636332065932282
1592314153.4571295,-7.1901876966282146,6.388068822097012,1.1599374344572615,0.19333333333333333,-0.6888888888888889,-0.23777777777777778,-0.010262681650059217,-0.1786651149731304,-0.1489952001734262
1592314153.4671295,-7.0140365452493585,6.1930909789420605,1.0930909789420606,0.22666666666666666,-0.7022222222222222,-0.24666666666666667,-0.05156656513059722,-0.13962634015954636,-0.13413253110252307
1592314153.4771295,-7.256106740240985,6.273805099907314,1.1911508201668355,0.22666666666666666,-0.7022222222222222,-0.24666666666666667,-0.07540247574656732,-0.14030209893110562,-0.15213723554024977
1592314153.4871294,-7.379063028708005,6.230348578027232,1.272091468163386,0.22666666666666666,-0.7022222222222222,-0.24666666666666667,-0.0761680349536492,-0.1442819908233972,-0.17855403265143388
1592314153.4971294,-7.639703347220227,6.230296652779773,1.3828293348656804,0.22666666666666666,-0.7022222222222222,-0.24666666666666667,-0.06831662734556242,-0.12417238172069502,-0.1714309290294118
1592314153.5071294,-7.707489405257865,6.162510594742135,1.7518867619594887,0.22666666666666666,-0.7022222222222222,-0.24666666666666667,-0.050241642766739786,-0.13813941525887613,-0.18786273319197783
1592314153.5171294,-7.16,6.27,1.44,0.20555555555555555,-0.6888888888888889,-0.23222222222222222,0.022907446432425576,-0.14944381720201447,-0.18435040224190105
1592314153.5271294,-7.199030312524477,5.987030234197541,1.7522425001958173,0.20555555555555555,-0.6888888888888889,-0.23222222222222222,0.07825555269022921,-0.14199311059038705,-0.17370653565386188
1592314153.5371294,-7.119366481812201,6.2253059498073124,1.428077826863427,0.20555555555555555,-0.6888888888888889,-0.23222222222222222,0.14580221207917146,-0.10407657610860609,-0.17824363643632826
1592314153.5471294,-6.9534498792810515,6.358358222301708,0.971752660287937,0.20555555555555555,-0.6888888888888889,-0.23222222222222222,0.17761423196758824,-0.030573500445407683,-0.16719295965161096
1592314153.5571294,-7.230994545291961,6.095815970669767,1.0692683537512295,0.20555555555555555,-0.6888888888888889,-0.23222222222222222,0.16697691994696345,0.014430511949543347,-0.16964772396406286
1592314153.5671294,-7.1,6.09,1.14,0.1988888888888889,-0.6966666666666667,-0.24,0.148352986419518,0.05235987755982988,-0.20943951023931953
1592314153.5771294,-7.248127452812558,6.080124836479163,0.8733705849373948,0.1988888888888889,-0.6966666666666667,-0.24,0.13973528053894574,0.06313200991054523,-0.23960148082132246
1592314153.5871294,-7.531183030080536,5.8690399926576875,1.20591515040268,0.1988888888888889,-0.6966666666666667,-0.24,0.13661194493775056,0.05349698661864591,-0.2660701543764961
1592314153.5971293,-7.524043422223029,6.16574436799971,1.2193633706682157,0.1988888888888889,-0.6966666666666667,-0.24,0.1397191123601744,0.02903468889806626,-0.31520362093232446
1592314153.6071293,-7.333694519578122,6.234269972951876,0.853893477589994,0.1988888888888889,-0.6966666666666667,-0.24,0.15383852644469942,0.024051366279998602,-0.32766192747749356
1592314153.6171293,-7.67,5.84,1.36,0.23222222222222222,-0.7022222222222222,-0.22333333333333333,0.13962634015954636,0.09817477042468103,-0.3043417883165112
1592314153.6271293,-7.2239149383829275,6.598344604749023,0.5748902915539524,0.23222222222222222,-0.7022222222222222,-0.22333333333333333,0.1513048197633159,0.1701920613145932,-0.2936365153463891
1592314153.6371293,-8.02393261608154,6.033493771234428,0.741291053227633,0.23222222222222222,-0.7022222222222222,-0.22333333333333333,0.1505318684043743,0.29224598208874397,-0.2515557084690695
1592314153.6471293,-7.527798222668148,5.649418962984198,1.0560551116207404,0.23222222222222222,-0.7022222222222222,-0.22333333333333333,0.22179223953221658,0.33535541652236533,-0.2378377947383598
1592314153.6571293,-7.36998781667682,5.641904181746515,0.875700361916365,0.23222222222222222,-0.7022222222222222,-0.22333333333333333,0.25458165832337926,0.31322255883833056,-0.26652853618062716
1592314153.6671293,-7.6,5.8,1.13,0.24444444444444444,-0.6966666666666667,-0.19555555555555557,0.3272492347489368,0.27379852640661045,-0.3337942194439155
1592314153.6771293,-7.50263164236655,5.950478370888058,1.0414833112423183,0.24444444444444444,-0.6966666666666667,-0.19555555555555557,0.3639407917163209,0.23034799841891873,-0.37241691098853036
1592314153.6871293,-7.800681410639569,5.828891332934847,0.7909355648535565,0.24444444444444444,-0.6966666666666667,-0.19555555555555557,0.39585947863191173,0.23120951944314413,-0.3431645145474312
1592314153.6971292,-8.03626377349071,5.587472453018579,1.2535465178475913,0.24444444444444444,-0.6966666666666667,-0.19555555555555557,0.41904791778839906,0.22960953271310966,-0.30718602757054075
1592314153.7071292,-7.9540020682523265,5.751995863495346,1.1114581178903826,0.24444444444444444,-0.6966666666666667,-0.19555555555555557,0.4467837578794817,0.2173731326729261,-0.2737398674607058
1592314153.7171292,-7.73,5.89,0.84,0.24,-0.7033333333333334,-0.19666666666666666,0.4799655442984406,0.20616701789183017,-0.2454369260617026
1592314153.7271292,-7.848861609683907,6.238094714074299,0.6192570105870299,0.24,-0.7033333333333334,-0.19666666666666666,0.49200520669203845,0.19412735549823232,-0.23988015880311894
1592314153.7371292,-7.386679548653355,6.050457787638064,0.4445325508719197,0.24,-0.7033333333333334,-0.19666666666666666,0.4917044594314637,0.18520703189740334,-0.22213914441762006
1592314153.7471292,-7.658361221260025,5.659817913473336,0.6323671248466313,0.24,-0.7033333333333334,-0.19666666666666666,0.4795468206093792,0.17425323942222548,-0.20835189936382192
1592314153.7571292,-7.591236908085424,5.652359656453936,0.7293244660988317,0.24,-0.7033333333333334,-0.19666666666666666,0.41771552842133725,0.11811693467255585,-0.2978445591096721
1592314153.7671292,-7.96,5.62,0.85,0.2644444444444444,-0.7111111111111111,-0.16666666666666666,0.31197760379398637,0.04908738521234052,-0.4199698512611355
1592314153.7771292,-8.194437226784329,5.385562773215672,0.9755913714916044,0.2644444444444444,-0.7111111111111111,-0.16666666666666666,0.25261139904375746,0.07009388843165229,-0.4428030069343005
1592314153.7871292,-8.74736975586632,5.277174922967528,0.7281490874614838,0.2644444444444444,-0.7111111111111111,-0.16666666666666666,0.22365218987029012,0.13001076635435047,-0.3887464942362126
1592314153.7971292,-8.479552377313173,4.989641901850538,0.5397015848754481,0.2644444444444444,-0.7111111111111111,-0.16666666666666666,0.22704579734906,0.15045652308759325,-0.3193888101928232
1592314153.8071291,-8.36507287515694,4.898058300125553,0.4633819167712939,0.2644444444444444,-0.7111111111111111,-0.16666666666666666,0.26617416368968444,0.1304760807008914,-0.2619450383310554
1592314153.8171291,-8.69,5.1,0.27,0.2822222222222222,-0.7111111111111111,-0.12555555555555556,0.32070425005395803,0.038179077387375956,-0.1974403716318585
1592314153.8271291,-8.718550156112402,5.306988631814907,0.28427507805620045,0.2822222222222222,-0.7111111111111111,-0.12555555555555556,0.3339401904352647,-0.019436192507723667,-0.16473981304274793
1592314153.837129,-8.382932793706892,5.380083794105911,0.21067035284728952,0.2822222222222222,-0.7111111111111111,-0.12555555555555556,0.3543920370451806,-0.09230015263764815,-0.1072761779641434
1592314153.847129,-8.409883047928824,5.300311872189802,0.3195711757390223,0.2822222222222222,-0.7111111111111111,-0.12555555555555556,0.3882039311521126,-0.1448763742011243,-0.0471396109994255
1592314153.857129,-8.577006435623776,5.483707079186153,0.6289619059039853,0.2822222222222222,-0.7111111111111111,-0.12555555555555556,0.38924663737300547,-0.14781313048483005,0.01958842906415339
1592314153.867129,-8.54,5.58,0.8,0.26222222222222225,-0.7288888888888889,-0.10222222222222223,0.3534291735288517,-0.14508049407202864,0.11453723216212788
1592314153.877129,-8.45396154159537,5.468150004073983,0.8688307667237024,0.26222222222222225,-0.7288888888888889,-0.10222222222222223,0.2877317942944353,-0.1600970378970381,0.16240246560434557
1592314153.887129,-8.244049654049654,5.606760276760277,0.7134422059422059,0.26222222222222225,-0.7288888888888889,-0.10222222222222223,0.20119024118686896,-0.16039629989993726,0.22253802602429656
1592314153.897129,-8.064649367867798,5.434649367867797,0.6807748946446328,0.26222222222222225,-0.7288888888888889,-0.10222222222222223,0.10504575438495294,-0.14972557684586685,0.2576252645913325
1592314153.907129,-8.06809848544921,5.559575767187376,0.647606058203156,0.26222222222222225,-0.7288888888888889,-0.10222222222222223,0.03539910668571443,-0.14944381720201447,0.2673609726712591
1592314153.917129,-7.79,5.38,0.62,0.27,-0.7288888888888889,-0.09777777777777778,-0.04145156973486533,-0.17016960206944715,0.2552544031041707
1592314153.927129,-7.908512094207511,5.498512094207511,0.48455760661998726,0.27,-0.7288888888888889,-0.09777777777777778,-0.0793111572980553,-0.17663343409243076,0.22755226586281216
1592314153.937129,-7.911175394805131,5.35999085584361,0.35646467142821836,0.27,-0.7288888888888889,-0.09777777777777778,-0.11184370533585279,-0.20039332224331916,0.19070106846617235
1592314153.947129,-7.891197129550423,5.594437315844502,0.5380287044957704,0.27,-0.7288888888888889,-0.09777777777777778,-0.114471938873916,-0.20795691972755184,0.18973926286617146
1592314153.957129,-8.027572729944167,5.653444019982368,0.7454980899206582,0.27,-0.7288888888888889,-0.09777777777777778,-0.11453723216212788,-0.20281983745373788,0.1811163758638209
1592314153.967129,-7.9,5.48,0.88,0.25,-0.7122222222222222,-0.08333333333333333,-0.11562806294462433,-0.1778054175469223,0.19962203319685143
1592314153.977129,-7.750386081596236,5.2895822856679375,0.8051930407981183,0.25,-0.7122222222222222,-0.08333333333333333,-0.12082090055277508,-0.12958621118552238,0.22336071940554061
1592314153.987129,-7.836346008426055,5.1356222318245655,1.082692016852112,0.25,-0.7122222222222222,-0.08333333333333333,-0.09718021367797366,-0.06576948381891576,0.24155114336015654
1592314153.997129,-7.719403710353082,5.279252902453621,0.8861206463195691,0.25,-0.7122222222222222,-0.08333333333333333,-0.03893645732385256,-0.04182614705562922,0.21062006201687664
1592314154.007129,-7.812692350435266,5.4155128727542134,0.7616025189849972,0.25,-0.7122222222222222,-0.08333333333333333,-0.013124922849000239,-0.020446076377844204,0.1940350157313835
1592314154.017129,-7.803959685878717,5.337919371757435,0.3960669633997675,0.22705591623432464,-0.7189142466538775,-0.050829214665293256,0.05113875816886072,-0.011085479303231852,0.16730414951894748
1592314154.027129,-7.890275554679997,5.227956364352729,0.8331458543672585,0.22333333333333333,-0.72,-0.04555555555555556,0.08973116693737468,-0.045808634065759274,0.1269283649976903
1592314154.037129,-7.854437131724007,5.35668860482798,0.533722201102452,0.22333333333333333,-0.72,-0.04555555555555556,0.14639810610682608,-0.09083654378593956,0.07555055433798634
1592314154.047129,-8.204189821967626,5.506226854602933,0.5090817903068622,0.22333333333333333,-0.72,-0.04555555555555556,0.19125226447462032,-0.10579964414678521,0.06297864372074705
1592314154.057129,-8.14919696247111,5.387287868227007,0.5030151509593161,0.22333333333333333,-0.72,-0.04555555555555556,0.22345007694213995,-0.11223491852592081,0.08274943313290359
1592314154.067129,-8.048380962242009,5.646897908469663,0.6232380755159799,0.2174648535468581,-0.7239123198576501,-0.047511715484380636,0.2615455985292934,-0.10973609336396882,0.12235707403792029
1592314154.077129,-8.027450344548033,5.727648966355898,0.7278475881637617,0.21666666666666667,-0.7244444444444444,-0.04777777777777778,0.29450441367160596,-0.09881591539209889,0.13954144372248137
1592314154.0871289,-7.720773323301805,5.811605492261394,0.31355841573516763,0.21666666666666667,-0.7244444444444444,-0.04777777777777778,0.32445782058376454,-0.05816001617127465,0.19142292273931344
1592314154.0971289,-7.814144595561919,5.972030541636841,0.5004032450489144,0.21666666666666667,-0.7244444444444444,-0.04777777777777778,0.33201156613221944,0.010934075481244004,0.26670279059357815
1592314154.1071289,-7.919713613807123,5.975047731032146,0.5898090758714152,0.21666666666666667,-0.7244444444444444,-0.04777777777777778,0.34575170486806023,0.035670038323656256,0.29527735126198373
1592314154.1171288,-7.776259096161654,5.89684593522596,0.5094131609356944,0.21666666666666667,-0.713268128992855,-0.034569404971353815,0.3750937767189445,0.03945660209185875,0.32909218993210704
1592314154.1271288,-7.854185870646766,6.152374925373135,0.3990865671641791,0.21666666666666667,-0.7122222222222222,-0.03333333333333333,0.392838577790432,0.03706831859177837,0.3470236849255809
1592314154.1371288,-7.873878589134477,6.027493028299938,0.03654306961371617,0.21666666666666667,-0.7122222222222222,-0.03333333333333333,0.3955858906671409,0.01985079369158438,0.3678172225367118
1592314154.1471288,-7.980758250130318,5.879241749869682,0.2225923252736677,0.21666666666666667,-0.7122222222222222,-0.03333333333333333,0.3972971134368689,0.0053714416541840015,0.39939216988740883
1592314154.1571288,-7.906993608111087,6.014133788847256,0.253785541106458,0.21666666666666667,-0.7122222222222222,-0.03333333333333333,0.3799810574752912,-0.02140367717319611,0.45065508706944146
1592314154.1671288,-7.535179307375285,5.934684136064464,0.47482069262471555,0.20637134089247025,-0.7122222222222222,-0.02116613014564666,0.3469922184555633,-0.10112317390709949,0.4773859177109352
1592314154.1771288,-7.485184422921711,5.9,0.4211271186440678,0.20444444444444446,-0.7122222222222222,-0.01888888888888889,0.31028549546273615,-0.11284063372838309,0.4805310771096889
1592314154.1871288,-7.710751941152432,6.1289279389728915,0.3608799891023021,0.20444444444444446,-0.7122222222222222,-0.01888888888888889,0.2134537853502229,-0.15764161633558577,0.4382469506000627
1592314154.1971288,-7.566731351467328,6.196805969437624,0.33638806112475267,0.20444444444444446,-0.7122222222222222,-0.01888888888888889,0.12703457412456223,-0.1716544342629051,0.40119779433272534
1592314154.2071288,-7.381332958380202,6.079650490117307,0.3158412341314479,0.20444444444444446,-0.7122222222222222,-0.01888888888888889,0.05552833518621823,-0.18393487687312268,0.36508193874305983
1592314154.2171288,-7.788992480781101,6.114572414567084,0.24080438808147692,0.18906764179588376,-0.7122222222222222,0.007593382339187847,-0.0044289100882622945,-0.2021325171042253,0.350660993779813
1592314154.2271287,-7.938238371098238,6.131761628901762,0.21176162890176237,0.18444444444444444,-0.7122222222222222,0.015555555555555555,-0.03953563669223461,-0.23582302490406645,0.34656201366472766
1592314154.2371287,-8.073417192788726,6.171692872746477,0.4434800873802722,0.18444444444444444,-0.7122222222222222,0.015555555555555555,-0.04654325684245729,-0.27309074463595734,0.3612565135122486
1592314154.2471287,-7.838047715325516,6.092682571775171,0.5554880711686211,0.18444444444444444,-0.7122222222222222,0.015555555555555555,-0.034999656327839176,-0.29353996110250286,0.3804106722351526
1592314154.2571287,-7.534281450625899,6.02,0.6297812037017156,0.18444444444444444,-0.7122222222222222,0.015555555555555555,-0.0035111620847542817,-0.3298876244666938,0.42471830162270596
1592314154.2671287,-7.373520426393521,6.268489757027155,0.7797754883277751,0.16805102297390292,-0.6984172357207136,0.022458048806309885,0.01695351246842254,-0.33828554888982015,0.442389762854195
1592314154.2771287,-7.141689799870885,6.15734586830213,0.7312822788896062,0.16333333333333333,-0.6944444444444444,0.024444444444444446,0.02760474406118412,-0.31315734186266114,0.4371845905676698
1592314154.2871287,-7.314248306171031,5.958511261673686,0.6027668925105292,0.16333333333333333,-0.6944444444444444,0.024444444444444446,0.0383414735467185,-0.2465982683377389,0.45086087665617214
1592314154.2971287,-7.5308989915846185,6.151498319307698,0.3723818151476863,0.16333333333333333,-0.6944444444444444,0.024444444444444446,0.037511503615295316,-0.2266157977411411,0.46036327846996133
1592314154.3071287,-7.602926205420309,6.169338424699779,0.5346310271015492,0.16333333333333333,-0.6944444444444444,0.024444444444444446,0.04979795087225898,-0.2146771641410756,0.4714553980491952
1592314154.3171287,-7.516491841950069,6.522955376449774,0.7429695301749558,0.15882904134722495,-0.6827332852805627,0.012733285280562653,0.04277896519580685,-0.23753439634650989,0.47866829839677155
1592314154.3271286,-7.265995281627839,6.5602211736950755,0.6703981126511354,0.15777777777777777,-0.68,0.01,0.03981291093037198,-0.23783006215321137,0.490277771486435
1592314154.3371286,-7.078362232457328,6.341206177187754,0.5262928745597399,0.15777777777777777,-0.68,0.01,0.04036073895236887,-0.2329299940512382,0.5168469734062757
1592314154.3471286,-7.199531180355768,6.364324729527128,0.6469139754447101,0.15777777777777777,-0.68,0.01,0.04462788120862755,-0.20996850504481884,0.5401925399608442
1592314154.3571286,-7.351551641422795,6.486149452859069,0.9460923400269572,0.15777777777777777,-0.68,0.01,0.06535587297311693,-0.11709478963380245,0.6096617433082457
1592314154.3671286,-7.241828908554572,6.41448377581121,1.0,0.13596197967879384,-0.68,0.02258603736479843,0.15572816091356484,0.002210621674262725,0.7197101999936646
1592314154.3771286,-7.1464607782581835,6.39,0.995764051883879,0.1288888888888889,-0.68,0.02666666666666667,0.18216874067690814,0.02945243112740431,0.7472190860100723
1592314154.3871286,-7.491679059538147,6.668030580719484,0.6900196365921349,0.1288888888888889,-0.68,0.02666666666666667,0.21648775537359163,0.019076915056313957,0.759988951943722
1592314154.3971286,-7.236092841030511,6.393720764573192,0.6101023388341446,0.1288888888888889,-0.68,0.02666666666666667,0.2709410755516706,-0.013460357142295098,0.767956034312558
1592314154.4071286,-7.024731071535171,6.5961653566809275,0.46318973236493877,0.1288888888888889,-0.68,0.02666666666666667,0.2956542561162363,-0.017433735490094936,0.7676672739244187
1592314154.4171286,-6.85338916698755,6.611255294570658,0.37,0.1090283660634065,-0.6725523039404442,0.05314736376730986,0.2729130927179302,-0.023929811516983285,0.7644167872588762
1592314154.4271286,-6.837281406635372,6.592437743655024,0.32149972153711515,0.10222222222222223,-0.67,0.06222222222222222,0.24305061981653409,-0.029585389418341105,0.7635815477475192
1592314154.4371285,-6.94149677200136,6.807574187337185,0.18233548533242724,0.10222222222222223,-0.67,0.06222222222222222,0.1529288479630942,-0.03641545024899724,0.772634739002183
1592314154.4471285,-6.95070608268652,6.782550689054332,0.12662838587042613,0.10222222222222223,-0.67,0.06222222222222222,0.11314310964337655,-0.04519871948129621,0.7854578627535946
1592314154.4571285,-7.029763056748813,6.670966312457608,0.09096631245760797,0.10222222222222223,-0.67,0.06222222222222222,0.03426121176572047,-0.07596439026484149,0.8141018352538466
1592314154.4671285,-7.090321381142099,6.739678618857901,0.33022664895971665,0.07671290148049777,-0.656152083025921,0.07096827504795632,-0.034240497398728725,-0.10764167502443446,0.8235421835405528
1592314154.4771285,-6.730768042470791,6.637982202301952,0.33116076673701617,0.06333333333333334,-0.6488888888888888,0.07555555555555556,-0.08294597904159388,-0.15196439792834088,0.8153239421266478
1592314154.4871285,-6.77182624300644,6.63545656075161,0.2730679299060488,0.06333333333333334,-0.6488888888888888,0.07555555555555556,-0.11296354207648529,-0.18722688835472293,0.7772157234372843
1592314154.4971285,-6.761553594849171,6.905811851675212,0.5085820913318231,0.06333333333333334,-0.6488888888888888,0.07555555555555556,-0.11999138607461016,-0.23074771316374748,0.7033423784702197
1592314154.5071285,-6.62590855302084,6.991636315824075,0.5832726316481494,0.06333333333333334,-0.6488888888888888,0.07555555555555556,-0.12044755428231906,-0.24252142244837058,0.6642563528002685
1592314154.5171285,-6.597850594959916,7.049998202538016,0.6099982025380164,0.04976217580775945,-0.6546030604786042,0.07555555555555556,-0.13549650038430705,-0.1984540282050602,0.5902176079033086
1592314154.5271285,-6.791476673427992,7.119127789046653,0.6332210953346856,0.042222222222222223,-0.6577777777777778,0.07555555555555556,-0.17002356792817985,-0.17530159581573979,0.585263683123059
1592314154.5371284,-6.945474385947124,7.346437859623331,0.495167929837013,0.042222222222222223,-0.6577777777777778,0.07555555555555556,-0.26922019478090353,-0.15574357165669608,0.6130803289388476
1592314154.5471284,-6.64581743773079,7.268215772514524,0.3675435708069713,0.042222222222222223,-0.6577777777777778,0.07555555555555556,-0.3480836485773284,-0.13561063483589786,0.6767649947981039
1592314154.5571284,-6.712669225613843,7.317968074087614,0.35908365320173036,0.042222222222222223,-0.6577777777777778,0.07555555555555556,-0.41638877868315016,-0.10760112219114892,0.7599570094209349
1592314154.5671284,-6.558703675828641,7.352166661649155,0.6691666917542223,0.03294032841282744,-0.640641973821972,0.08983539218539369,-0.5128197570165136,-0.099340343985302,0.8512176849752442
1592314154.5771284,-6.264908832583472,7.299689793985319,0.8277433104428131,0.027777777777777776,-0.6311111111111111,0.09777777777777778,-0.5568113828329257,-0.10018259132743855,0.8842729459984413
1592314154.5871284,-6.159565037396848,7.408667789032098,0.955541081334695,0.027777777777777776,-0.6311111111111111,0.09777777777777778,-0.5813250179678109,-0.07424411129099674,0.9020292680217689
1592314154.5971284,-6.119557011795544,7.3863981889669965,1.1535615393780532,0.027777777777777776,-0.6311111111111111,0.09777777777777778,-0.5850606242285011,-0.06034905306726473,0.8999353955595761
1592314154.6071284,-5.901445733983316,7.262866175780692,1.3756880902359925,0.027777777777777776,-0.6311111111111111,0.09777777777777778,-0.6128871254376547,-0.07027869830834466,0.8843545620145356
1592314154.6171284,-5.6730676475975335,7.1050094633372,1.2380771109347335,0.005773415823785197,-0.6311111111111111,0.08855014211965186,-0.6364690592855201,-0.08799299492807924,0.8134313290391458
1592314154.6271284,-5.719080325960419,7.079115250291036,1.1747497089639116,-0.006666666666666667,-0.6311111111111111,0.08333333333333333,-0.6358133890163219,-0.09385843302106583,0.7667168925693861
1592314154.6371284,-6.0060160760783425,7.345739839239216,1.498926751952904,-0.006666666666666667,-0.6311111111111111,0.08333333333333333,-0.5848715297837751,-0.0776547281230402,0.6346683934117663
1592314154.6471283,-5.8449546062354845,7.21121425387665,1.4209350880897085,-0.006666666666666667,-0.6311111111111111,0.08333333333333333,-0.5254234291578818,-0.044168372250982316,0.5587854958711597
1592314154.6571283,-6.092129627916443,7.173640350065684,1.358776805373101,-0.006666666666666667,-0.6311111111111111,0.08333333333333333,-0.47219470452849954,-0.03543552100889291,0.4974486067483372
1592314154.6671283,-6.172519831432822,7.132599157164105,1.282440505701537,-0.02123347380598248,-0.6252843882553848,0.07070876714592629,-0.42387378293211947,-0.04600806644944359,0.41586027338041226
1592314154.6771283,-5.994055551785755,7.15981226391622,1.2639616837438648,-0.04,-0.6177777777777778,0.05444444444444444,-0.3742782508217019,-0.06594385554328544,0.3095280396564132
1592314154.6871283,-6.112553701619611,7.258953858198366,1.4425537016196115,-0.04,-0.6177777777777778,0.05444444444444444,-0.3450482390161145,-0.0742906095777669,0.22311687468537006
1592314154.6971283,-6.3453373841498015,7.3253981463968225,1.5472401645545677,-0.04,-0.6177777777777778,0.05444444444444444,-0.322216831256971,-0.05889160598891579,0.18085709248473383
1592314154.7071283,-6.354776870163371,7.361785038693036,1.5641986242476353,-0.04,-0.6177777777777778,0.05444444444444444,-0.29449002936080126,-0.033211717263471205,0.20125382412879314
1592314154.7171283,-6.377219113915816,7.532369071628391,1.6253838396981328,-0.04127548991969004,-0.6190532676974678,0.05380669948459943,-0.254976568056778,0.003853675009206546,0.30452977938689263
1592314154.7271283,-6.312550122544096,7.668183133111013,1.5460014464221143,-0.042222222222222223,-0.62,0.05333333333333334,-0.23393365548723463,0.02504931233063771,0.37655391832680496
1592314154.7371283,-5.822309651697215,7.708937925688023,1.4156813777064068,-0.042222222222222223,-0.62,0.05333333333333334,-0.22847740375226472,0.07717191369284218,0.5753465822616761
1592314154.7471282,-5.6838648494090735,7.786326248570339,1.7932181662218833,-0.042222222222222223,-0.62,0.05333333333333334,-0.25259745246920234,0.13375059657655103,0.7010403056367636
1592314154.7571282,-5.564990322391445,7.774988171811765,1.7800473127529375,-0.042222222222222223,-0.62,0.05333333333333334,-0.25416662201574247,0.17998097972377874,0.7826615854712253
1592314154.7671282,-5.79973080539016,7.671036352240677,1.8471601378878095,-0.05304770361084996,-0.6137326160381629,0.05333333333333334,-0.22152380270071972,0.2083486794568231,0.8760736516616485
1592314154.7771282,-5.918362502514585,7.538491249245625,2.012134379400523,-0.06333333333333334,-0.6077777777777778,0.05333333333333334,-0.1923871325935708,0.19843135771388506,0.9413327638856149
1592314154.7871282,-5.601989435231663,7.705968305694988,1.4419894352316627,-0.06333333333333334,-0.6077777777777778,0.05333333333333334,-0.08314320193780311,0.11760423516508137,1.126188194187036
1592314154.7971282,-5.53736885928393,7.76,1.5249244677054836,-0.06333333333333334,-0.6077777777777778,0.05333333333333334,-0.021993079295010026,0.06058230490451888,1.2633498163464032
1592314154.8071282,-5.480491943644431,7.76258270413326,1.5688931268000312,-0.06333333333333334,-0.6077777777777778,0.05333333333333334,-0.005038267777768522,0.035460788551784646,1.3123591805560566
1592314154.8171282,-5.206684320030263,8.152767479982346,1.412114936006557,-0.06449376177766569,-0.6106788488886087,0.052172904889000976,0.042032575878899754,-0.012192807322139157,1.4504631319447359
1592314154.8271282,-4.913696384015209,8.314518594795834,1.3513703513010418,-0.06555555555555556,-0.6133333333333333,0.051111111111111114,0.05382402486145787,-0.016840804579690127,1.491569670272169
1592314154.8371282,-4.503037892294196,8.095399722670289,1.3065189461470978,-0.06555555555555556,-0.6133333333333333,0.051111111111111114,0.018164399232612406,-0.028448806303550424,1.5682309590118761
1592314154.8471282,-4.378855140745701,8.196234424700451,1.2501654987683257,-0.06555555555555556,-0.6133333333333333,0.051111111111111114,0.00012488477162151713,-0.01289287215795401,1.6201530216996225
1592314154.8571281,-4.422777894958869,8.294965197215776,1.2797743092174647,-0.06555555555555556,-0.6133333333333333,0.051111111111111114,-0.0063650585882687105,-0.006241963361811085,1.639772449334758
1592314154.8671281,-4.005856978159226,8.596031191955422,1.1432171908025364,-0.09222019399787926,-0.6032712056192489,0.04054587701132247,-0.05322374595220659,-0.049251362657195395,1.5630195200589139
1592314154.8771281,-3.866762495379687,8.696139061152408,1.0159234465481128,-0.12444444444444444,-0.5911111111111111,0.027777777777777776,-0.06350101004193166,-0.05969486225557015,1.508959002815587
1592314154.887128,-3.5317013699342326,8.753066625074736,1.366469364943201,-0.12444444444444444,-0.5911111111111111,0.027777777777777776,-0.09530428249642409,-0.04326497063874718,1.3762462356485796
1592314154.897128,-3.3770536805039884,8.98736579874003,1.210948810692984,-0.12444444444444444,-0.5911111111111111,0.027777777777777776,-0.11994508449254236,-0.03104850310113251,1.2852179149270613
1592314154.907128,-3.34,9.08,1.16,-0.12444444444444444,-0.5911111111111111,0.027777777777777776,-0.13308135546456762,-0.030543261909900768,1.246819584393449
1592314154.917128,-3.0223613581870215,8.602697811122283,1.3929221130791245,-0.14054898118785503,-0.5888639664492399,0.027777777777777776,-0.1548368022447226,-0.03197731332997132,1.2554476854949432
1592314154.927128,-2.85,8.49,1.32,-0.17222222222222222,-0.5844444444444444,0.027777777777777776,-0.14398966328953217,-0.028361600344907853,1.3024519543007684
1592314154.937128,-2.859701309897934,9.534710348471787,1.354134660844898,-0.17222222222222222,-0.5844444444444444,0.027777777777777776,-0.08838987541798904,0.023227745439617434,1.4791653579186437
1592314154.947128,-2.506918974753177,8.5022272934733,1.4729613971029811,-0.17222222222222222,-0.5844444444444444,0.027777777777777776,-0.05129941678086254,0.049551477647633096,1.5877182621694013
1592314154.957128,-1.972750173330252,7.795420614744627,2.3808654957245206,-0.17222222222222222,-0.5844444444444444,0.027777777777777776,-0.04017658090138351,0.04877869043693795,1.6300440431898013
1592314154.967128,-2.25,9.28725159034262,1.6054622223875599,-0.18172955701879476,-0.5787400435665009,0.03379908981560706,0.1023579995472743,0.1354053716437861,1.6726970709849605
1592314154.977128,-2.2472073048053858,9.121932213882227,1.9768265882535014,-0.20555555555555555,-0.5644444444444444,0.04888888888888889,0.1397463712183338,0.15621805953107665,1.6937817365370103
1592314154.987128,-2.1152676160728467,8.722383133040394,1.9842310339350944,-0.20555555555555555,-0.5644444444444444,0.04888888888888889,0.23699481171265052,0.21744651079035585,1.7191493132144147
1592314154.997128,-2.140320305052431,8.806061010486177,1.8454604385128694,-0.20555555555555555,-0.5644444444444444,0.04888888888888889,0.29791472565273847,0.2657111964145881,1.7109353262259117
1592314155.007128,-2.1566749849562847,9.200375030972355,1.9227499911507557,-0.20555555555555555,-0.5644444444444444,0.04888888888888889,0.32603023105990614,0.3016665288148774,1.6950664947797738
1592314155.017128,-2.037207192996293,9.386738701790362,1.8037116491836895,-0.21777979335909772,-0.5613173138435382,0.04178177388682949,0.32202307212706227,0.3276305394281721,1.6736881940050272
1592314155.027128,-2.0751720928067767,9.574580065625653,1.5379807311908031,-0.25333333333333335,-0.5522222222222222,0.021111111111111112,0.3046266365213562,0.3285443154785131,1.6095075557657468
1592314155.037128,-2.14,9.82,1.45,-0.25333333333333335,-0.5522222222222222,0.021111111111111112,0.2945243112740431,0.3174317577064687,1.5751596499248823
1592314155.047128,-1.5521243796853552,9.645115616091225,0.8477890402280647,-0.25333333333333335,-0.5522222222222222,0.021111111111111112,0.2190662560204832,0.2413605060548504,1.4765529699410882
1592314155.057128,-1.1142386853256419,9.673361820318341,0.76,-0.25333333333333335,-0.5522222222222222,0.021111111111111112,0.17650463980792572,0.20521569210364826,1.4247990384507505
1592314155.067128,-0.9732831360830417,9.81617701411552,0.7883584319584791,-0.2647251820687908,-0.5490712853379467,0.021111111111111112,0.13161596308007606,0.1950608138992708,1.3801412974920007
1592314155.077128,-0.77,9.91,0.89,-0.3055555555555556,-0.5377777777777778,0.021111111111111112,0.08726646259971647,0.18653206380689397,1.3340860469931657
1592314155.087128,-0.7845546804799408,9.990504254981765,0.9,-0.3055555555555556,-0.5377777777777778,0.021111111111111112,0.06279884966041571,0.15107363451417827,1.2050801285072543
1592314155.097128,-0.85,10.05,0.9,-0.3055555555555556,-0.5377777777777778,0.021111111111111112,0.05890486225480862,0.13744467859455345,1.1453723216212788
1592314155.107128,-0.3709368032673678,10.13810113844879,0.7207089162046445,-0.3055555555555556,-0.5377777777777778,0.021111111111111112,0.07215500295829012,0.06989050084159687,1.0007116046654787
1592314155.117128,0.13617346193190122,10.562874835598421,0.6169348239076429,-0.3089100378326595,-0.5356072304220046,0.024860238361991978,0.07059725950128486,0.04132934344486399,0.914593543792557
1592314155.127128,0.37639619651347067,10.507876386687798,1.2008272583201267,-0.3244444444444444,-0.5255555555555556,0.042222222222222223,0.042453889366705966,0.08420660446181041,0.8064779928675042
1592314155.1371279,0.7657432678975407,10.574622345471795,1.7551908341239144,-0.3244444444444444,-0.5255555555555556,0.042222222222222223,0.07445137014852864,0.1499731921347738,0.6118337953118322
1592314155.1471279,1.26,9.15,2.86,-0.3244444444444444,-0.5255555555555556,0.042222222222222223,0.10362892433716332,0.17344209441693648,0.4025165587411922
1592314155.1571279,-0.6957266119023698,10.815848354116188,-0.48669542777219643,-0.3244444444444444,-0.5255555555555556,0.042222222222222223,0.17677185414490681,0.2641943461816484,-0.10840141376798862
1592314155.1671278,0.5238131669015502,8.822721562311255,1.8904723172941411,-0.33165792005010847,-0.5230007829452162,0.042222222222222223,0.060300255978550515,0.30020598696841916,0.03563478651131839
1592314155.1771278,0.74,10.95,-0.6,-0.37777777777777777,-0.5066666666666667,0.042222222222222223,0.13199052468207118,0.23889194136672384,-0.02945243112740431
1592314155.1871278,0.07359902986701547,10.063985448005234,0.3984976564203183,-0.37777777777777777,-0.5066666666666667,0.042222222222222223,-0.021284904013605978,0.1983024894200088,-0.03240188940814556
1592314155.1971278,-0.2425608847217214,9.6971251352326,0.9185832431782667,-0.37777777777777777,-0.5066666666666667,0.042222222222222223,-0.062486442992789715,0.11441242716888589,-0.03135023279602166
1592314155.2071278,-0.64,9.89,0.79,-0.37777777777777777,-0.5066666666666667,0.042222222222222223,-0.09053895494720585,0.08508480103472357,-0.0370882466048795
1592314155.2171278,-0.7782487687550109,9.34657236666285,1.4144634062535792,-0.3773174342593653,-0.5086231266199197,0.04153170694460352,-0.09252550552010179,-0.0009079636818992757,-0.03460257004686463
1592314155.2271278,-0.59,9.49,1.28,-0.37333333333333335,-0.5255555555555556,0.035555555555555556,-0.04363323129985824,-0.0370882466048795,-0.01308996938995747
1592314155.2371278,-0.4021811265544989,9.687564886613021,1.1264108266276518,-0.37333333333333335,-0.5255555555555556,0.035555555555555556,-0.01802671680692351,-0.024487978044916488,0.014963836332108734
1592314155.2471278,-0.24,9.61,1.07,-0.37333333333333335,-0.5255555555555556,0.035555555555555556,-0.014180800172453926,-0.002181661564992912,0.0272707695624114
1592314155.2571278,-0.4134665358265642,9.619133366043359,1.145983390575878,-0.37333333333333335,-0.5255555555555556,0.035555555555555556,-0.0054886852909029095,0.04761841403101976,0.027176234462705322
1592314155.2671278,-0.2915148376310672,9.649621290592233,1.199337258536408,-0.37333333333333335,-0.5255555555555556,0.035555555555555556,0.0053198938516080384,0.06092128066795632,0.030501951121939465
1592314155.2771277,-0.4532051403641882,9.636410280728377,1.256602570182094,-0.37333333333333335,-0.5188888888888888,0.02666666666666667,0.02595616535592596,0.07714131003115349,0.02543873457456632
1592314155.2871277,-0.46293364323067987,9.629657408483439,1.1353317838466008,-0.37333333333333335,-0.5188888888888888,0.02666666666666667,0.04715099260701921,0.07897193998545941,0.0247130407575168
1592314155.2971277,-0.5269254779555209,9.67,0.9,-0.37333333333333335,-0.5188888888888888,0.02666666666666667,0.062194293761542375,0.06167258468109596,0.024702912190927153
1592314155.3071277,-0.56,9.67,0.9,-0.37333333333333335,-0.5188888888888888,0.02666666666666667,0.0643590161672909,0.04363323129985824,0.02181661564992912
1592314155.3171277,-0.5687512125173969,9.69,0.8914271856944035,-0.3734126214274669,-0.5190078210300891,0.02656755654899976,0.05432747663775114,0.012506162607034776,0.01735599138945618
1592314155.3271277,-0.5,9.69,0.97,-0.37777777777777777,-0.5255555555555556,0.021111111111111112,0.042542400517361786,-0.019634954084936207,0.011999138607461015
1592314155.3371277,-0.41505207569312014,9.7176301892328,0.9750520756931201,-0.37777777777777777,-0.5255555555555556,0.021111111111111112,0.03354588685021978,-0.05424894941002233,0.009289103381942462
1592314155.3471277,-0.386518482725296,9.671911089635177,0.9842667310944673,-0.37777777777777777,-0.5255555555555556,0.021111111111111112,0.031842560232613386,-0.05852508763350459,0.0031868388069454323
1592314155.3571277,-0.35205975451060384,9.64382073646819,1.068537790595435,-0.37777777777777777,-0.5255555555555556,0.021111111111111112,0.031249906027046415,-0.05117127368799385,-0.0006740530873657892
1592314155.3671277,-0.35943551507051663,9.62169345478845,1.1349196356346498,-0.37777777777777777,-0.5255555555555556,0.021111111111111112,0.037686471357507335,-0.03910271369337962,-0.003087765086288635
1592314155.3771276,-0.3454894617861302,9.627255269106936,1.1982341926791953,-0.3711111111111111,-0.5077777777777778,0.012222222222222223,0.05734295637449806,-0.010267603845164732,-0.0037645157404209437
1592314155.3871276,-0.3792167792526808,9.62960838962634,1.171958051868298,-0.3711111111111111,-0.5077777777777778,0.012222222222222223,0.07156193120526716,0.013705181667921722,-0.002443689744358705
1592314155.3971276,-0.44231295253419145,9.66,1.0176870474658086,-0.3711111111111111,-0.5077777777777778,0.012222222222222223,0.08803083396862589,0.03121855900332878,-0.0027678843829395186
1592314155.4071276,-0.45170938934885574,9.661709389348855,1.0065812213022887,-0.3711111111111111,-0.5077777777777778,0.012222222222222223,0.10312545184107344,0.03727471205697984,-0.0003449689740951047
1592314155.4171276,-0.4592915506706678,9.669291550670668,0.9914168986586644,-0.3711111111111111,-0.5077777777777778,0.012222222222222223,0.1105692213119914,0.0381017975537485,0.0029633730129795437
1592314155.4271276,-0.4955991685599652,9.672200415720017,0.9401962585198433,-0.3711111111111111,-0.5277777777777778,0.012222222222222223,0.11863911868846805,0.03505871182518665,0.0032724923474893677
1592314155.4371276,-0.46865230754792236,9.686808615471246,0.8495741535862603,-0.3711111111111111,-0.5277777777777778,0.012222222222222223,0.12420769876338954,0.021275026522775662,0.0032724923474893677
1592314155.4471276,-0.4235879767137935,9.707862658904599,0.7842746821908043,-0.3711111111111111,-0.5277777777777778,0.012222222222222223,0.11882564734483048,0.01083339987768133,0.0030393446015334305
1592314155.4571276,-0.4109735625874312,9.7,0.8109735625874313,-0.3711111111111111,-0.5277777777777778,0.012222222222222223,0.11351120645949749,0.007742014681380872,0.0014976444299059765
1592314155.4671276,-0.4629631859472668,9.7,0.8629631859472668,-0.3711111111111111,-0.5277777777777778,0.012222222222222223,0.10865018804252843,0.01341320283451143,-0.0017430345147400558
1592314155.4771276,-0.42,9.707915067792275,0.89,-0.38333333333333336,-0.5077777777777778,0.035555555555555556,0.10294663186768165,0.008271784613650537,-0.0024090923881534675
1592314155.4871275,-0.4124035921817221,9.69810089804543,0.8729080824088749,-0.38333333333333336,-0.5077777777777778,0.035555555555555556,0.09973495232833086,0.008823743453236652,-0.0030653324603750116
1592314155.4971275,-0.3838749586815885,9.69,0.8038749586815885,-0.38333333333333336,-0.5077777777777778,0.035555555555555556,0.09771797827380137,0.020868931618368,-0.0019703153544539803
1592314155.5071275,-0.4,9.694115918051253,0.818628027316249,-0.38333333333333336,-0.5077777777777778,0.035555555555555556,0.10020677298605594,0.032039851946080694,-0.0012404897861144487
1592314155.5171275,-0.4,9.716262672486623,0.8112457758377922,-0.38333333333333336,-0.5077777777777778,0.035555555555555556,0.0994014942703729,0.04009263910291132,-0.0020457685017975106
1592314155.5271275,-0.4591853114567796,9.725407344271611,0.7885183606790256,-0.3711111111111111,-0.5277777777777778,0.042222222222222223,0.09423967527501043,0.0526103680719267,0.0005009810241936277
1592314155.5371275,-0.4878318002628121,9.712168199737189,0.7196452036793692,-0.3711111111111111,-0.5277777777777778,0.042222222222222223,0.08670169607106522,0.04966648591684586,0.0014721198602153222
1592314155.5471275,-0.4762131217635042,9.72,0.6156803173547437,-0.3711111111111111,-0.5277777777777778,0.042222222222222223,0.07886259839726677,0.031040403802460433,-5.811994501257896e-05
1592314155.5571275,-0.46407975780352856,9.718640080732158,0.6508793541427428,-0.3711111111111111,-0.5277777777777778,0.042222222222222223,0.0689755265234747,0.008779067783116986,0.004363323129985824
1592314155.5671275,-0.4859729616870237,9.711342346104326,0.7092612311653965,-0.3711111111111111,-0.5277777777777778,0.042222222222222223,0.058626754876586806,0.00320665228094658,0.004363323129985824
1592314155.5771275,-0.46,9.728112390644528,0.7605619532226389,-0.37666666666666665,-0.5222222222222223,0.035555555555555556,0.046761116995677615,-0.010435195759551326,0.0008849245434687148
1592314155.5871274,-0.46,9.718604297157688,0.7158128914730616,-0.37666666666666665,-0.5222222222222223,0.035555555555555556,0.04038583679833652,-0.012633226702873698,-0.00015224756236125768
1592314155.5971274,-0.45113784258775474,9.71177243148245,0.6864551370351019,-0.37666666666666665,-0.5222222222222223,0.035555555555555556,0.03304238512902163,-0.009817477042468103,-0.001090830782496456
1592314155.6071274,-0.41255611190868025,9.723834167863021,0.6738341678630204,-0.37666666666666665,-0.5222222222222223,0.035555555555555556,0.028755359739030758,-0.009678062764793393,-0.001090830782496456
1592314155.6171274,-0.42724255050947163,9.745863825764207,0.6958638257642074,-0.37666666666666665,-0.5222222222222223,0.035555555555555556,0.024750254911283912,-0.008877041799244024,-0.001090830782496456
