time,acc_x,acc_y,acc_z,mag_x,mag_y,mag_z,gyr_x,gyr_y,gyr_z
1592314283.6770053,-0.46505772907780557,9.747471135461097,0.5626443226945139,-0.3244444444444444,-0.5366666666666666,0.1688888888888889,-0.0289385020637138,0.007109291882761595,0.003811610473226052
1592314283.6870053,-0.479534502423724,9.739069004847448,0.6027929854576561,-0.3241341127269271,-0.5375459398662991,0.16919922060640624,-0.037494469873183,0.012608473509916264,0.002283217382068787
1592314283.6970053,-0.47,9.72,0.66,-0.31777777777777777,-0.5555555555555556,0.17555555555555555,-0.04581489286485115,0.025089107997418484,0.004363323129985824
1592314283.7070053,-0.47786765174192725,9.728933825870964,0.6772059104515635,-0.31777777777777777,-0.5555555555555556,0.17555555555555555,-0.04748723142707472,0.032608621918948255,0.0032724923474893677
1592314283.7170053,-0.48533795493934145,9.726334488734835,0.579501733102253,-0.31777777777777777,-0.5555555555555556,0.17555555555555555,-0.05235987755982988,0.03267057098789754,0.002926999582322596
1592314283.7270052,-0.5422150318942406,9.731139872423038,0.6221503189424055,-0.31777777777777777,-0.5555555555555556,0.17555555555555555,-0.052843122554719686,0.033940095050106985,0.002181661564992912
1592314283.7370052,-0.5499700471480078,9.700119811407967,0.6997004714800776,-0.31777777777777777,-0.5555555555555556,0.17555555555555555,-0.05453500442622746,0.030556331307091445,0.002181661564992912
1592314283.7470052,-0.58,9.7,0.68,-0.31777777777777777,-0.5366666666666666,0.17555555555555555,-0.05563236990731925,0.019634954084936207,0.001090830782496456
1592314283.7570052,-0.5384234342223554,9.741576565777645,0.6642343422235542,-0.31777777777777777,-0.5366666666666666,0.17555555555555555,-0.058501938064666234,-0.0008009123464772451,0.0012628074305849743
1592314283.7670052,-0.53,9.75,0.58,-0.31777777777777777,-0.5366666666666666,0.17555555555555555,-0.062177354602297986,-0.01090830782496456,0.002181661564992912
1592314283.7770052,-0.5085437551069215,9.754175020427686,0.627474938716942,-0.31777777777777777,-0.5366666666666666,0.17555555555555555,-0.06562982957226952,-0.011681435256216358,0.005613005588104608
1592314283.7870052,-0.500184745999163,9.720738983996652,0.7277830480100445,-0.31777777777777777,-0.5366666666666666,0.17555555555555555,-0.07292444112899854,-0.009857782367034109,0.006524832032695733
1592314283.7970052,-0.5498720641127767,9.69712458058754,0.7915016776498419,-0.3322222222222222,-0.5488888888888889,0.1688888888888889,-0.0771353259564784,-0.008590749920182036,0.008726646259971648
1592314283.8070052,-0.5057654481350901,9.69576544813509,0.76811096678419,-0.3322222222222222,-0.5488888888888889,0.1688888888888889,-0.07478587269959118,-0.018563656642671872,0.008726646259971648
1592314283.8170052,-0.5304649703729523,9.717848727779716,0.6347675148135239,-0.3322222222222222,-0.5488888888888889,0.1688888888888889,-0.07090400086226964,-0.026281379579067975,0.008441258464453405
1592314283.8270051,-0.5545843394886364,9.743610440340909,0.6145843394886363,-0.3322222222222222,-0.5488888888888889,0.1688888888888889,-0.07149475778160423,-0.036269464990901244,0.007635815477475192
1592314283.8370051,-0.5322425426136363,9.75850497159091,0.5922425426136363,-0.3322222222222222,-0.5488888888888889,0.1688888888888889,-0.07393186975835754,-0.05089213685142112,0.007635815477475192
1592314283.8470051,-0.5354982227629476,9.8,0.5062701877430282,-0.31777777777777777,-0.5366666666666666,0.15444444444444444,-0.08846598872748566,-0.06739650069501535,0.0063310289542958505
1592314283.8570051,-0.6341769649036085,9.811646070192783,0.42476684791563685,-0.31777777777777777,-0.5366666666666666,0.15444444444444444,-0.11613456502817598,-0.0738682422965968,0.004607227788388804
1592314283.867005,-0.5824089368405977,9.861839404210626,0.32,-0.31777777777777777,-0.5366666666666666,0.15444444444444444,-0.14277457976215405,-0.0958067297423656,0.00068953503561539
1592314283.877005,-0.4819886937567563,9.867251413280405,0.3419886937567563,-0.31777777777777777,-0.5366666666666666,0.15444444444444444,-0.17815639175676135,-0.13928507012757357,-0.001090830782496456
1592314283.887005,-0.6009147778624466,9.852385652767193,0.4609147778624466,-0.31777777777777777,-0.5366666666666666,0.15444444444444444,-0.21545325885473307,-0.14333907742083135,-0.001090830782496456
1592314283.897005,-0.6035397049591965,9.841605461393597,0.643868487131199,-0.34444444444444444,-0.5422222222222223,0.16111111111111112,-0.2763621156984944,-0.16819473956052072,-0.0036944788319296946
1592314283.907005,-0.6547690930928103,9.840306384381698,0.6992318018039234,-0.34444444444444444,-0.5422222222222223,0.16111111111111112,-0.3226345193471494,-0.20975872139499155,-0.008592472763587055
1592314283.917005,-0.556518185728624,9.697470248052381,0.8277082636333222,-0.34444444444444444,-0.5422222222222223,0.16111111111111112,-0.36385048377510865,-0.2630719628873278,-0.019109011297868184
1592314283.927005,-0.31186703717296704,9.691867037172967,0.8874681486918681,-0.34444444444444444,-0.5422222222222223,0.16111111111111112,-0.38157321395677657,-0.31807357090004995,-0.023183628566786994
1592314283.937005,-0.31919729460493895,9.699197294604938,0.9167891784197557,-0.34444444444444444,-0.5422222222222223,0.16111111111111112,-0.3935673196324041,-0.35485549497197444,-0.019985200386619648
1592314283.947005,-0.211996879875195,9.70417486264668,0.9739110086142576,-0.3322222222222222,-0.5422222222222223,0.1688888888888889,-0.39913966686619134,-0.3153742509303945,-0.02181661564992912
1592314283.957005,-0.4673058708561979,9.646134706457191,1.1093264677140495,-0.3322222222222222,-0.5422222222222223,0.1688888888888889,-0.4004083681512513,-0.26198306523677944,-0.02287071094489957
1592314283.967005,-0.794615493891467,9.632307746945735,1.213077469457335,-0.3322222222222222,-0.5422222222222223,0.1688888888888889,-0.3865735281029911,-0.24401055039980954,-0.023998199733807637
1592314283.977005,-0.7424436822266288,9.626488736445326,1.3558674098290369,-0.3322222222222222,-0.5422222222222223,0.1688888888888889,-0.3677650912143676,-0.2583572210564049,-0.00885265000864739
1592314283.987005,-0.44272772745949224,9.566545545491898,1.648090465726995,-0.3322222222222222,-0.5422222222222223,0.1688888888888889,-0.3587742580040717,-0.26244396342472126,0.009946364885607814
1592314283.997005,-0.65,9.36,2.01,-0.3377777777777778,-0.5422222222222223,0.15444444444444444,-0.32288591161895097,-0.11671889372712078,0.0818123086872342
1592314284.007005,-0.2808016300555447,9.825471013481453,1.4973586959555643,-0.3377777777777778,-0.5422222222222223,0.15444444444444444,-0.20302307349878018,-0.10599071136365869,0.1718161241632826
1592314284.017005,-0.1925665783009461,9.466174331784906,1.5776513364301872,-0.3377777777777778,-0.5422222222222223,0.15444444444444444,-0.15026656312770895,-0.1199319590504403,0.15744940672541802
1592314284.027005,-0.4,9.53,1.45,-0.3377777777777778,-0.5422222222222223,0.15444444444444444,-0.13199052468207118,-0.09817477042468103,0.13308135546456762
1592314284.037005,-0.6421539612158769,9.53,1.7361819541642183,-0.3377777777777778,-0.5422222222222223,0.15444444444444444,-0.11438059168222242,-0.07576212842487351,0.10026284396484947
1592314284.047005,-0.74,9.55,1.95,-0.3322222222222222,-0.5244444444444445,0.14666666666666667,-0.0643590161672909,-0.09817477042468103,0.05126904677733343
1592314284.057005,-0.9210894742610791,9.540945526286945,1.8685097365825145,-0.3322222222222222,-0.5244444444444445,0.14666666666666667,-0.02978987090802604,-0.13175622581939547,0.04336752786093004
1592314284.067005,-0.6282161928128157,9.773432433732621,1.4985810843315535,-0.3322222222222222,-0.5244444444444445,0.14666666666666667,0.026748942396339105,-0.16263107818146288,0.062184727562558766
1592314284.077005,-0.3258897206499909,9.776299068833302,1.5468504655833486,-0.3322222222222222,-0.5244444444444445,0.14666666666666667,0.06422505728755618,-0.17560826088700915,0.10322704769795912
1592314284.087005,-0.3029156472521453,9.699718824173818,1.585140587913091,-0.3322222222222222,-0.5244444444444445,0.14666666666666667,0.08176763581074817,-0.1572303214817604,0.1558547832675351
1592314284.097005,-0.57,9.62,1.64,-0.3377777777777778,-0.5311111111111111,0.13333333333333333,0.1287180323345818,-0.11344640137963141,0.21925698728178766
1592314284.107005,-0.6911567666282199,9.73,1.4636377835447905,-0.3377777777777778,-0.5311111111111111,0.13333333333333333,0.1784994277023471,-0.13239562824184345,0.2517743656265437
1592314284.1170049,-0.702310144384024,9.733844927807988,1.3587183573973374,-0.3377777777777778,-0.5311111111111111,0.13333333333333333,0.18980455615438332,-0.17788825768697689,0.26777047441275004
1592314284.1270049,-0.5922003607148713,9.791466907143247,1.3418336339290595,-0.3377777777777778,-0.5311111111111111,0.13333333333333333,0.18980455615438332,-0.2281729207327975,0.2926919516467803
1592314284.1370049,-0.6380472208558781,9.822031480570585,1.3800393507132316,-0.3377777777777778,-0.5311111111111111,0.13333333333333333,0.18980455615438332,-0.2548455427715281,0.3226986514403522
1592314284.1470048,-0.762940941207839,9.763382215704572,1.44713238234902,-0.35888888888888887,-0.5166666666666667,0.14,0.21703518849562833,-0.25186964287718694,0.39553035546281207
1592314284.1570048,-0.98,9.89,1.42,-0.35888888888888887,-0.5166666666666667,0.14,0.2476185876266955,-0.2301652951067522,0.4636030825609938
1592314284.1670048,-1.0432366764916754,9.811803552935555,1.4090982235322234,-0.35888888888888887,-0.5166666666666667,0.14,0.2976808816695011,-0.17414822768695692,0.564317881964594
1592314284.1770048,-0.9084376818237918,9.842617028404181,1.385781159088104,-0.35888888888888887,-0.5166666666666667,0.14,0.3468374337228437,-0.14174832212374786,0.6740952847982885
1592314284.1870048,-0.9675987799072588,9.790851067581148,1.3562006100463706,-0.35888888888888887,-0.5166666666666667,0.14,0.3847515975358397,-0.13368147875928063,0.74266345339626
1592314284.1970048,-0.56,9.86,1.08,-0.3711111111111111,-0.5244444444444445,0.15222222222222223,0.40797071265367457,-0.17562375598192942,0.8432121948697604
1592314284.2070048,-0.2911295168493707,9.783179861956963,1.0415899309784815,-0.3711111111111111,-0.5244444444444445,0.15222222222222223,0.41739796192413386,-0.1976206709463345,0.9228200775980836
1592314284.2170048,-0.17605137285563172,9.79,0.7160513728556317,-0.3711111111111111,-0.5244444444444445,0.15222222222222223,0.425820066600855,-0.17106572585351332,1.0147927077655035
1592314284.2270048,-0.20706063268892794,9.785913884007028,0.7606810193321617,-0.3711111111111111,-0.5244444444444445,0.15222222222222223,0.42951366205720404,-0.150241331447214,1.068810954082125
1592314284.2370048,-0.0611692662565905,9.739842926186292,0.7683595123022847,-0.3711111111111111,-0.5244444444444445,0.15222222222222223,0.43872719220169615,-0.11003683627124838,1.1157161984540849
1592314284.2470047,0.28,9.71,0.69,-0.38555555555555554,-0.5244444444444445,0.14555555555555555,0.45487643630102215,-0.03599741582238304,1.2304571226560024
1592314284.2570047,0.08033849592846878,9.746302091649369,0.635546862525946,-0.38555555555555554,-0.5244444444444445,0.14555555555555555,0.45487643630102215,0.014491868953794923,1.2938162251202256
1592314284.2670047,-0.02526506829687649,9.840726908014137,0.549273091985863,-0.38555555555555554,-0.5244444444444445,0.14555555555555555,0.4631273223782754,0.05594954336246484,1.3609774379254242
1592314284.2770047,-0.207746305207816,9.84094292124056,0.5415983080163719,-0.38555555555555554,-0.5244444444444445,0.14555555555555555,0.4564188205518197,0.05819409333366354,1.4307138189974864
1592314284.2870047,-0.04254003048310584,9.71883393557447,0.5631469525456818,-0.38555555555555554,-0.5244444444444445,0.14555555555555555,0.4477999814681497,0.033904637734230136,1.4980974700152694
1592314284.2970047,0.45,9.67,0.66,-0.3977777777777778,-0.5044444444444445,0.16,0.41887902047863906,0.007635815477475192,1.6144295580947547
1592314284.3070047,0.45753883083874614,9.677538830838746,0.5619951990963005,-0.3977777777777778,-0.5044444444444445,0.16,0.40407656074135095,-0.06226468883749646,1.6613040139295006
1592314284.3170047,1.5216883583806715,9.121172790680951,0.5048838714316531,-0.3977777777777778,-0.5044444444444445,0.16,0.3621403675946656,-0.08958162484722963,1.6848879553275313
1592314284.3270047,1.8337525773195877,9.290721649484535,0.29321649484536083,-0.3977777777777778,-0.5044444444444445,0.16,0.3805267596474441,-0.026703987382640043,1.6938847726375432
1592314284.3370047,1.886854584915898,9.44244167118828,0.338732501356484,-0.3977777777777778,-0.5044444444444445,0.16,0.4243844901962448,0.0121887170662964,1.6914022595876108
1592314284.3470047,1.8165744555620953,9.373931271788836,0.4510114547018608,-0.43,-0.4633333333333333,0.15222222222222223,0.43502081703130785,0.1045917416552585,1.6990855239013163
1592314284.3570046,1.9399955137950802,9.26000149540164,0.4699940183934401,-0.43,-0.4633333333333333,0.15222222222222223,0.4308778328400719,0.16362649328913062,1.7115134161754324
1592314284.3670046,1.8900561218371505,9.283497781508574,0.3847533277371388,-0.43,-0.4633333333333333,0.15222222222222223,0.4267056103431142,0.18933374212963683,1.709134939842193
1592314284.3770046,2.1070607436843596,9.361102221118365,0.25750816065852966,-0.43,-0.4633333333333333,0.15222222222222223,0.4308781590861001,0.2030949149985125,1.678645718158647
1592314284.3870046,2.0475333522565995,9.383424992903775,0.004516747090547835,-0.43,-0.4633333333333333,0.15222222222222223,0.4308781590861001,0.20715330943420732,1.631568342704587
1592314284.3970046,2.16,9.58,-0.08,-0.49777777777777776,-0.4444444444444444,0.17333333333333334,0.40687988187117813,0.19962203319685143,1.538071403320003
1592314284.4070046,1.9992896946281298,9.495818411471879,-0.19479307526562153,-0.49777777777777776,-0.4444444444444444,0.17333333333333334,0.36430514303133943,0.15621249555623162,1.467113505253605
1592314284.4170046,2.4643811933874136,9.652287917129817,-0.17954095026369937,-0.49777777777777776,-0.4444444444444444,0.17333333333333334,0.2690854811167135,0.07615104578244102,1.3403381948456279
1592314284.4270046,2.8881460064409374,9.718146006440938,0.12721900966140598,-0.49777777777777776,-0.4444444444444444,0.17333333333333334,0.19246906895875754,0.004200270100721323,1.2323935738922573
1592314284.4370046,2.8135183175275342,9.643518317527533,0.01527747629130119,-0.49777777777777776,-0.4444444444444444,0.17333333333333334,0.12408787751237739,-0.04627156168113069,1.1347061575402855
1592314284.4470046,2.81,9.11,0.18,-0.5466666666666666,-0.41333333333333333,0.14333333333333334,0.04363323129985824,-0.09926560120717749,0.9893835197242855
1592314284.4570045,3.377379184971974,9.418721027117103,-0.06197053476745948,-0.5466666666666666,-0.41333333333333333,0.14333333333333334,0.025429858349411773,-0.11837914280514628,0.906558172799754
1592314284.4670045,3.85,8.98,0.06,-0.5466666666666666,-0.41333333333333333,0.14333333333333334,0.01854412330243975,-0.1090830782496456,0.8235772407848243
1592314284.4770045,3.7108175630483533,9.093085730023212,-0.34014950623598383,-0.5466666666666666,-0.41333333333333333,0.14333333333333334,0.03277766892210177,-0.06163792618410552,0.777080991760595
1592314284.4870045,4.13591433700949,9.13477301872275,-0.08620842951184066,-0.5466666666666666,-0.41333333333333333,0.14333333333333334,0.0673343907176499,-0.02931991248656243,0.6881562458681517
1592314284.4970045,3.84,8.67,-0.26,-0.5455555555555556,-0.39222222222222225,0.13666666666666666,0.10471975511965977,0.019634954084936207,0.5475970528132209
1592314284.5070045,4.0270907450373805,8.882896365042537,-0.30515983500902294,-0.5455555555555556,-0.39222222222222225,0.13666666666666666,0.10049732042020519,0.03793217111590602,0.44625862002631117
1592314284.5170045,4.13,9.29182941786961,-0.018715287605748976,-0.5455555555555556,-0.39222222222222225,0.13666666666666666,0.0918080401796772,0.06285225833485304,0.21755458181112675
1592314284.5270045,3.317214580303716,9.133525877893533,-0.25481488545068776,-0.5455555555555556,-0.39222222222222225,0.13666666666666666,0.058515385709896006,0.08356410797757895,0.032185112156252055
1592314284.5370045,3.5956960303969603,9.368199580041995,0.011054694530546916,-0.5455555555555556,-0.39222222222222225,0.13666666666666666,0.01749473994493566,0.09205782855770242,-0.10782800659200835
1592314284.5470045,3.01,8.83,-0.25,-0.57,-0.38666666666666666,0.14222222222222222,-0.017453292519943295,0.06981317007977318,-0.2945243112740431
1592314284.5570045,3.551004211208293,8.917515387107223,-0.13066083576287657,-0.57,-0.38666666666666666,0.14222222222222222,-0.04609263597953926,0.04464526219103733,-0.4151566973614322
1592314284.5670044,3.738460608926367,9.43429821104894,0.016305461423280015,-0.57,-0.38666666666666666,0.14222222222222222,-0.07882462384091993,-0.015740493047135394,-0.5909925576788555
1592314284.5770044,3.27387155640569,9.181079744080206,-0.2220282303278148,-0.57,-0.38666666666666666,0.14222222222222222,-0.11287658301757672,-0.05754397992314192,-0.7324886374003285
1592314284.5870044,3.3214113389626054,8.910958986731002,-0.09788299155609168,-0.57,-0.38666666666666666,0.14222222222222222,-0.130151639255607,-0.0795609076391625,-0.8668341420439178
1592314284.5970044,3.425753128170443,9.064225904633075,-0.4063388569496111,-0.57,-0.3804044639837673,0.134916319092173,-0.13526301702956053,-0.11076724424707857,-1.2357240978268416
1592314284.6070044,3.3902022154486655,8.980505538621664,0.0873711991673482,-0.57,-0.38,0.13444444444444445,-0.13526301702956053,-0.11235557059713495,-1.2566370614359172
1592314284.6170044,3.001530135301353,9.094255842558427,-0.11566051660516607,-0.57,-0.38,0.13444444444444445,-0.13858658476670185,-0.11401735446570563,-1.3629912290244393
1592314284.6270044,2.7959027077352783,8.728201825846329,0.006882871699381898,-0.57,-0.38,0.13444444444444445,-0.13860705221369127,-0.09517076119088083,-1.5644459126615564
1592314284.6370044,2.7743159340112635,8.903892857853576,0.27878708881415293,-0.57,-0.38,0.13444444444444445,-0.14110180867333283,-0.08440168320832447,-1.6489622941020619
1592314284.6470044,2.6912509100117115,9.176559997467793,0.25156363751463934,-0.5557814143076701,-0.43796808013026794,0.12788202027875373,-0.15147196901298024,-0.08718117940303473,-1.7752747373924282
1592314284.6570044,2.5699888972600022,9.262507633133747,0.30250485744874894,-0.5555555555555556,-0.4388888888888889,0.12777777777777777,-0.1548982738947607,-0.0709024869609497,-1.8522376326250538
1592314284.6670043,2.104392523364486,9.123457943925233,-0.07785046728971962,-0.5555555555555556,-0.4388888888888889,0.12777777777777777,-0.14589606848884842,-0.01397690656824898,-1.9227370770130523
1592314284.6770043,2.2182572289299523,9.610368147638589,0.6405522214578836,-0.5555555555555556,-0.4388888888888889,0.12777777777777777,-0.18045752042549468,0.04880730948613272,-1.9344933393409622
1592314284.6870043,1.3330488496435517,9.712943940375892,-0.12613921743357082,-0.5555555555555556,-0.4388888888888889,0.12777777777777777,-0.14377938851255953,0.08091518343578377,-1.8887875064285033
1592314284.6970043,1.243248780487805,9.459560975609756,0.4613170731707318,-0.5194970189701897,-0.46893766937669373,0.10073387533875339,-0.14193145184236325,0.11294089443164525,-1.7552776287306973
1592314284.7070043,1.4872592206960074,10.082641864562893,0.4742469264346642,-0.5155555555555555,-0.4722222222222222,0.09777777777777778,-0.14099189901825604,0.09910130604186695,-1.6651437755993923
1592314284.7170043,1.553685073051497,10.199763902005445,0.27990556080217766,-0.5155555555555555,-0.4722222222222222,0.09777777777777778,-0.10237662926824045,0.061478201213427765,-1.5011824646671055
1592314284.7270043,0.7710716182933308,9.697689187231372,0.6489872989810208,-0.5155555555555555,-0.4722222222222222,0.09777777777777778,-0.08326889202311226,0.0893912831730489,-1.3919665597736108
1592314284.7370043,0.8869924623115578,9.868288944723618,0.6314346733668341,-0.5155555555555555,-0.4722222222222222,0.09777777777777778,-0.03709290593234243,0.08342827308261086,-1.3402670559898642
1592314284.7470043,0.598939832742182,9.457798965214279,0.33535582961830074,-0.4967367732185018,-0.522405641787699,0.09777777777777778,0.036053038217885046,0.10400667387955786,-1.2358000317774807
1592314284.7570043,0.8706710271317829,9.906800710594315,0.17682332041343668,-0.4955555555555556,-0.5255555555555556,0.09777777777777778,0.08269081327454268,0.10190604766643983,-1.187036217551332
1592314284.7670043,-0.0514959037119449,9.526294629311217,0.32300343885910787,-0.4955555555555556,-0.5255555555555556,0.09777777777777778,0.1070959832958525,0.10324481112089333,-1.1077518440368541
1592314284.7770042,0.2853915847039138,9.731481859364159,0.018476921193323226,-0.4955555555555556,-0.5255555555555556,0.09777777777777778,0.11959187926148021,0.09748794279898805,-1.0586175518352592
1592314284.7870042,0.5416817906836056,10.176102540834846,-0.4844207501512402,-0.4955555555555556,-0.5255555555555556,0.09777777777777778,0.1303976675730265,0.06909914775269443,-0.9854552420833262
1592314284.7970042,0.3433496493060737,9.305843605432026,0.3232517534696314,-0.46821787792866737,-0.5472371619492945,0.06007063622344924,0.08294048263963136,0.07926525706487797,-0.9237389803978581
1592314284.8070042,0.7697533191608841,9.968031366571738,0.012787694035538089,-0.4633333333333333,-0.5511111111111111,0.05333333333333334,0.09004716007354413,0.07718969939876802,-0.8953485770368267
1592314284.8170042,1.1256275237811322,10.48457492072956,0.06295536464402829,-0.4633333333333333,-0.5511111111111111,0.05333333333333334,0.04646852219358625,0.08985883751903398,-0.8607317372009066
1592314284.8270042,0.3595249607155807,9.776026028445948,-0.15414682299850924,-0.4633333333333333,-0.5511111111111111,0.05333333333333334,0.04126073258358608,0.08437564455478559,-0.863949758723039
1592314284.8370042,0.5193910654319731,9.56846931922255,0.25325999796479093,-0.4633333333333333,-0.5511111111111111,0.05333333333333334,0.029055305228609225,0.056330226319591434,-0.862579630669786
1592314284.8470042,0.4813686534216336,10.392281563768424,0.07117852310759798,-0.4475327367529888,-0.5836417511294674,0.05333333333333334,-0.0022646215646871526,0.05458301912466992,-0.8447965910436962
1592314284.8570042,0.3514331439545491,10.210048011522765,0.14092342162118907,-0.4444444444444444,-0.59,0.05333333333333334,0.00851645817289063,0.06555232237098052,-0.8166727192415537
1592314284.8670042,0.10056652674873931,10.083179141899317,0.12056652674873933,-0.4444444444444444,-0.59,0.05333333333333334,0.049025586730677265,0.05842313525403632,-0.7682803220091987
1592314284.8770041,0.16761919497274524,10.247619194972746,0.06159862893051819,-0.4444444444444444,-0.59,0.05333333333333334,0.07287048748035464,0.06737180297369509,-0.7727460219252851
1592314284.8870041,0.16188138569604088,10.164555196360153,0.15841515006385698,-0.4444444444444444,-0.59,0.05333333333333334,0.07022362476597116,0.08975039260831064,-0.8028620568630948
1592314284.8970041,0.03145627665167357,10.088388340440446,0.09726210643145045,-0.42863861466466757,-0.6049277281253448,0.05860194325992562,0.027976091481416783,0.1309335931913726,-0.8553680858415501
1592314284.907004,-0.008114423099367428,10.023199038304428,0.10245769239746971,-0.42444444444444446,-0.6088888888888889,0.06,-0.05070296872228193,0.1564441189076279,-0.8953294675488539
1592314284.917004,-0.17168922628852443,9.937239848170163,0.061493232113442674,-0.42444444444444446,-0.6088888888888889,0.06,-0.13003588841636454,0.18680846281201266,-0.9047626909030724
1592314284.927004,-0.439909220750926,9.813256433222783,0.14853252317896826,-0.42444444444444446,-0.6088888888888889,0.06,-0.19165616146164977,0.21905193993069985,-0.8758319143978759
1592314284.937004,-0.5485014515121449,9.793656340719508,0.1809690221585272,-0.42444444444444446,-0.6088888888888889,0.06,-0.21775749079438722,0.23308688411135492,-0.8494498886089968
1592314284.947004,-0.7558353950189676,9.881411842322283,0.28141184232228267,-0.39821173969615337,-0.6342170176113768,0.06,-0.2765192163444154,0.2520589148099402,-0.7970892857918739
1592314284.957004,-0.8102827284281882,9.956780115802854,0.2962146589464765,-0.39222222222222225,-0.64,0.06,-0.2955905864250285,0.24481440845231578,-0.8045956451965303
1592314284.967004,-1.897888632711521,10.66994690141829,-0.6643002864528751,-0.39222222222222225,-0.64,0.06,-0.2954942688908133,0.25405131117847457,-0.7521523268785832
1592314284.977004,-0.6631138523087183,10.132195365894315,0.6623237206201034,-0.39222222222222225,-0.64,0.06,-0.37241461143524524,0.28385075299737045,-0.5871346227453594
1592314284.987004,-0.34410159416373953,10.217843825992976,0.7931991353688194,-0.39222222222222225,-0.64,0.06,-0.3917220203520676,0.2561291898543597,-0.6196472954785515
1592314284.997004,-0.8385669941534566,10.22512205412573,0.7967376891085528,-0.35929540112108976,-0.6498780463303397,0.049298783142131944,-0.3751227411521735,0.19731732360525117,-0.7899344046732943
1592314285.007004,-1.0523700790561419,9.760093502949557,1.0794317588988322,-0.3477777777777778,-0.6533333333333333,0.04555555555555556,-0.33784722115582205,0.18051434973975622,-0.8489766702003221
1592314285.017004,-1.2575360234457682,9.637664106808499,0.8723038723508182,-0.3477777777777778,-0.6533333333333333,0.04555555555555556,-0.2099403907492276,0.1505276621207713,-0.9465967915827419
1592314285.027004,-1.5049662410272204,9.631395607779963,0.7732723697614367,-0.3477777777777778,-0.6533333333333333,0.04555555555555556,-0.11362595391988836,0.16055684800106013,-0.9786799348734021
1592314285.037004,-1.4903836860218203,9.710237973200556,0.7156945156330087,-0.3477777777777778,-0.6533333333333333,0.04555555555555556,-0.0734355877152553,0.1670536615513268,-0.993861541031299
1592314285.047004,-1.4057709128774731,9.967980909406457,0.4502863589031586,-0.3477777777777778,-0.6746157584172163,0.023386362759844192,-0.04903532369460596,0.18976290694019568,-1.1032824208846048
1592314285.057004,-1.4348218020917136,10.003752614641995,0.3235639581657281,-0.3477777777777778,-0.68,0.017777777777777778,-0.08873004509167823,0.19416787928436915,-1.1951274567470558
1592314285.067004,-1.7429510446850696,9.847884703370443,0.1534985511666921,-0.3477777777777778,-0.68,0.017777777777777778,-0.19395726592907855,0.20222808233636752,-1.3699583591479512
1592314285.077004,-2.039915089587681,9.574891703245305,0.1755796215010434,-0.3477777777777778,-0.68,0.017777777777777778,-0.2778297415247417,0.20424752620620248,-1.4754262246215923
1592314285.087004,-2.1497439126784217,9.430994962216625,0.26022670025188915,-0.3477777777777778,-0.68,0.017777777777777778,-0.31234625147656814,0.19728237976789495,-1.509201481325821
1592314285.097004,-2.388482701125469,9.072730304293456,0.5624218424343477,-0.32067389189940254,-0.6892927608725858,0.012357000602102729,-0.3600400900552027,0.1575097810414078,-1.5392613592007003
1592314285.107004,-2.4947317477876108,8.921811788874841,0.6382439159292035,-0.3088888888888889,-0.6933333333333334,0.01,-0.3620630784865188,0.14015464667671704,-1.529733951623745
1592314285.117004,-2.6635424440298507,8.679686333955223,0.6967712220149254,-0.3088888888888889,-0.6933333333333334,0.01,-0.3356679400895493,0.11999138607461016,-1.4489271498105387
1592314285.127004,-2.743823304314551,8.662617669568546,0.7812056347460059,-0.3088888888888889,-0.6933333333333334,0.01,-0.28992047420107836,0.1352918453088741,-1.3843606355344138
1592314285.137004,-2.767643386089734,8.652930158269204,0.8029301582692029,-0.3088888888888889,-0.6933333333333334,0.01,-0.2639606170756362,0.14508730483486404,-1.3703405295151265
1592314285.147004,-2.9073534450902008,8.524747539221286,0.7238653542513521,-0.2675675524350231,-0.7026891076247747,-0.005592957152402177,-0.1977107065222565,0.1531379542897667,-1.4117414207980379
1592314285.1570039,-3.036435659158923,8.466712868168216,0.6822838242242872,-0.25,-0.7066666666666667,-0.012222222222222223,-0.18472409210675061,0.13604063557131185,-1.4628076873678217
1592314285.1670039,-3.251595275472827,8.463852134260298,0.5284047245271735,-0.25,-0.7066666666666667,-0.012222222222222223,-0.18863307712161484,0.09363318938256715,-1.5257454313585577
1592314285.1770039,-4.188311003039514,11.234519878419453,0.35481167173252276,-0.25,-0.7066666666666667,-0.012222222222222223,-0.19591281066495345,0.06876740486565269,-1.4939623443385106
1592314285.1870039,-4.368203040823657,11.538642403926733,0.5282377588890219,-0.25,-0.7066666666666667,-0.012222222222222223,-0.2107799666701749,0.0811227202822333,-1.412609082325422
1592314285.1970038,-3.275915878262852,9.031946882480337,0.6987210760287246,-0.2249787859214509,-0.7097943184264853,-0.0278604810213154,-0.2677302595071511,0.10474263359497943,-1.0545647932681466
1592314285.2070038,-3.1506140176906907,9.486449169013525,0.2938296775217167,-0.20555555555555555,-0.7122222222222222,-0.04,-0.2799076287762999,0.06422925528844013,-0.991763868170133
1592314285.2170038,-4.0505018875654795,8.42597992449738,1.0552246056597698,-0.20555555555555555,-0.7122222222222222,-0.04,-0.3012444877788706,0.016976175757917253,-0.9558253497806107
1592314285.2270038,-3.95,8.40945766168188,0.9058642454845601,-0.20555555555555555,-0.7122222222222222,-0.04,-0.2728851754236938,-0.025266587796998287,-0.9255237350075585
1592314285.2370038,-3.8962296733342927,8.46237357893222,1.0338817095985033,-0.20555555555555555,-0.7122222222222222,-0.04,-0.2590877416481924,-0.03094239075542897,-0.9095762110733896
1592314285.2470038,-3.797638192922017,8.471749921703728,1.0643156905731288,-0.1793910724849497,-0.7275380171903818,-0.05276316247346626,-0.15170512171287942,-0.03973422867950614,-0.8721113103673179
1592314285.2570038,-3.838855783480228,8.385265189922784,1.0312931908587473,-0.16,-0.7388888888888889,-0.06222222222222222,-0.10676847673475402,-0.029361096064225933,-0.8471178642458231
1592314285.2670038,-4.019392500409366,8.49349598821025,0.6053184869821517,-0.16,-0.7388888888888889,-0.06222222222222222,-0.012394602722811787,0.017360946111796796,-0.7862923338407392
1592314285.2770038,-4.133707958582118,8.494406318494445,0.3236633663366337,-0.16,-0.7388888888888889,-0.06222222222222222,0.020258980854848962,0.02726384417614205,-0.7650699286799059
1592314285.2870038,-3.8707209320980227,8.845969397986604,1.3324467573095897,-0.16,-0.7388888888888889,-0.06222222222222222,-0.008922648421989221,0.025183237160717773,-0.7229229336344144
1592314285.2970037,-3.9907342521217783,9.05523943003971,0.9088188118040956,-0.1510827342175158,-0.7450195091143468,-0.06445153866784327,-0.024548916159321667,0.03656894897938831,-0.6527177050202733
1592314285.3070037,-4.297910728690508,9.014246917374102,0.5822943955748473,-0.14222222222222222,-0.7511111111111111,-0.06666666666666667,-0.03880664134963346,0.049580486147631046,-0.5786970226621317
1592314285.3170037,-4.499151592633899,9.011474308407909,0.8244645431548023,-0.14222222222222222,-0.7511111111111111,-0.06666666666666667,-0.11574867951919246,0.04979589260902877,-0.4185331046050068
1592314285.3270037,-4.411520478996207,8.918031296963337,0.8771734929987357,-0.14222222222222222,-0.7511111111111111,-0.06666666666666667,-0.17141564874893056,0.031183303052933264,-0.28998027156324013
1592314285.3370037,-4.2453271865540865,8.409937868408477,0.7360436912537837,-0.14222222222222222,-0.7511111111111111,-0.06666666666666667,-0.20909287994625964,0.02084132829845263,-0.17911716893356863
1592314285.3470037,-4.161178810455866,8.644145725470388,0.9317824220229827,-0.11869147339029901,-0.7511111111111111,-0.07973930490662401,-0.22901048012189817,0.0165550342130031,-0.10234428134214349
1592314285.3570037,-4.143989520958084,8.912508666876773,1.147578395839899,-0.10222222222222223,-0.7511111111111111,-0.08888888888888889,-0.23812418282748332,0.023793037386006056,-0.07376029812118044
1592314285.3670037,-4.124504151652828,8.72928769126325,1.1103561543683744,-0.10222222222222223,-0.7511111111111111,-0.08888888888888889,-0.23180840561332317,0.03393230550189312,-0.03231967149376256
1592314285.3770037,-4.328224515336844,8.63310845592576,1.0526659425252072,-0.10222222222222223,-0.7511111111111111,-0.08888888888888889,-0.20117321316692674,0.015053227823712633,-0.02239823408410159
1592314285.3870037,-4.45572162130501,8.570262407747277,1.0451968058104573,-0.10222222222222223,-0.7511111111111111,-0.08888888888888889,-0.18366902168771287,-0.006178470833914627,0.005754708483191595
1592314285.3970037,-4.477286999182338,8.393721995094031,1.0000261651676206,-0.09979903697646952,-0.7486879258653584,-0.10039901880621423,-0.1698736595889628,-0.0315297368448485,0.06404594862464474
1592314285.4070036,-4.4678094390026715,8.258495102404275,0.9838379341050756,-0.09777777777777778,-0.7466666666666667,-0.11,-0.16650856803629563,-0.041840111420527466,0.11129582314949149
1592314285.4170036,-4.201095904832088,8.733452468680914,1.4998073481419096,-0.09777777777777778,-0.7466666666666667,-0.11,-0.1730409709383324,-0.04244387090252001,0.2591850801689859
1592314285.4270036,-4.257628479273683,8.578099390753792,1.2638272607812686,-0.09777777777777778,-0.7466666666666667,-0.11,-0.18127251587823442,-0.03245351237063091,0.3885199918216703
1592314285.4370036,-4.472904190550788,8.284838181365044,0.9170958094492114,-0.09777777777777778,-0.7466666666666667,-0.11,-0.1835058404803684,-0.02554657571511798,0.44804964621003124
1592314285.4470036,-4.06924418205533,8.639825633280703,1.1809301846639666,-0.10136305042600094,-0.7502519393148899,-0.11059754544137053,-0.2087609141968274,-0.02046893379418746,0.635034774422999
1592314285.4570036,-4.091066176470588,8.616617647058824,1.07,-0.10444444444444445,-0.7533333333333333,-0.1111111111111111,-0.21797365694943885,-0.021391512477338587,0.722559091592533
1592314285.4670036,-4.2012257186767785,8.176838578015166,1.1485800307374467,-0.10444444444444445,-0.7533333333333333,-0.1111111111111111,-0.2355420017101449,-0.019212649134094942,0.8852826010342817
1592314285.4770036,-4.196357421482285,8.209099609924799,1.2078171874371657,-0.10444444444444445,-0.7533333333333333,-0.1111111111111111,-0.24127302050268346,-0.02626030239408366,0.9363509916952072
1592314285.4870036,-3.9148381851794105,8.420937033654809,1.3711753569280798,-0.10444444444444445,-0.7533333333333333,-0.1111111111111111,-0.28969083052835715,-0.07037623672975771,1.0352244096254035
1592314285.4970036,-3.62497092459779,8.385017445241326,1.8400232603217677,-0.11444573668454265,-0.7444432957865793,-0.11055548376443898,-0.2836138890261623,-0.07744898555724837,1.1284700124729299
1592314285.5070035,-3.3877971858321203,8.554167879670063,1.9801374737182598,-0.12444444444444444,-0.7355555555555555,-0.11,-0.2662773866542886,-0.07744898555724837,1.1775866734829514
1592314285.5170035,-3.2804201503362784,8.823389423710932,1.5705602004483714,-0.12444444444444444,-0.7355555555555555,-0.11,-0.2309200297478502,-0.07855509343708113,1.2783589360660188
1592314285.5270035,-3.1435766945816335,8.726642330541837,1.6710218786534012,-0.12444444444444444,-0.7355555555555555,-0.11,-0.19273467551631357,-0.08326144041174455,1.3355033228047666
1592314285.5370035,-2.836883353227795,8.840225427078646,1.8566710369254251,-0.12444444444444444,-0.7355555555555555,-0.11,-0.1646785627374757,-0.08965428121414584,1.352424013246169
1592314285.5470035,-2.6535995053145265,9.092157229761348,1.9303218798047999,-0.140177447987462,-0.7355555555555555,-0.12730630389731934,-0.13117923797369063,-0.08196963654425914,1.348781708502595
1592314285.5570035,-2.6484394036550176,9.243787271561398,1.8615605963449824,-0.15777777777777777,-0.7355555555555555,-0.14666666666666667,-0.11487066300446919,-0.06693212125691003,1.3488756961680173
1592314285.5670035,-2.1309043790987943,9.255813941188915,2.1925322614766234,-0.15777777777777777,-0.7355555555555555,-0.14666666666666667,-0.10309337419151521,-0.02590088501986971,1.3047689024209208
1592314285.5770035,-2.074568973769864,9.313189498372584,1.9848276852383686,-0.15777777777777777,-0.7355555555555555,-0.14666666666666667,-0.10076079437695347,0.027007407966254393,1.243942082227349
1592314285.5870035,-2.0102489993764956,9.266709306301413,1.8472678452905327,-0.15777777777777777,-0.7355555555555555,-0.14666666666666667,-0.0857285840482756,0.08447478355495665,1.22500296874352
1592314285.5970035,-2.214362470391126,8.98806112427061,1.680320642440349,-0.1800364614426663,-0.7263617514331016,-0.14860220437665697,-0.050811073047112056,0.12593849038172455,1.241154751221282
1592314285.6070035,-2.57,8.83,1.59,-0.2088888888888889,-0.7144444444444444,-0.1511111111111111,-0.02617993877991494,0.1407171709420428,1.2620912153483996
1592314285.6170034,-2.359822171465862,9.06054001142018,1.5921600456807243,-0.2088888888888889,-0.7144444444444444,-0.1511111111111111,0.06296324394653559,0.054070290260796273,1.3174089447755077
1592314285.6270034,-1.8788922263606873,9.230109575874083,1.5967802475069086,-0.2088888888888889,-0.7144444444444444,-0.1511111111111111,0.12016069223883326,-0.03295464931840681,1.3347041625928784
1592314285.6370034,-1.64,9.34,1.42,-0.2088888888888889,-0.7144444444444444,-0.1511111111111111,0.14726215563702155,-0.07308566242726255,1.3362677085581585
1592314285.6470034,-1.5232190468077857,9.347321010264492,1.5152336130158865,-0.22173071917694773,-0.709552318620422,-0.14958232179110412,0.14335985358351735,-0.08971884570181092,1.3375193833360979
1592314285.6570034,-1.394724202903905,9.647146340562308,1.4414268297188457,-0.25555555555555554,-0.6966666666666667,-0.14555555555555555,0.1296283543397922,-0.08008580812484649,1.3251553560938998
1592314285.6670034,-1.3727302458065196,9.79772206983859,1.1662034497309843,-0.25555555555555554,-0.6966666666666667,-0.14555555555555555,0.06011022509092673,-0.05131838676024253,1.29051800776402
1592314285.6770034,-1.44,9.68,0.97,-0.25555555555555554,-0.6966666666666667,-0.14555555555555555,0.03381575425739013,-0.04581489286485115,1.2697270308258748
1592314285.6870034,-1.305773715101523,9.468912000317259,1.4121759993654823,-0.25555555555555554,-0.6966666666666667,-0.14555555555555555,-0.0056778053697120814,-0.05870863730123137,1.2623148668056294
1592314285.6970034,-1.1561117445838085,9.386556442417332,1.524332953249715,-0.2648454326618523,-0.6884384898010896,-0.15059863169897378,-0.0024727156164229807,-0.07820025327974309,1.26119442060019
1592314285.7070034,-1.08,9.28,1.57,-0.29444444444444445,-0.6622222222222223,-0.16666666666666666,0.017453292519943295,-0.10144726277217041,1.2479104151759455
1592314285.7170033,-0.6329571420286494,9.720194571710259,1.4989882851012004,-0.29444444444444445,-0.6622222222222223,-0.16666666666666666,0.06662981422666052,-0.1287859443478631,1.201552226204844
1592314285.7270033,-0.38060090458755114,9.72174527963242,1.2035192763299591,-0.29444444444444445,-0.6622222222222223,-0.16666666666666666,0.0848288720378682,-0.1154969659003355,1.1671858047253467
1592314285.7370033,-0.5024557395773843,9.6459937178755,1.129386065105654,-0.29444444444444445,-0.6622222222222223,-0.16666666666666666,0.07709825013146568,-0.07964995937481546,1.1379056440978
1592314285.7470033,-0.58,9.758689344672337,1.148252459563115,-0.3056014118170196,-0.6547842439738388,-0.16321331962277436,0.04593535354280817,-0.040338229312660026,1.113763376061728
1592314285.7570033,-0.58,9.85,1.27,-0.3411111111111111,-0.6311111111111111,-0.15222222222222223,0.01854412330243975,-0.022907446432425576,1.0930124440614488
1592314285.7670033,-0.23140854047163797,13.761368971744211,1.2249591034629277,-0.3411111111111111,-0.6311111111111111,-0.15222222222222223,0.02037720916088444,-0.0016356088708655969,1.0997549057440066
1592314285.7770033,-0.38602189519879787,13.90285567772557,1.2080079662270138,-0.3411111111111111,-0.6311111111111111,-0.15222222222222223,-0.03918524760827146,0.06125389363934025,1.1591823480803414
1592314285.7870033,-0.9779047245358399,9.067120333874334,1.9272492821345129,-0.3411111111111111,-0.6311111111111111,-0.15222222222222223,-0.1327953647655593,0.06599682848057778,1.1110982818600899
1592314285.7970033,-0.9592615805777682,9.397463439233485,1.9925365607665153,-0.34528996469994955,-0.6297181599148316,-0.1564010758110607,-0.11999060023008705,-0.04361727865603958,0.9677136212468167
1592314285.8070033,-0.36,9.34,2.05,-0.36444444444444446,-0.6233333333333333,-0.17555555555555555,-0.17998707911191522,-0.01854412330243975,0.9533861039019024
1592314285.8170033,-0.20647821472621403,9.691456558529099,1.0085434414709002,-0.36444444444444446,-0.6233333333333333,-0.17555555555555555,-0.0025634507744132637,-0.025281191586717905,1.015596656205495
1592314285.8270032,-0.44324029184466945,9.408073969183507,1.4581042096673547,-0.36444444444444446,-0.6233333333333333,-0.17555555555555555,0.013757306706854572,-0.003542725999314079,1.0405125015881078
1592314285.8370032,-0.1,9.56,1.52,-0.36444444444444446,-0.6233333333333333,-0.17555555555555555,0.056723200689815706,-0.01090830782496456,1.0515608743265834
1592314285.8470032,0.0061220322696881185,9.791250750690635,1.5113784681907356,-0.3681338831725187,-0.6218839109758756,-0.17212964816520088,0.17488253085318978,-0.04679383236878109,1.063874679859131
1592314285.8570032,-0.32,8.76,1.15,-0.39555555555555555,-0.6111111111111112,-0.14666666666666667,0.20180369476184434,-0.062177354602297986,1.0581058590215624
1592314285.8670032,0.2270523805562488,9.380497185480964,1.0563924243684664,-0.39555555555555555,-0.6111111111111112,-0.14666666666666667,0.2631762429245815,-0.07312117348675984,1.0691571790179946
1592314285.8770032,0.40569249394673124,9.831989830508475,0.9268513317191283,-0.39555555555555555,-0.6111111111111112,-0.14666666666666667,0.2564235465566454,-0.037787514037484676,1.0628428643285641
1592314285.8870032,0.23,9.75,0.88,-0.39555555555555555,-0.6111111111111112,-0.14666666666666667,0.2596177262341565,-0.02181661564992912,1.0602875205865552
1592314285.8970032,0.2765451912161898,9.719942458997142,0.5566602732219048,-0.4000085245930159,-0.6074003035798942,-0.14889315118539684,0.1708752026754186,0.004365415379891579,1.0536231922489931
1592314285.9070032,-0.23,9.48,0.53,-0.43555555555555553,-0.5777777777777777,-0.16666666666666666,0.08072147790473774,0.01308996938995747,1.0613783513690518
1592314285.9170032,0.38563735164508367,10.045923652977912,1.3075800913785178,-0.43555555555555553,-0.5777777777777777,-0.16666666666666666,-0.005061544482452395,-0.0047228440164497525,1.098709748634984
1592314285.9270031,0.31222312508962285,9.882355049949812,1.1653118875770756,-0.43555555555555553,-0.5777777777777777,-0.16666666666666666,-0.050927318133937714,-0.03591018481530324,1.1233012083350338
1592314285.9370031,0.62,9.71,1.43,-0.43555555555555553,-0.5777777777777777,-0.16666666666666666,-0.07308566242726255,-0.04799655442984406,1.1333731830138176
1592314285.9470031,0.5038063038499291,9.044273094121495,1.21193914276366,-0.43586674906993367,-0.5768441972346433,-0.1664073387380182,-0.05824291629845457,-0.061442956257838334,1.1279405625697214
1592314285.957003,0.99,9.54,1.66,-0.44222222222222224,-0.5577777777777778,-0.16111111111111112,-0.044724062082354694,-0.06872233929727672,1.1061024134514064
1592314285.967003,0.9657585759754804,9.368020747377107,1.169203112106566,-0.44222222222222224,-0.5577777777777778,-0.16111111111111112,-0.018238464364564697,-0.08648129075509509,1.0438941971978293
1592314285.977003,1.4412525179856115,9.521813669064748,1.1961122302158274,-0.44222222222222224,-0.5577777777777778,-0.16111111111111112,-0.005908849851603464,-0.08524656836227651,0.9844146677944621
1592314285.987003,1.4812301185024643,9.16227356940609,1.1687454119621072,-0.44222222222222224,-0.5577777777777778,-0.16111111111111112,0.012157689814984357,-0.06679135489396212,0.9438193040211127
1592314285.997003,2.049912713323939,9.672842492563019,1.295548379520902,-0.44263925856340136,-0.5574189325539726,-0.16111111111111112,0.027604022038432412,-0.046486777677492624,0.9236099417977921
1592314286.007003,2.04,8.86,0.79,-0.49,-0.5166666666666667,-0.16111111111111112,0.06544984694978735,0.001090830782496456,0.8868454261696187
1592314286.017003,2.4382995069372777,9.631319802774911,1.557615812406834,-0.49,-0.5166666666666667,-0.16111111111111112,0.12717453366974907,0.0748944264724392,0.8248814283620969
1592314286.027003,1.9070866010345402,9.258641748706825,1.0138695144335057,-0.49,-0.5166666666666667,-0.16111111111111112,0.17392462276741175,0.12895392699403707,0.7512860846758659
1592314286.037003,2.09,9.03,1.04,-0.49,-0.5166666666666667,-0.16111111111111112,0.1974403716318585,0.15817046346198613,0.7014041931452212
1592314286.047003,2.2666709700663525,9.344081724562404,1.5601978563064822,-0.49,-0.5166666666666667,-0.16111111111111112,0.2509731862212717,0.1870781833402692,0.6243169401364663
1592314286.057003,1.98,9.37,0.44,-0.5166666666666667,-0.49,-0.14666666666666667,0.29343348049154666,0.222529479629277,0.5606870222031783
1592314286.067003,2.4081241006666083,9.615125539600035,1.0413235250932371,-0.5166666666666667,-0.49,-0.14666666666666667,0.31832343731359786,0.26161666971899905,0.4928289740210027
1592314286.077003,2.0629026432441306,9.507253324577245,0.7414480380889837,-0.5166666666666667,-0.49,-0.14666666666666667,0.287853247959646,0.2447101831105664,0.4337242406483121
1592314286.087003,1.8992423293675642,9.051542177296717,0.8369236962161195,-0.5166666666666667,-0.49,-0.14666666666666667,0.23695998335056434,0.19995672767613965,0.3886701603123303
1592314286.097003,2.3194602379461493,9.186612219339834,0.8594353698899723,-0.5166666666666667,-0.49,-0.14666666666666667,0.1632907035237033,0.1655777304236045,0.343650044862582
1592314286.107003,2.77,9.79,1.69,-0.5366666666666666,-0.4711111111111111,-0.13777777777777778,0.14944381720201447,0.11017390903214205,0.2781618495365963
1592314286.117003,2.9597169994184918,9.226606485199236,1.2323908287874172,-0.5366666666666666,-0.4711111111111111,-0.13777777777777778,0.1336029533919663,0.08346678420712118,0.2061726060095374
1592314286.127003,2.7070742905829173,9.086926608761509,1.1745916266300618,-0.5366666666666666,-0.4711111111111111,-0.13777777777777778,0.16734562232897526,0.09955252742109522,0.17718726375296462
1592314286.137003,2.7706358422810995,9.373707680488808,0.8418001536455076,-0.5366666666666666,-0.4711111111111111,-0.13777777777777778,0.1983393379608921,0.1458938863213105,0.1685680357123543
1592314286.147003,2.6657277615993427,9.351227377485573,1.1340440926875457,-0.5366666666666666,-0.4711111111111111,-0.13777777777777778,0.21713969628965282,0.19166867181742359,0.16284618752534014
1592314286.157003,2.97,9.84,1.06,-0.5244444444444445,-0.46555555555555556,-0.15222222222222223,0.20616701789183017,0.21925698728178766,0.17016960206944715
1592314286.167003,1.989298975938723,9.53126078872145,0.6967773984958233,-0.5244444444444445,-0.46555555555555556,-0.15222222222222223,0.12494306699489427,0.22123805925488363,0.1879992498273111
1592314286.177003,2.665044370707616,9.55961879774674,0.9879033876070684,-0.5244444444444445,-0.46555555555555556,-0.15222222222222223,0.008328860731164067,0.19542504092775095,0.22123766572321077
1592314286.187003,2.67,9.368648419665341,1.1273806217787297,-0.5244444444444445,-0.46555555555555556,-0.15222222222222223,-0.03411062334420273,0.1663573293441655,0.22411470261740093
1592314286.197003,2.67,9.176163305170506,1.265575062954508,-0.5244444444444445,-0.46555555555555556,-0.15222222222222223,-0.0761043609568667,0.13728474176616734,0.22680660887462298
1592314286.2070029,3.3,8.92,1.3,-0.5577777777777778,-0.45111111111111113,-0.16111111111111112,-0.10581058590215622,0.03490658503988659,0.14508049407202864
1592314286.2170029,3.404963783984099,9.10130108142708,1.6053491897719234,-0.5577777777777778,-0.45111111111111113,-0.16111111111111112,-0.019416846727387554,0.01825237025920829,0.07846363494931546
1592314286.2270029,3.2527330683267084,9.069414985374634,1.3156123903097579,-0.5577777777777778,-0.45111111111111113,-0.16111111111111112,0.04892187477410528,0.022987215427620507,0.04870449403540485
1592314286.2370028,3.0907921032404224,9.042788745499413,1.0051650552206806,-0.5577777777777778,-0.45111111111111113,-0.16111111111111112,0.11991396131600786,0.03232350180682543,0.021791417851603722
1592314286.2470028,2.93808082851248,9.25488773817711,0.7591302237145516,-0.5577777777777778,-0.45111111111111113,-0.16111111111111112,0.2633597096085879,0.09803090908923305,0.0032822890396579096
1592314286.2570028,3.5,9.76,1.37,-0.5577777777777778,-0.4311111111111111,-0.16666666666666666,0.2748893571891069,0.12544553998709243,0.01308996938995747
1592314286.2670028,2.898655613919895,9.41185325016415,0.8372299737360472,-0.5577777777777778,-0.4311111111111111,-0.16666666666666666,0.2438173324261674,0.1409815523685622,0.015967008719859278
1592314286.2770028,2.830193765176228,9.11492678619607,0.5167312550587427,-0.5577777777777778,-0.4311111111111111,-0.16666666666666666,0.20133015685452288,0.1630392700477053,0.019358253195760608
1592314286.2870028,3.4783036962546907,9.135501704643007,0.7327678987515636,-0.5577777777777778,-0.4311111111111111,-0.16666666666666666,0.18113077790417875,0.17426114724234093,0.02048044091522417
1592314286.2970028,3.1174167015195873,9.048621218458106,0.6337939495329709,-0.5577777777777778,-0.4311111111111111,-0.16666666666666666,0.13385270802207194,0.21359573824040481,0.0007900273128494464
1592314286.3070028,3.11,8.57,0.89,-0.5733333333333334,-0.4266666666666667,-0.13777777777777778,0.18762289458939044,0.2083486794568231,-0.0643590161672909
1592314286.3170028,3.5200690924536313,8.862889706923402,0.9497720515361744,-0.5733333333333334,-0.4266666666666667,-0.13777777777777778,0.24997606708249884,0.19592732462492643,-0.1793491060415009
1592314286.3270028,2.5560013853392887,8.883082141065756,0.5351052141304607,-0.5733333333333334,-0.4266666666666667,-0.13777777777777778,0.3303010440590042,0.1766812628441351,-0.3085666308864147
1592314286.3370028,3.23,8.78,0.21,-0.5733333333333334,-0.4266666666666667,-0.13777777777777778,0.35452000431134817,0.1974403716318585,-0.3665191429188092
1592314286.3470027,3.8362761857400383,9.602210169702243,0.9657689438677194,-0.5733333333333334,-0.4266666666666667,-0.13777777777777778,0.3826045063785988,0.17207372460337408,-0.40728696850030205
1592314286.3570027,2.21,9.64,0.39,-0.56,-0.4266666666666667,-0.16,0.32834006553143325,0.1538071403320003,-0.4406956361285682
1592314286.3670027,2.7462739422831364,8.900877103373912,0.11430209131409438,-0.56,-0.4266666666666667,-0.16,0.2543626030509797,0.1277550083765491,-0.45984452807629095
1592314286.3770027,3.44,8.66,1.02,-0.56,-0.4266666666666667,-0.16,0.2596177262341565,0.044724062082354694,-0.533416252640767
1592314286.3870027,3.004541323714052,8.869082647428105,0.3319098391693405,-0.56,-0.4266666666666667,-0.16,0.29297583896649865,-0.002514647895293612,-0.636462880258135
1592314286.3970027,2.9125922235287085,8.685184447057416,0.5325260577555454,-0.56,-0.4266666666666667,-0.16,0.3403908140852371,0.010250922328982129,-0.7185272602713362
1592314286.4070027,2.78,9.07,0.51,-0.5466666666666666,-0.4388888888888889,-0.1511111111111111,0.3850632662212489,0.008726646259971648,-0.8726646259971648
1592314286.4170027,2.4049494395233992,9.214250215567924,0.13494943952339888,-0.5466666666666666,-0.4388888888888889,-0.1511111111111111,0.3987004894332631,-0.07309669301211337,-1.0237230984994754
1592314286.4270027,2.595719694280779,9.178325169778283,0.2334476231040439,-0.5466666666666666,-0.4388888888888889,-0.1511111111111111,0.33191917577403335,-0.08474078189960814,-1.107031920734918
1592314286.4370027,1.728363913830429,9.20598679774284,0.3200110018809667,-0.5466666666666666,-0.4388888888888889,-0.1511111111111111,0.26581657336919984,-0.10615912370017644,-1.1258254020751295
1592314286.4470026,2.338671256698726,9.429269971962949,0.13394169003087628,-0.5466666666666666,-0.4388888888888889,-0.1511111111111111,0.21629186090646108,-0.11508980955411294,-1.1128353135603126
1592314286.4570026,2.5,9.57,0.7,-0.54,-0.4533333333333333,-0.1511111111111111,0.19307704850187268,-0.14180800172453928,-1.0930124440614488
1592314286.4670026,1.7099845618368608,9.590074103183069,-0.23999691236737214,-0.54,-0.4533333333333333,-0.1511111111111111,0.16361990205586668,-0.12434393133350635,-1.0831845259563626
1592314286.4770026,1.6451007722734978,9.789772085138445,-0.12570540591448487,-0.54,-0.4533333333333333,-0.1511111111111111,0.1462401567083839,-0.08262205894412222,-1.0419030460914238
1592314286.4870026,1.533224294086308,9.572358018114013,0.4051204049014384,-0.54,-0.4533333333333333,-0.1511111111111111,0.13192543515216196,-0.04273453086189739,-0.9947074945769493
1592314286.4970026,1.3395610015982953,9.661741076185402,-0.06414064997336177,-0.54,-0.4533333333333333,-0.1511111111111111,0.1156751366225051,-0.03623441145003465,-0.9622068975176357
1592314286.5070026,1.07,9.72,-0.11,-0.52,-0.4922222222222222,-0.12777777777777777,0.08290313946973066,0.001090830782496456,-0.8595746566072073
1592314286.5170026,1.34343980539937,10.078300434661243,0.2954452286956175,-0.52,-0.4922222222222222,-0.12777777777777777,0.08290313946973066,0.001090830782496456,-0.8595746566072073
1592314286.5270026,0.8439594821669467,9.813535370269566,-0.22733344377913994,-0.52,-0.4922222222222222,-0.12777777777777777,0.043022822499977846,-0.014566449244210538,-0.8321253907479607
1592314286.5370026,1.042268642430473,9.676835528298207,0.14037719127213427,-0.52,-0.4922222222222222,-0.12777777777777777,-0.002102600163826101,-0.008522235124453053,-0.8221823648731158
1592314286.5470026,0.24678128932768495,8.918520481415175,0.7946097807398478,-0.52,-0.4922222222222222,-0.12777777777777777,-0.03697447862139564,0.0020204258045795984,-0.8108287300264652
1592314286.5570025,1.4160317318435756,10.739120446927373,-0.7822976536312849,-0.5077777777777778,-0.5111111111111111,-0.14333333333333334,-0.08835729338221293,-0.08290313946973066,-0.8803004414746399
1592314286.5670025,0.3480517477724469,8.352092186429061,1.5123492117888966,-0.5077777777777778,-0.5111111111111111,-0.14333333333333334,-0.08374387916467052,-0.08442219049257998,-0.883676110414305
1592314286.5770025,0.6609801356012847,9.347278934221483,0.760658023076008,-0.5077777777777778,-0.5111111111111111,-0.14333333333333334,0.005323311309761995,-0.11235557059713495,-0.9422647162255027
1592314286.5870025,0.41718600896860986,9.76880071748879,0.0750991928251121,-0.5077777777777778,-0.5111111111111111,-0.14333333333333334,0.05885027179950521,-0.11399645402460971,-0.8971398163868414
1592314286.5970025,0.2441476233183857,9.347489865470852,0.5490739013452914,-0.5077777777777778,-0.5111111111111111,-0.14333333333333334,0.08757394969831614,-0.13615471983226388,-0.8593886968626898
1592314286.6070025,0.51,9.63,0.39,-0.49333333333333335,-0.5377777777777778,-0.11888888888888889,0.18435040224190105,-0.15489797111449674,-0.8115781021773633
1592314286.6170025,0.3948717948717949,9.725940170940172,0.5722863247863248,-0.49333333333333335,-0.5377777777777778,-0.11888888888888889,0.254468911707373,-0.1423394321057555,-0.7613439461423982
1592314286.6270025,0.1488714107952011,9.601049937783204,0.45,-0.49333333333333335,-0.5377777777777778,-0.11888888888888889,0.3386025517462221,-0.13367319000434436,-0.7204407563858161
1592314286.6370025,0.275941916782197,10.05335950018905,0.4319230838479682,-0.49333333333333335,-0.5377777777777778,-0.11888888888888889,0.375656777907009,-0.10961051312953508,-0.6613337152276647
1592314286.6470025,0.1928730127293351,9.917428566284368,0.061888874885219936,-0.49333333333333335,-0.5377777777777778,-0.11888888888888889,0.3394111308633665,-0.09807780725201246,-0.6226167740674102
1592314286.6570024,0.03,9.92,0.11,-0.49333333333333335,-0.5577777777777778,-0.12555555555555556,0.3272492347489368,-0.1112647398146385,-0.5552328682906961
1592314286.6670024,0.021757734276022723,9.944726797171931,0.34078344027136376,-0.49333333333333335,-0.5577777777777778,-0.12555555555555556,0.2813955571858645,-0.11665929011617641,-0.5237646581983916
1592314286.6770024,0.023736838318182907,10.164752596359103,0.0882210443000024,-0.49333333333333335,-0.5577777777777778,-0.12555555555555556,0.20105045037482322,-0.13502820048306818,-0.4999983652605366
1592314286.6870024,0.0868256880733945,11.058711677206734,0.2806751581010065,-0.49333333333333335,-0.5577777777777778,-0.12555555555555556,0.12238892078759903,-0.15711476623350681,-0.47912572021795735
1592314286.6970024,-0.6827706422018349,11.02882444107954,-0.16763338380689408,-0.49333333333333335,-0.5577777777777778,-0.12555555555555556,0.05147975094005916,-0.1579298141627889,-0.4090315982996995
1592314286.7070024,-0.65,9.81,0.39,-0.45444444444444443,-0.57,-0.12,-0.09926560120717749,-0.18216874067690814,-0.14289883250703572
1592314286.7170024,-0.36103754668763516,10.0829089836839,0.1893316296441911,-0.45444444444444443,-0.57,-0.12,-0.12553302946207937,-0.22507220682658122,-0.03345121477827789
1592314286.7270024,0.17870783724288117,9.806670532818899,-0.10718275853906786,-0.45444444444444443,-0.57,-0.12,-0.14334583377355356,-0.22888016646551346,0.070260171346291
1592314286.7370024,0.5108275715349431,9.679034499875899,-0.000827571534943091,-0.45444444444444443,-0.57,-0.12,-0.16063799285357305,-0.17909938428196534,0.08664958992127673
1592314286.7470024,0.5554430379746835,9.62698312236287,-0.04544303797468354,-0.45444444444444443,-0.57,-0.12,-0.1760495021734101,-0.13124259218352402,0.05339317507320733
1592314286.7570024,0.16,9.88,0.16,-0.47444444444444445,-0.57,-0.10666666666666667,-0.17235126363444003,-0.04145156973486533,-0.031634092692397225
1592314286.7670023,0.24994636762554853,9.647638550300666,0.29491955143832277,-0.47444444444444445,-0.57,-0.10666666666666667,-0.16826308586028624,0.00924183466464168,-0.03817517713104329
1592314286.7770023,0.1284998007372721,9.739323752117166,0.2597940121550264,-0.47444444444444445,-0.57,-0.10666666666666667,-0.1503710016309447,0.037845426844159445,-0.06077534306479676
1592314286.7870023,-0.06698076671464086,9.55352243883292,0.44664529634960093,-0.47444444444444445,-0.57,-0.10666666666666667,-0.13655511558249744,0.04034244188232883,-0.08793646077129195
1592314286.7970023,-0.182711494378343,9.662711494378343,0.4950845977513372,-0.47444444444444445,-0.57,-0.10666666666666667,-0.11586231987721153,0.031344466661036866,-0.10147187126051402
1592314286.8070023,-0.28953282517826406,9.680133478520496,0.5397997822192561,-0.45347422732719017,-0.5688963043622498,-0.10666666666666667,-0.09066271705432108,0.012108340466680339,-0.14048420697570824
1592314286.8170023,-0.3188132844178413,9.723219926626761,0.5039833944776984,-0.4533333333333333,-0.5688888888888889,-0.10666666666666667,-0.08346711098994933,0.004927294650204497,-0.1635042236932027
1592314286.8270023,-1.4846125648545003,9.788924261222647,0.33344236408752537,-0.4533333333333333,-0.5688888888888889,-0.10666666666666667,-0.0753846688894815,0.0032490233680441613,-0.1712839018313888
1592314286.8370023,-1.1890107709750566,9.66354969765684,0.4369964096749811,-0.4533333333333333,-0.5688888888888889,-0.10666666666666667,-0.07951150498462169,-0.010521095877700842,-0.06303381754660502
1592314286.8470023,-0.33382747952684266,9.734225659690628,0.4548451319381256,-0.4533333333333333,-0.5688888888888889,-0.10666666666666667,-0.07072420733366053,-0.05058244870136973,-0.013844141405568444
1592314286.8570023,-0.38,9.71,0.59,-0.46,-0.5755555555555556,-0.12,-0.05781403147231216,-0.031634092692397225,-0.00545415391248228
1592314286.8670022,-0.4860225912030015,9.652910912429153,0.5410664963678454,-0.46,-0.5755555555555556,-0.12,-0.0471383970608409,-0.017399913477102208,-0.009902334917261973
1592314286.8770022,-0.5486296123790302,9.649657403094757,0.48171298452621225,-0.46,-0.5755555555555556,-0.12,-0.03313601025014282,-0.011020422400032507,-0.011961767082438365
1592314286.8870022,-0.6091094079697315,9.68940627197982,0.48,-0.46,-0.5755555555555556,-0.12,-0.013381414950336335,-0.013057586549915375,-0.0098498598825102
1592314286.8970022,-0.6347752011358259,9.704865120681495,0.4948651206814955,-0.46,-0.5755555555555556,-0.12,-0.007684858981657474,-0.02119763500240747,-0.008736454960808104
1592314286.9070022,-0.48834434945039157,9.72,0.4609555284143976,-0.4645411547764447,-0.5919037127507564,-0.12,0.0004932994008494825,-0.05085211885414346,-0.013877391064440778
1592314286.9170022,-0.39776200486572033,9.70258733495524,0.4325873349552401,-0.46555555555555556,-0.5955555555555555,-0.12,0.005839398541527489,-0.06987807318441235,-0.015271630954950384
1592314286.9270022,-0.40733463266227743,9.734669265324555,0.34332683668861264,-0.46555555555555556,-0.5955555555555555,-0.12,0.009381357331670849,-0.07861303446371436,-0.015271630954950384
1592314286.9370022,-0.44433349868896604,9.731416625327759,0.41583374672241513,-0.46555555555555556,-0.5955555555555555,-0.12,0.007944875180431809,-0.08524845270835016,-0.01620793188596853
1592314286.9470022,-0.43108403936220596,9.736305320212598,0.44261064042519604,-0.46555555555555556,-0.5955555555555555,-0.12,0.009699226691894894,-0.09099025798419932,-0.011547835570467534
1592314286.9570022,-0.4291731833758018,9.74,0.43165363324839645,-0.4543438869851311,-0.590459342568999,-0.10776908883226431,0.011908946904945492,-0.08780761281480962,-0.007726007179990715
1592314286.9670022,-0.42371572788803485,9.733715727888034,0.42371572788803485,-0.4533333333333333,-0.59,-0.10666666666666667,0.012684646353992572,-0.08109689288093246,-0.007635815477475192
1592314286.9770021,-0.44561617339233195,9.704383826607668,0.30899658196656155,-0.4533333333333333,-0.59,-0.10666666666666667,0.01308996938995747,-0.06720325171967018,-0.008567245826345937
1592314286.9870021,-0.45,9.752012755223454,0.333343962686212,-0.4533333333333333,-0.59,-0.10666666666666667,0.009307495091277648,-0.05504804262841783,-0.006835409110631735
1592314286.9970021,-0.4697659917707408,9.75341133607642,0.35317732784716055,-0.4533333333333333,-0.59,-0.10666666666666667,0.0072892227752986,-0.048419726145970676,-0.007982408179651783
1592314287.007002,-0.5056191601728404,9.72438083982716,0.42831776046090775,-0.459026480038409,-0.5719717021005938,-0.10666666666666667,0.0009557509873304258,-0.04208873705975228,-0.009658185211246366
1592314287.017002,-0.51,9.702816113961859,0.451455924025427,-0.46,-0.5688888888888889,-0.10666666666666667,0.0006248237284438228,-0.04832463074774737,-0.011691948227799571
1592314287.027002,-0.4933046826279114,9.69,0.4015663891976899,-0.46,-0.5688888888888889,-0.10666666666666667,0.004733184005100874,-0.050718943425373024,-0.011268792778655261
1592314287.037002,-0.4817514553277651,9.70649708934447,0.37350291065553026,-0.46,-0.5688888888888889,-0.10666666666666667,0.01625147363960741,-0.04298000284342022,-0.007309201249256181
1592314287.047002,-0.4499209714726291,9.75211063993832,0.3278893600616808,-0.46,-0.5688888888888889,-0.10666666666666667,0.02248145892946917,-0.03423312108531139,-0.003920094276959122
1592314287.057002,-0.41539412144948473,9.78,0.2561823643484543,-0.449451309935739,-0.5648317004026346,-0.10991241745567004,0.017919464129680457,-0.013519889199097582,-0.0013850344685775754
1592314287.067002,-0.4975548145441257,9.819797642974603,0.24,-0.44555555555555554,-0.5633333333333334,-0.1111111111111111,-0.0012251167754997426,0.006256182611324913,-0.0019590806630464625
1592314287.077002,-0.48727975615195895,9.80545981711397,0.15819939037989741,-0.44555555555555554,-0.5633333333333334,-0.1111111111111111,-0.02330027851259901,0.009817477042468103,-0.002181661564992912
1592314287.087002,-0.4958177703613962,9.8,0.21117996662628297,-0.44555555555555554,-0.5633333333333334,-0.1111111111111111,-0.04366255484204892,0.012405653665568764,-0.001318936023959358
1592314287.097002,-0.5236296496442403,9.78818517517788,0.2713518868774205,-0.44555555555555554,-0.5633333333333334,-0.1111111111111111,-0.058951332844750154,0.01115677319909169,0.0021311628689465118
1592314287.107002,-0.5104511567135501,9.78,0.3221616324648375,-0.4562259711867736,-0.577286953774157,-0.13409354477834995,-0.07459887469328964,0.0033709194736634383,0.009198241306589323
1592314287.117002,-0.4412882747428462,9.771612610677549,0.28806305338774735,-0.46,-0.5822222222222222,-0.14222222222222222,-0.08659820801495952,0.00200575302826757,0.011823230070735673
1592314287.127002,-0.43,9.754137231476681,0.1768920045984266,-0.46,-0.5822222222222222,-0.14222222222222222,-0.09614391167259642,0.01169863947546162,0.010268778987375795
1592314287.137002,-0.44525170479670445,9.75,0.1881292619917611,-0.46,-0.5822222222222222,-0.14222222222222222,-0.10815698787135747,0.026658571980799475,0.007321922680798993
1592314287.147002,-0.48403663658296847,9.761345545527655,0.2567277276382808,-0.46,-0.5822222222222222,-0.14222222222222222,-0.12178439957455348,0.037968904093370164,0.0046885741491113865
1592314287.157002,-0.5417713466535257,9.698514470029567,0.5223994265746796,-0.4547047755577457,-0.5822222222222222,-0.13604446037292556,-0.13760672477656036,0.03496894056710034,0.005005350494040946
1592314287.167002,-0.5278556732454469,9.67557113464909,0.5977154614036424,-0.4533333333333333,-0.5822222222222222,-0.13444444444444445,-0.13721076883139374,0.02354575242791367,0.004487925381221226
1592314287.177002,-0.5405199774567675,9.67,0.5956880135259395,-0.4533333333333333,-0.5822222222222222,-0.13444444444444445,-0.12179606340661085,-0.003913019330264552,0.0015044747988531939
1592314287.187002,-0.5157393323192699,9.658579777439757,0.6699415579217036,-0.4533333333333333,-0.5822222222222222,-0.13444444444444445,-0.11018028407394193,-0.020093345789149154,-0.0007777987642546382
1592314287.197002,-0.4838154089918796,9.64381540899188,0.7485537730243612,-0.4533333333333333,-0.5822222222222222,-0.13444444444444445,-0.09013623983954623,-0.035524139151332,-0.002181661564992912
1592314287.207002,-0.48,9.647742122691428,0.729031509234288,-0.4473116823511116,-0.5882438732044439,-0.12240114248000092,-0.05732080600157971,-0.03842537359450502,-0.0038707307157277034
1592314287.217002,-0.49262981306918036,9.66262981306918,0.7284198753794535,-0.44555555555555554,-0.59,-0.11888888888888889,-0.04328972155831797,-0.03588291257520296,-0.004363323129985824
1592314287.227002,-0.4743035505267265,9.658582130316036,0.6828856808427624,-0.44555555555555554,-0.59,-0.11888888888888889,-0.022912894202232813,-0.031167372038442633,-0.0035845474117603008
1592314287.237002,-0.4749352059653949,9.657467602982697,0.7272084268442771,-0.44555555555555554,-0.59,-0.11888888888888889,-0.001437751771963404,-0.028099494548404144,-0.0016433141064916205
1592314287.247002,-0.4855323153783907,9.643403053864828,0.7665969461351723,-0.44555555555555554,-0.59,-0.11888888888888889,0.017036444947762835,-0.026063805579765967,-0.0004873487911737412
1592314287.2570019,-0.43756664686076446,9.649662507427214,0.7537833234303822,-0.45866389384036443,-0.5725222156202548,-0.1290842631104069,0.04299964636170235,-0.025089107997418484,-0.0007149489454223157
1592314287.2670019,-0.4416588776022556,9.671872079100845,0.6766822447954888,-0.46555555555555556,-0.5633333333333334,-0.13444444444444445,0.06119770926783398,-0.022499022130331385,-0.0023858737160400065
1592314287.2770019,-0.5135237640884966,9.713523764088498,0.43885741546902024,-0.46555555555555556,-0.5633333333333334,-0.13444444444444445,0.08918837776871032,-0.010845989506064708,-0.0017972785311941427
1592314287.2870018,-0.52,9.739889033942559,0.37513870757180157,-0.46555555555555556,-0.5633333333333334,-0.13444444444444445,0.09272061651219875,-0.007641867737038651,-0.0021756093054294524
1592314287.2970018,-0.5143767086877279,9.765623291312272,0.3724931652490887,-0.46555555555555556,-0.5633333333333334,-0.13444444444444445,0.0884267750285388,-0.007771796547453012,-0.0008188686425408161
1592314287.3070018,-0.4956109079829372,9.77719454600853,0.40438909201706275,-0.4567622215451283,-0.5633333333333334,-0.12325292843117341,0.07723676878253052,-0.015005072061726082,0.0018756340077157603
1592314287.3170018,-0.4834935861264718,9.770240379189707,0.4067467930632359,-0.4533333333333333,-0.5633333333333334,-0.11888888888888889,0.06991805528761506,-0.019227641654169934,0.001826791738147584
1592314287.3270018,-0.46325883079687763,9.743258830796877,0.3056236311562869,-0.4533333333333333,-0.5633333333333334,-0.11888888888888889,0.055203743918375146,-0.022172098944747278,-0.0011152116805384393
1592314287.3370018,-0.46,9.788435133655689,0.23232278076817808,-0.4533333333333333,-0.5633333333333334,-0.11888888888888889,0.043302528746237606,-0.018797499378731694,-0.002181661564992912
1592314287.3470018,-0.475307374842993,9.820204916561996,0.20979508343800468,-0.4533333333333333,-0.5633333333333334,-0.11888888888888889,0.030921030330898103,-0.01411374138435357,-0.0027382534209245326
1592314287.3570018,-0.49,9.824817998514273,0.21036400297145283,-0.4567880009904843,-0.5662122230476258,-0.12349511243175681,0.009340998267050996,-0.007516695783620915,-0.0015766863268175454
1592314287.3670018,-0.5106671855617445,9.785554690730425,0.295779680393063,-0.46,-0.5688888888888889,-0.12777777777777777,-0.02205949417942034,-0.0013574028368768683,0.0
1592314287.3770018,-0.4854708042165107,9.742376643373209,0.3438116783133957,-0.46,-0.5688888888888889,-0.12777777777777777,-0.04485615557898201,-0.002259930579328616,0.0015066203862190777
1592314287.3870018,-0.48350526069675004,9.73,0.4107736731353753,-0.46,-0.5688888888888889,-0.12777777777777777,-0.05274224218669887,-0.002535894642806643,0.0007084661556274621
1592314287.3970017,-0.4849377458587462,9.73,0.460249016565015,-0.46,-0.5688888888888889,-0.12777777777777777,-0.053450708342326333,-0.0010772490357729627,0.0005522062646099746
1592314287.4070017,-0.4647526581837197,9.719835105455815,0.5054122363604672,-0.4566117018186044,-0.5756654852516802,-0.1204364650514206,-0.05234189035536341,0.0016632269804443957,-1.7987204466474692e-05
1592314287.4170017,-0.42317174248265227,9.716707064379337,0.536707064379337,-0.4533333333333333,-0.5822222222222222,-0.11333333333333333,-0.04834253786326695,0.013515273546722063,-0.0003592035539798349
1592314287.4270017,-0.44918061938523357,9.733060206461746,0.4616387612295328,-0.4533333333333333,-0.5822222222222222,-0.11333333333333333,-0.0454810761239246,0.02566736091955478,0.001424647523423006
1592314287.4370017,-0.4828754215196231,9.720686867720566,0.44575084303924617,-0.4533333333333333,-0.5822222222222222,-0.11333333333333333,-0.04753304330859912,0.03226141235364874,0.0007771709518706964
1592314287.4470017,-0.49,9.714981582437012,0.4998526594960955,-0.4533333333333333,-0.5822222222222222,-0.11333333333333333,-0.05126101059947505,0.0332723479106065,0.0
1592314287.4570017,-0.4949655335540988,9.705103399337704,0.589655335540988,-0.44947125168014535,-0.5756015108167571,-0.10616089597741284,-0.05236739697186034,0.02947498936349567,-0.0005416556852330007
1592314287.4670017,-0.49365878821984616,9.69,0.64,-0.44555555555555554,-0.5688888888888889,-0.09888888888888889,-0.04642701447164878,0.022721344275854476,-0.0003991118816843626
1592314287.4770017,-0.5028882147138698,9.683555892643065,0.6206676779291953,-0.44555555555555554,-0.5688888888888889,-0.09888888888888889,-0.03379202836093919,0.013696354196776202,0.0
1592314287.4870017,-0.4969750754389716,9.68,0.6425623114025709,-0.44555555555555554,-0.5688888888888889,-0.09888888888888889,-0.018416008289303152,0.004844681014665752,-0.001420798865086386
1592314287.4970016,-0.47565100694688095,9.675217002315627,0.66,-0.44555555555555554,-0.5688888888888889,-0.09888888888888889,-0.0052638077298724235,0.003225149786337585,-0.001138173343648239
1592314287.5070016,-0.4641943909815782,9.674194390981578,0.6851663458894693,-0.4516141203067241,-0.5716851495432744,-0.11380227904561147,0.00967801146263284,0.0075660826875575595,-0.0013726112389593154
1592314287.5170016,-0.4943858752524884,9.68,0.6712282494950232,-0.46,-0.5755555555555556,-0.13444444444444445,0.027189403902087926,0.01399420336122598,-0.004602535516666011
1592314287.5270016,-0.5224417012896564,9.673779149355171,0.5840123441965466,-0.46,-0.5755555555555556,-0.13444444444444445,0.04222517700226176,0.015271630954950384,-0.006811332987820578
1592314287.5370016,-0.5360248747068831,9.676024874706883,0.55,-0.46,-0.5755555555555556,-0.13444444444444445,0.059169156374463086,0.010013935922188487,-0.005664179840189481
1592314287.5470016,-0.5221965443154531,9.711156047447957,0.518843952552043,-0.46,-0.5755555555555556,-0.13444444444444445,0.07091030316877475,0.0012043313837120312,-0.005334351004761588
1592314287.5570016,-0.5,9.74562341364364,0.4624936545745636,-0.46,-0.5755555555555556,-0.12520498435879748,0.07779038931068306,-0.007841211472367531,-0.008454630742886935
1592314287.5670016,-0.5064887150732695,9.74,0.4205338547801913,-0.46,-0.5755555555555556,-0.11333333333333333,0.07963064712224129,-0.010200498810887441,-0.010200498810887441
1592314287.5770016,-0.49140755002406655,9.752394966650622,0.3356302000962662,-0.46,-0.5755555555555556,-0.11333333333333333,0.07422232265403497,-0.010493517600993893,-0.009141436483942314
1592314287.5870016,-0.49777494741762096,9.77777494741762,0.27815003505491936,-0.46,-0.5755555555555556,-0.11333333333333333,0.0644408475954707,-0.005091469884845517,-0.00937296158665154
1592314287.5970016,-0.5011875865292986,9.785593793264649,0.3096558606181563,-0.46,-0.5755555555555556,-0.11333333333333333,0.05134412634357031,0.0008317395938890484,-0.009336834448371727
1592314287.6070015,-0.5117719890657663,9.78,0.3861263868789194,-0.4570970681245645,-0.5755555555555556,-0.11962301906344357,0.0346608455437815,0.001847518995342526,-0.009201637377353928
1592314287.6170015,-0.5428152260111023,9.770146708961141,0.42563045202220456,-0.4533333333333333,-0.5755555555555556,-0.12777777777777777,0.02573530196611385,-0.0016890143559273039,-0.009817477042468103
