time,acc_x,acc_y,acc_z,mag_x,mag_y,mag_z,gyr_x,gyr_y,gyr_z
1592314507.9267914,-0.6264746578432847,9.753525342156715,0.7070506843134305,-0.31222222222222223,-0.5466666666666666,0.19111111111111112,-0.026117104039398154,-0.013733410257599388,0.0032096576069725775
1592314507.9367914,-0.6127760736196319,9.784447852760735,0.6311042944785276,-0.31222222222222223,-0.5466666666666666,0.19111111111111112,-0.026331350107853483,-0.016211050409508296,0.00812100094821748
1592314507.9467914,-0.6434753455275282,9.756524654472472,0.6869506910550562,-0.31222222222222223,-0.5466666666666666,0.19111111111111112,-0.030744430949431543,-0.0145366648696402,0.007813747826068328
1592314507.9567914,-0.6255432146497487,9.774456785350251,0.7244567853502513,-0.31222222222222223,-0.5466666666666666,0.19111111111111112,-0.030967137334873163,-0.018182532317598303,0.007635815477475192
1592314507.9667914,-0.6020019357960962,9.72601548636877,0.8759670914663655,-0.31222222222222223,-0.5573307522718718,0.19111111111111112,-0.02967080844650063,-0.01723597101383213,0.010253175867675593
1592314507.9767914,-0.6216560146085368,9.718662405843416,0.9056687970782926,-0.31222222222222223,-0.56,0.19111111111111112,-0.02520028260239102,-0.013055235106880945,0.009963385930517162
1592314507.9867914,-0.6266906102746811,9.753309389725318,0.8145322376738307,-0.31222222222222223,-0.56,0.19111111111111112,-0.007769207495930108,-0.010421752915543947,0.015507072882260848
1592314507.9967914,-0.7727013872560546,9.735889254643782,0.8944798965436163,-0.31222222222222223,-0.56,0.19111111111111112,0.004403591277846615,-0.008278233502614828,0.02271344116464276
1592314508.0067914,-0.8445232508349747,9.770277125974138,0.9142461248608376,-0.31222222222222223,-0.56,0.19111111111111112,0.01344913922746217,-0.014539970009958627,0.030274781335361517
1592314508.0167913,-0.917803790412486,9.78634177416786,0.91,-0.3220864964343225,-0.5683466935640848,0.20628691759126544,0.023758707912634625,-0.04123823318431498,0.042355991625879275
1592314508.0267913,-0.94,9.797411734563157,0.9012941327184217,-0.32666666666666666,-0.5722222222222222,0.21333333333333335,0.02997858998754467,-0.07975893083455639,0.07050612571444438
1592314508.0367913,-0.8417044124177465,9.80614347422389,0.8139913608655283,-0.32666666666666666,-0.5722222222222222,0.21333333333333335,0.03724475270479442,-0.10074769723946123,0.09227051835597187
1592314508.0467913,-0.5846350856029323,9.749887718647056,0.782542105507354,-0.32666666666666666,-0.5722222222222222,0.21333333333333335,0.04882845651177671,-0.13175609197272567,0.12166131423628002
1592314508.0567913,-0.5367081631561113,9.73,0.8011387754374075,-0.32666666666666666,-0.5722222222222222,0.21333333333333335,0.0518765727336554,-0.14157313915865977,0.1264121496394414
1592314508.0667913,-0.7657344476858787,9.777191910431286,0.8774170149018371,-0.32666666666666666,-0.5602369751285623,0.20209716418302714,0.04721203870150365,-0.1395772299823954,0.1144144567192505
1592314508.0767913,-0.926048596086636,9.872062480682818,0.8859791731057274,-0.32666666666666666,-0.5544444444444444,0.19666666666666666,0.053458281214785124,-0.14006494433428257,0.11607045355558994
1592314508.0867913,-1.0624549368751368,9.89,0.8310180252499453,-0.32666666666666666,-0.5544444444444444,0.19666666666666666,0.06988064879927228,-0.13003096177307805,0.156101974031741
1592314508.0967913,-1.1302371121376886,9.9352667511549,0.7948518049139446,-0.32666666666666666,-0.5544444444444444,0.19666666666666666,0.08899646911523781,-0.12707855304560345,0.19818300705236108
1592314508.1067913,-1.267655737704918,10.031700096432015,0.7814889103182256,-0.32666666666666666,-0.5544444444444444,0.19666666666666666,0.10973273793264444,-0.13593571354393516,0.27323985694799535
1592314508.1167912,-1.3632927115069136,10.07,0.7511788141551441,-0.32666666666666666,-0.5544444444444444,0.2027055177980887,0.11768113583288986,-0.1683072392265864,0.370403645787343
1592314508.1267912,-1.3571591545913058,10.091401409014491,0.7100380273797134,-0.32666666666666666,-0.5544444444444444,0.20444444444444446,0.11796674266244156,-0.18636260122315892,0.4286467197974644
1592314508.1367912,-1.3246830430086682,10.035756736547675,0.6087321720346728,-0.32666666666666666,-0.5544444444444444,0.20444444444444446,0.10585855840991341,-0.21407943052360312,0.5545724910743409
1592314508.1467912,-1.2952592532860254,10.034740746713975,0.552888879929038,-0.32666666666666666,-0.5544444444444444,0.20444444444444446,0.1016384946180818,-0.22491314852367908,0.6166318371503676
1592314508.1567912,-1.1869542365573735,10.0643810951198,0.4606676658385858,-0.32666666666666666,-0.5544444444444444,0.20444444444444446,0.0868720282937373,-0.2455613121697771,0.7251414252618867
1592314508.1667912,-1.072613236778888,10.110213417818473,0.365439891376249,-0.34579558774037067,-0.5544444444444444,0.19886517579794744,0.06540328640460263,-0.2721608560726338,0.8275799665440687
1592314508.1767912,-0.8629823862277836,10.103904519008529,0.25301506336175983,-0.35333333333333333,-0.5544444444444444,0.19666666666666666,0.0444815006825647,-0.28826683573644984,0.890367608961623
1592314508.1867912,-0.5453241164129324,10.010259293130346,0.14,-0.35333333333333333,-0.5544444444444444,0.19666666666666666,-0.009676054578332514,-0.3113826905402907,0.9981318488060407
1592314508.1967912,-0.3794531793850069,9.99,0.19465709690583066,-0.35333333333333333,-0.5544444444444444,0.19666666666666666,-0.059905722213025626,-0.3254709493620652,1.0722563372456706
1592314508.2067912,-0.31136972352505554,9.966575228338682,0.2412330288817576,-0.35333333333333333,-0.5544444444444444,0.19666666666666666,-0.0836802318628279,-0.33401839042057024,1.102038018616266
1592314508.2167912,-0.06830444818277845,9.843758068933141,0.4706048276671492,-0.36192585057965915,-0.5442896513351504,0.19666666666666666,-0.13686275423517308,-0.36396052785818656,1.1800009178611504
1592314508.2267911,0.07994786818097188,9.748046918637126,0.6339322286352636,-0.3655555555555556,-0.54,0.19666666666666666,-0.15358271880627722,-0.37502421100270494,1.2313064718148925
1592314508.2367911,0.16253165591046484,9.716600359447757,0.6108679846417777,-0.3655555555555556,-0.54,0.19666666666666666,-0.15598880189699318,-0.3773110693205289,1.2587891375242506
1592314508.2467911,0.4508631859268174,9.670915422630785,0.5863557217115203,-0.3655555555555556,-0.54,0.19666666666666666,-0.148057213824433,-0.3666208994174299,1.3086935688800405
1592314508.256791,0.5576774182133442,9.654464516357331,0.6387483854986818,-0.3655555555555556,-0.54,0.19666666666666666,-0.13964604571394273,-0.34222950914250844,1.3387407266845304
1592314508.266791,0.6254587851230033,9.617529439197854,0.8063763553690102,-0.3785437798764137,-0.5226823675721892,0.19666666666666666,-0.12463705085518967,-0.29286370995341166,1.3845645371488369
1592314508.276791,0.6540259000996158,9.604025900099616,0.9524662017930838,-0.38555555555555554,-0.5133333333333333,0.19666666666666666,-0.10792161590232262,-0.24941821780479162,1.4243412338073982
1592314508.286791,0.7355450275790508,9.596264540440172,0.943248593741467,-0.38555555555555554,-0.5133333333333333,0.19666666666666666,-0.048928058745856616,-0.1569329951407908,1.5202129884836177
1592314508.296791,0.7825078244121659,9.602507824412166,0.8649843511756681,-0.38555555555555554,-0.5133333333333333,0.19666666666666666,-0.0014823953511592138,-0.12448636874210298,1.5789287981141578
1592314508.306791,0.81,9.551713136412037,0.8687151476909729,-0.38555555555555554,-0.5133333333333333,0.19666666666666666,0.07173787962899722,-0.0807717240045901,1.6898533419030746
1592314508.316791,1.0734788817879968,9.424177585776,0.9013609911100003,-0.4192859438037773,-0.517151867852,0.19284813214800003,0.10398777023776391,-0.03673972132112925,1.7769077691386306
1592314508.326791,1.4168119587720664,9.336613833173795,0.8599801874401727,-0.4444444444444444,-0.52,0.19,0.1276358464121412,-0.004706762050687662,1.8486341883459168
1592314508.336791,1.5726331360946746,9.248025147928995,0.8155695266272189,-0.4444444444444444,-0.52,0.19,0.14701365276645284,0.03174462806015019,1.9023951686062879
1592314508.346791,1.6590414999797956,9.217115205883543,0.7855760294177072,-0.4444444444444444,-0.52,0.19,0.16607974700325118,0.05496179130408983,1.9286943934106615
1592314508.356791,1.9772159079678204,9.18594927951612,0.706708703129015,-0.4444444444444444,-0.52,0.19,0.2147142272208865,0.09339724596774462,1.977372511337074
1592314508.366791,2.360411639185257,9.093052570320078,0.678258389912706,-0.45594046772281493,-0.48754064015518916,0.17579903006789524,0.23917587477971197,0.11003090545448713,2.0344422384830243
1592314508.376791,2.543552443668677,9.014410107902254,0.7089812757854649,-0.4633333333333333,-0.4666666666666667,0.16666666666666666,0.2434585187090782,0.11836392436011836,2.0681216069585773
1592314508.386791,2.792643882889903,8.779883112545921,0.7447122342201937,-0.4633333333333333,-0.4666666666666667,0.16666666666666666,0.2586524569599648,0.15417107441361466,2.1188073440005843
1592314508.396791,3.0547391252246854,8.94408460155782,0.4339518274415818,-0.4633333333333333,-0.4666666666666667,0.16666666666666666,0.3018718441622172,0.16580627893946132,2.114012880304996
1592314508.406791,3.153981343525296,9.022331411543695,0.31747489797240397,-0.4633333333333333,-0.4666666666666667,0.16666666666666666,0.31788718326798904,0.16374121197128896,2.105716579071257
1592314508.416791,3.0980948218593753,8.898094821859376,0.36557882591517776,-0.4875205218154765,-0.44187479847246985,0.1715041043630953,0.29575633486646935,0.14093990622296934,2.087753662642487
1592314508.426791,3.161358957864265,8.911791572853007,0.35641685429398523,-0.5077777777777778,-0.4211111111111111,0.17555555555555555,0.27714347181186294,0.12901117775715362,2.087531710192551
1592314508.436791,3.60867294215465,8.75,0.6567347665993586,-0.5077777777777778,-0.4211111111111111,0.17555555555555555,0.24617157513365354,0.09619348536582077,2.0848781901099263
1592314508.446791,3.8742397137745974,8.743443649373882,0.5941055456171735,-0.5077777777777778,-0.4211111111111111,0.17555555555555555,0.27867506688149174,0.09091459882132136,2.015096192718225
1592314508.456791,4.089215666286087,8.695450986788453,0.5532941200456696,-0.5077777777777778,-0.4211111111111111,0.17555555555555555,0.33618976372859666,0.09114639788396832,1.8824188901670151
1592314508.466791,4.657705243561899,8.60984052125349,0.3080124107973938,-0.5502740028269039,-0.3876714586134381,0.17555555555555555,0.41548603922064126,0.07316330331510142,1.6588311431155016
1592314508.476791,5.013277853925984,8.641625611905228,0.14001997258664578,-0.5755555555555556,-0.36777777777777776,0.17555555555555555,0.44960033536294536,0.059270409112291374,1.5293738060097903
1592314508.486791,5.4358200000000005,8.75794,-0.23116000000000003,-0.5755555555555556,-0.36777777777777776,0.17555555555555555,0.49873437874207466,0.0244084295891407,1.1581764933462222
1592314508.496791,5.621588304261479,8.71079415213074,-0.5261912281961094,-0.5755555555555556,-0.36777777777777776,0.17555555555555555,0.5144887346702227,0.0020356797841563443,0.8834557673257633
1592314508.5067909,5.7266791857582815,8.769183880417637,-0.5499061068128897,-0.5755555555555556,-0.36777777777777776,0.17555555555555555,0.5135971035885767,-0.0003601962082065966,0.7749083501433243
1592314508.5167909,5.708556533072662,8.967158683610295,-0.27433040078201365,-0.5819057963143985,-0.3392016943629847,0.17555555555555555,0.45845389209308035,0.03210362265775331,0.4448837296802644
1592314508.5267909,5.59456942629766,8.979425901730213,-0.3869754919428277,-0.5866666666666667,-0.31777777777777777,0.17555555555555555,0.40471502092282174,0.04758720675765412,0.31100947365895687
1592314508.5367908,5.517229908897582,8.980982435873875,0.09538318149596996,-0.5866666666666667,-0.31777777777777777,0.17555555555555555,0.266606300364145,0.05966350930325649,0.029550949279411126
1592314508.5467908,5.5576023576882,9.158249930772579,0.17511373076466633,-0.5866666666666667,-0.31777777777777777,0.17555555555555555,0.21576265225647026,0.052812322702219826,-0.0731017148443316
1592314508.5567908,5.0246615969581745,9.070338287821176,-0.05244359949302916,-0.5866666666666667,-0.31777777777777777,0.17555555555555555,0.046503829361126764,0.05875723121008915,-0.3225455533105053
1592314508.5667908,4.914870417399232,8.836524060688935,0.021271081591456666,-0.5941807210609711,-0.31402075058062556,0.1705461859593526,-0.0965562466107874,0.06306940372530259,-0.513151746349979
1592314508.5767908,5.092552883455321,8.929610713423951,0.0456840665969597,-0.6,-0.3111111111111111,0.16666666666666666,-0.17001851941783777,0.06510767369701359,-0.6038906944657083
1592314508.5867908,4.914769486558079,8.925920644761314,0.11203967761934286,-0.6,-0.3111111111111111,0.16666666666666666,-0.33976498560152646,0.08272727735772417,-0.8281234346899065
1592314508.5967908,4.966650364819563,9.099703411555907,0.032323802011437586,-0.6,-0.3111111111111111,0.16666666666666666,-0.39911999003887266,0.10823089224531944,-0.9121758463287024
1592314508.6067908,4.337846945090591,8.988430610981881,0.10156938901811818,-0.6,-0.3111111111111111,0.16666666666666666,-0.47421749297822413,0.16272015828672995,-1.0625889293408857
1592314508.6167908,3.750722391968573,8.80012003491925,0.18698821475338284,-0.5994555992046171,-0.3301651389495126,0.1525122459867113,-0.4963499083562693,0.20523831189389943,-1.1722795602790912
1592314508.6267908,3.4747647651683127,8.563069945575489,0.3270808304777263,-0.5988888888888889,-0.35,0.13777777777777778,-0.49352592759206126,0.2247111411942699,-1.2275175304908752
1592314508.6367908,3.488906553660117,8.632687864392139,0.16329383502483266,-0.5988888888888889,-0.35,0.13777777777777778,-0.4561009415531939,0.20926705839595197,-1.3692570366008243
1592314508.6467907,3.5264413845677396,8.634853133859018,0.3907356409462324,-0.5988888888888889,-0.35,0.13777777777777778,-0.43426293863398896,0.19399462800802963,-1.4896739048459646
1592314508.6567907,3.4938071065989846,8.515837563451777,0.6433502538071065,-0.5988888888888889,-0.35,0.13777777777777778,-0.41655339139920505,0.2010506339170752,-1.5753922128328257
1592314508.6667907,3.6538744374581085,8.531099549966486,0.8460122562318471,-0.6052826274297023,-0.3674374687476727,0.1267340475709184,-0.3472653929523995,0.22827062464131304,-1.6100662349647687
1592314508.6767907,3.94,8.76,0.97,-0.6111111111111112,-0.38333333333333336,0.11666666666666667,-0.29888763440402893,0.2454369260617026,-1.6100662349647687
1592314508.6867907,2.9080692956462277,8.816724413038523,0.8526897652154092,-0.6111111111111112,-0.38333333333333336,0.11666666666666667,-0.1423539765799454,0.3218820464316626,-1.5889600766326626
1592314508.6967907,2.66,8.61,0.77,-0.6111111111111112,-0.38333333333333336,0.11666666666666667,-0.07526732399225547,0.3359758810089084,-1.5838862961848539
1592314508.7067907,2.8177084950015976,9.23566919249555,0.7621723649974894,-0.6111111111111112,-0.38333333333333336,0.11666666666666667,0.01762527999073997,0.3794906281782627,-1.5987634862741658
1592314508.7167907,2.181980572377117,9.23940610494605,0.7574258399680305,-0.596259636107781,-0.40066005417055184,0.12310230583477641,0.06339778671811801,0.37731944404399753,-1.5950430093596921
1592314508.7267907,1.5,8.94,0.58,-0.5777777777777777,-0.4222222222222222,0.13111111111111112,0.06763150851478027,0.3839724354387525,-1.598067096357308
1592314508.7367907,2.0215918502567503,9.553133675666722,0.5215030644359782,-0.5777777777777777,-0.4222222222222222,0.13111111111111112,0.11061858926333698,0.27790472642851405,-1.7239476315449607
1592314508.7467906,1.578411510390033,9.569986053646971,0.21581516433452652,-0.5777777777777777,-0.4222222222222222,0.13111111111111112,0.09295418847929367,0.21357534664668537,-1.8027952074826774
1592314508.7567906,1.4666382568143441,9.2829382085712,0.18435535096888317,-0.5777777777777777,-0.4222222222222222,0.13111111111111112,0.05864886303100774,0.19678540830723903,-1.8128131470808762
1592314508.7667906,1.6404985442768818,9.26699826621741,0.23400045798030686,-0.562277834116625,-0.4367221695181393,0.12161114564137235,0.024325608523366536,0.21418454742211587,-1.7778360735443117
1592314508.7767906,2.13,9.85,0.08,-0.5433333333333333,-0.45444444444444443,0.11,-0.0032724923474893677,0.2399827721492203,-1.756237559819294
1592314508.7867906,1.2850097635061837,9.821017303102625,0.4623416142330224,-0.5433333333333333,-0.45444444444444443,0.11,-0.018227956330956252,0.2718974123657663,-1.6946066856415534
1592314508.7967906,0.93,9.76,0.54,-0.5433333333333333,-0.45444444444444443,0.11,-0.04908738521234052,0.296705972839036,-1.6558811278296202
1592314508.8067906,0.9126303167716758,9.893682443480346,0.5373367633913972,-0.5433333333333333,-0.45444444444444443,0.11,0.0029584108949957297,0.20106076263676664,-1.6461379439996597
1592314508.8167906,1.238007861183012,10.037629182245231,0.784501965295753,-0.5252744490248086,-0.4839553041681313,0.10207170932796472,0.006093007833512944,0.17090623441839786,-1.618840672392184
1592314508.8267906,0.901806017387124,9.095889187131926,0.692932975441689,-0.49777777777777776,-0.5288888888888889,0.09,0.008332634388051931,0.1576021266835571,-1.5733921465797414
1592314508.8367906,0.9229990000769172,9.707871702176755,0.1743635104991924,-0.49777777777777776,-0.5288888888888889,0.09,-0.03280379286459806,0.22410074246012165,-1.4605085605693195
1592314508.8467906,0.6502914776565969,9.782713058585077,0.20826223337515687,-0.49777777777777776,-0.5288888888888889,0.09,-0.06417803574888424,0.22788824770169155,-1.3928857321461776
1592314508.8567905,0.33154697785757037,9.896055256333533,0.04434031518053061,-0.49777777777777776,-0.5288888888888889,0.09,-0.13241166848746588,0.23888278039007452,-1.3226428121160145
1592314508.8667905,-0.05199720018665422,9.544993000466635,0.3308499433371108,-0.4848882667081454,-0.5399370412342881,0.0784915079735425,-0.18795121276704335,0.24482893751610874,-1.2484079462881275
1592314508.8767905,0.028565037421081237,9.371090855876574,0.16878872768323785,-0.4666666666666667,-0.5555555555555556,0.06222222222222222,-0.22030052151699772,0.2364966927902148,-1.214141957465842
1592314508.8867905,-0.0233382030679328,10.190708546384222,0.6078889700511322,-0.4666666666666667,-0.5555555555555556,0.06222222222222222,-0.23445451504990664,0.18558147131345476,-1.1857314669567265
1592314508.8967905,-0.1072275625773294,10.381848291615114,0.028613781288664698,-0.4666666666666667,-0.5555555555555556,0.06222222222222222,-0.2341757878936987,0.1492764343211655,-1.152556392790927
1592314508.9067905,-0.13076820254757038,10.179149630445039,0.17769539235728887,-0.4666666666666667,-0.5555555555555556,0.06222222222222222,-0.23488924082087126,0.13001835786359875,-1.088505498023357
1592314508.9167905,-0.018108591323986074,10.092593080518176,0.22508233744236378,-0.4620540970065765,-0.570930787755856,0.057225271757124586,-0.25116795343147796,0.128541000294538,-0.9372485761867302
1592314508.9267905,0.08,10.4,-0.03,-0.4533333333333333,-0.6,0.04777777777777778,-0.30325095753401476,0.15707963267948966,-0.7603090554000298
1592314508.9367905,-0.26978495740702263,10.354236442966965,0.2653978807396634,-0.4533333333333333,-0.6,0.04777777777777778,-0.3921689646822564,0.17089213864426506,-0.6157093835812872
1592314508.9467905,-0.2776748356246264,10.388272564255827,0.7161326957561267,-0.4533333333333333,-0.6,0.04777777777777778,-0.5669268611682059,0.18321914617039398,-0.3169512183838746
1592314508.9567904,-0.3623692025591454,10.707630797440855,0.8628575130050027,-0.4533333333333333,-0.6,0.04777777777777778,-0.6532270547263908,0.1715340917333994,-0.14721093292114723
1592314508.9667904,-0.607825400914536,10.615241836800411,0.5200747085721646,-0.449553895365063,-0.610960370107984,0.04777777777777778,-0.7240967331975567,0.13677551113121356,0.05579880116408065
1592314508.9767904,-0.72,10.8,0.85,-0.44222222222222224,-0.6322222222222222,0.04777777777777778,-0.7384924397501007,0.07199483164476608,0.2127120025868089
1592314508.9867904,-1.0558212199429424,10.274605352533623,1.4575478875152832,-0.44222222222222224,-0.6322222222222222,0.04777777777777778,-0.807275240799756,-0.06529409866118474,0.5379774101811091
1592314508.9967904,-1.0345639610930104,10.188478679635663,1.321456396109301,-0.44222222222222224,-0.6322222222222222,0.04777777777777778,-0.7723247189952063,-0.21921449445623342,0.781125247774823
1592314509.0067904,-0.52,10.36,1.27,-0.44222222222222224,-0.6322222222222222,0.04777777777777778,-0.74176493209759,-0.29779680362153244,0.902117057124569
1592314509.0167904,-0.45146369485294113,9.679790900735295,2.003136488970588,-0.4403373745331466,-0.6262535378734827,0.03961010445845005,-0.7045963699253149,-0.335719035906399,1.168703188287522
1592314509.0267904,-0.1,9.73,1.25,-0.43555555555555553,-0.6111111111111112,0.01888888888888889,-0.6490443155853912,-0.35997415822383044,1.2915436464758039
1592314509.0367904,0.32298210377237035,9.43303695120381,2.8160739024076222,-0.43555555555555553,-0.6111111111111112,0.01888888888888889,-0.5316915967879208,-0.45447091746474294,1.4368352844899472
1592314509.0467904,0.7800342465753425,9.607883847031964,2.239488203957382,-0.43555555555555553,-0.6111111111111112,0.01888888888888889,-0.45659274106958186,-0.4583313563992372,1.5392478443950752
1592314509.0567904,0.44687581880979793,9.569026360713009,1.8503461828575964,-0.43555555555555553,-0.6111111111111112,0.01888888888888889,-0.4047029406426531,-0.43156447002504184,1.6425070071760415
1592314509.0667903,0.6237383358625811,8.783831648961932,2.2811213716056957,-0.44067496833955777,-0.6071962660409918,0.007746637535472252,-0.3933923373989559,-0.39231168549657763,1.730363445316426
1592314509.0767903,0.58,9.09,2.58,-0.45444444444444443,-0.5966666666666667,-0.022222222222222223,-0.35124751196385884,-0.3883357585687383,1.7693275292092516
1592314509.0867903,1.2415751295336785,8.745131442596128,2.516535587673848,-0.45444444444444443,-0.5966666666666667,-0.022222222222222223,-0.20664797104403643,-0.3796907089500644,1.7821827334905247
1592314509.0967903,1.5150920899803255,9.018094910754497,2.7327762106810156,-0.45444444444444443,-0.5966666666666667,-0.022222222222222223,-0.05751814940807184,-0.33841016581672473,1.8094989946572737
1592314509.1067903,0.768965034965035,8.627356643356643,2.307197202797203,-0.45444444444444443,-0.5966666666666667,-0.022222222222222223,0.057933946576513864,-0.28065443601553713,1.8089587083291871
1592314509.1167903,1.4164938782968872,8.590082231832856,1.937520557958214,-0.46614309015722183,-0.5855250993211644,-0.02556469242587291,0.17760073312068853,-0.29482168674867687,1.7575569952985792
1592314509.1267903,3.05,8.68,1.96,-0.5011111111111111,-0.5522222222222222,-0.035555555555555556,0.25198191075668136,-0.3217950808364545,1.7093318361719465
1592314509.1367903,2.555580019803012,8.733679451769243,1.5988063473865235,-0.5011111111111111,-0.5522222222222222,-0.035555555555555556,0.2583557301232898,-0.20590546635551946,1.655894401527453
1592314509.1467903,2.7460421912861688,8.883306884591628,2.1405715778970875,-0.5011111111111111,-0.5522222222222222,-0.035555555555555556,0.2703140043764493,-0.17467395007514794,1.5817746546886193
1592314509.1567903,2.775024104473058,8.79856715689266,1.6554695795447611,-0.5011111111111111,-0.5522222222222222,-0.035555555555555556,0.24902727506302857,-0.1396506370555988,1.4970939891757717
1592314509.1667902,2.8913458696267416,9.147778686204836,1.6184311814093895,-0.5141471791592856,-0.5410872474310731,-0.044246267587671945,0.21794906055820695,-0.10595650565778465,1.4321887493862115
1592314509.1767902,2.37,9.11,2.17,-0.5544444444444444,-0.5066666666666667,-0.07111111111111111,0.17344209441693648,-0.08617563181722002,1.4049900478554354
1592314509.1867902,2.3309603480006693,8.862184484970163,1.6663370698789806,-0.5544444444444444,-0.5066666666666667,-0.07111111111111111,0.2131372386121087,-0.13733785249148817,1.3870581062586596
1592314509.1967902,2.7664511750839345,9.287670786008524,1.6122925447055743,-0.5544444444444444,-0.5066666666666667,-0.07111111111111111,0.2210515321007671,-0.15708163267878134,1.3799654593156856
1592314509.2067902,2.65,9.43,1.25,-0.5544444444444444,-0.5066666666666667,-0.07111111111111111,0.2083486794568231,-0.16907877128695067,1.3820826014230096
1592314509.2167902,3.184408234949751,9.089484827788077,1.543206166455264,-0.5591772639065058,-0.5009478431500093,-0.06480068516169599,0.16664731170785696,-0.19019175904117444,1.4035827920640245
1592314509.2267902,3.9,8.67,1.28,-0.5811111111111111,-0.47444444444444445,-0.035555555555555556,0.11999138607461016,-0.19198621771937624,1.4071717094204281
1592314509.2367902,3.737971867266024,9.13932395575534,1.493297641295015,-0.5811111111111111,-0.47444444444444445,-0.035555555555555556,0.04995430891366794,-0.17671458676442586,1.3916231146620732
1592314509.2467902,3.975541482102239,9.058035915240033,1.3747647551777804,-0.5811111111111111,-0.47444444444444445,-0.035555555555555556,-0.014011344644695346,-0.1860212682217561,1.3028332292382252
1592314509.2567902,3.9231450933172787,8.658844069837446,1.4953762793497893,-0.5811111111111111,-0.47444444444444445,-0.035555555555555556,-0.04667113920694559,-0.2061279204850965,1.183021635714727
1592314509.2667902,4.362536175026914,8.785562834151415,1.9006351842052442,-0.584060929348961,-0.47129119046605317,-0.036776169998803794,-0.023975347136980386,-0.20139660626005398,1.0814208915703167
1592314509.2767901,4.132933780997391,8.915670857434812,1.5715384194295934,-0.6087219272262061,-0.44492943411451524,-0.04698072084456042,0.0035749623686709836,-0.18887373830293971,0.9753939428667494
1592314509.2867901,4.06076227738802,8.51360361575823,1.5189328116567729,-0.6133333333333333,-0.44,-0.04888888888888889,0.0439711357084675,-0.15868526730402235,0.8171925252104794
1592314509.2967901,4.316257337851382,8.563967450961677,1.1867035746671122,-0.6133333333333333,-0.44,-0.04888888888888889,0.08463390209866659,-0.11216049862930152,0.7288881518478189
1592314509.30679,4.3853571071821,8.825576865448006,1.0053021676156229,-0.6133333333333333,-0.44,-0.04888888888888889,0.10608778833055207,-0.08211947600077506,0.6761217843978128
1592314509.31679,4.267615725464316,8.537233587882216,0.8495317557587756,-0.6169644783842955,-0.433796793871273,-0.048737591178432134,0.10333185197736589,-0.0605945341466175,0.6258491895726034
1592314509.32679,4.76,8.71,0.91,-0.64,-0.39444444444444443,-0.04777777777777778,0.10144726277217041,-0.04363323129985824,0.5825036378531075
1592314509.33679,4.734202894811528,8.733550659201734,1.3234059186253515,-0.64,-0.39444444444444443,-0.04777777777777778,0.06768683949128605,0.013437772140546785,0.47801314322918337
1592314509.34679,4.744648180078891,8.862824952169497,0.957175047830503,-0.64,-0.39444444444444443,-0.04777777777777778,0.06498931574997768,0.013258604094150951,0.311519339951544
1592314509.35679,4.73,8.426675132060138,1.344448394961398,-0.64,-0.39444444444444443,-0.04777777777777778,0.046299583421803556,0.03575396242649269,0.14254445655798823
1592314509.36679,4.780953676708779,8.370433430515064,1.2698555231616457,-0.64,-0.39549775042292046,-0.05027937947665839,0.04696247370360576,0.054702319172129525,-0.0050222032974762305
1592314509.37679,5.16,8.82,1.12,-0.64,-0.4033333333333333,-0.06888888888888889,0.039269908169872414,0.08835729338221293,-0.15598880189699318
1592314509.38679,4.8538930996173315,8.825822244167387,0.6622486112825576,-0.64,-0.4033333333333333,-0.06888888888888889,0.01792867444742453,0.12185739210074019,-0.3351379301436479
1592314509.39679,4.737607582805451,8.50138753184825,1.2051674808910497,-0.64,-0.4033333333333333,-0.06888888888888889,-0.03342435965438131,0.1696320528172887,-0.4896891376322261
1592314509.40679,4.625786270377221,8.562534087487634,1.1906718568540582,-0.64,-0.4033333333333333,-0.06888888888888889,-0.11614931480828058,0.2247111411942699,-0.595545280187881
1592314509.41679,4.583480917012315,9.172845567666634,0.9849442140124112,-0.6385881125651551,-0.4028391727311376,-0.06797116205623971,-0.15749841405446177,0.22838435190097672,-0.672629703826597
1592314509.42679,4.34,8.92,1.5,-0.6177777777777778,-0.39555555555555555,-0.05444444444444444,-0.22798363354175932,0.2825251726665821,-0.7308566242726255
1592314509.43679,3.800195495112622,8.595078623034423,1.8318359541011475,-0.6177777777777778,-0.39555555555555555,-0.05444444444444444,-0.2558083949380352,0.2760951586618112,-0.8446312484291407
1592314509.44679,3.7799397904518086,8.732140994642773,1.8554084293367468,-0.6177777777777778,-0.39555555555555555,-0.05444444444444444,-0.2678782107971945,0.24524464858342437,-0.9100614577857145
1592314509.45679,3.48792795553921,8.364781578194597,1.891523027256753,-0.6177777777777778,-0.39555555555555555,-0.05444444444444444,-0.19865097938761184,0.2661749471699834,-0.9423702553445292
1592314509.46679,3.9194039078448526,8.469938174394867,1.7992703412073492,-0.6177777777777778,-0.3970789021742652,-0.0554379313696899,-0.11820661004016335,0.2445052821335547,-0.997438616324925
1592314509.47679,3.91,9.1,1.63,-0.6177777777777778,-0.4211111111111111,-0.07111111111111111,-0.05563236990731925,0.2814343418840856,-1.038470904936626
1592314509.48679,3.6722942650334076,8.830881124721603,1.2408811247216036,-0.6177777777777778,-0.4211111111111111,-0.07111111111111111,0.006853284085399227,0.31666192028062556,-1.1257827074683657
1592314509.49679,3.685278177458034,8.635752997601918,1.0941247002398082,-0.6177777777777778,-0.4211111111111111,-0.07111111111111111,0.07038003586050935,0.3526195521207398,-1.241156681568633
1592314509.50679,3.63,8.77,1.41,-0.6177777777777778,-0.4211111111111111,-0.07111111111111111,0.09708393964218458,0.3741549583962844,-1.3755376167280309
1592314509.51679,3.4439301369863013,8.701447945205478,1.292482191780822,-0.6177777777777778,-0.4211111111111111,-0.07111111111111111,0.15156555778840722,0.335697345587186,-1.556074743526298
1592314509.52679,3.27,8.52,1.16,-0.6044444444444445,-0.4477777777777778,-0.08444444444444445,0.1712604328519436,0.3392483733563978,-1.6547902970471235
1592314509.53679,2.911226190787239,8.447630967000235,1.3987738092127608,-0.6044444444444445,-0.4477777777777778,-0.08444444444444445,0.17571595773202414,0.3483853815322471,-1.691096781116192
1592314509.54679,2.923980959181245,8.95156206116863,1.515400214209211,-0.6044444444444445,-0.4477777777777778,-0.08444444444444445,0.1909005795146853,0.41161514934937393,-1.6707496589695274
1592314509.5567899,2.94,9.32,2.02,-0.6044444444444445,-0.4477777777777778,-0.08444444444444445,0.18653206380689397,0.4657847441259867,-1.6427911584396628
1592314509.5667899,2.338686920700309,9.816321906723555,1.447320876857437,-0.6044444444444445,-0.4477777777777778,-0.08444444444444445,0.23442542503486288,0.5272131857009903,-1.5480455960104196
1592314509.5767899,1.3710725036753553,9.422866310410006,0.8945355050988262,-0.5522222222222222,-0.48,-0.10666666666666667,0.21979004418366752,0.5493424635217877,-1.4515876365618892
1592314509.5867898,1.12186425866589,9.236151325371395,1.4112962423536266,-0.5522222222222222,-0.48,-0.10666666666666667,0.20761674566495575,0.42716089820152964,-1.4612695126909672
1592314509.5967898,1.5776828661469564,10.012253157358481,0.8725609553823188,-0.5522222222222222,-0.48,-0.10666666666666667,0.18785283157588636,0.2412009264024316,-1.4685306113836305
1592314509.6067898,1.120035420520288,9.830076744460623,0.7657530796174583,-0.5522222222222222,-0.48,-0.10666666666666667,0.08305584461725082,0.19883532478293323,-1.3336034609478258
1592314509.6167898,1.4666854264237081,10.581151757251368,1.1454173717973946,-0.5522222222222222,-0.48,-0.10666666666666667,0.05244479484456278,0.1250086753311562,-1.1859501620442716
1592314509.6267898,0.33,9.11,1.6,-0.5255555555555556,-0.5277777777777778,-0.11333333333333333,-0.028361600344907853,0.11890055529211369,-1.01883595085169
1592314509.6367898,1.447033496424539,9.851416133483879,1.0231745075900138,-0.5255555555555556,-0.5277777777777778,-0.11333333333333333,-0.05252094992603216,0.02753579313453317,-0.9060396413738488
1592314509.6467898,0.7649234292257049,10.151922856733934,1.085923620056295,-0.5255555555555556,-0.5277777777777778,-0.11333333333333333,-0.16752636311666963,0.0442375310492189,-0.7359921313227813
1592314509.6567898,0.5872537059365913,10.230943329314135,0.9029980849705653,-0.5255555555555556,-0.5277777777777778,-0.11333333333333333,-0.22049876570997887,-0.045613655127048944,-0.5905716386452167
1592314509.6667898,0.7731844457053693,9.896267997730336,1.8103400950422015,-0.5255555555555556,-0.5277777777777778,-0.11333333333333333,-0.29594742416896785,-0.07400831153634588,-0.4372404940350133
1592314509.6767898,0.71,10.43,0.91,-0.4988888888888889,-0.5722222222222222,-0.10666666666666667,-0.32288591161895097,-0.0916297857297023,-0.0818123086872342
1592314509.6867898,0.7926638595376182,10.080974815285613,1.6172352427107333,-0.4988888888888889,-0.5722222222222222,-0.10666666666666667,-0.3539452533977456,-0.08762212872598688,0.18369496780891298
1592314509.6967897,0.24919579849547013,9.588612152688823,1.8331387847311178,-0.4988888888888889,-0.5722222222222222,-0.10666666666666667,-0.29925237943848176,-0.15780571842753327,0.4248838105878707
1592314509.7067897,0.7914332388671276,10.018231737034965,1.7829269481398582,-0.4988888888888889,-0.5722222222222222,-0.10666666666666667,-0.2641673406335371,-0.1909618815586688,0.5965910265699005
1592314509.7167897,0.632440657773606,10.00308958645463,1.7223583458185165,-0.4988888888888889,-0.5722222222222222,-0.10666666666666667,-0.23773930228757484,-0.20087239593840467,0.7452487422659382
1592314509.7267897,0.34,9.23,1.25,-0.4666666666666667,-0.5544444444444444,-0.11333333333333333,-0.19634954084936207,-0.2247111411942699,0.9152070265145266
1592314509.7367897,1.4062262808349146,9.491880139152435,1.8018188646426312,-0.4666666666666667,-0.5544444444444444,-0.11333333333333333,-0.2055316917565313,-0.2481766379570357,0.9570368250916308
1592314509.7467897,0.4614095712813631,9.92161901794915,1.4256071317309305,-0.4666666666666667,-0.5544444444444444,-0.11333333333333333,-0.21585203933807237,-0.35419951770986224,0.9300158340372332
1592314509.7567897,1.0824224137931036,9.575150862068966,1.3399978448275862,-0.4666666666666667,-0.5544444444444444,-0.11333333333333333,-0.24882496654057062,-0.48211382268000363,0.9428741626069571
1592314509.7667897,1.5042629310344828,9.725808189655172,1.837167025862069,-0.4666666666666667,-0.5544444444444444,-0.11333333333333333,-0.28251500490120646,-0.5577109819282596,1.0118976558336257
1592314509.7767897,1.13,9.39,1.56,-0.5111111111111111,-0.5333333333333333,-0.12777777777777777,-0.3272492347489368,-0.6174102228929941,1.1999138607461015
1592314509.7867897,1.6872310807390534,9.497851176917235,2.629524171095925,-0.5111111111111111,-0.5333333333333333,-0.12777777777777777,-0.3262688398846885,-0.6379985150422077,1.3548162492973281
1592314509.7967896,1.7137441973255734,8.391133744428279,2.39719185200582,-0.5111111111111111,-0.5333333333333333,-0.12777777777777777,-0.24471678476703848,-0.6436009442677705,1.5225177117761053
1592314509.8067896,2.1359934383675236,9.261248512816815,2.087274759346721,-0.5111111111111111,-0.5333333333333333,-0.12777777777777777,-0.13539920865085286,-0.687630827335051,1.5864540765306292
1592314509.8167896,1.9091682590042183,8.63369884991167,2.3670258138947977,-0.5111111111111111,-0.5333333333333333,-0.12777777777777777,-0.06694415966663224,-0.6942289043455783,1.6103721056937903
1592314509.8267896,2.8116990327106253,8.296657313741417,2.11746511112752,-0.5455555555555556,-0.4866666666666667,-0.11333333333333333,0.1090587534400529,-0.7135370376597149,1.6385919069558368
1592314509.8367896,3.4,8.6,2.43,-0.5455555555555556,-0.4866666666666667,-0.11333333333333333,0.1832595714594046,-0.6654067773228381,1.6776977434795493
1592314509.8467896,3.623851269884485,8.730579907432617,2.028933141456964,-0.5455555555555556,-0.4866666666666667,-0.11333333333333333,0.32976988499395565,-0.6420058244666251,1.7367088419865213
1592314509.8567896,3.724009684615245,8.547672065144454,2.275114710096302,-0.5455555555555556,-0.4866666666666667,-0.11333333333333333,0.4401930416667658,-0.5490873873375649,1.8037163657878184
1592314509.8667896,3.9674265039264407,8.159726509367236,2.016484339578157,-0.5455555555555556,-0.4866666666666667,-0.11333333333333333,0.48831973057288364,-0.4802164359719135,1.8136736117683945
1592314509.8767896,4.07,8.47,0.98,-0.5644444444444444,-0.4477777777777778,-0.11333333333333333,0.5366887449882564,-0.4526947747360292,1.766055036861762
1592314509.8867896,4.328915864222776,8.434287467003754,1.5692567944380413,-0.5644444444444444,-0.4477777777777778,-0.11333333333333333,0.5483756440822236,-0.3903646462348702,1.7524203212521337
1592314509.8967896,3.76,8.865021451133845,0.8824892744330772,-0.5644444444444444,-0.4477777777777778,-0.11333333333333333,0.5745576625317194,-0.3280638479022414,1.7231486318053166
1592314509.9067895,3.768744084325254,8.703065036569626,0.9592461996271332,-0.5644444444444444,-0.4477777777777778,-0.11333333333333333,0.5990469986936819,-0.3540376523302812,1.6416125277465572
1592314509.9167895,4.204835795210096,8.357199196902338,0.9216520866198193,-0.5644444444444444,-0.4477777777777778,-0.11333333333333333,0.6080689381496682,-0.3843841759549622,1.5284281963896387
1592314509.9267895,4.46,8.6,0.39,-0.5911111111111111,-0.39444444444444443,-0.10666666666666667,0.6348635154129374,-0.45378560551852565,1.3679018012505557
1592314509.9367895,4.942024813895782,8.523890818858561,0.2885210918114144,-0.5911111111111111,-0.39444444444444443,-0.10666666666666667,0.6191815371958865,-0.49345178571459525,1.2701200547207097
1592314509.9467895,5.2203650698841235,8.230091267471032,0.41885915661211326,-0.5911111111111111,-0.39444444444444443,-0.10666666666666667,0.615034424462661,-0.5187426435024494,1.1757612696125757
1592314509.9567895,5.300854286743515,8.250552773775215,0.17206033861671471,-0.5911111111111111,-0.39444444444444443,-0.10666666666666667,0.5723408162021391,-0.4107882271836158,1.1419353794602178
1592314509.9667895,5.429282060518732,8.333653097982708,0.4817979106628242,-0.5911111111111111,-0.39444444444444443,-0.10666666666666667,0.5204240100575843,-0.34238989527888497,1.1172130908199536
1592314509.9767895,5.36,8.37,0.82,-0.6377777777777778,-0.36,-0.07111111111111111,0.39706240482870997,-0.19962203319685143,1.0930124440614488
1592314509.9867895,5.558148770918408,8.789160861558171,0.7133045079670111,-0.6377777777777778,-0.36,-0.07111111111111111,0.3047843569428952,-0.17385068649000227,1.0181924052351126
1592314509.9967895,5.726277440824433,8.881353657882025,0.6896615855294939,-0.6377777777777778,-0.36,-0.07111111111111111,0.200098272667885,-0.17950718031374377,0.8441277585196605
1592314510.0067894,5.769083485445288,8.381685560572581,0.6606873859160343,-0.6377777777777778,-0.36,-0.07111111111111111,0.09938339290662278,-0.18744793618883535,0.6555249549925948
1592314510.0167894,5.829579199825575,8.355105200043607,0.34720920091573093,-0.6377777777777778,-0.36,-0.07111111111111111,0.03371788510509595,-0.22661738968913728,0.48224983171814784
1592314510.0267894,5.82,8.06,0.69,-0.6444444444444445,-0.3288888888888889,-0.05333333333333334,-0.05235987755982988,-0.22907446432425577,0.22143864884678055
1592314510.0367894,5.834569708801041,8.227551651211973,0.3986058239791768,-0.6444444444444445,-0.3288888888888889,-0.05333333333333334,-0.07619950783810774,-0.21397603181467978,0.10621376916843765
1592314510.0467894,5.667146085772634,8.222779033356025,0.33801497617426823,-0.6444444444444445,-0.3288888888888889,-0.05333333333333334,-0.118605578015028,-0.13921207693494517,-0.03310404843358081
1592314510.0567894,5.438770491803278,8.04686386315039,0.6766535994297933,-0.6444444444444445,-0.3288888888888889,-0.05333333333333334,-0.09061281733091017,-0.07235053733471059,-0.10948543386614018
1592314510.0667894,5.503538366178696,8.21649207882887,0.6826461633821305,-0.6444444444444445,-0.3288888888888889,-0.05333333333333334,-0.05094352567404492,-0.0385281838061083,-0.17011246833313165
1592314510.0767894,5.686916365716738,8.368265455715663,0.7486509100010728,-0.6705971720639007,-0.30273616126943265,-0.03153939365045311,0.019611551558047446,0.020870568500451107,-0.2871780630626048
1592314510.0867894,5.744866658621938,8.449251840231687,0.7439037045975624,-0.6711111111111111,-0.3022222222222222,-0.03111111111111111,0.05397591828828518,0.03777667969193832,-0.3668754695663557
1592314510.0967894,5.561263201368813,8.262242610183492,0.8351029559266033,-0.6711111111111111,-0.3022222222222222,-0.03111111111111111,0.11572640440640111,0.08326857325243259,-0.5525983726124432
1592314510.1067894,5.567475218532417,8.180099125870333,0.5341836756827105,-0.6711111111111111,-0.3022222222222222,-0.03111111111111111,0.15212223586043977,0.1356004427456567,-0.6825493570944626
1592314510.1167893,5.357821778426208,8.07417757735377,0.7637783504177956,-0.6711111111111111,-0.3022222222222222,-0.03111111111111111,0.15857286194057382,0.18022956403413984,-0.7690019083725963
1592314510.1267893,5.418800627943485,8.466701726844585,1.0686507064364208,-0.6115608756323042,-0.3022222222222222,-0.03883058608058608,0.18416233239780738,0.23533325577822237,-0.8548024859900611
1592314510.1367893,5.160106782445435,8.43631013846515,0.9544919033090824,-0.6111111111111112,-0.3022222222222222,-0.03888888888888889,0.18277540489817568,0.24506943308158674,-0.8678113122270245
1592314510.1467893,4.834560608330836,8.363648486664669,0.8390878783338328,-0.6111111111111112,-0.3022222222222222,-0.03888888888888889,0.16323390251298237,0.2522804018739325,-0.9061746158424551
1592314510.1567893,4.599831282624907,8.75589019388516,1.1162024608501118,-0.6111111111111112,-0.3022222222222222,-0.03888888888888889,0.16847305922772887,0.22787869903695537,-0.9387910564692052
1592314510.1667893,4.356678557847274,8.873745540807272,0.658463140358184,-0.6111111111111112,-0.3022222222222222,-0.03888888888888889,0.1774527242194777,0.18317093886571967,-0.974121508576138
1592314510.1767893,4.221835763390496,8.642850343733475,1.0033814308378033,-0.6450348769862254,-0.3085829283238062,-0.04418947730687551,0.18420021420072105,0.13349240509387128,-1.041371862149048
1592314510.1867893,4.22,8.721471491720987,0.9189274743388027,-0.6466666666666666,-0.3088888888888889,-0.044444444444444446,0.22996407944881364,0.09991840789596078,-1.089538736056021
1592314510.1967893,4.085617035270904,8.88646523609855,0.053702211625421326,-0.6466666666666666,-0.3088888888888889,-0.044444444444444446,0.2844586477327319,0.07019875300702905,-1.1469650858313318
1592314510.2067893,3.8435239633306417,7.81291502398708,0.37671590747161926,-0.6466666666666666,-0.3088888888888889,-0.044444444444444446,0.34035329742597153,0.09441523065613687,-1.1458855348878263
1592314510.2167892,4.442796417759839,8.391235584546635,0.12571158281677952,-0.6466666666666666,-0.3088888888888889,-0.044444444444444446,0.39207979896423273,0.10977538311829031,-1.1364136556381452
1592314510.2267892,4.515334132214899,8.875878170561215,0.29248372278809665,-0.6206465614805938,-0.3284039677784435,-0.05745449703748086,0.4027810421783703,0.1720403321998926,-1.1376042644252147
1592314510.2367892,4.356425832245431,8.839937173629243,0.3934799281984334,-0.62,-0.3288888888888889,-0.057777777777777775,0.40688673516509555,0.1741704571542537,-1.1639575646872233
1592314510.2467892,3.9347972972972975,8.775743243243243,0.14790540540540542,-0.62,-0.3288888888888889,-0.057777777777777775,0.3376121271826531,0.2102576333261919,-1.1924549367468689
1592314510.2567892,3.7209045023696685,8.645403317535546,0.047701658767772506,-0.62,-0.3288888888888889,-0.057777777777777775,0.29630321846884466,0.21101040996239714,-1.2381463164644217
1592314510.2667892,3.7463938591659414,8.749298494998135,0.1659261891646973,-0.62,-0.3288888888888889,-0.057777777777777775,0.26342387845361365,0.20980737174043007,-1.2977697881499033
1592314510.2767892,3.2743422624783194,8.694936596646752,-0.08863711697822316,-0.6072151774051947,-0.37609438770047754,-0.0518770904263292,0.23808894359779342,0.19592254229753958,-1.3939097381522207
1592314510.2867892,3.3948068418551953,8.562955666825044,-0.006795438763203085,-0.6055555555555555,-0.38222222222222224,-0.051111111111111114,0.2521657425149537,0.17266462681379832,-1.4464868678712894
1592314510.2967892,3.372566736796087,8.464231263149268,-0.08461242110440176,-0.6055555555555555,-0.38222222222222224,-0.051111111111111114,0.31614409513928937,0.15645036110619945,-1.47183843172719
1592314510.3067892,3.586906176196951,9.118072711658199,-0.29426035926429545,-0.6055555555555555,-0.38222222222222224,-0.051111111111111114,0.3738810992117859,0.22394488715143993,-1.3518897304214397
1592314510.3167892,3.229696060104968,9.05784761665109,-0.2207701847724495,-0.6055555555555555,-0.38222222222222224,-0.051111111111111114,0.40451338922942565,0.3193105174676154,-1.185080005147244
1592314510.3267891,3.0217771373679154,9.25135446685879,-0.05487992315081651,-0.5900234816949514,-0.40780446152204075,-0.0565930195325008,0.4202852595853732,0.4134772599754986,-0.919022314582797
1592314510.3367891,2.664232330764769,9.3155588698318,-0.09670643798160576,-0.5866666666666667,-0.41333333333333333,-0.057777777777777775,0.41014586665247804,0.4479819410719549,-0.7586621892397956
1592314510.3467891,2.4815464671924548,9.599252784779251,0.416967775157872,-0.5866666666666667,-0.41333333333333333,-0.057777777777777775,0.35619463961621656,0.5102604963798407,-0.43522350717432756
1592314510.356789,2.337347227795218,9.898259494417825,0.16045176670521866,-0.5866666666666667,-0.41333333333333333,-0.057777777777777775,0.3330338279717917,0.4639828019742224,-0.20795884140178544
1592314510.366789,1.9420742995029894,9.888361305193401,0.229096737016495,-0.5866666666666667,-0.41333333333333333,-0.057777777777777775,0.2932037130122039,0.43234480515583135,-0.020401395694664787
1592314510.376789,1.9195244087374568,10.06824831413545,0.5082483141354499,-0.5770920315340023,-0.4324826035986621,-0.05697989151672241,0.254691266508167,0.34947078080742977,0.2158478639176929
1592314510.386789,1.834107352442555,9.760268381106387,-0.12017761665058291,-0.5733333333333334,-0.44,-0.056666666666666664,0.23061333775464232,0.14985310990791662,0.3759761203174231
1592314510.396789,2.0647038327526133,9.581533101045295,-0.15891986062717772,-0.5733333333333334,-0.44,-0.056666666666666664,0.20019975542312135,0.04895815787225383,0.4613910145630393
1592314510.406789,2.6196339632410046,9.846622314263525,0.2696339632410044,-0.5733333333333334,-0.44,-0.056666666666666664,0.15136955851379055,-0.06159836432623515,0.616548091010509
1592314510.416789,2.2799490523015535,9.506218469431381,-0.07632036482827415,-0.5733333333333334,-0.44,-0.056666666666666664,0.11225390274310151,-0.0967447747483964,0.7397582744877624
1592314510.426789,2.301832470414201,8.988167529585798,0.16706508875739645,-0.577648134451019,-0.4348222386587771,-0.052351865548980935,0.06052666621627025,-0.11017390903214205,0.9317436016268719
1592314510.436789,2.5038771973260707,8.858051497895518,0.32598415449368656,-0.5788888888888889,-0.43333333333333335,-0.051111111111111114,0.07044865530661501,-0.1337125194998967,1.01987708793179
1592314510.446789,3.109661257376305,8.943201600090786,0.17125539037675896,-0.5788888888888889,-0.43333333333333335,-0.051111111111111114,0.11282943580768835,-0.13601692444820546,1.2096389600682522
1592314510.456789,3.2796748362048045,8.931293375394322,0.1877384130065518,-0.5788888888888889,-0.43333333333333335,-0.051111111111111114,0.14529013687225606,-0.09402426650098669,1.3109287232837012
1592314510.466789,3.4989320854331654,8.9224376049916,0.07701103911687066,-0.5788888888888889,-0.43333333333333335,-0.051111111111111114,0.18122542204846417,-0.007484507535962602,1.4566180583261927
1592314510.476789,3.907632003145272,8.850153332022803,0.17768311381954,-0.5993072100998187,-0.41646602450691306,-0.042233580149837274,0.17083859634411439,0.09808556546979239,1.554805523778154
1592314510.486789,4.030373243254514,8.71925351349097,0.2802985946036115,-0.6044444444444445,-0.4122222222222222,-0.04,0.18337357212419195,0.1260683129723035,1.5587320449504143
1592314510.496789,4.314925061905383,8.83926339111169,0.3043383292063078,-0.6044444444444445,-0.4122222222222222,-0.04,0.1942601442625837,0.17735600606906127,1.5287152511686075
1592314510.506789,4.319812188279302,8.779624376558605,0.36944747506234416,-0.6044444444444445,-0.4122222222222222,-0.04,0.19913748398704548,0.20386481408481888,1.5056285384903962
1592314510.516789,4.374611708482677,8.696075268817205,0.6743010752688172,-0.6044444444444445,-0.4122222222222222,-0.04,0.22247865238851552,0.1969711971017525,1.4510493024547164
1592314510.526789,4.4883145652575225,8.73,0.472831825733801,-0.6146616618464504,-0.3670961786966956,-0.04596004348450352,0.25658788684825257,0.1545842339243307,1.3874485545079613
1592314510.536789,4.475428956614103,8.508860609526922,0.4142278780946156,-0.6177777777777778,-0.35333333333333333,-0.04777777777777778,0.28113487367351386,0.12580115848714643,1.3331703962011092
1592314510.546789,4.914172858617131,8.50067234262126,0.262155830753354,-0.6177777777777778,-0.35333333333333333,-0.04777777777777778,0.3370702015493262,0.09226891800706284,1.1908461187925319
1592314510.556789,4.959051590979302,8.601061048929445,0.2,-0.6177777777777778,-0.35333333333333333,-0.04777777777777778,0.3829481987077337,0.07903964759727428,1.0477413723744688
1592314510.566789,4.853183096929039,8.654809860124727,-0.0368521178021286,-0.6177777777777778,-0.35333333333333333,-0.04777777777777778,0.41015621554994297,0.06588387446402061,0.9178035089373751
1592314510.576789,5.166509621552277,8.75585311096857,0.1334124438742784,-0.638005274036063,-0.32889177535457204,-0.05873433825101561,0.4199698512611355,0.035172820519514494,0.7420425027014491
1592314510.586789,5.250724967490247,8.750724967490246,0.2080437256176853,-0.6444444444444445,-0.3211111111111111,-0.06222222222222222,0.41837314593012437,0.01609383224533336,0.64570528646106
1592314510.596789,5.292920137852433,8.642818376706195,-0.10876041355729829,-0.6444444444444445,-0.3211111111111111,-0.06222222222222222,0.41716591500319966,-0.029782069172338797,0.4362583102047303
1592314510.6067889,5.441592899408285,8.538165207100592,-0.12328615384615385,-0.6444444444444445,-0.3211111111111111,-0.06222222222222222,0.4088613985787529,-0.06146042704801724,0.2620433207987477
1592314510.6167889,5.516727830550475,8.454908254174287,-0.2063047967431707,-0.6444444444444445,-0.3211111111111111,-0.06222222222222222,0.39443762744936295,-0.09008972497128838,0.10155789691666926
1592314510.6267889,5.567589161001956,8.447589161001956,-0.33517832200391096,-0.662837218445748,-0.288157391025442,-0.04612854497108152,0.36316884291889484,-0.11040032320610467,-0.08073315921025845
1592314510.6367888,5.40030883962226,8.400102946540754,-0.46268066307299477,-0.6711111111111111,-0.2733333333333333,-0.03888888888888889,0.3486047684781163,-0.12418042740081853,-0.1853457803571333
1592314510.6467888,5.3197040475121025,8.333887308479314,-0.731929430553476,-0.6711111111111111,-0.2733333333333333,-0.03888888888888889,0.3405819557713318,-0.14383755562839057,-0.3315740682166366
1592314510.6567888,5.545567462018384,8.325857503452875,-0.6768600276229938,-0.6711111111111111,-0.2733333333333333,-0.03888888888888889,0.3315348380689205,-0.16005568837198428,-0.43343982168736345
1592314510.6667888,5.73767267833109,8.330639389860924,-0.6778772543741588,-0.6711111111111111,-0.2733333333333333,-0.03888888888888889,0.3126722706756096,-0.17509089811328274,-0.5217016990116089
1592314510.6767888,6.002905169297506,8.289031610234165,-0.6244342691890589,-0.6746505826226274,-0.2747491219379399,-0.029686262958946417,0.28290324146290946,-0.1763098353980483,-0.6599537187539539
1592314510.6867888,6.059283831613826,8.198567663227653,-0.608395210482717,-0.6766666666666666,-0.27555555555555555,-0.024444444444444446,0.2693310408071461,-0.16481238168534393,-0.7489681611679091
1592314510.6967888,5.860951651147996,8.058487652536002,-0.6237808686599965,-0.6766666666666666,-0.27555555555555555,-0.024444444444444446,0.2437501790469777,-0.14429828304477899,-0.9706873261193064
1592314510.7067888,5.4865395043972365,8.13572631032938,-0.7650420861528304,-0.6766666666666666,-0.27555555555555555,-0.024444444444444446,0.23291103138284106,-0.1435607947044727,-1.1133277238922317
1592314510.7167888,5.220722467273761,8.165171101309049,-0.7362357712009107,-0.6766666666666666,-0.27555555555555555,-0.024444444444444446,0.2261794090506616,-0.14571923075069518,-1.18414450332391
1592314510.7267888,4.1214366317755555,7.329586754348418,-0.8372251838592941,-0.6734687471626652,-0.28770764967076107,-0.03659653855964996,0.20636880821596684,-0.16593446715546734,-1.2652533045336931
1592314510.7367887,4.135511531638084,7.288602404888626,-1.1429863985807214,-0.6711111111111111,-0.2966666666666667,-0.04555555555555556,0.18434717684041527,-0.18210552280778652,-1.329174835664126
1592314510.7467887,5.371699669966997,8.139246614316605,-0.8256612040514396,-0.6711111111111111,-0.2966666666666667,-0.04555555555555556,0.16705144856005252,-0.27485841493662744,-1.6050441553140915
1592314510.7567887,4.290711362167596,8.06207951363125,-1.2749249623016348,-0.6711111111111111,-0.2966666666666667,-0.04555555555555556,0.10441382955230509,-0.27917805923250916,-1.773763985181617
1592314510.7667887,4.150299662179902,8.30033711995239,-1.0713110220370727,-0.6711111111111111,-0.2966666666666667,-0.04555555555555556,0.09049400884680507,-0.25144773189053327,-1.8243787311454585
1592314510.7767887,4.239019349164468,8.793817062445031,-0.8973350923482849,-0.6678559562200723,-0.3156550701977263,-0.0379601941431317,0.09056917585278952,-0.2262624810142319,-1.8323189294746527
1592314510.7867887,4.336582716164755,8.898624395486298,-0.7440373338317406,-0.6644444444444444,-0.33555555555555555,-0.03,0.056893337977013944,-0.19547138167586342,-1.790648794581878
1592314510.7967887,3.7049010728210594,8.468353231782627,-0.8165870728694937,-0.6644444444444444,-0.33555555555555555,-0.03,0.024420339148226604,-0.17977497826303857,-1.7332305747147343
1592314510.8067887,3.6768703304001327,8.403413581271792,-0.7733704134152416,-0.6644444444444444,-0.33555555555555555,-0.03,-0.05699993810234345,-0.17884372617651756,-1.6684054879660932
1592314510.8167887,3.873630436327459,8.106321063104037,-0.6691571915861285,-0.6644444444444444,-0.33555555555555555,-0.03,-0.0425088353007031,-0.20617230848313955,-1.6017480107262072
1592314510.8267887,3.6317781557814786,8.395547292218838,-0.809257882036473,-0.6505135136323079,-0.3663196944323571,-0.022454079143426033,0.061153840407510485,-0.20442377718012117,-1.4934098679912318
1592314510.8367887,3.228902198693922,8.943317747980988,-1.011144557363113,-0.6377777777777778,-0.39444444444444443,-0.015555555555555555,0.12591190081160425,-0.18142961946777814,-1.4196143629045623
1592314510.8467886,2.8330537719571183,9.121229881481064,-1.4490775888892033,-0.6377777777777778,-0.39444444444444443,-0.015555555555555555,0.24193650491070853,-0.17469605767325577,-1.2920017873820495
1592314510.8567886,2.4820984293193717,9.177296102385109,-1.2095106457242584,-0.6377777777777778,-0.39444444444444443,-0.015555555555555555,0.2725958077337302,-0.15488017769091256,-1.2261167202984795
1592314510.8667886,2.2080591897500677,9.308355138500406,-1.152735721375079,-0.6377777777777778,-0.39444444444444443,-0.015555555555555555,0.2831925843363564,-0.1562166529536998,-1.1844526655858738
1592314510.8767886,2.0850026423071117,9.631512909557602,-1.3403004680658313,-0.6252527387722918,-0.4252351653329307,-0.01868681530692704,0.24968524502531697,-0.16810352113281252,-1.1519339825380193
1592314510.8867886,1.9430251302132835,9.786350986579476,-1.4337881610462686,-0.6111111111111112,-0.46,-0.022222222222222223,0.18971398190699817,-0.18144315137642691,-1.1378045612445173
1592314510.8967886,2.030022123893805,9.86768635125936,-1.1738044588155208,-0.6111111111111112,-0.46,-0.022222222222222223,0.02644197207628897,-0.26372263608142704,-1.1065222422149557
1592314510.9067886,1.8977902247591865,9.961048876204067,-1.3633706742775598,-0.6111111111111112,-0.46,-0.022222222222222223,-0.10470364366964359,-0.3186247833385847,-1.0990181232628908
1592314510.9167886,1.584413676947317,9.800905880435373,-1.2381378923157724,-0.6111111111111112,-0.46,-0.022222222222222223,-0.20524308024823168,-0.34870407079983196,-1.0931738452149522
1592314510.9267886,1.1691230142100653,9.593414225303821,-1.1480970703645854,-0.6053876338146216,-0.4683250578858031,-0.006092422568478802,-0.3228636370447036,-0.3983975079011799,-1.0724412929454608
1592314510.9367886,1.1122049464271329,9.660683154757109,-1.1539627809554498,-0.5988888888888889,-0.4777777777777778,0.012222222222222223,-0.38724492778624187,-0.4308781590861001,-1.0515608743265834
1592314510.9467885,1.068662244642011,9.88532761071319,-0.9666692678576405,-0.5988888888888889,-0.4777777777777778,0.012222222222222223,-0.4099347613667093,-0.4471682960156665,-1.038179690420154
1592314510.9567885,1.3488289319878812,9.836295236050479,-0.9758410267420502,-0.5988888888888889,-0.4777777777777778,0.012222222222222223,-0.47896761329631854,-0.4273230900677185,-0.9648324758049625
1592314510.9667885,1.6304221927497788,9.924558229127195,-0.9209773272704308,-0.5988888888888889,-0.4777777777777778,0.012222222222222223,-0.5122392961935334,-0.4031203942728697,-0.9234645893591882
1592314510.9767885,1.348522072222842,9.482220610658635,-1.144213247052698,-0.5880849665910471,-0.4944338246536171,0.012222222222222223,-0.5125043827274304,-0.31425391031474426,-0.8928642449510648
1592314510.9867885,1.6392998647465986,9.968757259925214,-1.398319675391837,-0.5722222222222222,-0.5188888888888888,0.012222222222222223,-0.4658172026121553,-0.29979135156037673,-0.8824362792944536
1592314510.9967885,1.1958129844396526,9.466206072614954,-0.5332836995162888,-0.5722222222222222,-0.5188888888888888,0.012222222222222223,-0.4559440951142768,-0.1561232883193005,-0.8568377260014942
1592314511.0067885,1.1966004998214923,9.761550874687611,-0.3445719385933595,-0.5722222222222222,-0.5188888888888888,0.012222222222222223,-0.4265148359561142,-0.07968477974586391,-0.8828096248847165
1592314511.0167885,0.9847493673612233,9.640441501103753,-0.3326969256447531,-0.5722222222222222,-0.5188888888888888,0.012222222222222223,-0.4174380290799124,-0.0294289970304778,-0.917268933383697
1592314511.0267885,0.8199504371170924,9.53434914297515,-0.3130150753768844,-0.5649075667530957,-0.5180761493923193,0.008971264235943799,-0.3946183791999708,0.01795286553542818,-0.9417050460540377
1592314511.0367885,0.8205168336898998,9.776477874113276,-0.19421236347258194,-0.5522222222222222,-0.5166666666666667,0.0033333333333333335,-0.35502777308230193,0.08085855336395022,-0.9288692490984545
1592314511.0467885,0.4562758200157524,9.837442770395588,-0.5160469015981097,-0.5522222222222222,-0.5166666666666667,0.0033333333333333335,-0.30555869418296755,0.12892145970680985,-0.8815934801737271
1592314511.0567884,0.3344701010668164,9.875529898933184,-0.33645353733857386,-0.5522222222222222,-0.5166666666666667,0.0033333333333333335,-0.2739393207503086,0.17452258956245675,-0.8184150111967143
1592314511.0667884,0.24290164872314973,9.872081968065741,-0.23146720757268424,-0.5522222222222222,-0.5166666666666667,0.0033333333333333335,-0.26534369427671317,0.21946531570709202,-0.7666457116697042
1592314511.0767884,0.07743900913299137,9.821518828975353,-0.22711747779306893,-0.5364350751351877,-0.5298226225725288,-0.0006134534384252895,-0.250009462702206,0.26114513498152303,-0.7214140392806413
1592314511.0867884,-0.0003838735297454711,9.729846450588102,-0.028080632351272644,-0.4988888888888889,-0.5611111111111111,-0.01,-0.23217108542535572,0.2803518859228458,-0.6937013790976928
1592314511.0967884,-0.005113181662284208,9.781818909340345,0.12124899965702526,-0.4988888888888889,-0.5611111111111111,-0.01,-0.1918124978977211,0.2799654241889524,-0.6791660606272415
1592314511.1067884,0.018255154217936442,9.832964346587593,0.06348969156412711,-0.4988888888888889,-0.5611111111111111,-0.01,-0.16208967591102233,0.28739605086051034,-0.6563690472837119
1592314511.1167884,-0.06511308781255083,9.776380105223193,0.07276021044638498,-0.4988888888888889,-0.5611111111111111,-0.01,-0.15318028389437216,0.28573844054082315,-0.6377756910350699
1592314511.1267884,-0.19190010966005383,9.734413318711994,-0.0251400657960323,-0.5004407448022242,-0.5595592551977758,-0.012172598278669459,-0.1544958285331318,0.2586424924132585,-0.6353754914197156
1592314511.1367884,-0.25971449406669167,9.778190175237,-0.06761916337038429,-0.5044444444444445,-0.5555555555555556,-0.017777777777777778,-0.17545747859175284,0.20161683156546154,-0.6518596776882722
1592314511.1467884,-0.22231421373897878,9.886942641216937,-0.07283790330394341,-0.5044444444444445,-0.5555555555555556,-0.017777777777777778,-0.1958778445232036,0.15833259255997562,-0.6477249821237206
1592314511.1567883,-0.30405977907732296,9.903394411955816,-0.06966731643924626,-0.5044444444444445,-0.5555555555555556,-0.017777777777777778,-0.21016006811682825,0.14489535761953476,-0.610905214062949
1592314511.1667883,-0.4636894360603654,9.86380406527547,0.01282439165282692,-0.5044444444444445,-0.5555555555555556,-0.017777777777777778,-0.21406374585157986,0.14726215563702155,-0.571299740800111
1592314511.1767883,-0.6294777562862669,9.87,0.0660787761561456,-0.49580954613836625,-0.5641904538616338,-0.019564308461793956,-0.21505056578360804,0.13235381525742695,-0.5498356823301044
1592314511.1867883,-0.71,9.87,0.11,-0.4722222222222222,-0.5877777777777777,-0.024444444444444446,-0.22143864884678055,0.0916297857297023,-0.5410520681182421
1592314511.1967883,-0.64,10.32794859661057,0.5716911655969951,-0.4722222222222222,-0.5877777777777777,-0.024444444444444446,-0.2102899201235532,0.022924706923645462,-0.5400213425603114
1592314511.2067883,-3.5223255591207323,10.996174991619176,0.22352090417125625,-0.4722222222222222,-0.5877777777777777,-0.024444444444444446,-0.1661771331957202,0.03847710859345528,-0.3618246159594556
1592314511.2167883,-6.36,10.51,-0.6,-0.4722222222222222,-0.5877777777777777,-0.024444444444444446,-0.14398966328953217,0.07635815477475191,-0.1810779098944117
1592314511.2267883,1.1113597983112569,9.00348713433911,0.9802477089919565,-0.46852517329847354,-0.5893000920404978,-0.027271599503781666,-0.11112116694483057,-0.20297663578091993,0.0473253108849864
1592314511.2367883,-0.65,9.1,1.31,-0.4533333333333333,-0.5955555555555555,-0.03888888888888889,-0.09708393964218458,-0.0643590161672909,-0.031634092692397225
1592314511.2467883,-0.4865027415069809,9.674609688542196,0.3816042055282347,-0.4533333333333333,-0.5955555555555555,-0.03888888888888889,0.0012074919006064156,-0.042542400517361786,-0.01314829994901245
1592314511.2567883,-0.32,9.52,0.56,-0.4533333333333333,-0.5955555555555555,-0.03888888888888889,0.014180800172453926,-0.042542400517361786,-0.019634954084936207
1592314511.2667882,-0.43337111588821575,9.826224741059214,0.35265155364471373,-0.4533333333333333,-0.5955555555555555,-0.03888888888888889,0.06753715602223914,-0.024287516848631466,-0.0200467709513866
1592314511.2767882,-0.5820401453538675,9.763492991867105,0.2746367883716906,-0.45153013785545365,-0.5971011516794524,-0.03554009728711234,0.08712315774938402,-0.015018733380562296,-0.01778543057927549
1592314511.2867882,-0.39,9.51,0.29,-0.44555555555555554,-0.6022222222222222,-0.024444444444444446,0.10471975511965977,-0.014180800172453926,-0.015271630954950384
1592314511.2967882,-0.490044639024809,9.83995536097519,0.020223195124044982,-0.44555555555555554,-0.6022222222222222,-0.024444444444444446,0.125457713392683,0.0021646187971661153,-0.01272473600837991
1592314511.3067882,-0.5237477410570616,9.935310805792797,-0.22148310434459711,-0.44555555555555554,-0.6022222222222222,-0.024444444444444446,0.10850375920578136,0.020972818411145438,-0.01367801075942505
1592314511.3167882,-0.61,10.0,-0.27,-0.44555555555555554,-0.6022222222222222,-0.024444444444444446,0.10144726277217041,0.025089107997418484,-0.01308996938995747
1592314511.3267882,-0.4860668360057152,9.836066836005715,-0.16623392602000317,-0.44970722866063395,-0.6009111675574607,-0.023133389779682843,0.06965332934120448,0.02551814963317574,-0.01090830782496456
1592314511.3367882,-0.47,9.82,-0.11,-0.4666666666666667,-0.5955555555555555,-0.017777777777777778,0.05563236990731925,0.0272707695624114,-0.01090830782496456
1592314511.3467882,-0.491495620403766,9.86,-0.08373905100941495,-0.4666666666666667,-0.5955555555555555,-0.017777777777777778,0.05633239928272759,0.04418717958448212,-0.013480770797045585
1592314511.3567882,-0.5405488925427991,9.842418512428669,-0.1553859174001354,-0.4666666666666667,-0.5955555555555555,-0.017777777777777778,0.053330958565932736,0.05023809088303378,-0.01456436872935168
1592314511.3667881,-0.5812900842582983,9.794032436806276,-0.09137117627398898,-0.4666666666666667,-0.5955555555555555,-0.017777777777777778,0.04589410181259245,0.04916659416008182,-0.016723123409381323
1592314511.3767881,-0.6397458496371994,9.75,-0.0398305664247996,-0.46661018880826655,-0.5955555555555555,-0.017956624329378196,0.03703279959705439,0.040203639096864405,-0.02069806136352011
1592314511.3867881,-0.6025675548883468,9.768581112779133,-0.02371622255582661,-0.46,-0.5955555555555555,-0.03888888888888889,0.028516376930649106,0.014114452728772812,-0.016642538528242632
1592314511.3967881,-0.5651043206834236,9.835565256166538,-0.07623483301649886,-0.46,-0.5955555555555555,-0.03888888888888889,0.02353728094886524,-0.00123690979033341,-0.013331847144258828
1592314511.406788,-0.5435549878062943,9.852890024387412,-0.13981001045174776,-0.46,-0.5955555555555555,-0.03888888888888889,0.01521981934305385,-0.006922411385649963,-0.010551605779051945
1592314511.416788,-0.57449108044987,9.768862239742932,-0.09113776025706856,-0.46,-0.5955555555555555,-0.03888888888888889,0.0036382828364768414,-0.011267557629486068,-0.01151577841178836
