time,acc_x,acc_y,acc_z,mag_x,mag_y,mag_z,gyr_x,gyr_y,gyr_z
1592314536.3267643,-0.5759083049608728,9.758183390078255,-0.22636678015650902,-0.43555555555555553,-0.6055555555555555,-0.042222222222222223,0.011106469227207405,0.018742284704682595,-0.004115149842101864
1592314536.3367643,-0.5666429852636021,9.756678507368198,-0.16325044842260755,-0.43555555555555553,-0.597392935438868,-0.022186700117625455,0.018555747883985715,0.015992393375755816,-0.00545415391248228
1592314536.3467643,-0.5523306194690266,9.744661238938054,-0.16300814159292037,-0.43555555555555553,-0.5933333333333334,-0.012222222222222223,0.032692410925553424,0.01167100126269447,-0.004617554275895794
1592314536.3567643,-0.55,9.747749957705972,-0.23974961935374728,-0.43555555555555553,-0.5933333333333334,-0.012222222222222223,0.04529669749397481,0.01513525403932445,-0.0068994908586017594
1592314536.3667643,-0.5575354454348128,9.742464554565187,-0.2524645545651873,-0.43555555555555553,-0.5933333333333334,-0.012222222222222223,0.05950440860600663,0.015540472153435228,-0.005991836309451969
1592314536.3767643,-0.5832270524224249,9.751613526211212,-0.25580676310560624,-0.43555555555555553,-0.5933333333333334,-0.012222222222222223,0.07086922051550641,0.017805309331854372,-0.006720993100934275
1592314536.3867643,-0.5862182361733931,9.766890881913303,-0.2393273542600897,-0.4439777445607042,-0.597927254608869,-0.016816143497757848,0.08612997671720522,0.0211383113068521,-0.008387494088433138
1592314536.3967643,-0.5904085277374707,9.780408527737471,-0.25428656472076494,-0.4477777777777778,-0.6,-0.01888888888888889,0.09508053192980634,0.02181661564992912,-0.00948357575707173
1592314536.4067643,-0.6365994165598844,9.793350145860028,-0.4063976662395376,-0.4477777777777778,-0.6,-0.01888888888888889,0.1079812436941585,0.01601352317393554,-0.012359080943962954
1592314536.4167643,-0.65,9.819155708492072,-0.5110224898611282,-0.4477777777777778,-0.6,-0.01888888888888889,0.11335430346300673,0.0003683916664987408,-0.01388506799767364
1592314536.4267642,-0.6144064478986758,9.835932258683554,-0.55966129341777,-0.4477777777777778,-0.6,-0.01888888888888889,0.11130168697125156,-0.016658394855315815,-0.013533691134278663
1592314536.4367642,-0.5696753967735615,9.846774867742146,-0.5596753967735615,-0.44250843620055297,-0.5954834215052359,-0.02415823046611369,0.10390991425331289,-0.03543543599008391,-0.012350945961909941
1592314536.4467642,-0.557467417538214,9.847467417538214,-0.5601303298471441,-0.44,-0.5933333333333334,-0.02666666666666667,0.09909903669992261,-0.04132765557035326,-0.012689793334592721
1592314536.4567642,-0.5607586593745618,9.826540223437574,-0.6472988828121349,-0.44,-0.5933333333333334,-0.02666666666666667,0.07686469022996249,-0.04837395750732957,-0.017453292519943295
1592314536.4667642,-0.6046614131160678,9.843307065580339,-0.6753385868839322,-0.44,-0.5933333333333334,-0.02666666666666667,0.05578870240760223,-0.05010434779572843,-0.01643632993655539
1592314536.4767642,-0.5993143127688919,9.87,-0.659314312768892,-0.44,-0.5933333333333334,-0.02666666666666667,0.03481622700310597,-0.05126904677733343,-0.013523189470377079
1592314536.4867642,-0.5930929700132883,9.842163269880405,-0.6345351499335585,-0.44,-0.5933333333333334,-0.022199043314139136,0.01875734360028159,-0.05363078160721677,-0.012673919987427684
1592314536.4967642,-0.5998080402170954,9.78172763804614,-0.6009597989145227,-0.44,-0.5933333333333334,-0.012499497464195436,0.0026423319734188364,-0.0587582853066731,-0.014138921044415206
1592314536.5067642,-0.5529265881470624,9.766504627656854,-0.5641468237058753,-0.44,-0.5933333333333334,-0.012222222222222223,-0.010074673555350093,-0.0870273012648505,-0.01065111131208257
1592314536.5167642,-0.5314793161635617,9.816548262285023,-0.6070413676728766,-0.44,-0.5933333333333334,-0.012222222222222223,-0.01085451837135597,-0.11276218019304449,-0.009871266496076692
1592314536.5267642,-0.4408407410873023,9.84,-0.5515205389725835,-0.44,-0.5933333333333334,-0.012222222222222223,-0.014477417956110211,-0.1559712457170934,-0.012775795426401365
1592314536.5367641,-0.34517140396210166,9.84,-0.4806888697483013,-0.44,-0.598850799119533,-0.018046213885432948,-0.02651861934500012,-0.16941745185203586,-0.0159863866287412
1592314536.5467641,-0.25086807605999767,9.851329081532223,-0.42676311956222196,-0.44,-0.6133333333333333,-0.03333333333333333,-0.03617396026342248,-0.17942588165253712,-0.022667773718866552
1592314536.5567641,-0.018371173861490495,10.014303500065873,-0.4734890869966185,-0.44,-0.6133333333333333,-0.03333333333333333,-0.041045723773365614,-0.1742537863399359,-0.04311330104216972
1592314536.566764,0.1309328023892484,10.151318400530945,-0.5160447984071678,-0.44,-0.6133333333333333,-0.03333333333333333,-0.05013615376257346,-0.14681308158068668,-0.07723867439593082
1592314536.576764,0.17,10.198374487160006,-0.46807172162285365,-0.44,-0.6133333333333333,-0.03333333333333333,-0.06361672579322696,-0.10796531235057784,-0.12550550170044422
1592314536.586764,0.11962510837523843,10.267781168718571,-0.38073452401595287,-0.4372013949097355,-0.6049375180625397,-0.020039959154576806,-0.08710621431829961,-0.05086176797711297,-0.20108091297129893
1592314536.596764,0.08772077409162717,10.287720774091627,-0.34,-0.43555555555555553,-0.6,-0.012222222222222223,-0.10220873331247944,-0.01826430711237994,-0.2522929181586893
1592314536.606764,0.13652195860676425,10.251739020696618,-0.3852175668854114,-0.43555555555555553,-0.6,-0.012222222222222223,-0.13251226227238685,0.044913869942388274,-0.3864388913907758
1592314536.616764,0.17418136020151134,10.200906801007557,-0.33272040302267003,-0.43555555555555553,-0.6,-0.012222222222222223,-0.14914706726622196,0.08530461580197725,-0.4903627827895404
1592314536.626764,0.07475148607032872,10.154023132564635,-0.23536417675284682,-0.43555555555555553,-0.6,-0.012222222222222223,-0.15787789300574823,0.11783052474565817,-0.5724686079193153
1592314536.636764,-0.0574426692750788,10.101393326812303,-0.17139332681230302,-0.4372094820611286,-0.6049617795167191,-0.009327850837469358,-0.15954025575205938,0.15248927542837779,-0.660768286466934
1592314536.646764,-0.1786678960081033,10.038038854115264,-0.11443108329221101,-0.44,-0.6133333333333333,-0.0044444444444444444,-0.15956503153298332,0.18350780820241772,-0.7768218700700457
1592314536.656764,-0.3199221254065861,10.000019468648354,-0.23320354234431015,-0.44,-0.6133333333333333,-0.0044444444444444444,-0.155266536675543,0.20651434645195887,-0.8700591826687398
1592314536.666764,-0.5232772597347828,9.94428236727426,-0.2934689096106087,-0.44,-0.6133333333333333,-0.0044444444444444444,-0.1498665837734979,0.227004998699827,-0.9451969758701644
1592314536.676764,-0.6580326389011806,9.900786944439528,-0.28519673610988194,-0.44,-0.6133333333333333,-0.0044444444444444444,-0.15097276047341524,0.24024919999437436,-0.9969512946389429
1592314536.686764,-0.7624510212588578,9.870463450680207,-0.28,-0.4214567096559593,-0.6196910328798616,-0.025106967970661177,-0.15432727840984153,0.25490052071647307,-1.0556500533150892
1592314536.696764,-0.8625470661767491,9.843635743778172,-0.28163642562218266,-0.4011111111111111,-0.6266666666666667,-0.04777777777777778,-0.15614751552385667,0.26467528202358864,-1.0952142702319896
1592314536.706764,-1.14107387427677,9.732239148056014,-0.3732825558319591,-0.4011111111111111,-0.6266666666666667,-0.04777777777777778,-0.16132249091801884,0.27379852640661045,-1.1641440811878578
1592314536.716764,-1.2408311567847292,9.722707789196184,-0.4590616837942734,-0.4011111111111111,-0.6266666666666667,-0.04777777777777778,-0.15827281788207828,0.27102611688007616,-1.2105823918923642
1592314536.726764,-1.3176775594513004,9.74430326783539,-0.5129098035061702,-0.4011111111111111,-0.6266666666666667,-0.04777777777777778,-0.15968004015367881,0.2673548772972733,-1.2453368148350161
1592314536.736764,-1.4473354281225452,9.784167321288296,-0.627668499607227,-0.39412944051671467,-0.6363335951819848,-0.0338144365889849,-0.20260472273943875,0.2819438532613617,-1.3028347305070065
1592314536.746764,-1.5380874274054308,9.809101396954953,-0.7080874274054308,-0.38666666666666666,-0.6466666666666666,-0.01888888888888889,-0.2454369260617026,0.2999784651865254,-1.3417218624706408
1592314536.756764,-1.6888600406825631,9.805296926206351,-0.8005938524127021,-0.38666666666666666,-0.6466666666666666,-0.01888888888888889,-0.28819449723460144,0.3190460307095749,-1.3567447928827405
1592314536.766764,-1.7921118721461187,9.689680365296804,-0.647568493150685,-0.38666666666666666,-0.6466666666666666,-0.01888888888888889,-0.4370632692421046,0.36681924590805765,-1.3996143441019682
1592314536.776764,-1.9104313176457919,9.564784341177104,-0.4360039847073394,-0.38666666666666666,-0.6466666666666666,-0.01888888888888889,-0.5346768961308288,0.3902042857359342,-1.4344608641012997
1592314536.786764,-2.036246665955404,9.51,-0.2896916675557452,-0.36590703794587287,-0.6565951847505245,-0.028366110696207786,-0.5723776371357863,0.392903794314366,-1.4729242610395075
1592314536.796764,-2.06,9.51,-0.26,-0.33555555555555555,-0.6711111111111111,-0.042222222222222223,-0.5846852994181004,0.3916082509162277,-1.50207398749762
1592314536.806764,-2.343277654269062,9.391312263414049,-0.10049209878026799,-0.33555555555555555,-0.6711111111111111,-0.042222222222222223,-0.5978468416743973,0.38835365178532316,-1.597601872726102
1592314536.8167639,-2.4621438831697393,9.303523262309472,-0.0610944856755247,-0.33555555555555555,-0.6711111111111111,-0.042222222222222223,-0.5927937560043111,0.3864501124914064,-1.6284598913445731
1592314536.8267639,-2.6830810400607104,9.196012301793346,0.06265846547110276,-0.33555555555555555,-0.6711111111111111,-0.042222222222222223,-0.5870119577815974,0.359301979555765,-1.6515178046996344
1592314536.8367639,-3.010396844088554,9.051148139425342,0.05768959020254357,-0.31299000366357876,-0.6772226147485215,-0.051154419846129694,-0.5992023919820493,0.3082002874974613,-1.6501331997768212
1592314536.8467638,-3.2732026605695284,8.93,-0.0030247349823321556,-0.2822222222222222,-0.6855555555555556,-0.06333333333333334,-0.6133186211535182,0.2786316028550698,-1.6478377302663798
1592314536.8567638,-3.500812850246907,8.950325140098762,-0.14967485990123733,-0.2822222222222222,-0.6855555555555556,-0.06333333333333334,-0.6443927148647141,0.23326045104006443,-1.6103722461968781
1592314536.8667638,-3.6077917273313123,8.993116690932526,-0.02019571807050624,-0.2822222222222222,-0.6855555555555556,-0.06333333333333334,-0.6895818911292755,0.20235636118235303,-1.5939942049379159
1592314536.8767638,-3.495158064573323,8.898169713302956,0.3825873654722434,-0.2822222222222222,-0.6855555555555556,-0.06333333333333334,-0.7177902504493183,0.17026307532651358,-1.6109111303165067
1592314536.8867638,-3.314149316249846,8.695664038437847,0.9035786004681533,-0.2587437203126497,-0.6979656208506153,-0.07205391975688884,-0.7126633219333134,0.1416643069094371,-1.6555710265569072
1592314536.8967638,-3.4305512944687315,8.544770293971363,1.2007350592916417,-0.20444444444444446,-0.7266666666666667,-0.09222222222222222,-0.6305895695335265,0.12541547153825683,-1.7446192882304175
1592314536.9067638,-3.5011996107529497,8.514400194623525,1.2240019462352512,-0.20444444444444446,-0.7266666666666667,-0.09222222222222222,-0.518495874239937,0.1178971395831495,-1.8394442636564006
1592314536.9167638,-3.51,8.51,1.18,-0.20444444444444446,-0.7266666666666667,-0.09222222222222222,-0.469057236473476,0.11453723216212788,-1.8816830998063867
1592314536.9267638,-3.9568639758461783,8.473195216907675,1.0365976084538375,-0.20444444444444446,-0.7266666666666667,-0.09222222222222222,-0.37302861451088565,0.13527270242126116,-1.94679408805191
1592314536.9367638,-4.136762817972898,8.353278389729773,0.9799793961486647,-0.18700117107360154,-0.7248109992867898,-0.09704695740990217,-0.3432360993907384,0.145087236666611,-1.9638597679316288
1592314536.9467638,-4.23,8.3,0.96,-0.15222222222222223,-0.7211111111111111,-0.10666666666666667,-0.33161255787892263,0.15162547876700738,-1.9645862392761173
1592314536.9567637,-4.953474541528875,8.106013282680587,0.9250110689004892,-0.15222222222222223,-0.7211111111111111,-0.10666666666666667,-0.3248489240555493,0.15031841371559276,-1.9170852676743755
1592314536.9667637,-5.213428215201486,7.942494765814297,0.8802637088616528,-0.15222222222222223,-0.7211111111111111,-0.10666666666666667,-0.3322874210549294,0.12840160441628298,-1.8645727175347788
1592314536.9767637,-5.492785317538782,7.84236073412306,0.9014588988154087,-0.15222222222222223,-0.7211111111111111,-0.10666666666666667,-0.3399833130223888,0.10338585952833683,-1.811126283963888
1592314536.9867637,-5.851332776185928,7.781856096784463,0.9470809455587393,-0.13617425448371007,-0.7211111111111111,-0.11067865860129471,-0.3499542124305838,0.06737017449254895,-1.7470078672720106
1592314536.9967637,-6.107319444978284,7.666466541107737,1.0103655302302341,-0.09888888888888889,-0.7211111111111111,-0.12,-0.3621026555718804,0.03328411208796034,-1.6942738264199333
1592314537.0067637,-5.938211818672423,7.432594711279007,1.0619144630329196,-0.09888888888888889,-0.7211111111111111,-0.12,-0.3429714147267602,-0.022248061888726557,-1.6016417305823563
1592314537.0167637,-5.899244068200787,7.4445842375104325,1.2612850840586622,-0.09888888888888889,-0.7211111111111111,-0.12,-0.30694105325296467,-0.0508184596588309,-1.564726667028702
1592314537.0267637,-5.8,7.39,1.43,-0.09888888888888889,-0.7211111111111111,-0.12,-0.2901609881440573,-0.06326818538479445,-1.5555246958399462
1592314537.0367637,-6.058048104165411,7.463938151787329,1.2340068720236301,-0.0846422328048707,-0.722224131117675,-0.12467468402756847,-0.250668790899483,-0.06784630137456836,-1.5219162382274303
1592314537.0467637,-6.225376244738733,7.327910892105534,1.2658217842110666,-0.027777777777777776,-0.7266666666666667,-0.14333333333333334,-0.23330710276856523,-0.06301599865630846,-1.4810868332588345
1592314537.0567636,-6.5178444422120645,7.229149630820232,1.2253372846451354,-0.027777777777777776,-0.7266666666666667,-0.14333333333333334,-0.2153926990991612,-0.07015065424295501,-1.4271201766771684
1592314537.0667636,-6.833336034125301,7.090221862116627,1.1011093105831327,-0.027777777777777776,-0.7266666666666667,-0.14333333333333334,-0.20568210600715348,-0.08161869746620536,-1.3572346236197728
1592314537.0767636,-6.851301639579008,6.944260041526455,1.207751843631417,-0.027777777777777776,-0.7266666666666667,-0.14333333333333334,-0.1932900287799473,-0.09774232752050098,-1.2993859598833228
1592314537.0867636,-6.837698374181024,6.837561271536035,1.3790139933673058,-0.011537338114625179,-0.7251902630609255,-0.137722999631517,-0.1700470898522267,-0.1058255414807078,-1.236870683550081
1592314537.0967636,-7.088174971031286,7.185191193511009,1.0961529548088065,0.03333333333333333,-0.7211111111111111,-0.12222222222222222,-0.15083863964521824,-0.09412618294341088,-1.161785975301589
1592314537.1067636,-7.3412803795287696,6.994570512310832,1.1735170019347485,0.03333333333333333,-0.7211111111111111,-0.12222222222222222,-0.13888379695057657,-0.10035643198967394,-1.0059528377403564
1592314537.1167636,-7.304819222729,6.878877803116686,1.2720137305207144,0.03333333333333333,-0.7211111111111111,-0.12222222222222222,-0.14347485107089247,-0.11734523520478425,-0.9051052846087939
1592314537.1267636,-7.159101678717612,6.971093961304748,1.1755469806523737,0.03333333333333333,-0.7211111111111111,-0.12222222222222222,-0.12855180844048206,-0.1444967533633442,-0.8364327540373224
1592314537.1367636,-7.216641761557527,7.008718703976435,1.326828549876073,0.043723074344145504,-0.7183899884654222,-0.12692234315568487,-0.10253809355466686,-0.15877557498805,-0.7618570798162835
1592314537.1467636,-7.17,6.69,1.63,0.08,-0.7088888888888889,-0.14333333333333334,-0.10253809355466686,-0.15707963267948966,-0.7101308394051928
1592314537.1567636,-7.005191251111925,6.679711161111402,1.5475019622207105,0.08,-0.7088888888888889,-0.14333333333333334,-0.0616425843861288,-0.17922153976521216,-0.65170880576161
1592314537.1667635,-7.09898973708763,6.629092366211335,1.3585359201932967,0.08,-0.7088888888888889,-0.14333333333333334,-0.035848904590996544,-0.16553637001902013,-0.6092457846753684
1592314537.1767635,-7.206791078984486,6.560038610719324,1.2932990126939352,0.08,-0.7088888888888889,-0.14333333333333334,-0.017814562905154787,-0.1607133954121905,-0.5792157023265218
1592314537.1867635,-7.451429370182516,6.626636047765486,1.2466360477654859,0.08553003980457154,-0.7088888888888889,-0.14683569187622864,-0.013818859913618487,-0.15798448332657825,-0.548175033243405
1592314537.1967635,-7.71,6.66,1.28,0.11333333333333333,-0.7088888888888889,-0.16444444444444445,-0.011999138607461015,-0.16253378659197193,-0.5126904677733343
1592314537.2067635,-7.79945532539369,6.379618727775583,1.229945532539369,0.11333333333333333,-0.7088888888888889,-0.16444444444444445,-0.00946773023093279,-0.17997519615537508,-0.44481021757760997
1592314537.2167635,-7.861039010466222,6.4722321598477635,1.2630275927687917,0.11333333333333333,-0.7088888888888889,-0.16444444444444445,-0.0029422332085832096,-0.18813997536564134,-0.36556822078472423
1592314537.2267635,-7.68,6.41,1.28,0.11333333333333333,-0.7088888888888889,-0.16444444444444445,-0.001090830782496456,-0.19307704850187268,-0.3174317577064687
1592314537.2367635,-7.800155477837755,6.46442218505284,1.3031110773207633,0.11755801380335706,-0.7088888888888889,-0.16167655034339443,-0.0038445710168165596,-0.15707963267948966,-0.19821368963013936
1592314537.2467635,-8.0,6.56,1.39,0.14555555555555555,-0.7088888888888889,-0.14333333333333334,-0.007635815477475192,-0.15707963267948966,-0.09490227807719166
1592314537.2567635,-7.8973563801455855,6.353337306921652,1.2153230020037031,0.14555555555555555,-0.7088888888888889,-0.14333333333333334,-0.008653577446808761,-0.1264620016026893,0.10829492554969439
1592314537.2667634,-8.01168411126827,6.383855256954266,1.1845198019801981,0.14555555555555555,-0.7088888888888889,-0.14333333333333334,0.0009135772090936266,-0.11696218344973273,0.25628714367597266
1592314537.2767634,-7.787733164831197,6.354132153818378,1.3572020220256364,0.14555555555555555,-0.7088888888888889,-0.14333333333333334,0.0221952849816829,-0.13055068319137103,0.370666229869127
1592314537.2867634,-7.780160859360896,6.301126015526268,1.4480696876692543,0.14555555555555555,-0.7088888888888889,-0.14333333333333334,0.0453235759058022,-0.13302871436181238,0.4573973208345744
1592314537.2967634,-7.840016062106813,6.396019274528176,1.570080310534065,0.14555555555555555,-0.6911111111111111,-0.13666666666666666,0.1086295753169145,-0.19153797109880816,0.5506191402896111
1592314537.3067634,-7.81,6.36,1.42,0.14555555555555555,-0.6911111111111111,-0.13666666666666666,0.1407171709420428,-0.21380283336930533,0.6108652381980153
1592314537.3167634,-7.721573014004059,6.587156098905228,1.5049244682716638,0.14555555555555555,-0.6911111111111111,-0.13666666666666666,0.16178064140657217,-0.28357162363118704,0.751399397046204
1592314537.3267634,-7.762113566910667,6.927432662923744,1.3611914576078459,0.14555555555555555,-0.6911111111111111,-0.13666666666666666,0.18468074853370073,-0.3194130408431297,0.8849329643695479
1592314537.3367634,-7.3948601792040005,6.790829339445717,1.4677820379245676,0.14555555555555555,-0.691573985321016,-0.13766956078812714,0.1721850591192991,-0.34323300840894266,1.001896001161334
1592314537.3467634,-7.46,7.07,1.17,0.14555555555555555,-0.6977777777777778,-0.1511111111111111,0.1407171709420428,-0.33815754257390135,1.1257373675363425
1592314537.3567634,-6.94,7.35,1.14,0.14555555555555555,-0.6977777777777778,-0.1511111111111111,0.09272061651219875,-0.3436116964863836,1.22500296874352
1592314537.3667634,-6.853293692099511,6.96,1.3452318621838242,0.14555555555555555,-0.6977777777777778,-0.1511111111111111,0.0490406896612526,-0.28965772648737775,1.3579662937512953
1592314537.3767633,-6.712188510061516,7.027699579466861,1.4222680985646265,0.14555555555555555,-0.6977777777777778,-0.1511111111111111,0.011636703606568995,-0.27223023679553304,1.4035820864471584
1592314537.3867633,-6.690322698363049,7.217203280853578,1.9324703715288638,0.14555555555555555,-0.6977777777777778,-0.1511111111111111,-0.013805323577387549,-0.2770006168925249,1.3813203126611964
1592314537.3967633,-6.309070107108082,7.163754346918904,1.5686375017387675,0.11888888888888889,-0.7111111111111111,-0.14333333333333334,0.0008190714374622151,-0.24642632126510614,1.4031598829530731
1592314537.4067633,-6.18,7.09,1.71,0.11888888888888889,-0.7111111111111111,-0.14333333333333334,-0.015271630954950384,-0.23234695667174513,1.4158983556804
1592314537.4167633,-6.107237283621838,7.314376564580559,1.437620239680426,0.11888888888888889,-0.7111111111111111,-0.14333333333333334,0.02881588561192995,-0.20254069547960563,1.4531519553828551
1592314537.4267633,-5.746252367769197,7.238929849272266,1.357143458481066,0.11888888888888889,-0.7111111111111111,-0.14333333333333334,0.056333700262274154,-0.19422624695215537,1.485185757579337
1592314537.4367633,-6.174055077954248,7.469807502388006,1.4657917658296502,0.11888888888888889,-0.7111111111111111,-0.14333333333333334,0.0711483150275206,-0.18163382440169587,1.5155557178480923
1592314537.4467633,-5.59,7.22,1.48,0.06,-0.7122222222222222,-0.12222222222222222,0.11453723216212788,-0.16907877128695067,1.5827954654023577
1592314537.4567633,-5.811536392578768,7.817158853880778,1.311125260731145,0.06,-0.7122222222222222,-0.12222222222222222,0.12181786001188494,-0.17586272324798183,1.6377500927678459
1592314537.4667633,-5.061434164133739,7.706308814589666,1.4536911854103343,0.06,-0.7122222222222222,-0.12222222222222222,0.05123570515317299,-0.23797208919149723,1.6219986903239092
1592314537.4767632,-5.0,8.15,1.01,0.06,-0.7122222222222222,-0.12222222222222222,0.0370882466048795,-0.2617993877991494,1.5937037732273223
1592314537.4867632,-4.9802515255707345,8.278365083790229,1.8690586376730787,0.06,-0.7122222222222222,-0.12222222222222222,-0.043695167700574286,-0.3059609876194641,1.5236914808292623
1592314537.4967632,-4.03,8.57,1.45,-0.0044444444444444444,-0.7266666666666667,-0.14333333333333334,-0.06544984694978735,-0.30870511144649704,1.4398966328953218
1592314537.5067632,-3.998281750266809,8.875736111891255,1.4271934505420436,-0.0044444444444444444,-0.7266666666666667,-0.14333333333333334,-0.1121514725610458,-0.2832964377609299,1.315530128772699
1592314537.5167632,-3.37,8.76,1.7,-0.0044444444444444444,-0.7266666666666667,-0.14333333333333334,-0.13199052468207118,-0.26616271092913524,1.201004691528598
1592314537.5267632,-3.33954860903975,8.518687983455626,1.3309449382568752,-0.0044444444444444444,-0.7266666666666667,-0.14333333333333334,-0.15416560976888583,-0.1972342180842269,0.9975563669286404
1592314537.5367632,-3.456314104476128,9.227621348605062,1.4560508262244227,-0.0044444444444444444,-0.7266666666666667,-0.14333333333333334,-0.18236927619330695,-0.16994034735091612,0.8183266157798996
1592314537.5467632,-3.3,9.08,1.83,-0.03111111111111111,-0.7,-0.14333333333333334,-0.20616701789183017,-0.1265363707695889,0.5705044992456464
1592314537.5567632,-3.3393080028367246,9.071432818722382,1.6318616005673447,-0.03111111111111111,-0.7,-0.14333333333333334,-0.21545077275393656,-0.08574078123934141,0.27658615217749294
1592314537.5667632,-3.38,9.34,1.64,-0.03111111111111111,-0.7,-0.14333333333333334,-0.2083486794568231,-0.05999569303730508,0.074176493209759
1592314537.5767632,-3.0745254765068726,8.93566433289038,2.0285364644280928,-0.03111111111111111,-0.7,-0.14333333333333334,-0.19807296651175327,-0.018836719258378622,-0.20450298116015858
1592314537.5867631,-2.908147722088895,9.168593189075546,1.9536664749400028,-0.03111111111111111,-0.7,-0.14333333333333334,-0.18083141878778555,0.021998525351018598,-0.38599295720192395
1592314537.5967631,-3.2,9.53,2.05,-0.057777777777777775,-0.7177777777777777,-0.14333333333333334,-0.20289452554434081,0.10690141668465267,-0.6228643768054763
1592314537.6067631,-2.805035465082752,8.911160544374603,1.6829464852084655,-0.057777777777777775,-0.7177777777777777,-0.14333333333333334,-0.23356438320706865,0.21914070790335247,-0.8919910638735344
1592314537.616763,-3.3082440034837464,9.162311748228703,1.7003255419814987,-0.057777777777777775,-0.7177777777777777,-0.14333333333333334,-0.2920305729411557,0.3757124664254883,-1.18938721402678
1592314537.626763,-3.170367993076465,8.60771847898599,2.0142502208679662,-0.057777777777777775,-0.7177777777777777,-0.14333333333333334,-0.33966684344563164,0.487973669725119,-1.4298192469263498
1592314537.636763,-3.5257979193336095,8.048105403602401,1.5983215837585418,-0.057777777777777775,-0.7177777777777777,-0.14333333333333334,-0.3627646930802884,0.6009881482946896,-1.6047029655887508
1592314537.646763,-4.29,8.45,1.33,-0.057777777777777775,-0.6977777777777778,-0.17222222222222222,-0.4145156973486533,0.7188574856651644,-1.8151424220741026
1592314537.656763,-4.272631144265353,8.004677234581058,1.8047867323831093,-0.057777777777777775,-0.6977777777777778,-0.17222222222222222,-0.4550465053496213,0.785966842676838,-1.9847367478590283
1592314537.666763,-4.846946962666857,7.90793561282033,1.625914769077022,-0.057777777777777775,-0.6977777777777778,-0.17222222222222222,-0.45197271935405414,0.8147993584155742,-2.0631911438461694
1592314537.676763,-5.24,7.53,1.83,-0.057777777777777775,-0.6977777777777778,-0.17222222222222222,-0.43960480534607177,0.8213955792198314,-2.0780326406557488
1592314537.686763,-5.591577188476654,7.332773772317975,1.8385750533774794,-0.057777777777777775,-0.6977777777777778,-0.17222222222222222,-0.40312446982182354,0.7952045690998583,-2.070549494907185
1592314537.696763,-5.7,6.97,1.76,0.02666666666666667,-0.7111111111111111,-0.16333333333333333,-0.3665191429188092,0.7221299780126538,-2.0878501176982165
1592314537.706763,-6.2636759094378025,6.827069447977614,1.7741388959552278,0.02666666666666667,-0.7111111111111111,-0.16333333333333333,-0.3239739674566942,0.707469667386841,-2.093304271610699
1592314537.716763,-6.535904861374858,6.764095138625142,1.7229851879984808,0.02666666666666667,-0.7111111111111111,-0.16333333333333333,-0.2745637236930787,0.6884698939666283,-2.0907277897890717
1592314537.726763,-6.56,6.72376592878468,1.9003054685793344,0.02666666666666667,-0.7111111111111111,-0.16333333333333333,-0.2379954195335962,0.6419608657426266,-2.0734528273708297
1592314537.736763,-6.56,6.639776086798223,1.4879916988276414,0.02666666666666667,-0.7111111111111111,-0.16333333333333333,-0.19385186164305537,0.6053133837202908,-2.0384711399858726
1592314537.746763,-7.34,6.42,1.73,0.09888888888888889,-0.7033333333333334,-0.19333333333333333,-0.14398966328953217,0.5148721293383272,-1.9853120241435498
1592314537.756763,-7.6491304589707925,6.252929068150209,1.653232267037552,0.09888888888888889,-0.7033333333333334,-0.19333333333333333,-0.07255022988239655,0.36904028194679434,-1.8728310155921772
1592314537.766763,-8.36,6.44,1.7,0.09888888888888889,-0.7033333333333334,-0.19333333333333333,-0.017453292519943295,0.2792526803190927,-1.7289667902568826
1592314537.776763,-8.057886698556382,6.2898472725712695,1.7440886762907828,0.09888888888888889,-0.7033333333333334,-0.19333333333333333,0.024567875313086112,0.1954876209732592,-1.543968333587559
1592314537.786763,-8.030895772110084,5.777019670091593,1.9240281859327741,0.09888888888888889,-0.7033333333333334,-0.19333333333333333,0.07363876433928665,0.1287512118976265,-1.4242353643636296
1592314537.796763,-8.39,6.06,1.68,0.2111111111111111,-0.6977777777777778,-0.17222222222222222,0.11780972450961724,0.04690572364734761,-1.2849986617808251
1592314537.806763,-8.230123588384421,5.540033705923023,2.05008239225628,0.2111111111111111,-0.6977777777777778,-0.17222222222222222,0.12000691011259568,-0.044758786904164405,-1.1867883494797034
1592314537.816763,-8.47398104828176,5.648924169378013,2.201184838625407,0.2111111111111111,-0.6977777777777778,-0.17222222222222222,0.16763587575668956,-0.14701555487661155,-1.0737181819189596
1592314537.826763,-8.130964191659134,5.719128178923785,1.9242667347981606,0.2111111111111111,-0.6977777777777778,-0.17222222222222222,0.20578850076797972,-0.19990733597688096,-0.9707808265995553
1592314537.836763,-8.551366888094021,5.59548032703117,2.2457511497189575,0.2111111111111111,-0.6977777777777778,-0.17222222222222222,0.2552440912137894,-0.24037100088708888,-0.8799623786899777
1592314537.846763,-8.47,5.51,1.97,0.2311111111111111,-0.6788888888888889,-0.16444444444444445,0.35452000431134817,-0.28797932657906433,-0.7657632093125121
1592314537.856763,-8.463387125740821,5.4120099032762905,1.9061910870513379,0.2311111111111111,-0.6788888888888889,-0.16444444444444445,0.4475755915405262,-0.34643419349939986,-0.6551792137304581
1592314537.8667629,-8.745547527446748,5.290730036595665,2.029007225297926,0.2311111111111111,-0.6788888888888889,-0.16444444444444445,0.5175729514296242,-0.4000434835290409,-0.556552981324557
1592314537.8767629,-8.982790444091991,5.580665939730372,1.7483713322759715,0.2311111111111111,-0.6788888888888889,-0.16444444444444445,0.5816631099151117,-0.41832432740290054,-0.44543757096571435
1592314537.8867629,-8.858059080095162,5.223102696272799,1.3741772402854877,0.2311111111111111,-0.6788888888888889,-0.16444444444444445,0.5834772540669851,-0.4301162643900781,-0.337495993929243
1592314537.8967628,-9.67,5.43,1.63,0.2788888888888889,-0.7,-0.1511111111111111,0.5366887449882564,-0.4526947747360292,-0.16907877128695067
1592314537.9067628,-9.060397953382605,5.340928557892742,1.6722550691680877,0.2788888888888889,-0.7,-0.1511111111111111,0.46571797544250243,-0.4770692717773949,0.003348149741158821
1592314537.9167628,-9.06577376531749,5.4291259747493505,1.8948277942814706,0.2788888888888889,-0.7,-0.1511111111111111,0.37362832773490556,-0.5058891803759328,0.19379269101393198
1592314537.9267628,-8.877257843925985,5.5669975864843115,2.2367614641995175,0.2788888888888889,-0.7,-0.1511111111111111,0.3322263147401523,-0.5079738751892102,0.3649588512134676
1592314537.9367628,-8.657925985518906,5.634484312148029,1.9161995172968624,0.2788888888888889,-0.7,-0.1511111111111111,0.32762527737991004,-0.4730059912513691,0.5287557812380914
1592314537.9467628,-8.33,4.92,2.47,0.2822222222222222,-0.6855555555555556,-0.13666666666666666,0.29561514205653955,-0.409061543436171,0.7014041931452212
1592314537.9567628,-8.650354892372839,5.107421485103594,2.4086086605837576,0.2822222222222222,-0.6855555555555556,-0.13666666666666666,0.3741638667285304,-0.32851718737195457,0.864198355991421
1592314537.9667628,-8.225720481353509,5.2595124508519,1.9438136542356725,0.2822222222222222,-0.6855555555555556,-0.13666666666666666,0.43099162212352643,-0.25561249400991765,0.9987436354509422
1592314537.9767628,-8.293404474565522,5.190751441650318,1.9555565463805165,0.2822222222222222,-0.6855555555555556,-0.13666666666666666,0.5183126030981539,-0.20502154073043927,1.0933210836966765
1592314537.9867628,-8.43470225709926,5.5149051780512455,1.6978958841131124,0.2822222222222222,-0.6855555555555556,-0.13666666666666666,0.5545789491419871,-0.1814484158019477,1.1540672133200969
1592314537.9967628,-8.1,5.86,1.58,0.25,-0.7211111111111111,-0.13666666666666666,0.5726861608106394,-0.1832595714594046,1.2217304763960306
1592314538.0067627,-7.818101505305585,5.824762688163198,1.412622768775191,0.25,-0.7211111111111111,-0.13666666666666666,0.5630766746996368,-0.18422052007050485,1.2745826500065447
1592314538.0167627,-7.911229348311438,5.820344997767386,1.5715816314540199,0.25,-0.7211111111111111,-0.13666666666666666,0.4997918443202655,-0.19868412022163545,1.3369938694649526
1592314538.0267627,-7.792678173023721,6.2299634104985095,1.3827879415281916,0.25,-0.7211111111111111,-0.13666666666666666,0.5002007502802188,-0.21113458421411216,1.417005151644713
1592314538.0367627,-7.425853784782337,6.095211594409838,1.4202190015528227,0.25,-0.7211111111111111,-0.13666666666666666,0.478968654982122,-0.20460163181469776,1.4758017232394425
1592314538.0467627,-7.8,6.56,1.34,0.19666666666666666,-0.7411111111111112,-0.11555555555555555,0.45814892864851153,-0.22689280275926282,1.5664330036649108
1592314538.0567627,-7.409955022488755,6.08433539327897,1.244867078655794,0.19666666666666666,-0.7411111111111112,-0.11555555555555555,0.43012997051012153,-0.2237795851883306,1.6473766605091484
1592314538.0667627,-7.5741149305002615,6.331417976659008,1.2053197442955614,0.19666666666666666,-0.7411111111111112,-0.11555555555555555,0.4069263867938616,-0.23073514171271864,1.721343779763455
1592314538.0767627,-6.950625150098834,6.530625150098834,0.9527089837616153,0.19666666666666666,-0.7411111111111112,-0.11555555555555555,0.3695188620777029,-0.2599359616208515,1.75971463205823
1592314538.0867627,-7.0203609761504495,6.60036097615045,1.254897563318616,0.19666666666666666,-0.7411111111111112,-0.11555555555555555,0.3390908677977347,-0.29543528828081433,1.7825356277682063
1592314538.0967627,-6.41,6.81,0.84,0.16444444444444445,-0.7411111111111112,-0.10222222222222223,0.3141592653589793,-0.35452000431134817,1.8075066065966274
1592314538.1067626,-6.283788182474144,7.109753066623908,0.824223522809268,0.16444444444444445,-0.7411111111111112,-0.10222222222222223,0.260809917786068,-0.35968284439904924,1.8642978475613396
1592314538.1167626,-6.008488274315612,7.223197234420256,0.7460772680556853,0.16444444444444445,-0.7411111111111112,-0.10222222222222223,0.14287325103208418,-0.38683598090081095,1.9472755813147187
1592314538.1267626,-5.957565099702246,7.049864838040242,1.4155416403500856,0.16444444444444445,-0.7411111111111112,-0.10222222222222223,0.058742679545849164,-0.4324850257607403,1.9217487445737802
1592314538.1367626,-5.261227285031128,7.042295948750338,1.7258661012361274,0.16444444444444445,-0.7411111111111112,-0.10222222222222223,0.049660664376441295,-0.46138234675431083,1.8441387967624765
1592314538.1467626,-5.26,8.12,0.86,0.07777777777777778,-0.76,-0.08888888888888889,0.007635815477475192,-0.5061454830783556,1.736602605734358
1592314538.1567626,-5.178679054736417,7.916697636841042,1.7545303978994142,0.07777777777777778,-0.76,-0.08888888888888889,-0.027847140664615137,-0.5256611089565052,1.6319278851151913
1592314538.1667626,-4.099652936599627,8.461041190201119,1.1220823804022353,0.07777777777777778,-0.76,-0.08888888888888889,-0.0689873505056997,-0.5506991808124383,1.376633231292046
1592314538.1767626,-4.060096196920755,8.579711409237733,1.3594228184754675,0.07777777777777778,-0.76,-0.08888888888888889,-0.09919214701353851,-0.5312818116288277,1.1285224028347984
1592314538.1867626,-4.180360295571816,8.602567555419714,1.4728377770985779,0.07777777777777778,-0.76,-0.08888888888888889,-0.09434212437967339,-0.46066475654821537,0.984317621632466
1592314538.1967626,-3.66,7.82,1.51,0.0044444444444444444,-0.7677777777777778,-0.0811111111111111,-0.13853550937704992,-0.32506757318394386,0.7188574856651644
1592314538.2067626,-3.391205943045811,8.365733388361535,1.338949236483698,0.0044444444444444444,-0.7677777777777778,-0.0811111111111111,-0.12698485844004823,-0.21844617991931298,0.6077935343478407
1592314538.2167625,-3.94059222637143,8.352124335980644,1.9204404880870984,0.0044444444444444444,-0.7677777777777778,-0.0811111111111111,-0.15550879160183953,-0.0727743858054546,0.42673322586688966
1592314538.2267625,-4.167455675029869,9.397740979689367,1.3369390681003586,0.0044444444444444444,-0.7677777777777778,-0.0811111111111111,-0.1257987762777589,0.018587860794746294,0.26044446388670667
1592314538.2367625,-3.4302551521099116,8.574088321884199,1.781244357212954,0.0044444444444444444,-0.7677777777777778,-0.0811111111111111,-0.17789640931975076,0.06966501406377955,0.06728295650027502
1592314538.2467625,-3.6056683195193453,8.983010242860763,1.9201968945673025,-0.03956245651710562,-0.7677777777777778,-0.0745100759668786,-0.16826715275585002,0.14451133063649102,-0.2484211254426065
1592314538.2567625,-3.365512048192771,8.79698319594166,1.765586556753329,-0.04,-0.7677777777777778,-0.07444444444444444,-0.19606109669191055,0.20403412206568697,-0.426348306145787
1592314538.2667625,-3.8309561917090824,8.660921474594723,1.6121501073876843,-0.04,-0.7677777777777778,-0.07444444444444444,-0.24439824744671787,0.301207106065819,-0.7932166558826015
1592314538.2767625,-4.023121531370521,8.679235725707835,1.6003821371460822,-0.04,-0.7677777777777778,-0.07444444444444444,-0.26746899387375633,0.36200313836615805,-1.0703420232246932
1592314538.2867625,-3.9863106375293484,8.439708506411414,1.7966021311179339,-0.04,-0.7677777777777778,-0.07444444444444444,-0.2651671923974193,0.4127894778286261,-1.2470209655070248
1592314538.2967625,-3.92,8.22,1.47,-0.006666666666666667,-0.7677777777777778,-0.1111111111111111,-0.27379852640661045,0.47560222116845474,-1.4977106643676341
1592314538.3067625,-4.7230885311871225,8.335699195171026,1.7218158953722336,-0.006666666666666667,-0.7677777777777778,-0.1111111111111111,-0.2693441178088709,0.5208887085788069,-1.589026040621295
1592314538.3167624,-5.393738362444801,8.001507327089135,1.5746879306950188,-0.006666666666666667,-0.7677777777777778,-0.1111111111111111,-0.2961945989282023,0.5452437264596568,-1.7414454243631443
1592314538.3267624,-5.039821428571428,7.268118131868132,1.4840659340659341,-0.006666666666666667,-0.7677777777777778,-0.1111111111111111,-0.31850460776178113,0.5992556820128745,-1.7868557414257948
1592314538.3367624,-5.934167447672602,7.793127147766323,1.5677600749765699,-0.006666666666666667,-0.7677777777777778,-0.1111111111111111,-0.3220067040529276,0.5965542607812897,-1.8017266687953395
1592314538.3467624,-5.183636976818489,7.505316837658419,1.5515016507508255,0.0181213785051337,-0.7860993763830215,-0.08201210156160633,-0.3091310036310224,0.5892124272344421,-1.7990092868975542
1592314538.3567624,-5.690764353924793,7.329553433450886,1.6807342394103895,0.01888888888888889,-0.7866666666666666,-0.0811111111111111,-0.3372268979815199,0.6000684037093451,-1.7948906258091528
1592314538.3667624,-5.441521954344281,7.460006405776847,1.1976770323782902,0.01888888888888889,-0.7866666666666666,-0.0811111111111111,-0.3848961986136339,0.6327664357945374,-1.7781377092730308
1592314538.3767624,-5.839690353030917,6.983466901861696,1.9275895687826274,0.01888888888888889,-0.7866666666666666,-0.0811111111111111,-0.40870588127214663,0.6328196150809465,-1.8014901486706179
1592314538.3867624,-6.182049766169594,6.416048177887585,2.118688784964264,0.01888888888888889,-0.7866666666666666,-0.0811111111111111,-0.41015237421866746,0.6599133330966335,-1.8334004826318517
1592314538.3967624,-6.963016533840848,6.725589786289204,1.6344102137107965,0.1141505976060514,-0.7682638365735784,-0.0886887470317945,-0.39314819897581244,0.6666379572544247,-1.8924752357316728
1592314538.4067624,-7.054106701213049,6.307710909590547,1.6879311427786283,0.11666666666666667,-0.7677777777777778,-0.08888888888888889,-0.3246605403810691,0.6510036828547794,-1.8957031851856592
1592314538.4167624,-7.602439676790192,5.968222903315687,1.3711145165784342,0.11666666666666667,-0.7677777777777778,-0.08888888888888889,-0.21988783943340356,0.5552821669122956,-1.8891250641071895
1592314538.4267623,-8.050689974586135,5.814626986200508,1.357257440087405,0.11666666666666667,-0.7677777777777778,-0.08888888888888889,-0.13540554036838467,0.4304468064105714,-1.845610419432234
1592314538.4367623,-8.419717078096543,5.724439836269543,1.3874764231747119,0.11666666666666667,-0.7677777777777778,-0.08888888888888889,-0.09240995092663248,0.30048911412073365,-1.7881218333134397
1592314538.4467623,-8.775167507682967,5.634045225177372,1.4746063664301703,0.14878885221299,-0.7563795829065018,-0.08888888888888889,-0.025493829104601892,0.08376191469971894,-1.6570582913894543
1592314538.4567623,-8.703654019342965,5.869111946434865,1.513209992560398,0.1511111111111111,-0.7555555555555555,-0.08888888888888889,0.0013683329397414339,-0.025816670217906554,-1.5573208784193864
1592314538.4667623,-8.171724092058001,5.626012504988692,1.6542884129306903,0.1511111111111111,-0.7555555555555555,-0.08888888888888889,0.03923708311692567,-0.15177184193412538,-1.387812358078889
1592314538.4767623,-8.327773776395482,5.94295629399247,1.5066696677033884,0.1511111111111111,-0.7555555555555555,-0.08888888888888889,0.02208633244432442,-0.21687230155577028,-1.306277808015905
1592314538.4867623,-8.185860335960264,5.914802980229579,1.6525685902575433,0.1511111111111111,-0.7555555555555555,-0.08888888888888889,-0.008492703299069778,-0.2943991804808772,-1.2046362576301552
1592314538.4967623,-8.244477563583347,6.012537259031266,2.0151243317673737,0.21866222978202565,-0.7482808196986879,-0.11487008837770218,-0.04813222352643593,-0.3593337612117185,-1.0765957323563646
1592314538.5067623,-8.210065492806528,5.974517214229476,1.924582707036003,0.22333333333333333,-0.7477777777777778,-0.11666666666666667,-0.07983415799723785,-0.3621558197888234,-1.0041356572563356
1592314538.5167623,-7.946471822367271,5.457151931930765,2.587959671309517,0.22333333333333333,-0.7477777777777778,-0.11666666666666667,-0.1289498791708639,-0.3190164152573335,-0.8414803047242071
1592314538.5267622,-8.125956528211999,5.385267232395415,2.7732067887449756,0.22333333333333333,-0.7477777777777778,-0.11666666666666667,-0.12159003699360599,-0.28210017576948615,-0.7850813239071028
1592314538.5367622,-8.344579610201206,5.402289805100604,2.553479385236423,0.22333333333333333,-0.7477777777777778,-0.11666666666666667,-0.067024617356392,-0.19492696338838,-0.690834443527502
1592314538.5467622,-8.454679330586648,5.332535093156379,2.319749516899406,0.23385325895407202,-0.7190870715393995,-0.08032510543138756,0.025514272290446782,-0.07821193472779672,-0.5557619174418524
1592314538.5567622,-8.554571819010022,5.350204221075008,2.1650197388399635,0.23555555555555555,-0.7144444444444444,-0.07444444444444444,0.06630929440353381,-0.04502227660162054,-0.48329120346663773
1592314538.5667622,-8.635445174140067,5.471780696560263,1.6713589384723044,0.23555555555555555,-0.7144444444444444,-0.07444444444444444,0.1259597753629719,-0.01868111572401289,-0.3638058650277501
1592314538.5767622,-8.64,5.255046863389026,1.704423616271544,0.23555555555555555,-0.7144444444444444,-0.07444444444444444,0.15586305447428722,-0.0011746623976337748,-0.2674314289473707
1592314538.5867622,-8.658075277395024,5.25615055479005,1.7923011095801,0.23555555555555555,-0.7144444444444444,-0.07444444444444444,0.15679666062140063,0.004541317854811194,-0.20399002374406602
1592314538.5967622,-8.566202278511694,5.267486365289056,2.0588249909101926,0.2572313120295183,-0.7189602270431866,-0.06270340968771462,0.16444720241006322,0.01227333361932596,-0.064667551658583
1592314538.6067622,-8.557274663451878,5.216813341370304,2.164779987944545,0.26222222222222225,-0.72,-0.06,0.16077289596052066,0.032404797406797574,-0.005449507416081051
1592314538.6167622,-8.491793799567413,5.184056236481616,2.274056236481615,0.26222222222222225,-0.72,-0.06,0.13784624903257992,0.1190436924243519,0.12693652556564816
1592314538.6267622,-8.377980012402805,5.0477872918952436,2.246538186328293,0.26222222222222225,-0.72,-0.06,0.1533353038524751,0.1889239508339527,0.2118734423587914
1592314538.6367621,-8.45122670186385,5.048069754419646,2.1277209823214145,0.26222222222222225,-0.72,-0.06,0.1968847905109758,0.2409581586372409,0.28977726457266073
1592314538.6467621,-8.814170559272819,5.26473930059336,1.7814218533013508,0.26222222222222225,-0.72,-0.03535545455820673,0.2324141609921413,0.2920272851727647,0.3797797052429691
1592314538.6567621,-8.693765797148412,5.1176887556707715,1.608459170447181,0.26222222222222225,-0.72,-0.03111111111111111,0.2588210327053493,0.3017742179677236,0.4362576851149289
1592314538.666762,-9.13021926680345,5.2312515759029,1.458232269547376,0.26222222222222225,-0.72,-0.03111111111111111,0.25205229041560195,0.26693826241197655,0.5223249577026088
1592314538.676762,-9.27,5.073167313138043,1.303475715679509,0.26222222222222225,-0.72,-0.03111111111111111,0.22287497989615535,0.22327094241087825,0.5945066441945854
1592314538.686762,-9.156263537547444,4.979857719134392,1.1161212566818355,0.26222222222222225,-0.72,-0.03111111111111111,0.2010195659792593,0.18716098824151337,0.6984498697110614
1592314538.696762,-9.499423036805245,5.057971688272985,1.333915064818954,0.26222222222222225,-0.7250241891422043,-0.014363813970429976,0.1725250228516191,0.14549133953259158,0.8464379721573646
1592314538.706762,-9.280931937172776,5.051214659685864,1.396062827225131,0.26222222222222225,-0.7266666666666667,-0.008888888888888889,0.17268136844715362,0.11519972624992675,0.9395319818486045
1592314538.716762,-8.768919228711889,5.099103645024071,1.3897012150080237,0.26222222222222225,-0.7266666666666667,-0.008888888888888889,0.14920802948403222,0.0716612667668051,1.1012904379195516
1592314538.726762,-8.517244200573208,5.075411900154324,1.4311931999118144,0.26222222222222225,-0.7266666666666667,-0.008888888888888889,0.1121649698090609,0.047345764833104445,1.218069113549615
1592314538.736762,-8.440257009345794,5.07316199376947,1.670334890965732,0.26222222222222225,-0.7266666666666667,-0.008888888888888889,0.10113037812896855,0.03536364653597934,1.2844379543692614
1592314538.746762,-8.302662797781268,5.207337202218731,1.7740828497226586,0.23127220779405844,-0.7195923776545149,0.007912547514971448,0.15135435368361538,0.042051843187684804,1.3719262180263017
1592314538.756762,-8.225140111443107,5.320747799402406,1.5995324234838084,0.22333333333333333,-0.7177777777777777,0.012222222222222223,0.16471544815696484,0.044724062082354694,1.3886275861179884
1592314538.766762,-8.538653385818394,5.653229693068781,1.4200941539443588,0.22333333333333333,-0.7177777777777777,0.012222222222222223,0.1917982424909121,-0.0004139284742240845,1.476441495018969
1592314538.776762,-8.597963451438892,6.040182742805542,1.1973629428958437,0.22333333333333333,-0.7177777777777777,0.012222222222222223,0.23624033680475182,-0.04656964272971098,1.582322670966818
1592314538.786762,-8.195622412365443,5.8545293955285675,1.2453132762903671,0.22333333333333333,-0.7177777777777777,0.012222222222222223,0.2528171204146016,-0.09476618767871295,1.68637380746752
1592314538.796762,-7.849820987466073,6.061608368149797,0.9411594644872069,0.18476177406402164,-0.7370635574124337,-0.00304568665521366,0.2650232117487616,-0.13170812821619296,1.8284859461657827
1592314538.806762,-7.7444930321960594,6.014976773986866,1.0312790325164185,0.17,-0.7444444444444445,-0.008888888888888889,0.2759129611345754,-0.13694010601852363,1.9188053311281001
1592314538.816762,-6.916280123583934,6.005616889804325,1.3220303810504634,0.17,-0.7444444444444445,-0.008888888888888889,0.36320946571148394,-0.10511300467209322,2.058650285233474
1592314538.826762,-6.9855627345717135,6.5908318684973155,1.4952691339256021,0.17,-0.7444444444444445,-0.008888888888888889,0.4178308921791478,-0.0831584992816339,2.136746196823162
1592314538.836762,-6.565597842373389,6.665693736889422,1.3425262211567277,0.17,-0.7444444444444445,-0.008888888888888889,0.3723354905702804,-0.0727725021366927,2.14712763416101
1592314538.846762,-6.235289079229123,6.573222698072805,1.8157922912205566,0.12178087080656674,-0.7444444444444445,0.006639305258148943,0.36039811065856947,-0.03662808886579641,2.141075418823175
1592314538.856762,-5.928125986163369,6.702778249787595,1.9035392644738438,0.10444444444444445,-0.7444444444444445,0.012222222222222223,0.3395755299122357,-0.02152917862737786,2.1224103484078434
1592314538.866762,-5.511457531232812,7.568030957806239,1.0476640213718866,0.10444444444444445,-0.7444444444444445,0.012222222222222223,0.2926458915813274,0.0008023310249822661,2.024016503644283
1592314538.876762,-5.105483133218982,7.334060177244139,1.172310606060606,0.10444444444444445,-0.7444444444444445,0.012222222222222223,0.24494421232918562,0.0035986033511473635,1.8885471010509631
1592314538.886762,-4.865365988704736,7.410652246133402,1.2255966926285482,0.10444444444444445,-0.7444444444444445,0.012222222222222223,0.22070448924922942,0.009993638301684152,1.809289962521354
1592314538.896762,-4.662609934236446,8.179605418674425,1.0262063217868291,0.06557245944917552,-0.7539790822734727,0.016622824297158327,0.16250733980511262,0.031284829813436256,1.5622270719752216
1592314538.906762,-4.671714454277287,8.235356932153392,1.0028574237954768,0.04555555555555556,-0.7588888888888888,0.01888888888888889,0.1383952995443184,0.034400104906656674,1.4542568999375176
1592314538.9167619,-4.509245078149555,8.208490156299112,0.8178386718861617,0.04555555555555556,-0.7588888888888888,0.01888888888888889,0.09356439969684205,0.051817282987103704,1.2067092593196005
1592314538.9267619,-4.187187912536303,8.610780548688286,1.0474605765307345,0.04555555555555556,-0.7588888888888888,0.01888888888888889,0.061440219738020205,0.059169041084835006,1.0110426753659114
1592314538.9367619,-3.946360714655977,8.731320454781077,1.1095362338874104,0.04555555555555556,-0.7588888888888888,0.01888888888888889,0.04707505743713141,0.06550043598493649,0.9167134639382444
1592314538.9467618,-4.381714746398401,9.06867152721792,0.9358049703810158,-0.004597154552287923,-0.750530103870915,0.024208115718508654,0.00793065217570612,0.11578440936649781,0.6626497043362816
1592314538.9567618,-4.328102728341509,9.287127336117079,0.6960161349170957,-0.027777777777777776,-0.7466666666666667,0.02666666666666667,-0.002143232410657589,0.15856660657422528,0.5454005767871205
1592314538.9667618,-3.988171667486473,8.884890801770782,1.0995073782587308,-0.027777777777777776,-0.7466666666666667,0.02666666666666667,-0.03077760541420737,0.2083043594260143,0.3325892618992759
1592314538.9767618,-3.797473445168852,9.226702073108196,0.9557033672746807,-0.027777777777777776,-0.7466666666666667,0.02666666666666667,-0.024820109387489256,0.22776250011670407,0.13315228756658185
1592314538.9867618,-3.539863852242744,9.259712576956904,0.8752344766930519,-0.027777777777777776,-0.7466666666666667,0.02666666666666667,-0.019366784322118785,0.23835230152632048,0.0206498776277571
1592314538.9967618,-3.7250165380374862,8.966699246103877,1.2908090229148663,-0.04007552204906119,-0.7507659147570944,0.02666666666666667,-0.013605366537883924,0.29406895061276017,-0.21432183855730624
1592314539.0067618,-3.9327838380656086,9.092673965266018,1.1728204623321388,-0.04777777777777778,-0.7533333333333333,0.02666666666666667,-0.008438956985353494,0.33157660208933687,-0.30447766425732314
1592314539.0167618,-3.956117043065076,8.675142685491139,1.1223897430295748,-0.04777777777777778,-0.7533333333333333,0.02666666666666667,-0.01800012287233652,0.38218886946832203,-0.4807504157984056
1592314539.0267618,-4.331342229199373,8.523414680557536,1.290244041672613,-0.04777777777777778,-0.7533333333333333,0.02666666666666667,0.0019289713744517142,0.3897591419923854,-0.6019127301340945
1592314539.0367618,-4.499610727102374,8.713799741898987,1.2007136669789809,-0.04777777777777778,-0.7533333333333333,0.02666666666666667,0.01957833663699996,0.3829099133802242,-0.6993963949693949
1592314539.0467618,-4.341977930805609,8.598123288807766,1.212986808263503,-0.039702886326133655,-0.7452584418816892,0.04716446804391715,0.028971408509884302,0.37790847336129374,-0.8106996815704677
1592314539.0567617,-4.348305960509319,8.481842406348035,1.1287222734821922,-0.03333333333333333,-0.7388888888888889,0.06333333333333334,0.03236995558379675,0.37580660382355574,-0.8835015940123273
1592314539.0667617,-4.842958980485862,8.715280764635603,0.5601619540687641,-0.03333333333333333,-0.7388888888888889,0.06333333333333334,0.04722849834722609,0.38125831870487076,-0.9927078529612126
1592314539.0767617,-5.040509005104497,8.235016854473658,0.9738779736107098,-0.03333333333333333,-0.7388888888888889,0.06333333333333334,0.0573566557801617,0.38724492778624187,-1.0587699914294937
1592314539.0867617,-5.0817793726412175,8.002388789209924,1.1906316896615727,-0.03333333333333333,-0.7388888888888889,0.06333333333333334,0.06216716370653873,0.3831625629280826,-1.0881357292490743
1592314539.0967617,-5.092608130684982,7.971160943010952,0.8960909597178393,-0.02780145618051688,-0.7333570117360725,0.06584782294824991,0.10454662344729398,0.3152396879918154,-1.2208207555173518
1592314539.1067617,-5.628700114025086,7.916949828962372,1.199328880925232,-0.021111111111111112,-0.7266666666666667,0.06888888888888889,0.1295836427201383,0.28505439328200066,-1.2877132116854022
1592314539.1167617,-5.410939448803058,7.9931080265540135,0.7442405954536311,-0.021111111111111112,-0.7266666666666667,0.06888888888888889,0.17124989978464125,0.2013909301869347,-1.3935482840593887
1592314539.1267617,-5.669182284827504,7.963304285543751,0.7929389996418765,-0.021111111111111112,-0.7266666666666667,0.06888888888888889,0.16344439655520432,0.18176845252776236,-1.430439597491382
1592314539.1367617,-6.092277324865762,7.924154342900976,0.8510385857252439,-0.021111111111111112,-0.7266666666666667,0.06888888888888889,0.1490327391871325,0.1785490941620581,-1.4235835394382896
1592314539.1467617,-6.315747781006991,7.791068258581415,0.7517092137302647,0.004442131629705269,-0.7326472128400493,0.08356841131446426,0.1373980670207825,0.17399916270162746,-1.390718295136
1592314539.1567616,-6.276508393285372,7.71905035971223,0.6743645083932854,0.03111111111111111,-0.7388888888888889,0.09888888888888889,0.1381980581277884,0.17039509274918618,-1.3621368782806142
1592314539.1667616,-6.4906990312944925,7.638684570503336,0.4746349906479439,0.03111111111111111,-0.7388888888888889,0.09888888888888889,0.12210017535623538,0.11351589346097078,-1.233431365465964
1592314539.1767616,-6.453533255881498,7.741680946848678,0.3088508084035241,0.03111111111111111,-0.7388888888888889,0.09888888888888889,0.12441271470438166,0.05033161242349184,-1.130929533021709
1592314539.1867616,-6.340817159636181,7.7045914201819095,0.37199598940055867,0.03111111111111111,-0.7388888888888889,0.09888888888888889,0.12489391382113904,0.017325795861844448,-1.089060828889907
1592314539.1967616,-6.689768160259611,7.366512106839741,0.69558131552671,0.055348713041548786,-0.7290784309646641,0.09888888888888889,0.10738342038881307,-0.07693301252205542,-0.983523605896734
1592314539.2067616,-6.576852760499169,7.246294479001661,0.722639570374377,0.07777777777777778,-0.72,0.09888888888888889,0.10504460632205063,-0.11054119992846229,-0.9594715008488178
1592314539.2167616,-6.813081517919887,7.018706957132818,0.8,0.07777777777777778,-0.72,0.09888888888888889,0.08061339136901602,-0.157204200495481,-0.9485291089350032
1592314539.2267616,-7.06582264829239,6.6811120431396045,0.8059053325344518,0.07777777777777778,-0.72,0.09888888888888889,0.07615162240371005,-0.14563943864074702,-0.9259268408717427
1592314539.2367616,-7.161974355013132,6.456490035532211,0.8118646686235131,0.07777777777777778,-0.72,0.09888888888888889,0.0859343109952619,-0.1306843251771847,-0.9150155876501799
1592314539.2467616,-7.313805323925593,6.0980885182809486,0.807115137908916,0.08825564820754045,-0.7095221295702373,0.10994886323141614,0.21568135033101632,-0.10612142719473099,-0.9000396507145421
1592314539.2567616,-7.295172808784611,6.071638819765375,0.6551728087846111,0.09777777777777778,-0.7,0.12,0.2673666447966755,-0.10130619629581486,-0.906490117891591
1592314539.2667615,-7.366637647615791,6.186637647615791,0.5905549564714236,0.09777777777777778,-0.7,0.12,0.2987250182478208,-0.09179240188591044,-0.9639086430542533
1592314539.2767615,-7.599042708109527,6.0323311609253025,0.5511824106567357,0.09777777777777778,-0.7,0.12,0.3114862364652145,-0.0870957118670461,-1.0222619808413669
1592314539.2867615,-7.8289780709435135,5.871416924483879,0.5714169244838792,0.09777777777777778,-0.7,0.12,0.31981106907292495,-0.10465136726954004,-1.0654414429223944
1592314539.2967615,-8.047623380726698,5.854557977883096,0.6639494470774092,0.11297103738809901,-0.6934162541688608,0.14380277338950326,0.31611800453846867,-0.13858059015630758,-1.0954170280119453
1592314539.3067615,-8.175926030377502,5.854766528342935,0.7780194190403288,0.13111111111111112,-0.6855555555555556,0.17222222222222222,0.303605792864496,-0.16045399625512563,-1.102905467541011
1592314539.3167615,-8.167106633699825,5.763316849913199,0.49144668315008677,0.13111111111111112,-0.6855555555555556,0.17222222222222222,0.2817553533732373,-0.16471005397033986,-1.0263331816408736
1592314539.3267615,-8.35,5.72,0.4,0.13111111111111112,-0.6855555555555556,0.17222222222222222,0.27598018797160334,-0.15053464798451094,-0.9806568734643138
1592314539.3367615,-8.634148663493226,5.83438850238008,0.3067337971439033,0.13111111111111112,-0.6855555555555556,0.17222222222222222,0.26862636683043084,-0.1219653464287286,-0.8273326384475969
1592314539.3467615,-8.672509402690126,5.781442914515204,0.2588331102186524,0.14441377502957156,-0.6748110962367991,0.17631534958174852,0.2687604486072835,-0.12240161656814683,-0.7021993863251306
1592314539.3567615,-8.572058621108457,5.826568964819238,0.0717841382939962,0.16,-0.6622222222222223,0.1811111111111111,0.27001702974354463,-0.13526504845403708,-0.6377896498871779
1592314539.3667614,-8.901295346377578,5.6171887890005285,0.334809360126917,0.16,-0.6622222222222223,0.1811111111111111,0.2298882033212566,-0.2300295036915223,-0.47974207108578115
1592314539.3767614,-8.902994587376904,5.509921075848256,0.5521016237869286,0.16,-0.6622222222222223,0.1811111111111111,0.22862457042967452,-0.2667740485078042,-0.36363250799897273
1592314539.3867614,-8.975661149563647,5.165310261811616,0.7842040325007523,0.16,-0.6622222222222223,0.1811111111111111,0.24028241414087328,-0.2959677663197227,-0.26522728167911963
1592314539.3967614,-9.389586693548388,5.026125882056452,0.9665083165322581,0.16773185483870967,-0.6506244399641578,0.19657482078853047,0.2681122135738111,-0.32763348594002406,-0.14392437288861412
1592314539.4067614,-9.48,5.19,0.91,0.17777777777777778,-0.6355555555555555,0.21666666666666667,0.28907015736156083,-0.34797501961636945,-0.06872233929727672
1592314539.4167614,-9.071976005273566,4.980598813447594,1.0750897824653922,0.17777777777777778,-0.6355555555555555,0.21666666666666667,0.2881230257376498,-0.37109148562154126,0.11954070110345823
1592314539.4267614,-8.83640235895232,5.113432657641525,0.9842575746723013,0.17777777777777778,-0.6355555555555555,0.21666666666666667,0.27546176792706045,-0.34180796977526473,0.23581043491155468
1592314539.4367614,-8.75,5.168693782870398,1.0547837302777612,0.17777777777777778,-0.6355555555555555,0.21666666666666667,0.27154562174893787,-0.28878424700768673,0.3376616548746094
1592314539.4467614,-8.836432633849775,5.03179904556449,1.1723167941426424,0.17594851568571906,-0.6268665606182766,0.22032519085078411,0.2867520795524079,-0.21869171202436138,0.4561366999095114
1592314539.4567614,-8.96,4.92,1.29,0.17333333333333334,-0.6144444444444445,0.22555555555555556,0.31306843457648287,-0.17889624832941878,0.5312345910757741
1592314539.4667614,-9.065910041343916,4.952221879009647,1.060614693722378,0.17333333333333334,-0.6144444444444445,0.22555555555555556,0.3517813156032048,-0.1648263300199958,0.6996169941967472
1592314539.4767613,-8.9270081556732,5.162859731959746,1.018428959793962,0.17333333333333334,-0.6144444444444445,0.22555555555555556,0.3662071945536712,-0.16470004843780528,0.8219395118678496
1592314539.4867613,-8.623938536016079,5.158912926022778,0.9510358539906205,0.17333333333333334,-0.6144444444444445,0.22555555555555556,0.37655702101129906,-0.1441619481193064,0.9285431642395281
1592314539.4967613,-8.603462999544142,5.434041938915058,0.8311776325786354,0.17213240135744315,-0.6144444444444445,0.22875804082459608,0.3645944009272655,-0.10527387262549258,1.030905866657772
1592314539.5067613,-8.29,5.53,0.78,0.17,-0.6144444444444445,0.23444444444444446,0.3534291735288517,-0.07526732399225547,1.0930124440614488
1592314539.5167613,-8.393268915316792,5.68935026655731,0.9210049723190485,0.17,-0.6144444444444445,0.23444444444444446,0.3553295441234044,-0.029770263922550395,1.2449125876225726
1592314539.5267613,-8.069736008196136,5.752975387767744,0.6819015510709776,0.17,-0.6144444444444445,0.23444444444444446,0.3579403803678844,-8.63911157946741e-05,1.3593576835123127
1592314539.5367613,-7.947874826940305,5.913311344572033,0.5821911393435948,0.17,-0.6144444444444445,0.23444444444444446,0.37265618763877173,0.019485796589715786,1.4481057141957019
1592314539.5467613,-7.583517248074559,6.15128600090609,0.11921299592259402,0.15957133303130328,-0.617486138976981,0.23705161118661863,0.4030290042291704,0.005648866960060121,1.508369827034911
1592314539.5567613,-7.48,6.2,-0.1,0.14333333333333334,-0.6222222222222222,0.2411111111111111,0.42760566673861067,-0.007635815477475192,1.5402530648849957
1592314539.5667613,-7.329063147395074,6.58691603365815,-0.3860832757871045,0.14333333333333334,-0.6222222222222222,0.2411111111111111,0.38014779004345145,-0.09003434213452487,1.536294280140805
1592314539.5767612,-7.0201124400200525,6.89431951108883,-0.32136097782233997,0.14333333333333334,-0.6222222222222222,0.2411111111111111,0.31642678404851304,-0.15145248850970536,1.520394783320514
1592314539.5867612,-6.85622109641428,6.8876051173884765,-0.11457253247649272,0.14333333333333334,-0.6222222222222222,0.2411111111111111,0.2545402421321769,-0.1881453769240136,1.5010815764058623
1592314539.5967612,-6.5817956012358145,6.858204398764186,0.11316509130953474,0.13096768053728686,-0.6162064992403617,0.24177952477576228,0.20395962965792822,-0.20834010390052007,1.4811266062511665
1592314539.6067612,-6.4,7.04,0.26,0.10222222222222223,-0.6022222222222222,0.24333333333333335,0.1810779098944117,-0.20071286397934787,1.4780757102826978
1592314539.6167612,-5.684082858165992,7.383529184915847,0.3270244883342974,0.10222222222222223,-0.6022222222222222,0.24333333333333335,0.14905884284768164,-0.09778610017231645,1.4027820943328992
1592314539.6267612,-5.75974057107593,7.4513773705822315,0.1656886852911158,0.10222222222222223,-0.6022222222222222,0.24333333333333335,0.12751400432958707,-0.030138320336279334,1.2774827493997334
1592314539.6367612,-5.490199051753456,7.1705963550523135,0.038808090103426895,0.10222222222222223,-0.6022222222222222,0.24333333333333335,0.11637936072564316,-0.00946349768537776,1.1547130689285272
1592314539.6467612,-5.699966664529777,7.533462080902622,0.18581736008718502,0.09466703706078025,-0.6082034104750305,0.24522212962369383,0.12679056462139826,0.005780584971697195,1.1196632883153896
1592314539.6567612,-7.42,9.49,1.01,0.07555555555555556,-0.6233333333333333,0.25,0.14398966328953217,0.04799655442984406,1.2119129993535627
1592314539.6667612,-5.309274897559238,7.749809371102796,0.1520345626224836,0.07555555555555556,-0.6233333333333333,0.25,0.2831212136446538,0.16205843079400536,1.4557716897507982
1592314539.6767612,-5.761290027887297,7.245023079142225,0.9090782767573805,0.07555555555555556,-0.6233333333333333,0.25,0.3620100644880946,0.12980382802932366,1.5996556140950458
1592314539.6867611,-5.191941348274423,7.601941348274424,0.5426589974369673,0.07555555555555556,-0.6233333333333333,0.25,0.450189251447986,0.10690141668465267,1.702612469396819
1592314539.6967611,-5.631277120916626,8.134795831301805,0.22193746952705998,0.07235833468768622,-0.6281291646351373,0.25053287014464487,0.495237175253391,0.10428569647881875,1.772939310616862
1592314539.7067611,-5.35,8.15,0.45,0.06222222222222222,-0.6433333333333333,0.25222222222222224,0.495237175253391,0.09599310885968812,1.8085974373791238
1592314539.716761,-5.368491767102359,8.49737820404006,0.43276099134272616,0.06222222222222222,-0.6433333333333333,0.25222222222222224,0.4358438370854563,0.07822345504422705,1.8755658555812036
1592314539.726761,-4.7225947576843295,8.274620026400152,0.26927211012634356,0.06222222222222222,-0.6433333333333333,0.25222222222222224,0.40412863508334285,0.10538427121297578,1.94024104784006
1592314539.736761,-4.490096053125679,7.998957250429868,0.1858861197304188,0.06222222222222222,-0.6433333333333333,0.25222222222222224,0.38903994667966746,0.13122771710956116,1.9642652012465471
1592314539.746761,-4.803224533715925,8.520337159253945,0.13898852223816355,0.047534273872150486,-0.640395743663319,0.24792882193527818,0.36779621310319527,0.15728308748827666,1.9488537049274146
1592314539.756761,-4.62,8.6,-0.1,-0.01,-0.6288888888888889,0.2311111111111111,0.30870511144649704,0.1538071403320003,1.8915005768488544
1592314539.766761,-4.098671673316123,8.567642702547655,-0.24541630811755194,-0.01,-0.6288888888888889,0.2311111111111111,0.20466291217546606,0.12384551830424737,1.7272034952503126
1592314539.776761,-4.319395465994963,9.08758186397985,-0.513744752308984,-0.01,-0.6288888888888889,0.2311111111111111,0.09971347379545689,0.11265873179697235,1.5831444213453727
1592314539.786761,-4.070627981062006,8.785167643486984,-0.03899413907809282,-0.01,-0.6288888888888889,0.2311111111111111,0.005620187047055195,0.10389248849898304,1.4448997058067876
1592314539.796761,-3.5760258373374163,8.829460372775754,0.22676223665452244,-0.01,-0.6288888888888889,0.2311111111111111,-0.022564071939845026,0.10147669487153445,1.325720553519324
1592314539.806761,-4.14,9.49,0.02,-0.06888888888888889,-0.6222222222222222,0.2588888888888889,-0.07526732399225547,0.13744467859455345,1.213003830136059
1592314539.816761,-3.3066848203939743,8.66806865585168,0.023835457705677868,-0.06888888888888889,-0.6222222222222222,0.2588888888888889,-0.08976191181448313,0.15344253993893994,1.1101578897249877
1592314539.826761,-3.1432700452058056,9.096570068998334,-0.32997002141327625,-0.06888888888888889,-0.6222222222222222,0.2588888888888889,-0.06399467920500955,0.17997290843365582,1.061016194511118
1592314539.836761,-3.151378515695881,9.191569406641262,-0.36980910905461806,-0.06888888888888889,-0.6222222222222222,0.2588888888888889,-0.06324736241286219,0.21357958023202034,1.052874958246365
1592314539.846761,-2.815446533897717,8.925229338699605,-0.31334674901117204,-0.06940377335214612,-0.6220219893754,0.2594323780445493,-0.05683553105420574,0.229860776874986,1.0365656790123017
1592314539.856761,-3.2552594307503746,9.678621816696173,-0.49978414816832356,-0.08888888888888889,-0.6144444444444445,0.28,-0.07206999988335294,0.25755832447224064,0.9892707673664052
1592314539.866761,-3.0409856733524356,9.312934097421204,-0.5682865329512894,-0.08888888888888889,-0.6144444444444445,0.28,-0.09293315660735565,0.24603485135881314,0.9429822662439721
1592314539.876761,-3.1742233409167917,9.41996030785614,-0.30995038482017523,-0.08888888888888889,-0.6144444444444445,0.28,-0.09693398275064628,0.21956447811202476,0.9081905224387601
1592314539.886761,-2.86,9.147777717282809,-0.021631912306491717,-0.08888888888888889,-0.6144444444444445,0.28,-0.12702876007690186,0.19163775211197343,0.8869514783374892
1592314539.896761,-2.86,8.904193027349777,0.10777245422043155,-0.08888888888888889,-0.6144444444444445,0.28,-0.12868944556392564,0.1683881552936404,0.8836301073634416
1592314539.906761,-3.12,9.3,-0.01,-0.14222222222222222,-0.5933333333333334,0.25222222222222224,-0.148352986419518,0.1407171709420428,0.8792096106921435
1592314539.916761,-3.122510242085661,9.257116172468127,-0.13720956882968055,-0.14222222222222222,-0.5933333333333334,0.25222222222222224,-0.10347163594500447,0.11403480309780484,0.8990222290944695
1592314539.926761,-2.831819914805488,9.262726695064838,-0.16863665246758136,-0.14222222222222222,-0.5933333333333334,0.25222222222222224,-0.10222820632265268,0.09008034956963137,0.9124055904855053
1592314539.936761,-2.622752936106023,9.351039219911648,-0.20000915849585174,-0.14222222222222222,-0.5933333333333334,0.25222222222222224,-0.10347877496482852,0.08978720904861223,0.9094893619227686
1592314539.946761,-2.487175950867363,9.464020040943865,-0.41843874582480334,-0.14222222222222222,-0.5933333333333334,0.25222222222222224,-0.11087335240964839,0.1029331245060698,0.904559643626222
1592314539.956761,-2.47,9.42,-0.12,-0.16333333333333333,-0.5933333333333334,0.27555555555555555,-0.148352986419518,0.13199052468207118,0.8879362569521151
1592314539.9667609,-2.596875644635241,9.619482898001282,-0.4141253867811446,-0.16333333333333333,-0.5933333333333334,0.27555555555555555,-0.1774742122146961,0.16075533680675497,0.8822288945562095
1592314539.9767609,-2.403530868948267,9.411374491931022,-0.25270617378965343,-0.16333333333333333,-0.5933333333333334,0.27555555555555555,-0.21084552996385195,0.15179073389817804,0.8682613205176148
1592314539.9867609,-2.667147928994083,9.756473372781064,-0.2586508875739645,-0.16333333333333333,-0.5933333333333334,0.27555555555555555,-0.226802438079056,0.10584414992623303,0.8522835178385209
1592314539.9967608,-2.385626424092555,9.356416497394683,-0.021580146604256834,-0.16333333333333333,-0.5933333333333334,0.27555555555555555,-0.2348838150127748,0.0638209898708954,0.8409695901313146
1592314540.0067608,-2.3224129245643046,9.525413051774583,-0.02608701183055591,-0.18222222222222223,-0.5866666666666667,0.24444444444444444,-0.21875662884958746,-0.007963078588712903,0.7913123506657544
1592314540.0167608,-1.9510062954467815,9.55,-0.18525157386169538,-0.18222222222222223,-0.5866666666666667,0.24444444444444444,-0.21884878414674383,-0.062036708712524154,0.7465124495449483
1592314540.0267608,-1.9256595906892524,9.613677840516523,-0.1419817501727301,-0.18222222222222223,-0.5866666666666667,0.24444444444444444,-0.21442019894332207,-0.10029476040444382,0.7243321967727234
1592314540.0367608,-1.9347376510115089,9.761895060404605,-0.02951604832368289,-0.18222222222222223,-0.5866666666666667,0.24444444444444444,-0.23016640628972812,-0.08991546433106845,0.7246745090498283
1592314540.0467608,-1.5599521052255345,9.611980842090214,0.09041532632782903,-0.18222222222222223,-0.5866666666666667,0.24444444444444444,-0.24733716591720734,-0.08746249866999999,0.7132273359648421
1592314540.0567608,-1.67,9.65,0.33,-0.24333333333333335,-0.5733333333333334,0.2311111111111111,-0.26289021858164585,-0.0839939702522271,0.6883142237552637
1592314540.0667608,-1.727764037433155,9.634869652406417,0.19355280748663103,-0.24333333333333335,-0.5733333333333334,0.2311111111111111,-0.23970295509522097,-0.04433651090528459,0.6911537744068258
1592314540.0767608,-1.4924097118263473,9.31092954715569,0.17240971182634732,-0.24333333333333335,-0.5733333333333334,0.2311111111111111,-0.20738830848418124,-0.052703466802838335,0.6832947232479981
1592314540.0867608,-1.6167942881142379,9.518168836623268,0.27236623267534654,-0.24333333333333335,-0.5733333333333334,0.2311111111111111,-0.16399090928006332,-0.060087266013703816,0.7055511643521805
1592314540.0967607,-1.6943034019319614,9.69432591348173,0.23713481730365393,-0.24333333333333335,-0.5733333333333334,0.2311111111111111,-0.14554378332885004,-0.05547548452590049,0.7347591137749349
1592314540.1067607,-1.6301640819351082,9.820065632774043,0.348273169957127,-0.24333333333333335,-0.5866666666666667,0.2311111111111111,-0.1508899055828119,-0.05872007403063142,0.7399635861184916
1592314540.1167607,-1.38,9.72,0.44,-0.24333333333333335,-0.5866666666666667,0.2311111111111111,-0.1636246173744684,-0.06326818538479445,0.7144941625351786
1592314540.1267607,-1.344753473721645,9.795901389488657,0.34622882109380954,-0.24333333333333335,-0.5866666666666667,0.2311111111111111,-0.165734844444649,-0.05116189503511498,0.673060659243532
1592314540.1367607,-1.4134555011391565,9.810447410437185,0.4249595464901423,-0.24333333333333335,-0.5866666666666667,0.2311111111111111,-0.15058345289224007,-0.030649697312121645,0.6413908489343909
1592314540.1467607,-1.3306876199702204,9.712630823601168,0.3497160181547459,-0.24333333333333335,-0.5866666666666667,0.2311111111111111,-0.1399133184962938,-0.025725019898607957,0.6085596661776331
1592314540.1567607,-1.28,9.82,0.28,-0.25,-0.5811111111111111,0.2311111111111111,-0.1265363707695889,-0.017453292519943295,0.5748678223756323
1592314540.1667607,-1.1039937238493724,9.78900941422594,0.23998953974895398,-0.25,-0.5811111111111111,0.2311111111111111,-0.11628210499956886,0.0036012249295366786,0.5532661779803291
1592314540.1767607,-1.0247281879194632,9.884441035474591,0.13555896452540747,-0.25,-0.5811111111111111,0.2311111111111111,-0.11215866152179985,0.018331552490797945,0.5210546193552491
1592314540.1867607,-0.9072326909350464,9.940314418272662,0.08106923625981442,-0.25,-0.5811111111111111,0.2311111111111111,-0.11217033958845836,0.026365169788591537,0.4952234328099141
1592314540.1967607,-0.8922637401855817,9.887923090649537,0.1409450392576731,-0.25,-0.5811111111111111,0.2311111111111111,-0.11706891726621521,0.021466592110834702,0.4715469740340894
1592314540.2067606,-0.86,9.93,0.12,-0.27555555555555555,-0.5666666666666667,0.24444444444444444,-0.1287180323345818,-0.0032724923474893677,0.43305982065109305
1592314540.2167606,-0.83,9.8,0.16,-0.27555555555555555,-0.5666666666666667,0.24444444444444444,-0.13308135546456762,-0.031634092692397225,0.39924406639370286
1592314540.2267606,-0.831752546434991,9.79175254643499,0.19385560215698022,-0.27555555555555555,-0.5666666666666667,0.24444444444444444,-0.14184623635652013,-0.061889451091399435,0.3824227890724858
1592314540.2367606,-0.8762061213902819,9.83873537379676,0.31011700962591504,-0.27555555555555555,-0.5666666666666667,0.24444444444444444,-0.14303678182612023,-0.08495961548581869,0.3686190660540802
1592314540.2467606,-0.8278540549887601,9.822618018329587,0.43905585336330627,-0.27555555555555555,-0.5666666666666667,0.24444444444444444,-0.14479491257372332,-0.09726653071904029,0.353674954699454
1592314540.2567606,-0.65,9.79,0.48,-0.2822222222222222,-0.5666666666666667,0.2311111111111111,-0.1341721862470641,-0.11017390903214205,0.32506757318394386
1592314540.2667606,-0.5699736547085201,9.770368834080717,0.45965751121076237,-0.2822222222222222,-0.5666666666666667,0.2311111111111111,-0.11778098625469721,-0.10797213068870513,0.3065004592775681
1592314540.2767606,-0.02942332245708612,10.111408710455384,0.28190239750319196,-0.2822222222222222,-0.5666666666666667,0.2311111111111111,-0.10313039811134228,-0.1033076639166125,0.29468161436531953
1592314540.2867606,2.2539964466554143,11.072866483077197,0.039877942613484936,-0.2822222222222222,-0.5666666666666667,0.2311111111111111,-0.08705027325302113,-0.11172704198192412,0.24797121561083912
1592314540.2967606,-2.7462261703828736,9.835851647863551,0.24853104734831657,-0.2822222222222222,-0.5666666666666667,0.2311111111111111,-0.12362968513826939,-0.0540128587851991,0.04475226069279323
1592314540.3067605,0.52,9.45,1.25,-0.3088888888888889,-0.5422222222222223,0.24444444444444444,-0.13962634015954636,0.09817477042468103,-0.011999138607461015
1592314540.3167605,-0.6502602952602952,9.955552447552448,0.5103954933954934,-0.3088888888888889,-0.5422222222222223,0.24444444444444444,-0.08856410201541351,-0.05807567829636551,0.020680693804784014
1592314540.3267605,-0.6600874571824211,9.871853363457474,0.39947525690547336,-0.3088888888888889,-0.5422222222222223,0.24444444444444444,-0.05647150108647895,-0.010580287432239512,0.0004634102930669661
1592314540.3367605,-0.6,9.58,0.76,-0.3088888888888889,-0.5422222222222223,0.24444444444444444,-0.015271630954950384,-0.02181661564992912,0.0032724923474893677
1592314540.3467605,-0.6148477306412372,9.713629575771135,0.6412181548701026,-0.3088888888888889,-0.5422222222222223,0.24444444444444444,-0.014461812873266516,-0.01209879866972271,0.008131400837592572
1592314540.3567605,-0.6118614401246306,9.620744576049852,0.836649407775665,-0.29444444444444445,-0.56,0.20777777777777778,0.010954566107591903,0.01915327815875607,0.010989528472473403
1592314540.3667605,-0.6599072143691723,9.63996288574767,0.7501670141354899,-0.29444444444444445,-0.56,0.20777777777777778,0.04030405943589194,0.034876221013202514,0.013085920853066261
1592314540.3767605,-0.66,9.719604468742572,0.5708899453292131,-0.29444444444444445,-0.56,0.20777777777777778,0.07726561604705548,0.05878621139527204,0.012004531828349041
1592314540.3867605,-0.6106958227010679,9.72,0.5305566581608544,-0.29444444444444445,-0.56,0.20777777777777778,0.10864284385318444,0.06966136511547623,0.0152260894656613
1592314540.3967605,-0.7559467090171167,9.776757053506655,0.4164858929866871,-0.29444444444444445,-0.56,0.20777777777777778,0.12588785654519313,0.0813111762819899,0.011733782892729852
1592314540.4067605,-0.7,9.8,0.32,-0.29444444444444445,-0.5422222222222223,0.2311111111111111,0.13962634015954636,0.07963064712224129,0.009817477042468103
1592314540.4167604,-0.6909550751245831,9.82713477462625,0.22955075124583163,-0.29444444444444445,-0.5422222222222223,0.2311111111111111,0.13962634015954636,0.06285762690713785,0.004884235802731799
1592314540.4267604,-0.7666318488272719,9.867473886620454,0.046631848827271866,-0.29444444444444445,-0.5422222222222223,0.2311111111111111,0.12279322393838778,0.0462513650146702,0.00663683676946157
1592314540.4367604,-0.7269214728639631,9.84246282170883,0.013078527136036876,-0.29444444444444445,-0.5422222222222223,0.2311111111111111,0.10440016199296556,0.025188715220272797,0.007568652434180399
1592314540.4467604,-0.6885606102178566,9.873151511825716,0.05143938978214344,-0.29444444444444445,-0.5422222222222223,0.2311111111111111,0.08682517386961913,-0.0007553148665719288,0.006731748237830568
1592314540.4567604,-0.6616420012770913,9.861642001277092,0.06611933290763626,-0.29580429620169696,-0.549701406887111,0.2311111111111111,0.06688276338014705,-0.01655771975096849,0.006544984694978735
1592314540.4667604,-0.703160129902573,9.876580064951288,-0.027460238154717292,-0.2966666666666667,-0.5544444444444444,0.2311111111111111,0.033527718250120894,-0.022907446432425576,0.003645549390016884
1592314540.4767604,-0.7004317371991995,9.8895682628008,-0.08784131400400252,-0.2966666666666667,-0.5544444444444444,0.2311111111111111,0.005493608474391291,-0.020819975312799787,0.004316227907302263
1592314540.4867604,-0.7194110115236876,9.899705505761844,-0.02206145966709347,-0.2966666666666667,-0.5544444444444444,0.2311111111111111,-0.02845657664863354,-0.021784491311904255,0.005422029574457416
1592314540.4967604,-0.7050707529877557,9.877606129481633,0.017323117530610752,-0.2966666666666667,-0.5544444444444444,0.2311111111111111,-0.0538803544280783,-0.028330728530108852,0.004639889802459813
1592314540.5067604,-0.7478013195483608,9.850879472180655,0.15428343082573798,-0.2966666666666667,-0.5353239166251001,0.23748462038422588,-0.09346324508667889,-0.04410048111979916,0.004363323129985824
1592314540.5167603,-0.6649126683256972,9.85,0.21672488778286858,-0.2966666666666667,-0.5344444444444445,0.23777777777777778,-0.12068446713019591,-0.056068225265676556,-0.0007931146806150237
1592314540.5267603,-0.6208434996469184,9.828945625441351,0.21295224876421456,-0.2966666666666667,-0.5344444444444445,0.23777777777777778,-0.14319787000549788,-0.07517531245426712,-0.004455334667974178
1592314540.5367603,-0.66,9.77907273017619,0.3555636189428485,-0.2966666666666667,-0.5344444444444445,0.23777777777777778,-0.15704591619723998,-0.07110629975576763,-0.008760362742221311
1592314540.5467603,-0.66,9.756746393654963,0.48952163807022836,-0.2966666666666667,-0.5344444444444445,0.23777777777777778,-0.1562341076926489,-0.07597715078331412,-0.009572171246812394
1592314540.5567603,-0.6493554368535657,9.747421747414263,0.5225782525857376,-0.30333333333333334,-0.56,0.22333333333333333,-0.15106299130989265,-0.0824812738768946,-0.00844540253141428
1592314540.5667603,-0.6422203320631464,9.718881328252586,0.5511186717474144,-0.30333333333333334,-0.56,0.22333333333333333,-0.14483643775651092,-0.07781135871185832,-0.005332125754723422
1592314540.5767603,-0.67994546817841,9.740013632955398,0.4801226965985776,-0.30333333333333334,-0.56,0.22333333333333333,-0.1308907711511323,-0.06433819642092528,-0.00217868731551211
1592314540.5867603,-0.6418249982958806,9.74954375042603,0.5658937538342687,-0.30333333333333334,-0.56,0.22333333333333333,-0.1246533238524685,-0.04978415272404305,-9.953821595750506e-05
1592314540.5967603,-0.6540556806982966,9.75,0.6121670420948895,-0.30333333333333334,-0.56,0.22333333333333333,-0.11438866924107796,-0.041421200625018965,-0.0030664738349286194
1592314540.6067603,-0.631694659938239,9.712259546584319,0.7337862468931234,-0.29180152812298626,-0.5432264651485862,0.2306717548308269,-0.09885258574106243,-0.02994538772113623,-0.004363323129985824
1592314540.6167603,-0.67,9.68,0.79,-0.2911111111111111,-0.5422222222222223,0.2311111111111111,-0.08290313946973066,-0.011999138607461015,-0.004363323129985824
1592314540.6267602,-0.6625788497217069,9.672578849721706,0.7603153988868274,-0.2911111111111111,-0.5422222222222223,0.2311111111111111,-0.05861748197444777,-0.007951529024913868,-0.0027442792969669654
1592314540.6367602,-0.642140515458718,9.678929742270642,0.758929742270641,-0.2911111111111111,-0.5422222222222223,0.2311111111111111,-0.02290387029882683,-0.0016745658206912106,-0.00023349401527790188
1592314540.6467602,-0.673948382681363,9.68,0.7871587061450904,-0.2911111111111111,-0.5422222222222223,0.2311111111111111,0.003324849238840008,0.002612363301983579,0.000740638816896007
1592314540.6567602,-0.7096121162837975,9.689806058141897,0.8,-0.28457373901651195,-0.5596552144744867,0.2234841770007454,0.04413170038562679,0.007572348152825774,-0.0021181942403434946
1592314540.6667602,-0.6899114946343622,9.703392336910426,0.7799114946343623,-0.28444444444444444,-0.56,0.22333333333333333,0.06371546743924657,0.009827131480193485,-0.002912100232565676
1592314540.6767602,-0.6360564881428191,9.71,0.6469581667998934,-0.28444444444444444,-0.56,0.22333333333333333,0.09992922626515668,0.008032211699475902,-0.004231191055985587
1592314540.6867602,-0.6834115686741251,9.727803856224709,0.5587845751011664,-0.28444444444444444,-0.56,0.22333333333333333,0.12596306791677434,0.012491064081738458,-0.0014501739674278639
1592314540.6967602,-0.6971602570250311,9.744320514050063,0.47123717272465715,-0.28444444444444444,-0.56,0.22333333333333333,0.1412150383721666,0.019338472408749866,-0.0003097679051474064
1592314540.7067602,-0.6804734494171824,9.789053101165635,0.37165707296013817,-0.30288618666155004,-0.535049407588622,0.23743584208759055,0.1578864142029665,0.02181661564992912,0.0
1592314540.7167602,-0.7060768859578574,9.822596107447321,0.2070194627633907,-0.30333333333333334,-0.5344444444444445,0.23777777777777778,0.15888160020984812,0.02181661564992912,0.0
1592314540.7267601,-0.6916126556370459,9.85892489624197,0.044300415032122356,-0.30333333333333334,-0.5344444444444445,0.23777777777777778,0.1510037504939659,0.01872003674348536,0.0
1592314540.7367601,-0.6804376268353827,9.879124746329236,0.07824949265846962,-0.30333333333333334,-0.5344444444444445,0.23777777777777778,0.12758659978080897,0.013328657801598393,0.0010430931001682716
1592314540.7467601,-0.6946477741664536,9.865352225833545,0.12394332249936094,-0.30333333333333334,-0.5344444444444445,0.23777777777777778,0.10656356707480891,0.010693232946583872,0.001090830782496456
1592314540.7567601,-0.66,9.83,0.19,-0.2966666666666667,-0.5544444444444444,0.2311111111111111,0.05017821599483697,0.00545415391248228,-0.002181661564992912
1592314540.76676,-0.6836841515355301,9.83789471717851,0.19,-0.2966666666666667,-0.5544444444444444,0.2311111111111111,0.05017821599483697,0.00545415391248228,-0.002181661564992912
1592314540.77676,-0.69,9.84,0.08475942028985507,-0.2966666666666667,-0.5544444444444444,0.2311111111111111,0.03391493027346058,0.010237473242298865,-0.002181661564992912
1592314540.78676,-0.681360684562185,9.84,0.1391145235025202,-0.2966666666666667,-0.5544444444444444,0.2311111111111111,0.006189208400380432,0.008081098459184916,-0.001239258443066364
1592314540.79676,-0.7054558261573952,9.83363604346065,0.20727560885413915,-0.2966666666666667,-0.5544444444444444,0.2311111111111111,-0.010313937879871398,0.003470615662520422,-0.001090830782496456
1592314540.80676,-0.72,9.821362456396528,0.28318771801736026,-0.3024250290689814,-0.5438874467068675,0.2493459253851077,-0.027817600812548242,-0.0036202184414148835,-0.00014862093771418822
1592314540.81676,-0.7141752164460887,9.814175216446088,0.2958247835539113,-0.30333333333333334,-0.5422222222222223,0.25222222222222224,-0.034535513688992735,-0.00944640569157425,0.0012707706403971071
1592314540.82676,-0.6758342748491278,9.818541431287718,0.29145856871228193,-0.30333333333333334,-0.5422222222222223,0.25222222222222224,-0.04470115671003079,-0.01308996938995747,0.002181661564992912
1592314540.83676,-0.653225009154156,9.811612504577079,0.37387495422922007,-0.30333333333333334,-0.5422222222222223,0.25222222222222224,-0.04581489286485115,-0.007600366472734598,0.004011529204067203
1592314540.84676,-0.65,9.785087806967447,0.41491219303255283,-0.30333333333333334,-0.5422222222222223,0.25222222222222224,-0.04649426754033621,-0.0011099872910982633,0.0009664497525605294
1592314540.85676,-0.6581116482145642,9.77,0.47055824107282085,-0.3096423930557721,-0.5566429301592253,0.2350976315470312,-0.040711818748887296,0.0057210357926845146,-0.001975674339419357
1592314540.86676,-0.6770951316729259,9.752904868327073,0.47145243416353705,-0.3111111111111111,-0.56,0.2311111111111111,-0.03274314461899224,0.019598511796739083,-0.004046451150958676
1592314540.87676,-0.68,9.741534277162812,0.4276713858140529,-0.3111111111111111,-0.56,0.2311111111111111,-0.02516982294557461,0.031051286716818564,-0.0015929218099189897
1592314540.88676,-0.6475834189791024,9.748104145255224,0.4443124357656732,-0.3111111111111111,-0.56,0.2311111111111111,-0.01427400099367853,0.04068114947409291,-0.00020680567147431952
1592314540.89676,-0.6707665575329688,9.75,0.48076655753296876,-0.3111111111111111,-0.56,0.2311111111111111,-0.006629361322915331,0.0499258442836121,0.0006712221605682105
1592314540.90676,-0.6823892710266769,9.75,0.5152214579466463,-0.31618493042665985,-0.5515436344740854,0.24125874974220862,0.006689928582116872,0.05371133738068894,0.0019210325266303093
1592314540.91676,-0.6714419797285857,9.775674060814243,0.47720989864292795,-0.31777777777777777,-0.5488888888888889,0.24444444444444444,0.017285758601898106,0.05251717314739759,0.0012481263700641612
1592314540.92676,-0.7035207396883806,9.763239630155809,0.3778179658569532,-0.31777777777777777,-0.5488888888888889,0.24444444444444444,0.02128653240524997,0.04413265025139923,0.0029191035177032693
1592314540.93676,-0.6857202007818464,9.76,0.4085595984363073,-0.31777777777777777,-0.5488888888888889,0.24444444444444444,0.024465130887928656,0.036362531628696196,0.0041553307601558806
1592314540.94676,-0.68,9.76,0.4380719661083603,-0.31777777777777777,-0.5488888888888889,0.24444444444444444,0.030346029845747042,0.03359235457780445,0.005020438361026894
1592314540.95676,-0.694999238617329,9.76,0.42000152276534186,-0.30194524812615264,-0.5488888888888889,0.23444495203289173,0.03463383581727974,0.03190684191500407,0.004636072352592674
1592314540.96676,-0.6673985669193374,9.768150358270166,0.3529474921088404,-0.2966666666666667,-0.5488888888888889,0.2311111111111111,0.03668471737778084,0.02718876184766159,0.002585190792091571
1592314540.97676,-0.667708830548926,9.785417661097851,0.30916467780429596,-0.2966666666666667,-0.5488888888888889,0.2311111111111111,0.037929149570861256,0.025339035813933184,0.0030225645309746667
1592314540.98676,-0.67,9.797721181573655,0.315442363147309,-0.2966666666666667,-0.5488888888888889,0.2311111111111111,0.04070582814871199,0.026773608504975836,0.0015879918399320182
1592314540.99676,-0.6935584998551984,9.788220750072401,0.3553377497827976,-0.2966666666666667,-0.5488888888888889,0.2311111111111111,0.04145156973486533,0.02662831114162418,0.001090830782496456
1592314541.00676,-0.6961056129451708,9.786947193527414,0.34526403236292713,-0.31133296411343075,-0.5388540537937345,0.23574257346272082,0.039935927224532534,0.02617993877991494,0.001090830782496456
1592314541.0167599,-0.7137054077010192,9.79,0.2983927897319743,-0.31777777777777777,-0.5344444444444445,0.23777777777777778,0.034098190483492344,0.024456032884454918,0.0019527837302264674
1592314541.0267599,-0.7043993391550625,9.805600660844938,0.19639603493037527,-0.31777777777777777,-0.5344444444444445,0.23777777777777778,0.027619619151810194,0.019743856945685794,0.003032545618840159
1592314541.0367599,-0.6922929906210872,9.817707009378912,0.19312102813673843,-0.31777777777777777,-0.5344444444444445,0.23777777777777778,0.01945430432270936,0.010137080230932774,0.0015910837331879727
1592314541.0467598,-0.69,9.808683212806292,0.2452671487748368,-0.31777777777777777,-0.5344444444444445,0.23777777777777778,0.011280942605013462,0.004549640520010275,-0.0007608741919824945
1592314541.0567598,-0.6963540358909976,9.8,0.3117701794549886,-0.30859972593522556,-0.5471525162264399,0.23354175385044595,0.0030793957234849364,0.0028747793592916716,-0.0007954259763953923
1592314541.0667598,-0.6847830316258986,9.777174547438849,0.3680424209352535,-0.30333333333333334,-0.5544444444444444,0.2311111111111111,-0.0022289967212525148,0.0016125785956148824,-0.0016599137518744855
