time,acc_x,acc_y,acc_z,mag_x,mag_y,mag_z,gyr_x,gyr_y,gyr_z
1592314587.2767158,-0.5632532025574627,9.738373398721269,0.6678926140660448,-0.45111111111111113,-0.5577777777777778,-0.07111111111111111,0.004034676515931675,-0.0014457001316341075,0.00017743467456882557
1592314587.2867157,-0.5855780665051751,9.722947955663217,0.7182081773471335,-0.45111111111111113,-0.5577777777777778,-0.07111111111111111,0.010104377629246698,-0.007601143985966643,0.0
1592314587.2967157,-0.5622809792989023,9.761578531051647,0.7161404896494511,-0.45111111111111113,-0.5577777777777778,-0.07111111111111111,0.016955660033247347,-0.005702970155830255,-0.0022677570781060442
1592314587.3067157,-0.5998448870164688,9.763385037661177,0.7349224435082343,-0.4612646992070584,-0.5577777777777778,-0.0526500418457523,0.022353570940317313,-0.0016447062746047193,-0.002366286729029
1592314587.3167157,-0.615124233247923,9.775372699743768,0.745124233247923,-0.4633333333333333,-0.5577777777777778,-0.04888888888888889,0.025143314977836045,0.0017040048992666313,-0.0027406287013455296
1592314587.3267157,-0.6034596115958345,9.765189417393751,0.6259470869687588,-0.4633333333333333,-0.5577777777777778,-0.04888888888888889,0.0272707695624114,-0.00014736807644196402,-0.0032724923474893677
1592314587.3367157,-0.6,9.76,0.6418169711695715,-0.4633333333333333,-0.5577777777777778,-0.04888888888888889,0.022709245624157853,-0.002915440357797873,-0.002360187559838659
1592314587.3467157,-0.5797135502351597,9.76,0.683810749608067,-0.4633333333333333,-0.5577777777777778,-0.04888888888888889,0.0232918879079995,-0.004747764605559748,-0.004394569952098483
1592314587.3567157,-0.57,9.77614936271056,0.6919253186447191,-0.4848658169474156,-0.5846933822953807,-0.05606638342691631,0.023117466116802977,-0.00545415391248228,-0.003692531716244168
1592314587.3667157,-0.57,9.76201646255772,0.6989917687211403,-0.49,-0.5911111111111111,-0.057777777777777775,0.021436171715909277,-0.003492454290460546,-0.003762917252994801
1592314587.3767157,-0.5928685205183585,9.747622840172786,0.6947543196544276,-0.49,-0.5911111111111111,-0.057777777777777775,0.019634954084936207,-0.0002593079114438794,-0.0060263688720909765
1592314587.3867157,-0.5290018330278287,9.76577737043826,0.7215547408765206,-0.49,-0.5911111111111111,-0.057777777777777775,0.02565860855425258,0.0,-0.006544984694978735
1592314587.3967156,-0.4601353134069579,9.78246617164826,0.7736316007689119,-0.49,-0.5911111111111111,-0.057777777777777775,0.03407001144931498,-0.004079545132142149,-0.009944605638430526
1592314587.4067156,-0.3433480680427833,9.781334806804278,0.8953171251529384,-0.4668928181447422,-0.5805203194274513,-0.039484592142365355,0.050467014703799606,-0.019778147958819586,-0.022396624029050256
1592314587.4167156,-0.2663575540106152,9.803142707632503,0.8926429692756224,-0.4633333333333333,-0.5788888888888889,-0.03666666666666667,0.06308890815706637,-0.028127810118891754,-0.03662066615284731
1592314587.4267156,-0.0031117397454031026,9.731638116192572,0.6550788412174551,-0.4633333333333333,-0.5788888888888889,-0.03666666666666667,0.08755281353748638,-0.03447743007228492,-0.06684497203354597
1592314587.4367156,-0.10472028757582565,10.148374148131508,0.16162585186849393,-0.4633333333333333,-0.5788888888888889,-0.03666666666666667,0.0841287345135061,-0.04147000485405827,-0.06261851762452084
1592314587.4467156,0.026386660750247454,10.162383861828857,0.19288596101989963,-0.4633333333333333,-0.5788888888888889,-0.03666666666666667,0.06674185050484853,-0.03715530419573441,-0.039538138533292036
1592314587.4567156,0.3209878987196271,10.048449822791277,0.4819757974392541,-0.4633333333333333,-0.583270857945656,-0.042801423346140614,-0.01917579439894205,-0.030312828739716646,-0.0336781770170293
1592314587.4667156,0.3236166693561401,10.10007221236082,0.4435444569953203,-0.4633333333333333,-0.5844444444444444,-0.044444444444444446,-0.05863457491149358,-0.009097532246532893,-0.06955075988306403
1592314587.4767156,0.22513661614257346,10.227148530779479,0.16398411381745973,-0.4633333333333333,-0.5844444444444444,-0.044444444444444446,-0.12457634118848154,0.03649812368551976,-0.13841412315996945
1592314587.4867156,0.1290521668186399,10.289415462878534,0.0684676296971733,-0.4633333333333333,-0.5844444444444444,-0.044444444444444446,-0.19356987765129066,0.06192230216805492,-0.19032151895983287
1592314587.4967155,0.2095561701567233,10.374667127617544,0.06711115501119452,-0.4633333333333333,-0.5844444444444444,-0.044444444444444446,-0.24015265327661423,0.08127910462438215,-0.20846993076466278
1592314587.5067155,0.9256008591246787,10.667529664448436,0.4344417450089786,-0.43707838925859416,-0.5844444444444444,-0.054946422074340105,-0.37770156994009346,0.13892312475175342,-0.2869688073055359
1592314587.5167155,0.9621142857142857,10.732476190476191,0.5075238095238095,-0.43,-0.5844444444444444,-0.057777777777777775,-0.4276846221095343,0.1923747612552369,-0.36955892469936596
1592314587.5267155,0.6940605027694929,10.752447805709416,0.38937366851299526,-0.43,-0.5844444444444444,-0.057777777777777775,-0.5045268984170671,0.3300002477023226,-0.5919425543193748
1592314587.5367155,0.5959129515991385,10.605767870931036,0.4231015564676718,-0.43,-0.5844444444444444,-0.057777777777777775,-0.5348612365959933,0.3930848865631963,-0.7369607017882361
1592314587.5467155,0.15814789165897197,10.249542359187442,0.4835947599261311,-0.43,-0.5844444444444444,-0.057777777777777775,-0.5707421637086073,0.4672487118924465,-0.9611859720697739
1592314587.5567155,-0.29752790137865637,10.012824421912612,0.4767058136990298,-0.43968617534304305,-0.5889149869104644,-0.05330723531175789,-0.6018817386470743,0.5073259897155368,-1.1400968828548674
1592314587.5667155,-0.43681586664608735,9.91209291557339,0.5111807377681741,-0.4444444444444444,-0.5911111111111111,-0.051111111111111114,-0.6254421990173613,0.5061259528467196,-1.2309216391136204
1592314587.5767155,-0.585786208542114,9.759594634004083,0.5573095787269016,-0.4444444444444444,-0.5911111111111111,-0.051111111111111114,-0.6659159994235883,0.4585590132344178,-1.3414002150260393
1592314587.5867155,-0.8466949233946497,9.707094039671485,0.6668944815330675,-0.4444444444444444,-0.5911111111111111,-0.051111111111111114,-0.6866266868973029,0.41174359041990566,-1.4063325644877522
1592314587.5967155,-0.92,9.65672655811342,0.7288489612577204,-0.4444444444444444,-0.5911111111111111,-0.051111111111111114,-0.6949540411095105,0.3883135050491253,-1.432587168345382
1592314587.6067154,-0.9472406317745432,9.445088262620006,0.9289625270981727,-0.4164471284539417,-0.600948005918585,-0.09575547985272359,-0.727611833419148,0.3179121421514083,-1.4960455343190355
1592314587.6167154,-1.0303821754008227,9.44366104040909,0.9983605674958668,-0.4033333333333333,-0.6055555555555555,-0.11666666666666667,-0.7449896961421657,0.3013375474852219,-1.5105323822413916
1592314587.6267154,-1.2103685601432184,9.39099911909295,1.1622113608593105,-0.4033333333333333,-0.6055555555555555,-0.11666666666666667,-0.7935566266491746,0.2989680417539137,-1.5291955663988919
1592314587.6367154,-1.4027152396851896,9.490789410922968,1.3661721917481515,-0.4033333333333333,-0.6055555555555555,-0.11666666666666667,-0.8438880780972647,0.3210004367570041,-1.546757595445303
1592314587.6467154,-1.3755480246466112,9.29998006524103,1.564455962305183,-0.4033333333333333,-0.6055555555555555,-0.11666666666666667,-0.87618102320501,0.34349170114659106,-1.5632826812020868
1592314587.6567154,-1.631173028179514,9.164935887878336,1.8163653645445057,-0.3744729387207395,-0.6185427331312228,-0.11594515680135181,-0.9103339469539399,0.37756939536363715,-1.5701446257444323
1592314587.6667154,-1.8610580589929178,9.035043194022881,2.1020873219705813,-0.35888888888888887,-0.6255555555555555,-0.11555555555555555,-0.9168053241039631,0.3984235874383416,-1.578040091797349
1592314587.6767154,-2.1158978705915596,8.9829590814518,2.1999797076879606,-0.35888888888888887,-0.6255555555555555,-0.11555555555555555,-0.8842764217483614,0.4226657564199523,-1.6177042639901063
1592314587.6867154,-2.4297210758502916,8.794588966367819,2.21530240500925,-0.35888888888888887,-0.6255555555555555,-0.11555555555555555,-0.8275312630519692,0.42684631273580553,-1.6327386050609258
1592314587.6967154,-2.635073130263846,8.69101462605277,2.4328633519089613,-0.35888888888888887,-0.6255555555555555,-0.11555555555555555,-0.7762128484564561,0.40932228522035474,-1.6277605769099126
1592314587.7067153,-2.9428449179182676,8.753660495983235,2.356239958085924,-0.32189874645864863,-0.6358642837738192,-0.1470881359878915,-0.7204293411989364,0.3735487719572513,-1.5940849734361546
1592314587.7167153,-3.085679335627712,8.7251720784079,2.242454735897052,-0.2911111111111111,-0.6444444444444445,-0.17333333333333334,-0.6936946000957441,0.34768880507542865,-1.5603968720246129
1592314587.7267153,-2.9559369366520127,8.344739239065118,2.7105730731522186,-0.2911111111111111,-0.6444444444444445,-0.17333333333333334,-0.6426812452683531,0.250487887610257,-1.4485382730814749
1592314587.7367153,-3.109265924698082,8.52022259057542,2.7324638882311154,-0.2911111111111111,-0.6444444444444445,-0.17333333333333334,-0.6202895718706137,0.20603838096791746,-1.410071077196448
1592314587.7467153,-3.3473251707087357,8.686702378149281,2.737355780550977,-0.2911111111111111,-0.6444444444444445,-0.17333333333333334,-0.576545549399712,0.1346131931822057,-1.365433369596404
1592314587.7567153,-3.332528332749153,8.431033999298984,2.7751735015772874,-0.2617367034051226,-0.6527459074917891,-0.1816347963806779,-0.5441364466399382,0.07820105851524717,-1.319453697169773
1592314587.7667153,-3.3761927268466074,8.409431662825671,2.8143185813054177,-0.24,-0.6588888888888889,-0.18777777777777777,-0.5278072153294184,0.0465152981772482,-1.2882898168322219
1592314587.7767153,-3.6326330626973387,8.391390392422192,2.7749706811005863,-0.24,-0.6588888888888889,-0.18777777777777777,-0.43605148680593026,0.003001383749764717,-1.1817311335689409
1592314587.7867153,-3.7268916890504027,8.40706865223574,2.922533180597251,-0.24,-0.6588888888888889,-0.18777777777777777,-0.3835307773758442,-0.017671708590273307,-1.1285392462874333
1592314587.7967153,-4.062071295759441,8.516638342963393,3.0329372013515403,-0.24,-0.6588888888888889,-0.18777777777777777,-0.25906396882370875,-0.07204298635951811,-1.0472382907831723
1592314587.8067153,-4.040644427081564,8.133480993307742,3.048711145836872,-0.21308783730226133,-0.6600102290012947,-0.19618782862082113,-0.14241680217722244,-0.12904942818632845,-1.0056957699690436
1592314587.8167152,-4.352711737790644,8.129678774862265,2.8844513960220377,-0.18666666666666668,-0.6611111111111111,-0.20444444444444446,-0.019472485591325056,-0.20373233329352683,-0.9793899247975205
1592314587.8267152,-4.669947065536751,8.277840128208242,2.9214134472962145,-0.18666666666666668,-0.6611111111111111,-0.20444444444444446,0.09223208282226932,-0.2846895114689848,-0.9430304292859322
1592314587.8367152,-4.781702954898911,8.28325038880249,2.854704510108865,-0.18666666666666668,-0.6611111111111111,-0.20444444444444446,0.14530357999410995,-0.32819162432852744,-0.9116978764778331
1592314587.8467152,-4.848142432057132,8.145928783971435,2.38,-0.18666666666666668,-0.6611111111111111,-0.20444444444444446,0.24048772228430373,-0.3991107041617543,-0.7622913336119197
1592314587.8567152,-4.831111821086262,8.337402555910543,2.389629392971246,-0.16419808306709266,-0.6637859424920127,-0.20069968051118212,0.2956552205038198,-0.44586645284419113,-0.5916362962094397
1592314587.8667152,-4.755688400125234,8.563926502817784,2.3480921258609895,-0.14,-0.6666666666666666,-0.19666666666666666,0.3107626713722947,-0.4725098405566946,-0.48311009285072254
1592314587.8767152,-4.506157720041204,8.592610735950554,1.9675369119835184,-0.14,-0.6666666666666666,-0.19666666666666666,0.30456745807035834,-0.492039906157184,-0.25716188996407463
1592314587.8867152,-4.567069785884219,8.526588025376684,1.9195182394924664,-0.14,-0.6666666666666666,-0.19666666666666666,0.28880523513543904,-0.48510114275045163,-0.17059974925945215
1592314587.8967152,-4.686046014659184,8.532803618861216,1.7909416628387689,-0.14,-0.6666666666666666,-0.19666666666666666,0.22087718830222386,-0.4484569371227533,0.06373391965149991
1592314587.9067152,-4.650028617552098,8.7199713824479,2.0841385383034927,-0.1428544173759906,-0.6757056550239703,-0.1976181391253302,0.16177201402394883,-0.40254465395726624,0.22170527324775618
1592314587.9167151,-4.61,8.76,2.29,-0.14666666666666667,-0.6877777777777778,-0.1988888888888889,0.13744467859455345,-0.36324665057131983,0.284706834231575
1592314587.9267151,-4.867242770892914,8.501863997457896,2.152737845567207,-0.14666666666666667,-0.6877777777777778,-0.1988888888888889,0.12604495964777598,-0.34837745194508835,0.3273318702934386
1592314587.9367151,-5.007778581416654,8.312221418583345,2.1976401948020636,-0.14666666666666667,-0.6877777777777778,-0.1988888888888889,0.06805497534682997,-0.37417084300481485,0.5492058691083277
1592314587.946715,-5.037692064295658,8.277362359195038,2.2559346918111634,-0.14666666666666667,-0.6877777777777778,-0.1988888888888889,0.03763959867802209,-0.4054236345118467,0.6656646433137263
1592314587.956715,-4.577608142493639,8.127675996607294,2.6637319762510603,-0.13941711431533313,-0.6877777777777778,-0.19249222504947697,0.01633933131372978,-0.546855491428852,0.7674799493607921
1592314587.966715,-4.066847005234346,8.147607783593719,2.745435329843769,-0.12777777777777777,-0.6877777777777778,-0.18222222222222223,0.03472862275575613,-0.5992100379652967,0.8080677165781511
1592314587.976715,-4.381181251234585,8.430759375793661,2.3678062477071986,-0.12777777777777777,-0.6877777777777778,-0.18222222222222223,0.04791371938072314,-0.5847221149954874,1.05061952217602
1592314587.986715,-4.508039279869067,8.508039279869067,2.1290801963993453,-0.12777777777777777,-0.6877777777777778,-0.18222222222222223,0.03659478403813315,-0.5898873660859206,1.1347053891183985
1592314587.996715,-4.1719200142267185,8.348124049082179,2.8950720227627498,-0.12777777777777777,-0.6877777777777778,-0.18222222222222223,-0.008431247499393215,-0.6032028034232534,1.251494019213343
1592314588.006715,-4.247801157697121,8.536462765957445,2.954588939299124,-0.1377204144068975,-0.6848778420942846,-0.1797365630649423,-0.00212534520732335,-0.5702646427586628,1.3330118977984335
1592314588.016715,-4.16,8.11,2.71,-0.15444444444444444,-0.68,-0.17555555555555555,-0.01854412330243975,-0.5606870222031783,1.3679018012505557
1592314588.026715,-3.8668483929654336,8.25882534869618,2.774913583990297,-0.15444444444444444,-0.68,-0.17555555555555555,-0.016490596317537538,-0.5758242342284724,1.3866209602261603
1592314588.036715,-3.6362470023980817,8.178780975219825,3.1424700239808154,-0.15444444444444444,-0.68,-0.17555555555555555,-0.028565422643395903,-0.5940269004417457,1.3823537831762922
1592314588.046715,-3.479116403250638,8.61588057607234,2.5836029855981915,-0.15444444444444444,-0.68,-0.17555555555555555,-0.012127432875431434,-0.6294175034564836,1.3458605058793045
1592314588.056715,-3.3327566661344403,8.40367555484592,2.7101077758262813,-0.16859855944080757,-0.6783823868575586,-0.1731291358418933,-0.005353918703265177,-0.6548030939651553,1.3370656713922648
1592314588.066715,-3.3896291870793007,8.475179432030908,2.904425857330625,-0.19333333333333333,-0.6755555555555556,-0.1688888888888889,-0.0035960876662464317,-0.6694478085523754,1.3475413645350334
1592314588.076715,-3.273130827067669,8.432580724538619,2.781746001367054,-0.19333333333333333,-0.6755555555555556,-0.1688888888888889,-0.0019311954840248932,-0.6962936472011638,1.3996621708406451
1592314588.086715,-3.16,8.52,3.08,-0.19333333333333333,-0.6755555555555556,-0.1688888888888889,0.008726646259971648,-0.7035858547102141,1.4148075248979033
1592314588.096715,-2.8713494206088797,8.676643684844457,3.038685052124434,-0.19333333333333333,-0.6755555555555556,-0.1688888888888889,-0.005563613029918482,-0.6737163372272147,1.460403499527882
1592314588.106715,-2.58516924691682,8.943226374779773,2.9520856917944296,-0.20650427126155282,-0.6687819303353284,-0.16587838879101016,-0.002938050507325987,-0.6433101448344888,1.4730435034723852
1592314588.116715,-2.3925142945448927,8.929465306753206,3.1982367485705456,-0.23222222222222222,-0.6555555555555556,-0.16,-0.006486658709699215,-0.6070796120378357,1.4799657419212933
1592314588.126715,-2.0375662301446265,8.845884845668042,2.8432744620936656,-0.23222222222222222,-0.6555555555555556,-0.16,-0.007860262328476322,-0.5222110582357178,1.4443709268906513
1592314588.136715,-1.94,8.77,2.93,-0.23222222222222222,-0.6555555555555556,-0.16,-0.011999138607461015,-0.4908738521234052,1.4148075248979033
1592314588.146715,-2.1969009041446634,9.364090054408706,2.997062930068811,-0.23222222222222222,-0.6555555555555556,-0.16,-0.0184222580055874,-0.4242702888431306,1.316705502709517
1592314588.156715,-2.112541708577573,9.33672227810343,3.207705594672401,-0.24742699794588385,-0.650391669460727,-0.16172129536494284,-0.030753399406553163,-0.40835962214738897,1.2457914846101332
1592314588.166715,-1.8947489892572484,8.973514150398522,2.928765161141273,-0.2911111111111111,-0.6355555555555555,-0.16666666666666666,-0.006439870794232687,-0.41473474554459777,1.1906987662424808
1592314588.176715,-1.7345698752798209,8.796015350175887,2.8641797249760153,-0.2911111111111111,-0.6355555555555555,-0.16666666666666666,0.04099144635715096,-0.405512070071316,1.1817063705441124
1592314588.186715,-1.4370355201073028,8.969778448420398,3.110840458911164,-0.2911111111111111,-0.6355555555555555,-0.16666666666666666,0.09983511880907583,-0.3906911911939306,1.1814469690259726
1592314588.1967149,-1.32,9.27,3.35,-0.2911111111111111,-0.6355555555555555,-0.16666666666666666,0.12980886311707826,-0.38069994309126315,1.177006414313676
1592314588.2067149,-1.1558857839960353,8.94826731729633,2.8659052266402347,-0.30199581496024636,-0.6284952071128732,-0.16607830429644313,0.17341094683369188,-0.3481661468427944,1.1684397476968846
1592314588.2167149,-1.2,9.36,3.16,-0.3322222222222222,-0.6088888888888889,-0.16444444444444445,0.1854412330243975,-0.33052172709642613,1.162825614141222
1592314588.2267148,-1.2846700101959272,10.136103778004355,2.5672735539695224,-0.3322222222222222,-0.6088888888888889,-0.16444444444444445,0.11854555208063687,-0.30544701762045534,1.092699644449372
1592314588.2367148,-1.000532835892285,10.040061940976706,2.737806715454154,-0.3322222222222222,-0.6088888888888889,-0.16444444444444445,0.04841693150998823,-0.30710468367482746,0.982472211648434
1592314588.2467148,-0.99,9.94,2.88,-0.3322222222222222,-0.6088888888888889,-0.16444444444444445,0.01854412330243975,-0.29561514205653955,0.9250245035569946
1592314588.2567148,-0.6914138808269733,10.018081622415709,2.7989910064853634,-0.33841759527989773,-0.6088888888888889,-0.15799093084269908,0.04077961578407242,-0.2443127946297136,0.8707363933186855
1592314588.2667148,-0.63,10.21,3.06,-0.35888888888888887,-0.6088888888888889,-0.13666666666666666,0.0818123086872342,-0.18653206380689397,0.8715737952146684
1592314588.2767148,0.9752502521097606,9.433506714080993,3.170621516904623,-0.35888888888888887,-0.6088888888888889,-0.13666666666666666,0.18105614075401477,-0.05044262999534974,0.6675270684388397
1592314588.2867148,0.10970617600912858,9.382934674083582,3.0417755431940288,-0.35888888888888887,-0.6088888888888889,-0.13666666666666666,0.3305275098013303,0.10363470704206743,0.46754120832634793
1592314588.2967148,-0.6192608955440077,9.687652139274656,2.503956616994695,-0.35888888888888887,-0.6088888888888889,-0.13666666666666666,0.4374610460474898,0.1905847226594551,0.407849776969863
1592314588.3067148,-0.6105462200669147,9.69636254276155,2.3840006014811475,-0.3673739500185874,-0.6042827128470526,-0.1361818060306839,0.5069390531434986,0.2158060728924712,0.4026157549993351
1592314588.3167148,-0.72,9.54,2.47,-0.3977777777777778,-0.5877777777777777,-0.13444444444444445,0.5410520681182421,0.22689280275926282,0.40687988187117813
1592314588.3267148,-0.7523245724522071,9.756963361043468,2.1457172446609007,-0.3977777777777778,-0.5877777777777777,-0.13444444444444445,0.5854448842756856,0.18043596634465975,0.4453114010787371
1592314588.3367147,-0.5755631823080167,9.820070514922925,1.9154221524621655,-0.3977777777777778,-0.5877777777777777,-0.13444444444444445,0.5749906896951807,0.1288255156844197,0.4954446544063472
1592314588.3467147,-0.43049203382287493,9.922639964396973,1.7562639964396973,-0.3977777777777778,-0.5877777777777777,-0.13444444444444445,0.5395829467354107,0.08573145445506918,0.5472383748357666
1592314588.3567147,-0.30128296126693377,10.0561511161992,1.7610192711314634,-0.3969224702664886,-0.5859246115033179,-0.13145086815493226,0.4901375985820956,0.046090920299261914,0.6110992225455983
1592314588.3667147,-0.31,10.03,1.7,-0.39111111111111113,-0.5733333333333334,-0.1111111111111111,0.4036073895236887,0.01090830782496456,0.7090400086226963
1592314588.3767147,-0.2861372950819672,9.922198315118397,1.7412517076502734,-0.39111111111111113,-0.5733333333333334,-0.1111111111111111,0.2957683228136217,-0.07435804997251058,0.8549049719630573
1592314588.3867147,0.03880155902537,9.876676071829943,1.7377934530499033,-0.39111111111111113,-0.5733333333333334,-0.1111111111111111,0.24305609221830543,-0.12696739773405064,0.9842742656333511
1592314588.3967147,0.29215802075019953,9.986474062250599,1.8898545712512194,-0.39111111111111113,-0.5733333333333334,-0.1111111111111111,0.21905288575203083,-0.1595438636230255,1.0776233241406015
1592314588.4067147,0.2624093363525518,9.762363351332521,1.4995453753701447,-0.39308587354119495,-0.5747272832839807,-0.10890402368925274,0.2010202574717574,-0.17531636248951993,1.1412420992061452
1592314588.4167147,0.54,9.44,1.41,-0.41,-0.5866666666666667,-0.09,0.17562375598192942,-0.20071286397934787,1.2086405070060733
1592314588.4267147,0.9939957883653593,9.576401684653856,1.8729428797051855,-0.41,-0.5866666666666667,-0.09,0.10252517242141801,-0.22648506922118833,1.2563312612823614
1592314588.4367146,1.334186472544955,9.395488116473027,1.8080313840813769,-0.41,-0.5866666666666667,-0.09,0.03825007105060549,-0.23468419953500808,1.2689000335310987
1592314588.4467146,1.71,9.17,2.14,-0.41,-0.5866666666666667,-0.09,0.00545415391248228,-0.22580197197676635,1.2729995231733642
1592314588.4567146,1.8219777795931706,9.517023935952945,2.6481145331263787,-0.4132347575089181,-0.5857424502355472,-0.09100123446704608,-0.014180800172453926,-0.19720244023824152,1.2629118558741743
1592314588.4667146,1.58,8.94,2.22,-0.45666666666666667,-0.5733333333333334,-0.10444444444444445,-0.014180800172453926,-0.16471544815696484,1.244637922828456
1592314588.4767146,2.2776244277261655,8.928789590640143,2.1046191534363206,-0.45666666666666667,-0.5733333333333334,-0.10444444444444445,0.030034454812563262,-0.1216839830286506,1.2326827959473003
1592314588.4867146,1.81,8.78,1.97,-0.45666666666666667,-0.5733333333333334,-0.10444444444444445,0.06326818538479445,-0.08072147790473774,1.2380929381334775
1592314588.4967146,2.5196095165250996,9.005625377400266,2.2505277565315405,-0.45666666666666667,-0.5733333333333334,-0.10444444444444445,0.12452508976238698,-0.03661104930552002,1.207151345800968
1592314588.5067146,2.4255233741652082,8.74200849969644,1.95949787507589,-0.4573361665654798,-0.5727196250927546,-0.10408179866592067,0.16883692715646467,-0.007334562149342443,1.1501645596798487
1592314588.5167146,2.572457050616857,8.948331603827972,2.2405661247549866,-0.48333333333333334,-0.5488888888888889,-0.09,0.20880309795297894,0.007678829904733786,1.0507910166971979
1592314588.5267146,2.3817032428725384,9.112554864308807,2.645393602429705,-0.48333333333333334,-0.5488888888888889,-0.09,0.23348141747941586,0.019480124938650152,0.9628868958933043
1592314588.5367146,2.372924582338902,8.943687828162291,2.2497341288782815,-0.48333333333333334,-0.5488888888888889,-0.09,0.26493061886201286,0.036515703631880406,0.8859211097948752
1592314588.5467145,2.41659053428617,9.107707516890395,2.321805011260263,-0.48333333333333334,-0.5488888888888889,-0.09,0.2897796529065963,0.05272556400926679,0.829003288777654
1592314588.5567145,1.910832018158282,9.509339279697835,2.5895595197985566,-0.48333333333333334,-0.5488888888888889,-0.09,0.31411922457874475,0.06651798795681756,0.7843807407120484
1592314588.5667145,2.29,8.9,1.83,-0.52,-0.5277777777777778,-0.09777777777777778,0.38069994309126315,0.10253809355466686,0.7363107781851077
1592314588.5767145,2.5690884316664393,9.267582504428397,1.979141299904619,-0.52,-0.5277777777777778,-0.09777777777777778,0.4344964948815677,0.1785028714730412,0.6611731231906245
1592314588.5867145,2.335795947387131,9.1120668325631,1.8555584784927124,-0.52,-0.5277777777777778,-0.09777777777777778,0.4612400941300587,0.2396978299313112,0.5549709603239353
1592314588.5967145,2.3285051574723807,9.244695406826551,1.895670104981587,-0.52,-0.5277777777777778,-0.09777777777777778,0.47830936254811174,0.2693687513546774,0.4649331402625002
1592314588.6067145,2.077107977991747,9.315661966987621,1.7369408528198074,-0.5205784044016506,-0.5274243084212136,-0.09777777777777778,0.48298566011550925,0.28567147674886106,0.40332837991707904
1592314588.6167145,1.98,9.17,1.97,-0.54,-0.5155555555555555,-0.09777777777777778,0.4745113903859583,0.2814343418840856,0.32070425005395803
1592314588.6267145,2.176333297332325,8.879226698347553,1.2681067069877958,-0.54,-0.5155555555555555,-0.09777777777777778,0.44242642725349046,0.23807891369310813,0.21027727864782286
1592314588.6367145,2.4448913017425276,8.979314733587401,1.212103017664965,-0.54,-0.5155555555555555,-0.09777777777777778,0.3988780507151677,0.20776047639088932,0.14146930845360955
1592314588.6467144,2.5254613479856127,9.588120086033943,1.56979666347353,-0.54,-0.5155555555555555,-0.09777777777777778,0.37000590947137335,0.19361922060026715,0.09340131369017135
1592314588.6567144,2.229805158421747,9.231816472969799,1.2893023297847344,-0.54,-0.5155555555555555,-0.09777777777777778,0.34023567507643127,0.16881069193781545,0.01566792388115601
1592314588.6667144,2.47,9.35,1.39,-0.5333333333333333,-0.5155555555555555,-0.09,0.2945243112740431,0.18653206380689397,-0.06981317007977318
1592314588.6767144,2.1776700935659004,9.464520041584846,1.2095899272265218,-0.5333333333333333,-0.5155555555555555,-0.09,0.2232162103402168,0.189759824153946,-0.19623109555242935
1592314588.6867144,2.0807704747603095,9.421453544337917,1.2849562974086481,-0.5333333333333333,-0.5155555555555555,-0.09,0.16860398205413946,0.19798101980991462,-0.2896003890737874
1592314588.6967144,2.0574525255841953,9.365242160564769,1.311115853992229,-0.5333333333333333,-0.5155555555555555,-0.09,0.12444198521860625,0.20713612788597716,-0.36431909488848446
1592314588.7067144,2.233429650303727,9.273428008537186,1.2039993432933835,-0.5333333333333333,-0.5155555555555555,-0.09,0.10858431552936115,0.2188207266043683,-0.38852290651943755
1592314588.7167144,2.2,9.49,2.06,-0.5255555555555556,-0.5333333333333333,-0.07555555555555556,0.09708393964218458,0.2454369260617026,-0.38615409700374537
1592314588.7267144,1.58,9.7,1.71,-0.5255555555555556,-0.5333333333333333,-0.07555555555555556,0.14398966328953217,0.26616271092913524,-0.4265148359561142
1592314588.7367144,1.6864759147143986,9.282595156620163,1.4008091603053434,-0.5255555555555556,-0.5333333333333333,-0.07555555555555556,0.17054879425985642,0.19497823533447747,-0.5618556669214623
1592314588.7467144,2.077009284304408,9.409292345931721,1.756528986036991,-0.5255555555555556,-0.5333333333333333,-0.07555555555555556,0.17698109429239597,0.1585352964782827,-0.7243989602667931
1592314588.7567143,2.1843274362160976,9.485948168725784,1.265931720154982,-0.5255555555555556,-0.5333333333333333,-0.07555555555555556,0.19537717114789482,0.14264777555762465,-0.8331030507765591
1592314588.7667143,1.75,9.7,1.29,-0.5066666666666667,-0.5255555555555556,-0.06333333333333334,0.18435040224190105,0.21380283336930533,-0.868301302867179
1592314588.7767143,1.5119829327945555,9.069757549978732,0.8788446405784772,-0.5066666666666667,-0.5255555555555556,-0.06333333333333334,0.16025564496494782,0.25627209811376583,-0.9255535924454105
1592314588.7867143,1.54464672004495,9.347147071217867,1.346117432223627,-0.5066666666666667,-0.5255555555555556,-0.06333333333333334,0.15458676486091474,0.26595738528669316,-0.9887643250070405
1592314588.7967143,0.9703632436677794,9.38175142352248,1.0154722167681132,-0.5066666666666667,-0.5255555555555556,-0.06333333333333334,0.16000964742611276,0.2770551692591254,-1.017609542632453
1592314588.8067143,1.1949656391125072,9.434158649126251,1.3074553308462598,-0.5066666666666667,-0.5255555555555556,-0.06333333333333334,0.17307648512070217,0.2672550409881833,-1.0461932500893671
1592314588.8167143,1.24,9.08,1.94,-0.5111111111111111,-0.5644444444444444,-0.04888888888888889,0.2203478180642841,0.28907015736156083,-1.0799224746714913
1592314588.8267143,1.056343390393313,9.45638003091544,1.5577614931012767,-0.5111111111111111,-0.5644444444444444,-0.04888888888888889,0.2858994600661966,0.30056862668504214,-1.145071245580607
1592314588.8367143,0.9223477406679764,9.074931237721023,1.7404322200392928,-0.5111111111111111,-0.5644444444444444,-0.04888888888888889,0.3287751119928218,0.28743819735984955,-1.2642139420479335
1592314588.8467143,0.12,9.48,1.46,-0.5111111111111111,-0.5644444444444444,-0.04888888888888889,0.3610649890063269,0.3239767424014474,-1.3024519543007684
1592314588.8567142,0.22558459672528802,9.463756215888418,1.3787810794420863,-0.5111111111111111,-0.5644444444444444,-0.04888888888888889,0.35309134012641336,0.3346082742413322,-1.4078813117129594
1592314588.8667142,-0.03,9.54,1.06,-0.4777777777777778,-0.5722222222222222,-0.03666666666666667,0.33706671179140485,0.31306843457648287,-1.5129822953225844
1592314588.8767142,-0.565676160637995,9.824864426089434,1.0937832526345772,-0.4777777777777778,-0.5722222222222222,-0.03666666666666667,0.2979736170075532,0.31471937636287695,-1.5287255839849991
1592314588.8867142,-0.77,9.64,0.87,-0.4777777777777778,-0.5722222222222222,-0.03666666666666667,0.2650718801466388,0.29561514205653955,-1.5064373106276057
1592314588.8967142,-0.71,9.472294105929484,1.0769243708638587,-0.4777777777777778,-0.5722222222222222,-0.03666666666666667,0.23402536959615114,0.23901867098265367,-1.4637285367470563
1592314588.9067142,-0.71,10.25209357915938,1.0026577543657733,-0.4777777777777778,-0.5722222222222222,-0.03666666666666667,0.2218735228879555,0.18939863025752154,-1.3806909175743862
1592314588.9167142,-0.97,10.1,0.9,-0.42444444444444446,-0.6377777777777778,-0.051111111111111114,0.1810779098944117,0.13744467859455345,-1.2959069696057897
1592314588.9267142,-0.9897212874618948,9.942229700304841,1.1070735183498952,-0.42444444444444446,-0.6377777777777778,-0.051111111111111114,0.17785102177932724,0.11485646178896243,-1.1829658855778344
1592314588.9367142,-1.304467646917956,11.211191149001388,0.8953987259926242,-0.42444444444444446,-0.6377777777777778,-0.051111111111111114,0.17242848227022384,0.10885622891502231,-1.0793191453034054
1592314588.9467142,-3.1,15.82,0.25,-0.42444444444444446,-0.6377777777777778,-0.051111111111111114,0.1832595714594046,0.10253809355466686,-1.0711958284115197
1592314588.9567142,-3.8550810224421994,7.7191924876262785,1.9652457793748728,-0.42444444444444446,-0.6377777777777778,-0.051111111111111114,0.1364834990671737,0.12287551633389768,-1.126106869915443
1592314588.9667141,-1.48,9.18,1.01,-0.4266666666666667,-0.6588888888888889,-0.015555555555555555,0.0032724923474893677,-0.07308566242726255,-0.6992225315802282
1592314588.9767141,-0.41369321346169147,8.693415280982311,1.707386426923383,-0.4266666666666667,-0.6588888888888889,-0.015555555555555555,0.08269412649061439,-0.2576337084993812,-0.4111595419512533
1592314588.9867141,-0.04860382520217898,9.937283242542776,1.0128679417340596,-0.4266666666666667,-0.6588888888888889,-0.015555555555555555,0.15193007685644916,-0.2582206481975882,-0.3152533944707358
1592314588.996714,0.07221275681866991,9.452310115255209,0.9766747798697115,-0.4266666666666667,-0.6588888888888889,-0.015555555555555555,0.19236487320397253,-0.23112813736805804,-0.3045871452009413
1592314589.006714,0.01966765695468537,9.940228899706492,1.021713436895984,-0.4266666666666667,-0.6588888888888889,-0.015555555555555555,0.27588511413112166,-0.19346214636169667,-0.32096366302979407
1592314589.016714,-0.23,10.06,0.94,-0.35555555555555557,-0.6844444444444444,-0.01,0.2999784651865254,-0.10799224746714915,-0.3916082509162277
1592314589.026714,-0.3790775354118703,10.53354040660241,0.9312307332110665,-0.35555555555555557,-0.6844444444444444,-0.01,0.26745479226533064,-0.06207647393134483,-0.486309533833824
1592314589.036714,-0.13357662520535085,10.591854024876788,0.8117226003285614,-0.35555555555555557,-0.6844444444444444,-0.01,0.14162329522147163,-0.017185768894571598,-0.6810621574782021
1592314589.046714,-0.2072950688866429,10.501885206659928,0.9617974360338315,-0.35555555555555557,-0.6844444444444444,-0.01,0.044337666945345064,0.033208396110659434,-0.8596449260937545
1592314589.056714,-0.10317570083515079,10.189527102505451,1.05847970636736,-0.35555555555555557,-0.6844444444444444,-0.01,-0.003526762281469871,0.09080796348530115,-0.9943143371386916
1592314589.066714,-0.1,10.16,1.06,-0.36,-0.6644444444444444,-0.01,-0.03381575425739013,0.16144295580947549,-1.2020955223110943
1592314589.076714,-0.43866952957251615,10.022701542065196,0.9318547725941831,-0.36,-0.6644444444444444,-0.01,-0.025828053761145928,0.23433072283770384,-1.3448756686814596
1592314589.086714,-0.5544734621155288,10.174780804576143,0.9151315172543136,-0.36,-0.6644444444444444,-0.01,-0.039738758778609516,0.31618779735895,-1.500868283968617
1592314589.096714,-1.077586194447453,9.931206902776273,1.0337990541174773,-0.36,-0.6644444444444444,-0.01,-0.07457015162709663,0.3868402425224802,-1.6120247997976473
1592314589.106714,-1.5167164879598543,9.711641756020073,0.8445187551897181,-0.36,-0.6644444444444444,-0.01,-0.09191386486070119,0.43309014447875904,-1.6731407416684443
1592314589.116714,-1.68,9.58,1.14,-0.3211111111111111,-0.6977777777777778,0.0044444444444444444,-0.15162547876700738,0.4636030825609938,-1.744238421211833
1592314589.126714,-2.1628367006788896,9.186577503150534,0.8896402292776129,-0.3211111111111111,-0.6977777777777778,0.0044444444444444444,-0.12724153728462034,0.4509234329901525,-1.7852034429022434
1592314589.136714,-2.5966849104501946,9.242565852295222,0.5607492372545823,-0.3211111111111111,-0.6977777777777778,0.0044444444444444444,-0.09870096664628633,0.44081095114642577,-1.7696182429676444
1592314589.146714,-2.3481559082638226,8.723027005602896,1.3350166645648298,-0.3211111111111111,-0.6977777777777778,0.0044444444444444444,-0.10143501949515137,0.4032973771722036,-1.7330965281691346
1592314589.156714,-2.6579660223034933,9.115956906336137,0.7380654692200984,-0.3211111111111111,-0.6977777777777778,0.0044444444444444444,-0.04538470773813114,0.3793935677464156,-1.691883063641914
1592314589.166714,-3.09,8.92,0.51,-0.27,-0.7033333333333334,-0.0011111111111111111,-0.008726646259971648,0.3359758810089084,-1.5882496193148399
1592314589.176714,-3.446635966844192,8.997110479317664,1.2232719336883835,-0.27,-0.7033333333333334,-0.0011111111111111111,0.08064499351358924,0.28655862136941007,-1.4904665310920024
1592314589.186714,-3.0543362874137063,8.806027518333613,0.8745820891957098,-0.27,-0.7033333333333334,-0.0011111111111111111,0.13711539429580735,0.21553829217005613,-1.3727263360674773
1592314589.196714,-3.163119758530943,8.554256795835743,0.5828864227877385,-0.27,-0.7033333333333334,-0.0011111111111111111,0.19666440073217853,0.16213623902296062,-1.269501187372045
1592314589.206714,-3.625548004626952,9.039427414690572,0.8406333140543667,-0.27,-0.7033333333333334,-0.0011111111111111111,0.22478022504081902,0.1323665426961648,-1.1777112903644245
1592314589.216714,-3.68,9.34,1.0,-0.2088888888888889,-0.7511111111111111,-0.015555555555555555,0.25198191075668136,0.08944812416470939,-1.0330167510241437
1592314589.226714,-3.404114585341404,8.804457724486255,0.6024004318155531,-0.2088888888888889,-0.7511111111111111,-0.015555555555555555,0.22277261078375182,0.04076595754316015,-0.9560104147318749
1592314589.236714,-2.636490173518984,8.674550940383668,1.3300044612458615,-0.2088888888888889,-0.7511111111111111,-0.015555555555555555,0.18785904617347593,-0.014661145813228272,-0.8839311824345593
1592314589.2467139,-3.3287227835491673,9.049664508325034,0.07707183008396186,-0.2088888888888889,-0.7511111111111111,-0.015555555555555555,0.16556840191934918,0.0015299883580880988,-0.8654496698629649
1592314589.2567139,-3.7166970257577914,9.03474242208624,1.7259623594706135,-0.2088888888888889,-0.7511111111111111,-0.015555555555555555,0.1549880457639266,0.021062953568098994,-0.8841687615225586
1592314589.2667139,-3.37,9.52,0.94,-0.16333333333333333,-0.7511111111111111,0.024444444444444446,0.15489797111449674,0.07199483164476608,-0.918479518862016
1592314589.2767138,-3.6542418032786883,8.82032786885246,0.7432172131147541,-0.16333333333333333,-0.7511111111111111,0.024444444444444446,0.12548205003377436,0.09425552867882628,-0.9304048922731196
1592314589.2867138,-4.339948940998487,8.469834058245084,0.6802808245083207,-0.16333333333333333,-0.7511111111111111,0.024444444444444446,0.11016833935908468,0.08068666744812915,-0.9228080315353931
1592314589.2967138,-4.300290279878971,8.340943409606657,0.8984034606656581,-0.16333333333333333,-0.7511111111111111,0.024444444444444446,0.10584225052490834,0.05364861223452708,-0.895769976321791
1592314589.3067138,-4.098495760813064,8.108643280933517,0.7134220007528366,-0.16333333333333333,-0.7511111111111111,0.024444444444444446,0.10825288620114111,0.02007260425619968,-0.8711490694397416
1592314589.3167138,-4.8,8.76,0.95,-0.14333333333333334,-0.7566666666666667,0.03888888888888889,0.08726646259971647,-0.05781403147231216,-0.8355763793922852
1592314589.3267138,-4.762879326695116,8.819393077287813,1.2543895211000475,-0.14333333333333334,-0.7566666666666667,0.03888888888888889,0.09617478468346806,-0.08858823503436308,-0.8056120232923936
1592314589.3367138,-3.844588028362557,8.012472929148574,0.9316330456769087,-0.14333333333333334,-0.7566666666666667,0.03888888888888889,0.07165384584472996,-0.15130314015948243,-0.7676038850774688
1592314589.3467138,-4.566072917165717,9.030575384467973,1.5286384324246636,-0.14333333333333334,-0.7566666666666667,0.03888888888888889,0.0794707303783885,-0.1280869621906621,-0.7079577746716913
1592314589.3567138,-4.292999581814923,8.992599916362986,1.5071999522074198,-0.14333333333333334,-0.7566666666666667,0.03888888888888889,0.061740996222490574,-0.10884306810734709,-0.6728680103481771
1592314589.3667138,-4.41,9.03,1.22,-0.1511111111111111,-0.7444444444444445,0.04555555555555556,0.04363323129985824,-0.025089107997418484,-0.6305001922829515
1592314589.3767138,-4.774822027928562,8.953641901131231,1.4490742966063066,-0.1511111111111111,-0.7444444444444445,0.04555555555555556,0.013092184228905897,0.02581263712083542,-0.6138414393351593
1592314589.3867137,-4.342295,8.62414875,0.59987375,-0.1511111111111111,-0.7444444444444445,0.04555555555555556,0.005547692652081351,0.06831655024618805,-0.5837196414678955
1592314589.3967137,-5.170629310137684,8.561668789196723,0.8983184756229425,-0.1511111111111111,-0.7444444444444445,0.04555555555555556,0.024433776012316808,0.08984721562959852,-0.5318913122535487
1592314589.4067137,-5.143452850484044,8.43074937253496,0.8615310147006096,-0.1511111111111111,-0.7444444444444445,0.04555555555555556,0.08412890629380519,0.0993508651406964,-0.4746287260742871
1592314589.4167137,-5.7638761615604,8.360382739902475,1.1372251357070566,-0.11039337156643256,-0.7565497183631327,0.07526850062869936,0.15003364262373972,0.06039232228124895,-0.35986446293951097
1592314589.4267137,-5.539569346917238,8.259186589276291,0.8951674310995656,-0.11,-0.7566666666666667,0.07555555555555556,0.1992358125971146,0.021506062940247338,-0.2669795168014206
1592314589.4367137,-5.974209196172989,7.994047760270263,1.2609425690486629,-0.11,-0.7566666666666667,0.07555555555555556,0.24872913814972195,-0.06739771284638592,-0.13660947303630191
1592314589.4467137,-5.868479077053134,7.96049876923842,1.1389778462915536,-0.11,-0.7566666666666667,0.07555555555555556,0.3048395091869852,-0.08770440597585637,-0.013566209418547318
1592314589.4567137,-5.7563917381760135,8.478041309119936,0.3728627020554779,-0.11,-0.7566666666666667,0.07555555555555556,0.26588415833099466,-0.17094816049962047,0.049743102730407926
1592314589.4667137,-5.893006670087225,8.168923127999276,0.9566788398273625,-0.10786919385506896,-0.751339651304339,0.0840787801352797,0.24165696183779395,-0.24533002576439278,0.13966792164260836
1592314589.4767137,-5.519857685388767,8.451244853088147,0.27992284629222464,-0.10777777777777778,-0.7511111111111111,0.08444444444444445,0.20899528504718318,-0.2812617015055966,0.2133146522535729
1592314589.4867136,-5.268569388618574,8.459348423947535,0.018441929342077428,-0.10777777777777778,-0.7511111111111111,0.08444444444444445,0.1138697415680151,-0.3438110206007017,0.3597640457999965
1592314589.4967136,-5.362581964272904,8.142254107181289,0.2904433603558361,-0.10777777777777778,-0.7511111111111111,0.08444444444444445,0.04179621560373069,-0.3907003078257245,0.5010193061950319
1592314589.5067136,-5.52898488296489,8.294883371261378,0.5961727893368011,-0.10777777777777778,-0.7511111111111111,0.08444444444444445,-0.018407946767823806,-0.3825172482023902,0.6449136495328572
1592314589.5167136,-4.996401728899027,8.196600432224756,0.6986799135550485,-0.10777777777777778,-0.7245556355971773,0.08444444444444445,-0.06400985602007808,-0.3378958689151874,0.8474833821544483
1592314589.5267136,-5.02071488984655,7.999819163075435,0.8838414756937452,-0.10777777777777778,-0.7233333333333334,0.08444444444444445,-0.07443956843331165,-0.3020915461863938,0.9534067527587945
1592314589.5367136,-5.158974514898557,8.071624191497595,0.9990812095748798,-0.10777777777777778,-0.7233333333333334,0.08444444444444445,-0.050903064577158125,-0.23299485793368013,1.1161041781201286
1592314589.5467136,-4.827813353129939,7.766309928636429,0.8242825326883472,-0.10777777777777778,-0.7233333333333334,0.08444444444444445,-0.003607959776696208,-0.2158776531818099,1.1853404367252611
1592314589.5567136,-4.278450663692938,7.8071301125939785,0.8977855318536638,-0.10777777777777778,-0.7233333333333334,0.08444444444444445,0.015772097007684647,-0.21939997758256888,1.2137545292151604
1592314589.5667136,-4.857378277153558,8.881200473092843,1.3826075957684472,-0.1327456906936505,-0.7160510253995371,0.09796873060720883,0.05199142919676903,-0.23383372340552025,1.2767649285434717
1592314589.5767136,-3.9832393695160198,8.409946400921111,0.96328899829277,-0.13444444444444445,-0.7155555555555555,0.09888888888888889,0.0956336851623864,-0.2228919349760318,1.318091021169432
1592314589.5867136,-4.4348879063719115,8.611169310793239,0.835978933680104,-0.13444444444444445,-0.7155555555555555,0.09888888888888889,0.10624921619417645,-0.2047020704505878,1.4182605930043155
1592314589.5967135,-4.223564028776979,8.928723261390887,1.4096273381294964,-0.13444444444444445,-0.7155555555555555,0.09888888888888889,0.1425100572770726,-0.1767320086661319,1.5347292233656893
1592314589.6067135,-4.002063969764837,9.054201427771558,1.2078625419932811,-0.13444444444444445,-0.7155555555555555,0.09888888888888889,0.15011653944725295,-0.18600138318195464,1.5844249931334329
1592314589.6167135,-3.633359201406162,8.736111166384772,0.7721447285510563,-0.162622735161786,-0.7155555555555555,0.13228538159092335,0.1588638589320259,-0.1974403716318585,1.6320463323347956
1592314589.6267135,-3.395443149859381,8.734276416231419,0.7782073121735638,-0.16444444444444445,-0.7155555555555555,0.13444444444444445,0.14668259974036696,-0.19611629852616214,1.6230431331044715
1592314589.6367135,-3.0780267379679143,9.240123796791444,0.35146818181818185,-0.16444444444444445,-0.7155555555555555,0.13444444444444445,0.11321035609827464,-0.17462339998786355,1.5978518468606548
1592314589.6467135,-2.977941247291115,8.947696444337426,0.4541419857131391,-0.16444444444444445,-0.7155555555555555,0.13444444444444445,0.0986025575025587,-0.13785377297060408,1.5961046691032044
1592314589.6567135,-2.782919075144509,8.938131021194604,0.6190269749518305,-0.16444444444444445,-0.7155555555555555,0.13444444444444445,0.05801370184675757,-0.09729201719029085,1.5671801912240197
1592314589.6667135,-2.6856206088992978,9.11735362997658,1.0611475409836064,-0.2016887848035389,-0.681176164454853,0.12871454592766068,0.017381762632566477,-0.06225910304501435,1.4925554031988335
1592314589.6767135,-2.804036074398425,9.4843887839955,0.6456686618728156,-0.20777777777777778,-0.6755555555555556,0.12777777777777777,-0.010749019274192273,-0.05781403147231216,1.4134992553839263
1592314589.6867135,-3.2198241969409747,9.894912098470487,1.3571918252875952,-0.20777777777777778,-0.6755555555555556,0.12777777777777777,-0.030868593430765288,-0.05511566357104675,1.2829701907134234
1592314589.6967134,-2.5006019093078757,9.03142983293556,0.589053460620525,-0.20777777777777778,-0.6755555555555556,0.12777777777777777,-0.056367808541561315,-0.0701146194742965,1.1957428778982417
1592314589.7067134,-2.711587844636748,9.625715435701348,0.9955564499899376,-0.20777777777777778,-0.6755555555555556,0.12777777777777777,-0.08583514509078573,-0.0862333674774729,1.1492046083932732
1592314589.7167134,-1.7005338338371592,9.081812443942464,1.1943517257416203,-0.25646927032004935,-0.665411494609249,0.17342605203615735,-0.09200954544137764,-0.07569553205646037,1.145513753124587
1592314589.7267134,-1.6405136892939205,9.227311601822642,0.7795762744868949,-0.2611111111111111,-0.6644444444444444,0.17777777777777778,-0.09369610650042494,-0.05626837986349616,1.1567947562573884
1592314589.7367134,-1.7356224270741256,9.753734562444754,0.9583429725975503,-0.2611111111111111,-0.6644444444444444,0.17777777777777778,-0.06090037042676381,-0.005549475910397117,1.1601412530109252
1592314589.7467134,-1.442832352029749,9.756981716764797,0.7677378370003098,-0.2611111111111111,-0.6644444444444444,0.17777777777777778,-0.03715010654699194,0.0331569289722691,1.1378189860666201
1592314589.7567134,-1.324189140452815,9.488851132037668,0.71,-0.2611111111111111,-0.6644444444444444,0.17777777777777778,-0.024683723718641803,0.04992394379841213,1.1135871168465297
1592314589.7667134,-1.1096541946618999,9.322068667940579,0.8093108549590088,-0.28777791475751163,-0.6423753655646647,0.15938687871129467,-0.01260093454553309,0.05273601683106734,1.1068171049626654
1592314589.7767134,-0.9814206083128004,9.2103481843519,1.0957381750615989,-0.29333333333333333,-0.6377777777777778,0.15555555555555556,0.00298155420244659,0.062022390274550684,1.1379925035120753
1592314589.7867134,-0.8461141557232964,9.337628993899287,0.5753127908179092,-0.29333333333333333,-0.6377777777777778,0.15555555555555556,0.035087393823294906,0.07329760235491334,1.227287611231315
1592314589.7967134,-1.1332239824290855,9.757060610308892,1.195937426982569,-0.29333333333333333,-0.6377777777777778,0.15555555555555556,0.07082603340202251,0.09506698083237863,1.2914211261811297
1592314589.8067133,-0.907614530776993,10.02471160443996,1.299204843592331,-0.29333333333333333,-0.6377777777777778,0.15555555555555556,0.09686489289574987,0.09229339830503172,1.2991447667098235
1592314589.8167133,-0.46791358726549176,9.834140610195186,0.5522380140231192,-0.3203783715494915,-0.6332702714084181,0.13842703135198872,0.11023581993215298,0.07419654448622331,1.2775267706563005
1592314589.8267133,-0.49127841025013264,9.877874484841065,0.609897988329865,-0.32666666666666666,-0.6322222222222222,0.13444444444444445,0.11895873115340731,0.06366259724931075,1.2630425932055458
1592314589.8367133,-1.402771915473756,16.292175323790048,1.2285927743694616,-0.32666666666666666,-0.6322222222222222,0.13444444444444445,0.15608183853469323,0.055913799787727744,1.2334016668042331
1592314589.8467133,-0.6755059391987116,14.878775921079123,1.2711656935776123,-0.32666666666666666,-0.6322222222222222,0.13444444444444445,0.14674553185350137,0.05586749038965078,1.0879389718639614
1592314589.8567133,-0.13647259038860338,9.91153457758543,0.4719184473897755,-0.32666666666666666,-0.6322222222222222,0.13444444444444445,0.06674724317732375,0.038037326430269025,0.5734071359302039
1592314589.8667133,-0.6955059430224515,9.63462926859946,0.9855222941953337,-0.363366105555905,-0.6006436352710173,0.16175565478062176,0.007588000305133829,0.06832774407301916,0.2597897785329114
1592314589.8767133,-0.4899586055760724,9.569022766933161,1.0594492918306888,-0.37444444444444447,-0.5911111111111111,0.17,0.001472960213709045,0.07875753095312568,0.21330958891581014
1592314589.8867133,-0.1497511845205008,10.050746446438497,0.0760226580904736,-0.37444444444444447,-0.5911111111111111,0.17,-0.033619382194822085,0.0509437523122707,0.1933344890708856
1592314589.8967133,-0.1013314722660517,10.018300764655905,0.04371040174778493,-0.37444444444444447,-0.5911111111111111,0.17,-0.030212662994511322,0.02410340157968744,0.19656892507154883
1592314589.9067132,-0.011382064546851658,10.09213900733782,0.27976233251801985,-0.37444444444444447,-0.5911111111111111,0.17,-0.02103209772574835,-0.006596835696047205,0.23565016766786384
1592314589.9167132,0.009466898730097338,10.109701218333011,0.40503223103203767,-0.38377400316580357,-0.5817815523897519,0.1759369919135922,-0.0441821625512963,-0.04338209340649872,0.3279540943997938
1592314589.9267132,-0.010878197320341048,9.97660048721072,0.5442777101096224,-0.38666666666666666,-0.5788888888888889,0.17777777777777778,-0.04908738521234052,-0.053450708342326333,0.3501566811813624
1592314589.9367132,-0.0015874089912577445,9.95785665953934,0.5253181584431754,-0.38666666666666666,-0.5788888888888889,0.17777777777777778,-0.04908738521234052,-0.06274870700717176,0.41524267183528035
1592314589.9467132,0.08441461613587099,9.883495152569019,0.6360365403396775,-0.38666666666666666,-0.5788888888888889,0.17777777777777778,-0.06288692338361365,-0.0811519534430436,0.4474686296874712
1592314589.9567132,-0.013442723478329685,9.61163096156509,0.8728198128696615,-0.38666666666666666,-0.5788888888888889,0.17777777777777778,-0.059552201156058665,-0.09492821478916841,0.44268952625627184
1592314589.9667132,-0.10395774125787718,9.714260472012851,0.7357395279871494,-0.3920946771558411,-0.5788888888888889,0.16769718686931093,-0.0347483451611456,-0.11710451918970849,0.4484105715454139
1592314589.9767132,-0.09381451129322407,9.795721766939836,0.7392520487707376,-0.39444444444444443,-0.5788888888888889,0.16333333333333333,-0.022648812917694952,-0.13274113312736846,0.44783947667547674
1592314589.9867132,-0.16070625257944698,9.655338939331408,0.7464971110193974,-0.39444444444444443,-0.5788888888888889,0.16333333333333333,-0.022781109499558028,-0.16258617843361992,0.4277566520352181
1592314589.9967132,-0.12032248852178117,9.550241866391335,0.6667204147536302,-0.39444444444444443,-0.5788888888888889,0.16333333333333333,-0.022191951924313294,-0.18972540556290718,0.4062171544240499
1592314590.0067132,-0.08525177871065649,9.598776680659848,0.6967624509745954,-0.39444444444444443,-0.5788888888888889,0.16333333333333333,-0.02473594618374322,-0.203632194513162,0.39127867335467403
1592314590.0167131,-0.14764709681586255,9.629647032228895,0.7934118064974488,-0.3950849677423985,-0.5603137132482221,0.17550327599445986,-0.026475103513058963,-0.2217209910518348,0.37311545295287263
1592314590.0267131,-0.10840362298330032,9.661197282762524,0.7380045287291254,-0.39555555555555555,-0.5466666666666666,0.18444444444444444,-0.010996200030668113,-0.23531388466474518,0.3561784293730661
1592314590.0367131,-0.01975319299643625,9.627191491245545,0.6774382982491091,-0.39555555555555555,-0.5466666666666666,0.18444444444444444,0.013450175105549082,-0.23945081799181325,0.3441167281761084
1592314590.046713,0.03401471009647531,9.583996322475882,0.6279742573311682,-0.39555555555555555,-0.5466666666666666,0.18444444444444444,0.03709626971790388,-0.23648930555567313,0.340558172606696
1592314590.056713,0.0990218194547081,9.687848002800358,0.5509781805452919,-0.39555555555555555,-0.5466666666666666,0.18444444444444444,0.04581489286485115,-0.23183355216398618,0.33233936827661026
1592314590.066713,0.15,9.79474772097372,0.7993799044979464,-0.4025585942572619,-0.5495845994590443,0.1955325890554795,0.0332103280565729,-0.23532170798286603,0.3011143905864703
1592314590.076713,0.07152561562411548,9.763841871874705,0.6776280781205775,-0.4088888888888889,-0.5522222222222222,0.20555555555555555,0.018249854228484377,-0.24426288585495398,0.25076019365966085
1592314590.086713,0.16400276946442133,9.676907580292134,0.7319145039531871,-0.4088888888888889,-0.5522222222222222,0.20555555555555555,0.01569803289257608,-0.2358968953262669,0.21526018173548603
1592314590.096713,0.2383408863235224,9.513408863235224,0.9058295568382388,-0.4088888888888889,-0.5522222222222222,0.20555555555555555,0.015907536959696742,-0.2106331901866113,0.1825455333924573
1592314590.106713,0.2542019434384215,9.478403886876842,0.7841498941202082,-0.4088888888888889,-0.5522222222222222,0.20555555555555555,0.03906665515047357,-0.1789602142026507,0.15214780556513324
1592314590.116713,0.2851959275869971,9.519608144826005,0.826661537957901,-0.40484761187678003,-0.5383664153235633,0.2101741578551085,0.07687109199803993,-0.1314886932424397,0.11145793045638093
1592314590.126713,0.19530410020142153,9.453182460120853,0.800608200402843,-0.4011111111111111,-0.5255555555555556,0.21444444444444444,0.10735297259396753,-0.0768873692087392,0.061902203504312234
1592314590.136713,0.2640753020256154,9.744959124352803,0.7963502588790989,-0.4011111111111111,-0.5255555555555556,0.21444444444444444,0.12876623736461945,-0.045172175645243264,0.017456859593080718
1592314590.146713,0.1331795091936753,9.644769263790513,0.7501781498175575,-0.4011111111111111,-0.5255555555555556,0.21444444444444444,0.13448662834641859,-0.01996882931477951,-0.03765883141212223
1592314590.156713,0.036020094562647764,9.593344562647754,0.6175585106382979,-0.4011111111111111,-0.5255555555555556,0.21444444444444444,0.13102373399564582,-0.0025537818532062415,-0.07824796108251306
1592314590.166713,0.04035467526485491,9.729640009920987,0.5164266732806576,-0.3993253335537997,-0.5190077045120803,0.20194400154326456,0.11118620216272224,-0.007908957990315869,-0.12478434726498044
1592314590.176713,-0.0432749331524125,9.665818733288104,0.45836253342379374,-0.3977777777777778,-0.5133333333333333,0.19111111111111112,0.08869376746601845,-0.029651816727589236,-0.16939778824724655
1592314590.186713,-0.09392761158415593,9.661782834752469,0.35713133900987115,-0.3977777777777778,-0.5133333333333333,0.19111111111111112,0.05301934070262011,-0.06930870228364315,-0.2557676659341133
1592314590.196713,-0.26652917914919116,9.618476932294787,0.36674152186938286,-0.3977777777777778,-0.5133333333333333,0.19111111111111112,0.015317956950075217,-0.0746980789483231,-0.32419187593072635
1592314590.206713,-0.3860615235557709,9.712430664890396,0.38929231762948613,-0.3977777777777778,-0.5133333333333333,0.19111111111111112,-0.01868843126232191,-0.08476593196621374,-0.38243181475627547
1592314590.216713,-0.3645521805637936,9.656392782443106,0.5158833078387912,-0.385961837965709,-0.5172719799373563,0.21343010853390776,-0.06004050723859017,-0.1084359284918782,-0.44906822976638094
1592314590.226713,-0.34532489890699447,9.569778195940266,0.6001109020298675,-0.37777777777777777,-0.52,0.2288888888888889,-0.0800213494555965,-0.11839058087376036,-0.4794901592214708
1592314590.236713,-0.35570310251539744,9.674257756288494,0.4691406205030795,-0.37777777777777777,-0.52,0.2288888888888889,-0.12784878342231099,-0.13432984906263126,-0.5808290590832242
1592314590.246713,-0.3271764680037785,9.548549021330814,0.6203137013685991,-0.37777777777777777,-0.52,0.2288888888888889,-0.15492363574770018,-0.14493077173005378,-0.6527018013941752
1592314590.256713,-0.4369979214871172,9.588498960743559,0.6959100356876741,-0.37777777777777777,-0.52,0.2288888888888889,-0.16567734196238595,-0.14437647422075822,-0.7157875321756589
1592314590.266713,-0.5741472664068261,9.593410934372695,0.7107363320341304,-0.3714901038191884,-0.5194760271701175,0.23308067152794848,-0.17204120095020572,-0.14637567129311557,-0.7891159662782185
1592314590.276713,-0.6086177658680958,9.531489421269447,0.7959576850777907,-0.36444444444444446,-0.5188888888888888,0.23777777777777778,-0.17804912353224508,-0.15239136823574012,-0.8246449923574684
1592314590.286713,-0.8555512668523062,9.59665380055692,0.7922436657384687,-0.36444444444444446,-0.5188888888888888,0.23777777777777778,-0.1765542297372617,-0.14722206638023053,-0.8836889911679332
1592314590.2967129,-0.8993650412747168,9.616507966980226,0.7787300825494337,-0.36444444444444446,-0.5188888888888888,0.23777777777777778,-0.16402286798698762,-0.13015517937865506,-0.9151204343608382
1592314590.3067129,-0.9766837212654033,9.791465014052028,0.8420436693809901,-0.36444444444444446,-0.5188888888888888,0.23777777777777778,-0.15562846693216192,-0.11560283006423365,-0.9255054218193938
1592314590.3167129,-2.5628466516884076,11.40548506086315,0.7905603433821803,-0.35019318973579394,-0.5111694592550365,0.2413405914549404,-0.09390819949682469,-0.016988735632591935,-0.82422901043985
1592314590.3267128,-3.21,10.33,0.46,-0.3377777777777778,-0.5044444444444445,0.24444444444444444,-0.07308566242726255,0.02617993877991494,-0.729765793490129
1592314590.3367128,-2.654578696343402,10.035478083125142,1.2041414944356121,-0.3377777777777778,-0.5044444444444445,0.24444444444444444,-0.13984621577150766,-0.004820912150033746,0.040393317705014406
1592314590.3467128,-2.009085399888366,9.381332030938522,1.2938170799776734,-0.3377777777777778,-0.5044444444444445,0.24444444444444444,-0.17067922471155275,-0.09172955312524679,0.09552467179891669
1592314590.3567128,-1.1001192630546168,9.568430175515099,1.2082762455031069,-0.3377777777777778,-0.5044444444444445,0.24444444444444444,-0.050781342078197435,-0.18287427856337402,-0.04080185175129969
1592314590.3667128,-1.5812662169174883,9.574670472236637,1.1498391281785159,-0.32925330104364875,-0.5140344807703396,0.24444444444444444,-0.014476292475756027,-0.11980854313597687,-0.07380118401993277
1592314590.3767128,-1.892580852775543,9.70046178600161,0.917609010458568,-0.32,-0.5244444444444445,0.24444444444444444,0.020405644023140865,-0.07938159018252086,-0.05179067977581765
1592314590.3867128,-1.4302741475343024,9.66733025404157,1.0012990082869175,-0.32,-0.5244444444444445,0.24444444444444444,0.027009450312057606,-0.03658768849903566,-0.00439322798692208
1592314590.3967128,-1.4210577116428715,9.74090770158858,0.8790922984114217,-0.32,-0.5244444444444445,0.24444444444444444,0.03766680587934414,-0.037435215463064275,-0.00537150258755876
1592314590.4067128,-1.0797344446598178,9.666755185113395,0.9369091770584308,-0.32,-0.5244444444444445,0.24444444444444444,0.05140634330536232,-0.023906746196236103,-0.002581381470517124
1592314590.4167128,-0.7737113581709825,9.730088871850278,0.86,-0.3132740854331486,-0.5250049373250154,0.24444444444444444,0.06218704901729596,-0.013601454328712823,0.0
1592314590.4267128,-0.6356999031945789,9.741139980638916,0.8554400774443368,-0.30666666666666664,-0.5255555555555556,0.24444444444444444,0.06364124317650824,-0.00919571405627845,-0.00037305779171379277
1592314590.4367127,-0.6699406316789361,9.760059368321064,0.7495844217525528,-0.30666666666666664,-0.5255555555555556,0.24444444444444444,0.06434606400886657,-0.005460629991694441,-0.0038211457783436766
1592314590.4467127,-0.66,9.77,0.68,-0.30666666666666664,-0.5255555555555556,0.24444444444444444,0.062177354602297986,-0.006544984694978735,-0.004363323129985824
1592314590.4567127,-0.578411475154242,9.82,0.5659202173864624,-0.30666666666666664,-0.5255555555555556,0.24444444444444444,0.05873158107475729,-0.007462534297423858,0.000842741308365193
1592314590.4667127,-0.56,9.842593662657412,0.42125647709072633,-0.3157041317296318,-0.5255555555555556,0.2574985606465052,0.0493294418750017,0.0029254394109736,0.002181661564992912
1592314590.4767127,-0.5617954354690435,9.871346576601782,0.34551141132739116,-0.32666666666666666,-0.5255555555555556,0.2733333333333333,0.03854911139557163,0.013677524273243064,0.0019368470302905817
1592314590.4867127,-0.5859216787580934,9.871843357516187,0.30162051122032396,-0.32666666666666666,-0.5255555555555556,0.2733333333333333,-0.028154621323666557,0.03385847186818764,-0.0012248835239499819
1592314590.4967127,-0.6371614683301343,9.814168666026871,0.489156669865643,-0.32666666666666666,-0.5255555555555556,0.2733333333333333,-0.0836648890080066,0.051559237077629036,0.002217935352529862
1592314590.5067127,-0.7,9.79,0.61,-0.32666666666666666,-0.5255555555555556,0.2733333333333333,-0.10581058590215622,0.05999569303730508,0.0032724923474893677
1592314590.5167127,-0.653866919785064,9.80160075935519,0.7745323208597445,-0.31860012655919856,-0.5255555555555556,0.2648186521087837,-0.13401571648843708,0.03156150869490043,-0.008533884502596232
1592314590.5267127,-0.63,9.73,0.87,-0.30666666666666664,-0.5255555555555556,0.25222222222222224,-0.14508049407202864,0.01854412330243975,-0.01308996938995747
1592314590.5367126,-0.6980980386793227,9.67394397789753,0.9520420165768525,-0.30666666666666664,-0.5255555555555556,0.25222222222222224,-0.12629070482784605,-0.00853445212286905,-0.022262114558008885
1592314590.5467126,-0.74,9.65,0.97,-0.30666666666666664,-0.5255555555555556,0.25222222222222224,-0.11453723216212788,-0.019634954084936207,-0.02617993877991494
1592314590.5567126,-0.6399474712101825,9.683315823736727,1.0600262643949088,-0.30666666666666664,-0.5255555555555556,0.25222222222222224,-0.08106598815860315,-0.04363896130194826,-0.02654450404109543
1592314590.5667126,-0.6364900190114068,9.66635099809886,1.101894011406844,-0.31153200253485425,-0.5255555555555556,0.2574930027460921,-0.06057001233355529,-0.045608288270352654,-0.023688370323174286
1592314590.5767126,-0.7,9.66,1.14,-0.32,-0.5255555555555556,0.26666666666666666,-0.05017821599483697,-0.04145156973486533,-0.017453292519943295
1592314590.5867126,-0.6496227796213155,9.673875170798361,1.1496227796213156,-0.32,-0.5255555555555556,0.26666666666666666,-0.009557864426508937,-0.053914572261840016,-0.014848915395522102
1592314590.5967126,-0.5661072072488558,9.703356756506865,1.0232864869862697,-0.32,-0.5255555555555556,0.26666666666666666,0.019159509000687833,-0.0590218072219673,-0.012906886723605782
1592314590.6067126,-0.5538817500985417,9.730822625147812,0.9377635001970831,-0.32,-0.5255555555555556,0.26666666666666666,0.03948863328577937,-0.04635329976506481,-0.009907211525837047
1592314590.6167126,-0.5537399121462867,9.705420029284571,0.9191599414308578,-0.31821890027733324,-0.5273366552782224,0.2600511534110472,0.05360887081966042,-0.026729755827707105,-0.005637426261746336
1592314590.6267126,-0.6244874397361075,9.734077391524993,0.8471527531083481,-0.31222222222222223,-0.5333333333333333,0.23777777777777778,0.06475906126496715,0.005208142646437405,0.000556597721522995
1592314590.6367126,-0.65,9.78,0.74,-0.31222222222222223,-0.5333333333333333,0.23777777777777778,0.07199483164476608,0.017453292519943295,0.0
1592314590.6467125,-0.7058924485125858,9.782053775743707,0.6759820747520977,-0.31222222222222223,-0.5333333333333333,0.23777777777777778,0.06500178258947131,0.026160385367719165,-0.0023959170390530473
1592314590.6567125,-0.67,9.8,0.67,-0.31222222222222223,-0.5333333333333333,0.23777777777777778,0.061086523819801536,0.019634954084936207,-0.001090830782496456
1592314590.6667125,-0.6793419988134405,9.748939647268216,0.8138390593819104,-0.31222222222222223,-0.5310156470045365,0.23777777777777778,0.054425872584809416,-0.0037630455573731637,0.0003250547474943595
1592314590.6767125,-0.5783615297620421,9.758983082142775,0.8773446119048168,-0.31222222222222223,-0.5255555555555556,0.23777777777777778,0.059126719315194955,-0.022506859994862367,0.000690244344933248
1592314590.6867125,-0.6308332138247527,9.74694440460825,0.8483335723504948,-0.31222222222222223,-0.5255555555555556,0.23777777777777778,0.06591949499427105,-0.02030158158737106,-0.002272551093837088
1592314590.6967125,-0.6495766063369469,9.742980505280789,0.7972311915507374,-0.31222222222222223,-0.5255555555555556,0.23777777777777778,0.07127530863711466,-0.01930983139416841,-0.007658908019513804
1592314590.7067125,-0.6344864494738359,9.719794579789536,0.8475513550526164,-0.31222222222222223,-0.5255555555555556,0.23777777777777778,0.07172772591636505,-0.02344165788922766,-0.009550371314067059
1592314590.7167125,-0.7098808078578523,9.7500264871427,0.8399735128573005,-0.31221486468258347,-0.5255746851586163,0.23779690738083853,0.07091411340897857,-0.02509488659553788,-0.008729535559031346
1592314590.7267125,-0.5921637701949534,9.77347952872563,0.8026023563718458,-0.30666666666666664,-0.54,0.25222222222222224,0.07853981633974483,-0.026795527197655163,-0.010149192416464803
1592314590.7367125,-0.5577864524685334,9.787114580987414,0.6561667042013863,-0.30666666666666664,-0.54,0.25222222222222224,0.07853981633974483,-0.011339530323322515,-0.008338606062689921
1592314590.7467124,-0.6015474011930508,9.823094802386102,0.4423017325379661,-0.30666666666666664,-0.54,0.25222222222222224,0.07224168600013675,0.014353821173057137,-0.008055690833449064
1592314590.7567124,-0.6369914312916535,9.862831905215275,0.4328319052152756,-0.30666666666666664,-0.54,0.25222222222222224,0.05445453114746086,0.025706933873805453,-0.009962298012745587
1592314590.7667124,-0.6871202006417586,9.866202559657728,0.4461708405561908,-0.3072995733903785,-0.54,0.2518530266333903,0.03345675735287142,0.026545855718903815,-0.013245308070709096
1592314590.7767124,-0.83,9.79,0.57,-0.32,-0.54,0.24444444444444444,0.004363323129985824,0.011999138607461015,-0.016362461737446838
1592314590.7867124,-0.7622217377084923,9.658666739343726,0.984444565572877,-0.32,-0.54,0.24444444444444444,-0.006351030153797909,-0.0512934248772366,-0.019634954084936207
1592314590.7967124,-0.62,9.68,1.02,-0.32,-0.54,0.24444444444444444,0.002181661564992912,-0.0916297857297023,-0.019634954084936207
1592314590.8067124,-0.5113040370058873,9.724347981497058,1.0353614381833474,-0.32,-0.54,0.24444444444444444,0.03572876777874593,-0.12486069780620772,-0.02026734235943142
1592314590.8167124,-0.4624928691439066,9.750997147657563,0.8815242449107178,-0.31961222035539233,-0.5392798378028715,0.24444444444444444,0.05524544528560617,-0.1402820831982174,-0.023400031567162086
1592314590.8267124,-0.51,9.77,0.72,-0.31222222222222223,-0.5255555555555556,0.24444444444444444,0.08944812416470939,-0.13199052468207118,-0.011999138607461015
1592314590.8367124,-0.5219782303949864,9.77139138561337,0.5858258431598912,-0.31222222222222223,-0.5255555555555556,0.24444444444444444,0.08689889451300573,-0.07755326827244373,-0.006177416608267979
1592314590.8467124,-0.5,9.83,0.41,-0.31222222222222223,-0.5255555555555556,0.24444444444444444,0.08290313946973066,-0.03599741582238304,-0.002181661564992912
1592314590.8567123,-0.5911436855670102,9.84257087628866,0.4567155283505155,-0.31222222222222223,-0.5255555555555556,0.24444444444444444,0.05670721074116764,0.017141927805609577,-0.005251555991699674
1592314590.8667123,-0.64,9.81055222838667,0.5322089135466804,-0.3115472764162921,-0.5259850665229656,0.24524210766963458,0.031218954167023437,0.035508972763034684,-0.004303084357671014
