time,acc_x,acc_y,acc_z,mag_x,mag_y,mag_z,gyr_x,gyr_y,gyr_z
1592341267.8465593,-0.09167543373938723,9.74,0.03497369878183832,-0.41333333333333333,-0.6377777777777778,-0.4533333333333333,-0.016545223207142513,-0.02035452389236373,0.003455253817185041
1592341267.8565593,-0.09863884437632087,9.735916533128963,0.01680577811839569,-0.41333333333333333,-0.6377777777777778,-0.4533333333333333,-0.017601771565351032,-0.013238448435365207,0.004214844084578087
1592341267.8665593,-0.08725145295514665,9.712748547044853,0.06458091174142225,-0.41333333333333333,-0.6377777777777778,-0.4533333333333333,-0.018444183311650892,-0.01438068015403164,0.0033724323382782247
1592341267.8765593,-0.06295591898206251,9.737044081017938,0.10507346836322913,-0.41333333333333333,-0.6377777777777778,-0.4533333333333333,-0.017560772767149943,-0.016147501243033546,0.004255842882779177
1592341267.8865592,-0.06214591648009345,9.74321887472014,0.10463520879976637,-0.41333333333333333,-0.6444444444444445,-0.47555555555555556,-0.019634954084936207,-0.011296889081515302,0.004246281542328205
1592341267.8965592,-0.0837458162223752,9.763756972962709,0.047513945925416,-0.41333333333333333,-0.6444444444444445,-0.47555555555555556,-0.020452164413124498,-0.004909347027023419,0.0032724923474893677
1592341267.9065592,-0.10766007467846771,9.724679850643065,-0.04,-0.41333333333333333,-0.6444444444444445,-0.47555555555555556,-0.02758379319312363,-0.0022394389387581093,0.0027619998335952993
1592341267.9165592,-0.08777503317342043,9.75777503317342,-0.030358477084821884,-0.41333333333333333,-0.6444444444444445,-0.47555555555555556,-0.03866448984826924,-0.01090830782496456,-0.0008481245520498116
1592341267.9265592,-0.06208778197407369,9.732087781974075,0.08095294477901399,-0.41333333333333333,-0.6444444444444445,-0.47555555555555556,-0.044268578713462535,-0.01090830782496456,0.0019539198805468318
1592341267.9365592,-0.02611899692453277,9.75,0.07489519753962622,-0.41888888888888887,-0.6311111111111111,-0.46,-0.047306211059544495,-0.004386187479957242,0.006411488890913105
1592341267.9465592,-0.07581920361208512,9.74650847783275,0.10650847783274893,-0.41888888888888887,-0.6311111111111111,-0.46,-0.05068603730921113,0.004034224319050608,0.005200243255295199
1592341267.9565592,-0.11022696549270722,9.723664887940235,0.08855140519388119,-0.41888888888888887,-0.6311111111111111,-0.46,-0.05374198460890117,0.009817477042468103,0.0028727150895285535
1592341267.9665592,-0.0427971247517261,9.74533812541379,0.1555942495034522,-0.41888888888888887,-0.6311111111111111,-0.46,-0.04799655442984406,0.010020889694579142,0.00010170632605551937
1592341267.9765592,-0.0665990731107538,9.705668211482076,0.20319814622150761,-0.41888888888888887,-0.6311111111111111,-0.46,-0.04799655442984406,0.011751816224807038,0.0009671695911694671
1592341267.9865592,-0.09,9.7,0.17,-0.44555555555555554,-0.6177777777777778,-0.44555555555555554,-0.042542400517361786,0.014180800172453926,0.001090830782496456
1592341267.9965591,-0.08054669344991926,9.718906613100161,0.05656032139903108,-0.44555555555555554,-0.6177777777777778,-0.44555555555555554,-0.036355225848639705,0.0038688423912504773,-0.000971560773744234
1592341268.0065591,-0.14429023796582932,9.71809674598861,-0.0042902379658293355,-0.44555555555555554,-0.6177777777777778,-0.44555555555555554,-0.03251731066864025,-0.004933394797516819,-0.002181661564992912
1592341268.0165591,-0.07990206531611578,9.696393594755754,0.05432768629309324,-0.44555555555555554,-0.6177777777777778,-0.44555555555555554,-0.029992505010259792,-0.021512580438348344,-0.0024177002362676158
1592341268.026559,0.03604035856731036,9.65498558622596,0.1040172965288473,-0.44555555555555554,-0.6177777777777778,-0.44555555555555554,-0.023668826761795117,-0.0305464065075836,-0.005127848057038191
1592341268.036559,0.0,9.66,0.12,-0.4266666666666667,-0.6377777777777778,-0.46,0.001090830782496456,-0.02399827721492203,0.0
1592341268.046559,-0.0565558258988916,9.70948634766153,0.09879156528791565,-0.4266666666666667,-0.6377777777777778,-0.46,0.020369841976253092,-0.02785407945367336,-0.0046269626865015935
1592341268.056559,-0.14665844576623627,9.789331689153247,-0.08066831084675274,-0.4266666666666667,-0.6377777777777778,-0.46,0.03999623193041179,-0.04203478096999666,-0.008617294153384523
1592341268.066559,-0.04769208205408999,9.767307429063104,-0.09615347009014999,-0.4266666666666667,-0.6377777777777778,-0.46,0.02903283980425854,-0.059156617048696084,-0.005286317383223971
1592341268.076559,0.00152042552359348,9.709892836889141,-0.014132624127344201,-0.4266666666666667,-0.6377777777777778,-0.46,0.020085753445995665,-0.0645248688636538,-0.0017074828399188217
1592341268.086559,0.08,9.65,0.04,-0.41888888888888887,-0.6311111111111111,-0.43666666666666665,0.017453292519943295,-0.05999569303730508,0.001090830782496456
1592341268.096559,0.02778778291555123,9.71091425326519,-0.02091425326519024,-0.41888888888888887,-0.6311111111111111,-0.43666666666666665,0.03359045571173945,-0.04385852984550892,0.0020400756761315237
1592341268.106559,0.0,9.71117541519069,-0.12117541519068868,-0.41888888888888887,-0.6311111111111111,-0.43666666666666665,0.036290485324604105,-0.030469994534345502,-0.0001648515949993494
1592341268.116559,0.0,9.778710263605833,-0.18871026360583337,-0.41888888888888887,-0.6311111111111111,-0.43666666666666665,0.053129134820026236,-0.026260332160489966,-0.009636591936174296
1592341268.126559,-0.04698631440698936,9.78,-0.20566210480232977,-0.41888888888888887,-0.6311111111111111,-0.43666666666666665,0.04149141411637951,-0.019346056365088182,-0.008109006438761415
1592341268.136559,-0.030798202848676036,9.848137526686422,-0.17106427046490139,-0.406991860419831,-0.625703370897903,-0.45937917556214086,0.01588112392155891,-0.020638714443631447,-0.007635815477475192
1592341268.146559,-0.0005635517364840706,9.771502804630623,-0.17,-0.4066666666666667,-0.6255555555555555,-0.46,0.009919933639415795,-0.0046706929208289,-0.004424797088154439
1592341268.156559,0.058847528716457743,9.77,-0.3465425861493732,-0.4066666666666667,-0.6255555555555555,-0.46,-0.011580088223450653,0.006335459502973554,-0.0011536883400980105
1592341268.166559,0.04101004039238315,9.665555222158108,-0.26454518176572417,-0.4066666666666667,-0.6255555555555555,-0.46,-0.011999138607461015,0.02208110906874332,-0.003162314032331733
1592341268.176559,0.007844865936021357,9.668038783515994,-0.14745703077607475,-0.4066666666666667,-0.6255555555555555,-0.46,0.006415661669990327,0.035183979950726474,-0.0032724923474893677
1592341268.186559,-0.08914296246237022,9.788857283283159,-0.16952386803465014,-0.42647621388052676,-0.6178518427501655,-0.44569310478998997,0.04116071726843818,0.05654661169234208,-0.007594265125128457
1592341268.196559,-0.07021339289957702,9.79,-0.22935982130126897,-0.4266666666666667,-0.6177777777777778,-0.44555555555555554,0.03389722569765881,0.06103996871107658,-0.004398239461529542
1592341268.206559,-0.021116818246077,9.711786909193725,-0.5232990905235381,-0.4266666666666667,-0.6177777777777778,-0.44555555555555554,0.02101816720053854,0.05042186793909187,-0.008629185482269687
1592341268.216559,0.0673638473195681,9.84589931805266,-0.40380777609395724,-0.4266666666666667,-0.6177777777777778,-0.44555555555555554,0.013313626894826689,0.04700157686372013,-0.00449112741848252
1592341268.226559,-0.07624618271092393,9.793126484501308,-0.47312309135546193,-0.4266666666666667,-0.6177777777777778,-0.44555555555555554,0.012203692512603712,0.048678277402055124,-0.008794707516754624
1592341268.236559,-0.09031450344744163,9.789842748276278,-0.3128305310269747,-0.40698117011410834,-0.6254332486593283,-0.4663346908054783,-0.008400729720384588,0.048013707931927586,-0.007670122481642251
1592341268.246559,-0.04451420916238415,9.662639785654676,-0.32819431633504637,-0.4066666666666667,-0.6255555555555555,-0.4666666666666667,-0.029565912600955632,0.04700420841360673,-0.009620507509949857
1592341268.256559,-0.0493799122306796,9.725039297845438,-0.39565938561475716,-0.4066666666666667,-0.6255555555555555,-0.4666666666666667,-0.025494954493393042,0.05509124124601984,0.006553558154876373
1592341268.266559,0.08990824603305982,9.77663608201102,-0.23211010476032823,-0.4066666666666667,-0.6255555555555555,-0.4666666666666667,0.0013643703955593944,0.06173701876723722,0.015775347290699154
1592341268.2765589,0.2299165379879205,9.420818983209868,-0.11300990989230077,-0.4066666666666667,-0.6255555555555555,-0.4666666666666667,0.008274267363698563,0.06884638795724358,0.00552528253566025
1592341268.2865589,0.1,9.89,-0.18,-0.4066666666666667,-0.6111111111111112,-0.46,0.0916297857297023,0.08508480103472357,0.0
1592341268.2965589,-0.23399036583778152,9.740583257388362,-0.38215206353339404,-0.4066666666666667,-0.6111111111111112,-0.46,0.17120646648072257,0.1100124359687781,-0.001917510379542657
1592341268.3065588,-0.22578022941814574,10.036281995060817,-0.5274761695940177,-0.4066666666666667,-0.6111111111111112,-0.46,0.15949664601485156,0.1026032256716913,0.002747054665888957
1592341268.3165588,0.18228289426968688,9.667717105730313,-0.4595434211460626,-0.4066666666666667,-0.6111111111111112,-0.46,0.09564447367172983,0.08194403769034189,-0.0025784751770591865
1592341268.3265588,0.26272663740199614,9.685453274803992,-0.32727510974251456,-0.4066666666666667,-0.6111111111111112,-0.46,0.0937121769050675,0.06981336066367455,-0.016659701154625818
1592341268.3365588,0.46,9.32,-0.33,-0.4066666666666667,-0.6255555555555555,-0.4533333333333333,0.07635815477475191,0.06981317007977318,-0.08508480103472357
1592341268.3465588,-2.0828955235779487,9.750458803364292,0.012772750827121593,-0.4066666666666667,-0.6255555555555555,-0.4533333333333333,0.05983667967693558,0.055900348944769945,-0.10856268670004152
1592341268.3565588,1.3695083558517198,9.869668651782668,-0.6928294461788703,-0.4066666666666667,-0.6255555555555555,-0.4533333333333333,-0.08885965305259473,0.03337552417823535,0.13014998920064616
1592341268.3665588,1.5387511484910594,10.445022969821188,-1.2471043890027564,-0.4066666666666667,-0.6255555555555555,-0.4533333333333333,-0.1345828764427216,-0.04672709230074753,0.08730986762696544
1592341268.3765588,0.2443893840761142,9.61698928392589,-0.3767529293940911,-0.4066666666666667,-0.6255555555555555,-0.4533333333333333,-0.2118464608618652,0.0051245121695574145,0.014859114476762442
1592341268.3865588,-0.24,8.91,0.63,-0.4066666666666667,-0.6444444444444445,-0.4533333333333333,-0.19525871006686563,0.019634954084936207,-0.004363323129985824
1592341268.3965588,0.3078507835475164,9.710704991338678,-0.009159247472102505,-0.4066666666666667,-0.6444444444444445,-0.4533333333333333,-0.026701338579871475,0.032659841881658484,0.013258583889109023
1592341268.4065588,0.21333144261675174,9.844665478216244,-0.5413348459065986,-0.4066666666666667,-0.6444444444444445,-0.4533333333333333,0.16282535835610734,0.08399423542460759,0.016653326375234295
1592341268.4165587,-0.16330208676810026,9.709133496631965,-0.5414051533279948,-0.4066666666666667,-0.6444444444444445,-0.4533333333333333,0.15097660170631844,0.11363544308902915,-0.0029071778508970407
1592341268.4265587,-0.32936683956358437,9.870337248355492,-0.40837576263439257,-0.4066666666666667,-0.6444444444444445,-0.4533333333333333,0.15197757784626784,0.10295925972335744,-0.000984975604314652
1592341268.4365587,-0.03,10.0,-0.42,-0.41888888888888887,-0.6377777777777778,-0.4666666666666667,0.11344640137963141,0.06872233929727672,0.00545415391248228
1592341268.4465587,-0.17116116598410022,9.814261623705132,-0.449718140207179,-0.41888888888888887,-0.6377777777777778,-0.4666666666666667,0.05266365987362557,0.049271862015354856,-0.004271084728478656
1592341268.4565587,0.05351564365894437,9.636821112968713,-0.13932648674468595,-0.41888888888888887,-0.6377777777777778,-0.4666666666666667,-0.007461261710034875,0.022994723316145733,-0.0014628647823543353
1592341268.4665587,-0.000909528392685266,9.72927333974976,-0.26181905678537054,-0.41888888888888887,-0.6377777777777778,-0.4666666666666667,0.01802862964102901,0.023363621576790068,-0.0003173278190659806
1592341268.4765587,-0.17669425481785778,9.707131033649489,-0.22220383012142814,-0.41888888888888887,-0.6377777777777778,-0.4666666666666667,0.04697827875467127,0.04457209834258324,0.0030479735003942536
1592341268.4865587,-0.11527513178581338,9.854614815499861,-0.22988994728567463,-0.41888888888888887,-0.6276150107381033,-0.4666666666666667,0.05000641493846118,0.05526475801687098,-0.003799900405465088
1592341268.4965587,-0.335851587248096,9.988340634899238,-0.5104367459729056,-0.41888888888888887,-0.6255555555555555,-0.4666666666666667,0.028526728466326406,0.053844486712013674,-0.014393569889010152
1592341268.5065587,-0.2262754092028391,9.846275409202839,-0.4881377046014195,-0.41888888888888887,-0.6255555555555555,-0.4666666666666667,-0.03940324012515654,0.035591125993008434,-0.012790545267583256
1592341268.5165586,-0.07490448901623686,9.834663323782236,-0.5028844317096466,-0.41888888888888887,-0.6255555555555555,-0.4666666666666667,-0.13236767916465353,0.013698417505504684,0.0005558340233637622
1592341268.5265586,0.11355144618302514,9.51289710763395,-0.2646728307254623,-0.41888888888888887,-0.6255555555555555,-0.4666666666666667,-0.17377203793177667,0.0008971294415552888,0.005705314420465591
1592341268.5365586,0.24843075818401383,9.439215379092007,-0.03294232840497405,-0.40037051542877455,-0.6113944464389975,-0.47429187926789024,-0.1447385658486827,0.015998709065859443,0.012961586094103094
1592341268.5465586,0.17126222080915665,9.392757332485495,-0.03,-0.4,-0.6111111111111112,-0.47444444444444445,-0.06583013339856165,0.04298823565634888,0.01308996938995747
1592341268.5565586,0.00027414075286416595,9.538533262732262,-0.0035777895446230876,-0.4,-0.6111111111111112,-0.47444444444444445,0.05615349968978225,0.07515742176698517,0.008286275972236665
1592341268.5665586,-0.08150315929497838,9.542427668772863,-0.1317924842035251,-0.4,-0.6111111111111112,-0.47444444444444445,0.1541543053000246,0.08045666032202327,-0.0038652484161954565
1592341268.5765586,-0.5084650495306053,9.958465049530604,-0.5317575890454646,-0.4,-0.6111111111111112,-0.47444444444444445,0.20664873934081446,0.07271315233584497,-0.009458316696928669
1592341268.5865586,-0.28393221317257744,9.761449368306291,-0.24807028794972097,-0.4173256161953013,-0.6294558812002536,-0.480559367807492,0.1874198809979837,0.05680599413758615,0.004099972108328163
1592341268.5965586,-0.13060127470236904,9.809599150198421,-0.3492985128472361,-0.41888888888888887,-0.6311111111111111,-0.4811111111111111,0.1438301073699695,0.03754295255377839,-0.005399496499642235
1592341268.6065586,-0.18202301744290594,10.039577414134149,-0.46308577593957917,-0.41888888888888887,-0.6311111111111111,-0.4811111111111111,0.022685396361253843,0.0246016570902968,-0.015608236893228374
1592341268.6165586,-0.40855180281891,9.878827514082666,-0.4613103415492121,-0.41888888888888887,-0.6311111111111111,-0.4811111111111111,-0.07118238011052065,0.0021966992816722063,-0.02015404050844681
1592341268.6265585,-0.5111498171229715,9.752977522105038,-0.32416853094705445,-0.41888888888888887,-0.6311111111111111,-0.4811111111111111,-0.121709344813096,-0.00814650448129016,-0.00943670694936274
1592341268.6365585,-0.10304074481242265,9.601517452246805,-0.18939535522880308,-0.4146802330020002,-0.6269024552242224,-0.4811111111111111,-0.14455156780900283,-0.016957344513362352,0.00994939006824753
1592341268.6465585,-0.004690118111244916,9.677256283466987,-0.11637185826650612,-0.41333333333333333,-0.6255555555555555,-0.4811111111111111,-0.15970530102477315,-0.013669187651524917,0.01320581304227096
1592341268.6565585,-0.13829479074977996,9.574534688325198,-0.25753900936224694,-0.41333333333333333,-0.6255555555555555,-0.4811111111111111,-0.13905129069206723,-0.010990750785200449,0.005392834505848386
1592341268.6665585,-0.27990674014412886,9.649813480288257,-0.26135491733785504,-0.41333333333333333,-0.6255555555555555,-0.4811111111111111,-0.05981199972304195,0.009246628970831023,0.005856857285821237
1592341268.6765585,-0.27740798886239426,9.663703994431197,-0.20382929249544574,-0.41379970411620765,-0.6255555555555555,-0.4860080043312911,-0.027972081392228017,0.01291485549829025,0.0026531879089544863
1592341268.6865585,-0.2401358136228321,9.645067906811416,-0.06716464995038432,-0.41518015505100625,-0.6255555555555555,-0.5005027391466764,0.03775776360687059,0.015625364570418028,-0.008866475647588568
1592341268.6965585,-0.19162150613311885,9.770486879147397,-0.1758382766941484,-0.41555555555555557,-0.6255555555555555,-0.5044444444444445,0.08493747965441105,0.013013306337779206,-0.011999138607461015
1592341268.7065585,-0.410630745426413,9.89183671611905,-0.47294984982251753,-0.41555555555555557,-0.6255555555555555,-0.5044444444444445,0.12140399555612098,0.007941410921957224,-0.016868411830065565
1592341268.7165585,-0.439108847566031,9.723705554897549,-0.39278621343124487,-0.41555555555555557,-0.6255555555555555,-0.5044444444444445,0.12772748614919227,0.004958880819787513,-0.02568159074080025
1592341268.7265584,-0.36053911411704914,9.608377379881935,-0.3359460885882951,-0.41555555555555557,-0.6255555555555555,-0.5044444444444445,0.11745572371500045,-0.009257647451896844,-0.017983717996806772
1592341268.7365584,-0.23717996289424864,9.807755102040817,-0.18126159554730983,-0.41555555555555557,-0.6109853638425067,-0.5044444444444445,0.14664894278526566,-0.014026991008317134,0.0011373782926957492
1592341268.7465584,-0.24427089022392137,9.998541780447843,-0.2059202621518296,-0.41555555555555557,-0.6044444444444445,-0.5044444444444445,0.14563156915330075,-0.011194271110381435,0.015398527162854121
1592341268.7565584,-0.1777797159844725,9.820712004324111,-0.516559137143138,-0.41555555555555557,-0.6044444444444445,-0.5044444444444445,0.06379886054385818,-0.018246451013579544,0.022620869518336965
1592341268.7665584,-0.04335682271561439,9.92226974792093,-0.4705435373973419,-0.41555555555555557,-0.6044444444444445,-0.5044444444444445,0.0014904921448650327,-0.01893609778243213,0.015944685332419634
1592341268.7765584,0.026607401909517225,9.862548159643737,-0.2917037211969907,-0.41555555555555557,-0.6044444444444445,-0.5044444444444445,-0.014402197493310127,-0.014384422409205483,0.011407666243631083
1592341268.7865584,-0.052216360516112614,9.911720905103923,-0.36653181211466346,-0.4252122220103533,-0.6149789896678601,-0.5044444444444445,-0.01043756508055728,-0.0026936580000876224,0.010221381874568345
1592341268.7965584,-0.09,9.840980952380953,-0.49950952380952385,-0.42777777777777776,-0.6177777777777778,-0.5044444444444445,-0.0005944594895247552,-0.0016317876193559088,0.006580653130088937
1592341268.8065584,-0.40002192823923466,9.917286681606786,-0.4754485650256633,-0.42777777777777776,-0.6177777777777778,-0.5044444444444445,-0.03989290584152591,-0.001413067331874129,-0.00012412113436343708
1592341268.8165584,-0.3544713562609395,9.810429064761815,-0.4048942712521879,-0.42777777777777776,-0.6177777777777778,-0.5044444444444445,-0.11251703563892651,-0.019472147371336873,-0.0026226071648998237
1592341268.8265584,-0.2627352053021687,9.632166163378956,-0.2576365739832935,-0.42777777777777776,-0.6177777777777778,-0.5044444444444445,-0.14593503308515693,-0.028526300863069797,-0.002644726697160169
1592341268.8365583,-0.008919383909552686,9.584939374078322,-0.10180812715058168,-0.412075208913649,-0.6242435414277131,-0.5044444444444445,-0.1066524363012318,-0.027638788664682445,0.0014456233604508168
1592341268.8465583,-0.15602443349753695,9.655341477832513,-0.11178049261083745,-0.4088888888888889,-0.6255555555555555,-0.5044444444444445,-0.049566276046508415,-0.020143120023059975,-0.006133929564250417
1592341268.8565583,-0.12906268851799718,9.526700180977278,-0.45841217574904486,-0.4088888888888889,-0.6255555555555555,-0.5044444444444445,0.07599400527690515,-0.0016839823589529668,-0.002259393951589972
1592341268.8665583,-0.17023977633511822,9.670479552670237,-0.5522892479742217,-0.4088888888888889,-0.6255555555555555,-0.5044444444444445,0.1420703841844716,-0.0011827887013734495,0.0027730559156796362
1592341268.8765583,-0.17389535824033642,9.769156962639496,-0.55,-0.4088888888888889,-0.6255555555555555,-0.5044444444444445,0.13743358592344726,-0.007876810924489611,0.0068319606971748055
1592341268.8865583,-0.19946571455895948,9.908397143676877,-0.46317542797028916,-0.4299372699870006,-0.6255555555555555,-0.5272468573007322,0.05811534961220606,-0.009186291173199298,0.018197737844680588
1592341268.8965583,-0.1537648006443818,10.010293999194522,-0.3790785340314136,-0.43555555555555553,-0.6255555555555555,-0.5333333333333333,0.020866982214792454,0.000986009105209443,0.030438440232613755
1592341268.9065583,-0.025511440107671604,9.695903245102437,-0.25984223119485567,-0.43555555555555553,-0.6255555555555555,-0.5333333333333333,0.03282818291639514,0.03857433430168565,0.03285371230438089
1592341268.9165583,-0.26078933189655173,9.588040140086207,-0.3017658943965517,-0.43555555555555553,-0.6255555555555555,-0.5333333333333333,0.08399470491735542,0.04983600897807589,0.009239589452549116
1592341268.9265583,-0.18155461379151644,9.738721331594691,-0.308546444734218,-0.43555555555555553,-0.6255555555555555,-0.5333333333333333,0.13772067041292152,0.0367219518700422,0.0011701099238951974
1592341268.9365582,-0.29097835731646154,10.07615331198642,-0.43391574399135835,-0.4256565890376314,-0.611087835260128,-0.5485625125916781,0.19150558894861539,0.016865941521474755,-0.0030512625560621905
1592341268.9465582,-0.44518805488297014,10.195742534301857,-0.4811089588377724,-0.4211111111111111,-0.6044444444444445,-0.5555555555555556,0.18703539549240908,0.003473402423813573,-0.00614105155292113
1592341268.9565582,-0.4793757228617062,10.058131023847553,-0.8456107837197775,-0.4211111111111111,-0.6044444444444445,-0.5555555555555556,0.07690630370130903,-0.04595024792091573,0.00286306282814623
1592341268.9665582,-0.331700649520592,9.55782303537865,-0.6369386881111561,-0.4211111111111111,-0.6044444444444445,-0.5555555555555556,-0.08479542502118984,-0.096223156302196,0.008429821733802583
1592341268.9765582,-0.35750811085486456,9.578864871203534,-0.6807891959504359,-0.4211111111111111,-0.6044444444444445,-0.5555555555555556,-0.19312540100577572,-0.15179765461423878,0.008726646259971648
1592341268.9865582,-0.2167654179837245,9.56402010895151,-0.18019839935436133,-0.4211111111111111,-0.6235293414337062,-0.5547603515143363,-0.2579493104929813,-0.19482018420753594,0.020436992388093274
1592341268.9965582,-0.10398937224887972,9.58652258397113,-0.10105048181782131,-0.4211111111111111,-0.6311111111111111,-0.5544444444444444,-0.19458276440293693,-0.1776349819961813,0.01674178898223057
1592341269.0065582,-0.08815371888395879,9.701115289162969,-0.19738512446416484,-0.4211111111111111,-0.6311111111111111,-0.5544444444444444,-0.012909982721024837,-0.1517471379420425,-0.00804271332519892
1592341269.0165582,-0.057436899604445285,9.688718449802222,-0.4124724524392541,-0.4211111111111111,-0.6311111111111111,-0.5544444444444444,0.0679661648788773,-0.15968068056599755,-0.00953788616145811
1592341269.0265582,-0.3349647316282069,9.917128509740323,-0.4621637781121163,-0.4211111111111111,-0.6311111111111111,-0.5544444444444444,0.0995953932058013,-0.16127199596839994,-0.01205208265997711
1592341269.0365582,-0.24338713562996872,9.99188388340159,-0.5365128884606118,-0.43405698760673467,-0.6311111111111111,-0.5816989212773361,0.04261243337776538,-0.21854864365995696,-0.018616258462592794
1592341269.0465581,-0.2372165562598294,9.971603679168851,-0.4366513367964543,-0.44222222222222224,-0.6311111111111111,-0.5988888888888889,0.0,-0.2552544031041707,-0.020725784867432664
1592341269.0565581,-0.2232964317955053,9.775870670404332,-0.41525918183113986,-0.44222222222222224,-0.6311111111111111,-0.5988888888888889,-0.03692053014114792,-0.30573757697063825,-0.007163141142113019
1592341269.0665581,-0.13204741379310345,9.762204433497537,-0.2892918719211822,-0.44222222222222224,-0.6311111111111111,-0.5988888888888889,-0.034021964263687185,-0.31414213716627387,0.004887244318623285
1592341269.076558,0.0862906379119218,9.56906983775068,0.16103476771137762,-0.44222222222222224,-0.6311111111111111,-0.5988888888888889,0.007028872525110034,-0.28368323635309695,0.009525108449388635
1592341269.086558,-0.029177557388698344,9.847081286495504,0.09011029752525718,-0.4458219105192875,-0.6390304253646546,-0.6024885771859542,0.06800351055936876,-0.2400112165889406,0.01090830782496456
1592341269.096558,-0.11932536764705884,10.03557169117647,-0.04557169117647059,-0.4477777777777778,-0.6433333333333333,-0.6044444444444445,0.08917621855054299,-0.22375465905594122,0.010294113948717015
1592341269.106558,-0.006274801439747735,9.794095844364458,-0.311853229021031,-0.4477777777777778,-0.6433333333333333,-0.6044444444444445,0.08628018180030012,-0.21811388150775116,-0.00717718435989168
1592341269.116558,-0.1542365289183611,9.64771331957314,-0.2764446005884678,-0.4477777777777778,-0.6433333333333333,-0.6044444444444445,0.0581932904993652,-0.20617640715156269,-0.013404317973451466
1592341269.126558,-0.23325761237312714,9.678777187046883,-0.13977283711938135,-0.4477777777777778,-0.6433333333333333,-0.6044444444444445,0.04000538856696403,-0.18085594771005642,-0.0067622018445140375
1592341269.136558,-0.05042426866225494,9.736808089554085,-0.19510606716556372,-0.45641848942764274,-0.6463829962685798,-0.6019030586650724,0.03100741651337504,-0.14107678956323752,-0.0011836617031913117
1592341269.146558,0.030413120485807577,9.784690159635645,-0.18612089984818514,-0.4666666666666667,-0.65,-0.5988888888888889,0.015906347233048335,-0.09542598926300999,-0.0024487362038320406
1592341269.156558,-0.07614051973051011,9.788421559191532,0.007016361886429262,-0.4666666666666667,-0.65,-0.5988888888888889,-0.012203166309159899,-0.06054758272097428,0.003023669541472372
1592341269.166558,-0.29082752834697717,10.031103371129303,0.035623379264758226,-0.4666666666666667,-0.65,-0.5988888888888889,0.019463650333894342,-0.018197494585542838,0.006705861020022259
1592341269.176558,-0.1250157164869029,9.738182434514638,0.3268228043143297,-0.4666666666666667,-0.65,-0.5988888888888889,0.07741886585367004,0.02121267525429487,0.0006317742288517222
1592341269.186558,-0.018908990215986687,9.867386007014952,0.180863946834041,-0.45839394498800073,-0.6534469673661109,-0.607851004040777,0.1260752294567004,0.0480684441454341,-0.014101459702026828
1592341269.196558,-0.1425926509393092,10.124814698121382,-0.07315899334409831,-0.4533333333333333,-0.6555555555555556,-0.6133333333333333,0.1250771466997108,0.052823301278895264,-0.020098377804001595
1592341269.206558,-0.4088343558282209,9.896380368098159,0.08122699386503067,-0.4533333333333333,-0.6555555555555556,-0.6133333333333333,-0.023034598486826992,0.028816670855397172,-0.018577584369387494
1592341269.216558,-0.38447210300429185,9.898420600858369,0.057630901287553646,-0.4533333333333333,-0.6555555555555556,-0.6133333333333333,-0.08975664669074593,0.03707420157334522,0.0019091879532277048
1592341269.226558,-0.2674338264694122,9.80334006397441,-0.03922610955617753,-0.4533333333333333,-0.6555555555555556,-0.6133333333333333,-0.10919196505686281,0.058989280606648764,0.024193784971121166
1592341269.236558,-0.2135904732446644,9.696040210330962,0.07979894834519025,-0.4608799532597862,-0.6616871842457985,-0.6222949444959961,-0.11170943977483966,0.0627118043268493,0.018009673577888442
1592341269.246558,-0.04556712933912302,9.63242739891067,0.2162794608569062,-0.4711111111111111,-0.67,-0.6344444444444445,-0.022982165370339605,0.10274250967429535,-0.00540812879902186
1592341269.256558,-0.13891191832858502,9.553563865147199,0.04732597340930675,-0.4711111111111111,-0.67,-0.6344444444444445,0.06097889103888854,0.15445539734331723,-0.019019380560027416
1592341269.266558,-0.21176336116659047,9.601183194167048,-0.06863103688909208,-0.4711111111111111,-0.67,-0.6344444444444445,0.0778969776876925,0.17562375598192942,-0.01959193193096668
1592341269.276558,-0.21421624418003105,9.66,-0.052612519399896536,-0.4711111111111111,-0.67,-0.6344444444444445,0.056259329555200036,0.16528541147322012,-0.017453292519943295
1592341269.286558,-0.3109289306385805,9.711113008824366,0.042594174020305534,-0.4739507227124648,-0.6837247894065429,-0.6481692338509873,0.03155284189400461,0.14358527237320107,-0.012806988902307286
1592341269.296558,-0.3673722627737226,9.837890510948904,0.19999270072992698,-0.4777777777777778,-0.7022222222222222,-0.6666666666666666,-0.00654339224128166,0.10741976036305063,-0.005396825579387575
1592341269.306558,-0.2996852731591449,9.752875593824228,0.18334768408551066,-0.4777777777777778,-0.7022222222222222,-0.6666666666666666,-0.04002989463992227,0.06455253498930445,-0.007687312536387584
1592341269.316558,-0.46758155359893333,9.483116163589967,0.1611163475022414,-0.4777777777777778,-0.7022222222222222,-0.6666666666666666,-0.03520084027338191,0.02816371658425406,0.00015221827742599968
1592341269.3265579,-0.43145810213895597,9.506101355615032,0.2578401549274322,-0.4777777777777778,-0.7022222222222222,-0.6666666666666666,0.03071166812444506,0.020992006728226018,0.015286940610818048
1592341269.3365579,0.08138613861386138,9.684257425742574,0.23801980198019804,-0.47311331133113316,-0.7057205720572057,-0.6853245324532453,0.10542177493017729,0.0592180710933472,0.016146455641902986
1592341269.3465579,0.15422019789539815,9.635211638134129,0.1453325742107743,-0.4688888888888889,-0.7088888888888889,-0.7022222222222222,0.11637067422571917,0.08563351444584977,0.011637727026547511
1592341269.3565578,-0.10770579386897666,9.782018776907517,-0.06559624461849681,-0.4688888888888889,-0.7088888888888889,-0.7022222222222222,0.10187258436520043,0.08056135284044681,0.015671943615677725
1592341269.3665578,0.2885113793597023,9.634921036308985,0.012977241280595448,-0.4688888888888889,-0.7088888888888889,-0.7022222222222222,0.10223625314610309,0.09859124200832227,0.029498283597435292
1592341269.3765578,0.3944562056071068,9.582295471182952,-0.12737728270977186,-0.4688888888888889,-0.7088888888888889,-0.7022222222222222,0.11455350516551119,0.13165403609354454,0.020911089916569328
1592341269.3865578,0.23309042179822603,9.87,-0.3098934337310957,-0.4688888888888889,-0.7187823226199845,-0.7088178447096193,0.11736311801989119,0.1597195253108583,-0.00858715134017566
1592341269.3965578,-0.06874950612406164,9.87305215329909,-0.31938956934018176,-0.4688888888888889,-0.7288888888888889,-0.7155555555555555,0.1069490408653978,0.1677437857678741,-0.02177222387964183
1592341269.4065578,-0.5502969895323362,9.950426550539612,-0.36421167942441374,-0.4688888888888889,-0.7288888888888889,-0.7155555555555555,0.019282722933995126,0.13828046782329426,-0.017611144476513473
1592341269.4165578,-0.4984963698891861,9.933393198318685,-0.3866068016813145,-0.4688888888888889,-0.7288888888888889,-0.7155555555555555,-0.059150163712775435,0.09591182800275774,-0.015271630954950384
1592341269.4265578,-0.4119695469665769,9.888940083953747,-0.2201522651671155,-0.4688888888888889,-0.7288888888888889,-0.7155555555555555,-0.12744514443451718,0.05239309666610819,-0.014313028630604635
1592341269.4365578,-0.4994856816732131,9.824061503340383,-0.02051431832678685,-0.4810910800013429,-0.7431247785200852,-0.7262324727789528,-0.19350042429253447,0.0033482612698039725,-0.011592535251028406
1592341269.4465578,-0.5656613779241328,9.898264551169653,0.03698413377239875,-0.4955555555555556,-0.76,-0.7388888888888889,-0.21806688404044708,-0.021099782659985973,-0.008870936539673207
1592341269.4565578,-0.14098486132978083,9.73038876105123,-0.045142545718784066,-0.4955555555555556,-0.76,-0.7388888888888889,-0.23780676488451696,-0.05561257985630581,0.009250858025134047
1592341269.4665577,0.13833971291866026,9.58,-0.010332057416267944,-0.4955555555555556,-0.76,-0.7388888888888889,-0.21454955662314157,-0.05606006430192056,0.011908583994655688
1592341269.4765577,0.04426333413059077,9.550156661085865,0.06805668500358768,-0.4955555555555556,-0.76,-0.7388888888888889,-0.16765959548178697,-0.040251290611479786,0.0018944085892625608
1592341269.4865577,-0.07758676404058683,9.620575195501841,0.11068926517158922,-0.4931928377029521,-0.777011568538745,-0.7540102831455511,-0.11621729345455165,-0.028361600344907853,-0.002507648867924704
1592341269.4965577,-0.25,9.77,-0.01,-0.49,-0.8,-0.7744444444444445,-0.09490227807719166,-0.028361600344907853,0.0
1592341269.5065577,0.1823965410747375,9.672906629606754,-0.06845043236565782,-0.49,-0.8,-0.7744444444444445,-0.10211813942466469,-0.05781928124985815,-0.009653695212504022
1592341269.5165577,0.15097645085858705,9.556236152774169,-0.028687672721260365,-0.49,-0.8,-0.7744444444444445,-0.09726259709655855,-0.07351512052497025,-0.006598241827685827
1592341269.5265577,0.04025044489778201,9.607609705282346,0.16089760840314252,-0.49,-0.8,-0.7744444444444445,-0.07282492172153712,-0.07914216666809762,0.009888071629763656
1592341269.5365577,0.15155134741442097,9.477672978878369,0.39349459353465177,-0.49,-0.8050486488505425,-0.7853831836206199,-0.012803404005951317,-0.053672706371202944,0.011554256391024075
1592341269.5465577,-0.2929995145631068,9.729593203883496,0.35479660194174756,-0.49,-0.8133333333333334,-0.8033333333333333,0.05901945243992135,-0.004026860081831337,-0.00030135524190229735
1592341269.5565577,-0.5302042304886944,9.7499708242159,0.23037928519328954,-0.49,-0.8133333333333334,-0.8033333333333333,0.0878007389457751,0.015271630954950384,-0.0032820401005090303
1592341269.5665576,-0.12119533808514737,9.780533615873628,-0.0026680793681371495,-0.49,-0.8133333333333334,-0.8033333333333333,0.07259089049942824,0.011351858407541018,0.0016799025203182996
1592341269.5765576,0.2,9.8,-0.1,-0.49,-0.8133333333333334,-0.8033333333333333,0.0545415391248228,0.007635815477475192,0.0032724923474893677
1592341269.5865576,-0.21524661179528434,9.533093941456773,-0.0193721764960703,-0.49320877254505574,-0.8316691764479375,-0.806083709800524,0.017918004389904655,-0.0025632059416665904,-0.009230477904576035
1592341269.5965576,-0.18,9.21,0.01,-0.49777777777777776,-0.8577777777777778,-0.81,0.02945243112740431,0.0,-0.002181661564992912
1592341269.6065576,0.10889872806311382,9.725421832233135,0.12444050877475446,-0.49777777777777776,-0.8577777777777778,-0.81,0.0345423308066073,0.04567781454803607,0.014347911022485383
1592341269.6165576,-0.20323019693654265,9.655999562363238,0.12523150984682713,-0.49777777777777776,-0.8577777777777778,-0.81,0.05863628396236551,0.06420797071451984,-0.003306004960588383
1592341269.6265576,-0.25404123949296964,9.717744330531458,-0.0030639173671353557,-0.49777777777777776,-0.8577777777777778,-0.81,0.07783448698960536,0.06311029618441963,-0.008656923228364274
1592341269.6365576,-0.17542076266609052,9.698473587555362,-0.01635519066652263,-0.4973070229135909,-0.8664867427652347,-0.8163551906665226,0.10061473393147283,0.057351868965133695,-0.0029394808112103376
1592341269.6465576,-0.4102858948033486,9.752626757226347,0.02788027167903965,-0.4955555555555556,-0.8988888888888888,-0.84,0.09707687534553597,0.047240502388524445,-0.00685564144759935
1592341269.6565576,-0.4281550896691083,9.744271785804495,-0.05524299065420561,-0.4955555555555556,-0.8988888888888888,-0.84,0.04812360218781554,0.031242231227667124,0.0030606909778240414
1592341269.6665576,-0.24,9.7,-0.26,-0.4955555555555556,-0.8988888888888888,-0.84,0.01854412330243975,0.02399827721492203,0.01090830782496456
1592341269.6765575,-0.26979475484606613,9.698517673888256,0.10710376282782212,-0.4955555555555556,-0.8988888888888888,-0.84,0.014654695871577245,0.012469302844386512,-0.005450422450284459
1592341269.6865575,0.0484229587712207,9.677900727566692,0.021049636216653195,-0.49233884846851705,-0.917604275577113,-0.8397075720829965,0.023137005906394434,0.017797913918326167,0.001148361744703464
1592341269.6965575,0.1,9.84,-0.06,-0.48333333333333334,-0.97,-0.8388888888888889,0.020725784867432664,0.02181661564992912,0.004363323129985824
1592341269.7065575,0.0027082257046093725,9.871614717869239,0.15825497962229496,-0.48333333333333334,-0.97,-0.8388888888888889,0.017010160125262887,0.014018875575499915,-0.004606210025416842
1592341269.7165575,-0.1,10.0,-0.06,-0.48333333333333334,-0.97,-0.8388888888888889,0.03381575425739013,0.009817477042468103,-0.01090830782496456
1592341269.7265575,-0.32617990452637025,9.722077989302353,0.05342727325012941,-0.48333333333333334,-0.97,-0.8388888888888889,0.029335988846831848,-0.00649592334615995,-0.008843088540544112
1592341269.7365575,-0.26829399865138237,9.998057990559676,-0.074881995954147,-0.4865557803251667,-0.9770135610998726,-0.8424904472915262,0.03591429790031825,-0.02702730025087645,-0.006172792937768212
1592341269.7465575,-0.22820560885972918,9.868462619934391,-0.20897195570135413,-0.5022222222222222,-1.011111111111111,-0.86,0.06235907453187846,-0.056261636373565634,-0.009999196972048575
1592341269.7565575,-0.3173209618400418,9.73087131112484,-0.3459689683029986,-0.5022222222222222,-1.011111111111111,-0.86,0.035498162328764106,-0.06807832769121558,-0.014004913234041606
1592341269.7665575,-0.2666071343751485,9.830260295444829,-0.28663135895121833,-0.5022222222222222,-1.011111111111111,-0.86,-0.053780864317534975,-0.08625817081102218,-0.0031358081882614363
1592341269.7765574,0.028522108538263626,9.995681405692176,-0.3310672330920042,-0.5022222222222222,-1.011111111111111,-0.86,-0.12664565182865428,-0.09960771640801429,-0.003840305678277278
1592341269.7865574,0.029251905215527507,9.828065610859728,-0.0324633841390807,-0.49387671667857425,-1.027206014659575,-0.854336978381096,-0.15787784985811987,-0.09495602078215212,-0.012186247650350531
1592341269.7965574,0.3,9.55,0.37,-0.4711111111111111,-1.0711111111111111,-0.8388888888888889,-0.15707963267948966,-0.08617563181722002,0.002181661564992912
1592341269.8065574,-0.057199558247715936,9.538798232990864,0.4201874100599043,-0.4711111111111111,-1.0711111111111111,-0.8388888888888889,-0.05416750036449152,-0.02960396683832907,0.014879558313338256
1592341269.8165574,0.10804863425981437,9.508960166910478,0.04688050073143242,-0.4711111111111111,-1.0711111111111111,-0.8388888888888889,0.10527143574442457,0.03931189439030712,0.03841992918272944
1592341269.8265574,0.2846545971451699,9.596044895461096,0.14535408975143632,-0.4711111111111111,-1.0711111111111111,-0.8388888888888889,0.19485081417101985,0.08592128912820533,0.03140613186570624
1592341269.8365574,0.11163831600477245,9.54123504346344,-0.05122243054371911,-0.4728796469897544,-1.0843751302009357,-0.84124693672708,0.2615100117926934,0.11551602363500572,0.0144261859687278
1592341269.8465574,-0.05,9.24,-0.11,-0.4777777777777778,-1.1211111111111112,-0.8477777777777777,0.26070855701665296,0.13635384781205698,0.0
1592341269.8565574,0.02675540765391013,9.853893510815308,0.16059345535219077,-0.4777777777777778,-1.1211111111111112,-0.8477777777777777,0.18761684450185578,0.1271849401533028,-0.05593910934532574
1592341269.8665574,-0.3712267534379973,10.21,-0.27370781179488396,-0.4777777777777778,-1.1211111111111112,-0.8477777777777777,0.11945385985927029,0.11876448320058408,-0.07704152063274604
1592341269.8765574,-0.4344885799404171,10.036216484607747,-0.3472542204568023,-0.4777777777777778,-1.1211111111111112,-0.8477777777777777,0.026633278087238442,0.11705740874154992,-0.049878156286046985
1592341269.8865573,-0.07554419505112228,9.556112287494706,0.2442367959344183,-0.4719552839789999,-1.1371229690577505,-0.8407422644375878,-0.05521798751980063,0.11376073539965868,-0.007888180225025949
1592341269.8965573,0.37,9.22,0.51,-0.45111111111111113,-1.1944444444444444,-0.8155555555555556,-0.06544984694978735,0.09926560120717749,0.01854412330243975
1592341269.9065573,0.08949766123316796,9.840843656980864,0.1336966690290574,-0.45111111111111113,-1.1944444444444444,-0.8155555555555556,0.023530402807007886,0.11483966518984765,0.013291591408437326
1592341269.9165573,-0.15779625337054734,9.434607833861582,0.24239841052083824,-0.45111111111111113,-1.1944444444444444,-0.8155555555555556,0.12084306385736775,0.13281972946204826,0.028863617813450208
1592341269.9265573,0.07532332878581173,9.900215552523875,0.09381446111869032,-0.45111111111111113,-1.1944444444444444,-0.8155555555555556,0.17270038901175747,0.14150590261287926,0.0419852285596992
1592341269.9365573,0.11242494957085788,9.931594747458767,-0.07996717161729226,-0.4508453198679833,-1.197058058335201,-0.8147581818261722,0.1801282921464092,0.13818400843234402,0.04018677899053579
1592341269.9465573,-0.07,9.97,-0.32,-0.4444444444444444,-1.26,-0.7955555555555556,0.10471975511965977,0.15598880189699318,0.03599741582238304
1592341269.9565573,0.07757635494585619,9.703437930382652,0.07704679862817637,-0.4444444444444444,-1.26,-0.7955555555555556,-0.05062475818467424,0.12202420024299064,0.00364262247581612
1592341269.9665573,0.24634503132966432,9.49018130703071,0.42653801253186574,-0.4444444444444444,-1.26,-0.7955555555555556,-0.10404994400877227,0.0913784473812992,-0.020704733883852217
1592341269.9765573,0.21246216381538707,9.601177410761855,0.3049243276307741,-0.4444444444444444,-1.26,-0.7955555555555556,-0.029053305746085976,0.08493505637216456,-0.021433999418558
1592341269.9865572,0.016279728025105376,9.045062917269176,-0.07829369596652616,-0.4444444444444444,-1.2671142150980934,-0.7891188847525186,0.07815534236982577,0.09943189559622681,-0.015956643018499445
1592341269.9965572,-0.06,9.24,-0.18,-0.4444444444444444,-1.3066666666666666,-0.7533333333333333,0.20943951023931953,0.10035643198967394,-0.007635815477475192
1592341270.0065572,-0.24275292617916328,9.377581411519294,-0.2879244408390312,-0.4444444444444444,-1.3066666666666666,-0.7533333333333333,0.3191606025067261,0.10084571933973219,-0.006507566000852076
1592341270.0165572,-0.40958787270642205,9.573919151376147,-0.5562908543577981,-0.4444444444444444,-1.3066666666666666,-0.7533333333333333,0.3470300811962682,0.08017012048801146,-0.0017880805616179722
1592341270.0265572,-0.352808848822727,9.816470553347964,-0.6095735721487456,-0.4444444444444444,-1.3066666666666666,-0.7533333333333333,0.2976957492545163,0.04415939978061523,-0.0050146127028102006
1592341270.0365572,-0.1695759392349876,10.050848121530024,-0.2565724309411083,-0.4479132274411405,-1.313056530081633,-0.7451177946569478,0.212077954175647,0.013167065812644896,-0.012506005787365531
1592341270.0465572,-0.32,9.75,-0.29,-0.46555555555555556,-1.3455555555555556,-0.7033333333333334,0.11453723216212788,-0.014180800172453926,-0.02617993877991494
1592341270.0565572,-0.5015277099012805,9.999740983286092,-0.5767725540025412,-0.46555555555555556,-1.3455555555555556,-0.7033333333333334,-0.01569608578293576,-0.04882648569863034,-0.04882648569863034
1592341270.0665572,-0.9068848545020448,10.218848545020448,-0.6461849041439142,-0.46555555555555556,-1.3455555555555556,-0.7033333333333334,-0.1490154063890604,-0.09466344691374032,-0.06661207953444281
1592341270.0765572,-0.7135170757306637,9.767327426126272,-0.1176055627321169,-0.46555555555555556,-1.3455555555555556,-0.7033333333333334,-0.29257405273512876,-0.1581401234648466,-0.04016077679415329
1592341270.0865571,-0.35259562514941434,10.066130767391824,-0.04886684197944059,-0.462583804818445,-1.3489518421122533,-0.697955879618562,-0.40295922793872696,-0.20754098745560692,-0.017633424330368692
1592341270.0965571,-0.85,9.56,0.37,-0.44222222222222224,-1.3722222222222222,-0.6611111111111111,-0.4657847441259867,-0.2617993877991494,-0.03381575425739013
1592341270.1065571,0.16088253331103305,9.123168868818642,0.4747533032279645,-0.44222222222222224,-1.3722222222222222,-0.6611111111111111,-0.45750836887641827,-0.29996709286359924,-0.0005185049479603491
1592341270.1165571,-0.12563731549480114,9.174183087326401,0.5569718122106692,-0.44222222222222224,-1.3722222222222222,-0.6611111111111111,-0.3062042829311103,-0.2641919237508505,-0.002961759315019341
1592341270.126557,-0.19,9.26,0.7,-0.44222222222222224,-1.3722222222222222,-0.6611111111111111,-0.18216874067690814,-0.2181661564992912,-0.002181661564992912
1592341270.136557,0.2820421897243432,8.960732496441052,1.125910120357189,-0.44612344161166473,-1.3747527429072661,-0.6529923572465957,0.0841301652823052,-0.1272446272773907,0.004578221170448517
1592341270.146557,-0.08,9.54,0.61,-0.48333333333333334,-1.3988888888888888,-0.5755555555555556,0.27270769562411395,-0.04036073895236887,-0.014180800172453926
1592341270.156557,-0.44120369199645976,9.964962953597167,0.10162169680111266,-0.48333333333333334,-1.3988888888888888,-0.5755555555555556,0.3285276404289165,0.0158023299921093,-0.01967246906443286
1592341270.166557,-0.21809510209910038,9.7980951020991,0.17305559522109573,-0.48333333333333334,-1.3988888888888888,-0.5755555555555556,0.25750971612639484,0.040499267036889816,-0.013020705347696998
1592341270.176557,-0.4419418397626113,10.033925222551929,0.09603323442136498,-0.48333333333333334,-1.3988888888888888,-0.5755555555555556,0.13792874419520548,0.017249023396558302,-0.020288546226187497
1592341270.186557,-0.5960087073636734,10.228546684624298,0.0009327528424217747,-0.48265967850269537,-1.3997698221289538,-0.5744673439060636,-0.006359221956092112,-0.02463715480448263,-0.023009193983723048
1592341270.196557,-0.31,9.79,0.02,-0.4688888888888889,-1.4177777777777778,-0.5522222222222222,-0.13635384781205698,-0.05999569303730508,-0.025089107997418484
1592341270.206557,-0.21566547488610804,9.585007785018165,0.4178922784153163,-0.4688888888888889,-1.4177777777777778,-0.5522222222222222,-0.19863232175481185,-0.08406571308755593,-0.01165511268338091
1592341270.216557,0.07954598985747591,9.321734563895498,0.46119907707837626,-0.4688888888888889,-1.4177777777777778,-0.5522222222222222,-0.15456907280011653,-0.07757978457601625,0.00697547575293994
1592341270.226557,-0.09,9.63,0.23,-0.4688888888888889,-1.4177777777777778,-0.5522222222222222,-0.10581058590215622,-0.05235987755982988,0.001090830782496456
1592341270.236557,0.03911223996129656,9.480875060474117,0.5911223996129656,-0.4689382088910391,-1.4177777777777778,-0.5511618421759931,-0.03689595271693942,-0.023465659427193655,-0.0010424109836120585
1592341270.246557,-0.02495807053598847,9.869243379869134,0.1795797604705549,-0.4711111111111111,-1.4177777777777778,-0.5044444444444445,0.021862456671403175,0.003712504310778279,-0.0006416712292000742
1592341270.256557,-0.08669979013375811,9.585630230852866,0.14262029381273864,-0.4711111111111111,-1.4177777777777778,-0.5044444444444445,0.023098284587223242,0.018141622768697536,-0.0037491602172990655
1592341270.266557,-0.01,9.67,0.25,-0.4711111111111111,-1.4177777777777778,-0.5044444444444445,0.002181661564992912,0.02399827721492203,0.00545415391248228
1592341270.276557,-0.07113306522119252,9.947931456548348,-0.024507562510928487,-0.4711111111111111,-1.4177777777777778,-0.5044444444444445,0.005099524233804796,0.034538484487977104,0.004366017304632224
1592341270.286557,-0.011246832094020666,9.45386609853232,0.18351463502938145,-0.4715797291150286,-1.417543468775819,-0.5031166934333449,-0.02399827721492203,0.048665659283618656,-0.004209968246814239
1592341270.296557,-0.3151019038457236,9.577959685899014,0.2946942884628292,-0.48444444444444446,-1.4111111111111112,-0.4666666666666667,-0.012956089489450177,0.03904734442714063,0.0024933972283323544
1592341270.306557,-0.2997208218396271,9.682961095786169,0.3019542471226101,-0.48444444444444446,-1.4111111111111112,-0.4666666666666667,0.0499954943161557,0.05380017263182012,0.013386515987158544
1592341270.316557,-0.34730825958702066,9.774181415929203,-0.1977802359882006,-0.48444444444444446,-1.4111111111111112,-0.4666666666666667,0.10794478506584583,0.09272061651219875,-0.002641805523391122
1592341270.326557,-0.10313049357674105,9.667450980392157,0.28929682217714675,-0.48444444444444446,-1.4111111111111112,-0.4666666666666667,0.15329085801438871,0.0958183104178682,-0.006338471767934105
1592341270.336557,-0.4206278390186037,9.928618754159071,-0.10138124584092817,-0.48436073257529727,-1.411027399241964,-0.4660248756698718,0.1476681202915727,0.12532226408406227,-0.004486599033015976
1592341270.346557,-0.41325743733895526,9.81633918950574,-0.2392864839540876,-0.4777777777777778,-1.4044444444444444,-0.41555555555555557,0.07763848195179028,0.10943840954178416,-0.012583470262043563
1592341270.356557,-0.19575813796593017,9.733592029491845,-0.2916726501698672,-0.4777777777777778,-1.4044444444444444,-0.41555555555555557,-0.011076993268476165,0.07661149833816862,-0.0035967216449588587
1592341270.366557,-0.23107383505741672,9.481244187150043,0.022318022207459418,-0.4777777777777778,-1.4044444444444444,-0.41555555555555557,-0.09260122763491736,0.046217548870215105,0.0068141725797833674
1592341270.3765569,0.33220735285871816,9.741760835840982,-0.19855952002691438,-0.4777777777777778,-1.4044444444444444,-0.41555555555555557,-0.09306432107701429,0.024842818334174236,0.012345595581592601
1592341270.3865569,-0.11463693624656551,9.349792161187224,0.32667850400912096,-0.4777777777777778,-1.4044444444444444,-0.41555555555555557,-0.06997546028833479,0.03595967723242732,0.00806988062072603
1592341270.3965569,-0.34,9.59,0.22,-0.4922222222222222,-1.4044444444444444,-0.39444444444444443,0.008726646259971648,0.020725784867432664,0.002181661564992912
1592341270.4065568,-0.5145649171270719,9.59029005524862,0.4550103591160221,-0.4922222222222222,-1.4044444444444444,-0.39444444444444443,0.04967046741237661,0.0356354377899317,0.0045090936799948465
1592341270.4165568,0.3426512155183272,10.193361380526515,-0.3685796699836252,-0.4922222222222222,-1.4044444444444444,-0.39444444444444443,0.054464072139664525,0.05061259720604548,0.005830579156433318
1592341270.4265568,-0.32,9.93,0.43,-0.4922222222222222,-1.4044444444444444,-0.39444444444444443,0.01090830782496456,0.04690572364734761,-0.004363323129985824
1592341270.4365568,-0.27452013923421187,9.957287916459475,0.32994430631526606,-0.4922222222222222,-1.4044444444444444,-0.39444444444444443,-0.004967158449267305,0.04392907372092913,0.0045666266492696
1592341270.4465568,-0.42,9.34,0.53,-0.5044444444444445,-1.3911111111111112,-0.4,-0.011999138607461015,0.04581489286485115,0.009817477042468103
1592341270.4565568,-0.2036233501366068,9.369505906799553,0.1464232116058029,-0.5044444444444445,-1.3911111111111112,-0.4,0.04378984382340825,0.04796062295834612,0.00016169162174073035
1592341270.4665568,-0.0027031446242802015,9.28450318727932,0.4505677859664921,-0.5044444444444445,-1.3911111111111112,-0.4,0.1965465671349183,0.07018545721760854,0.003437878620775757
1592341270.4765568,-0.4966170061822236,9.546702138441269,0.12072869159825683,-0.5044444444444445,-1.3911111111111112,-0.4,0.377172735620345,0.090088118023012,-0.010726115757512025
1592341270.4865568,-0.2982446538968278,9.688396675787981,-0.2972701935745413,-0.5044444444444445,-1.3911111111111112,-0.4,0.4490453504383096,0.10477177051270371,-0.00918046812701816
1592341270.4965568,-0.35635381852646286,10.092378909562528,-0.44549309123559633,-0.4711111111111111,-1.3722222222222222,-0.32666666666666666,0.4782976837841647,0.10758082573090652,-0.01786471425618591
1592341270.5065567,-0.5249540629314038,10.295939924786977,-0.6049540629314037,-0.4711111111111111,-1.3722222222222222,-0.32666666666666666,0.41802061501067844,0.08557509590064119,-0.032990114735245435
1592341270.5165567,-0.49,10.06,-0.57,-0.4711111111111111,-1.3722222222222222,-0.32666666666666666,0.28361600344907856,0.04363323129985824,-0.0272707695624114
1592341270.5265567,-0.10044984610527974,10.554063609817694,-0.7505232420487729,-0.4711111111111111,-1.3722222222222222,-0.32666666666666666,0.09809634355680522,-0.011297170791150057,-0.012760852028937508
1592341270.5365567,-0.43133337762423596,9.769230667020993,0.023743688546372543,-0.4711111111111111,-1.3722222222222222,-0.32666666666666666,-0.06887153255869707,-0.041695844712113184,-0.004137697310415514
1592341270.5465567,-0.24,9.92,0.2,-0.4922222222222222,-1.3455555555555556,-0.31444444444444447,-0.12544553998709243,-0.10144726277217041,-0.01090830782496456
1592341270.5565567,-0.035159379073349956,9.763930955484456,0.12196547774222853,-0.4922222222222222,-1.3455555555555556,-0.31444444444444447,-0.12544553998709243,-0.12166384677901362,-0.0002680004529418169
1592341270.5665567,-0.5088592071489686,9.702925183002186,0.08529042684665843,-0.4922222222222222,-1.3455555555555556,-0.31444444444444447,-0.15620942576711028,-0.12685545873591092,-0.01491972162322667
1592341270.5765567,0.03964228280054913,9.86774445969798,0.1701649343008433,-0.4922222222222222,-1.3455555555555556,-0.31444444444444447,-0.21236840907440108,-0.15103280616457,-0.00022956864340006804
1592341270.5865567,0.26996273779172386,9.020494214551873,0.5238713473230044,-0.4922222222222222,-1.3455555555555556,-0.31444444444444447,-0.1827579048218376,-0.13129246999619432,-0.002921432666360385
1592341270.5965567,-0.35,9.33,0.28,-0.5077777777777778,-1.3466666666666667,-0.24888888888888888,-0.0839939702522271,-0.09817477042468103,-0.009817477042468103
1592341270.6065567,-0.22977240057498802,9.673507426928605,-0.0978581696214662,-0.5077777777777778,-1.3466666666666667,-0.24888888888888888,0.11460152166200668,-0.05320975338749603,0.009854717911300336
1592341270.6165566,-0.4541144271502689,9.575637107906134,-0.013909276976533866,-0.5077777777777778,-1.3466666666666667,-0.24888888888888888,0.2639474817454606,0.0004982961121242557,-0.01209337716570896
1592341270.6265566,-0.1746074261636763,9.33314711875136,0.06679788728215069,-0.5077777777777778,-1.3466666666666667,-0.24888888888888888,0.306554156538217,0.007758404737338742,0.0005392977966044476
1592341270.6365566,-0.6392486795513441,10.046703329310994,0.1580667049118712,-0.5077777777777778,-1.3466666666666667,-0.24888888888888888,0.35090309246435486,0.024049850587756723,0.007779940396790216
1592341270.6465566,-0.67,9.88,-0.16,-0.4955555555555556,-1.3222222222222222,-0.25555555555555554,0.37960911230876665,0.03599741582238304,-0.00545415391248228
1592341270.6565566,-0.399666599959976,10.31602161296778,-0.3344086451871122,-0.4955555555555556,-1.3222222222222222,-0.25555555555555554,0.28353270126244645,0.027436151471720845,-0.022576682613806676
1592341270.6665566,-0.13,9.87,-0.17,-0.4955555555555556,-1.3222222222222222,-0.25555555555555554,0.1407171709420428,-0.0032724923474893677,-0.01308996938995747
1592341270.6765566,-0.14817566779423771,9.997229674559664,0.3389186982386563,-0.4955555555555556,-1.3222222222222222,-0.25555555555555554,0.06339351704474533,0.006640796613702617,-0.016063956078315067
1592341270.6865566,0.12674961877329713,9.64938686038631,-0.21381735005083025,-0.4955555555555556,-1.3222222222222222,-0.25555555555555554,0.10320244313916084,0.014954288282373898,-0.00446994342948644
1592341270.6965566,-0.5,9.76,0.12,-0.5022222222222222,-1.3166666666666667,-0.23222222222222222,0.07635815477475191,0.042542400517361786,-0.016362461737446838
1592341270.7065566,-0.20975528502097557,10.199289298346631,0.19844451756189851,-0.5022222222222222,-1.3166666666666667,-0.23222222222222222,0.07978094255373602,0.017727189119726997,-0.016362461737446838
1592341270.7165565,-0.4359303162643375,10.038346690982387,-0.5238954743965062,-0.5022222222222222,-1.3166666666666667,-0.23222222222222222,-0.06930138999004408,-0.011449351935781896,-0.03815133153553917
1592341270.7265565,-0.11828282828282828,9.903911845730027,-0.04547291092745639,-0.5022222222222222,-1.3166666666666667,-0.23222222222222222,-0.28519966136195907,-0.05374019419736901,-0.035639815648506795
1592341270.7365565,-0.028140984311197062,9.584318035285152,0.19217376863411678,-0.5022222222222222,-1.3166666666666667,-0.23222222222222222,-0.3683327825633959,-0.06893657119118005,-0.01686782053850492
1592341270.7465565,-0.08,9.53,0.33,-0.49,-1.3066666666666666,-0.21777777777777776,-0.3621558197888234,-0.0545415391248228,-0.007635815477475192
1592341270.7565565,-0.01045895745955662,9.590848412222888,0.14745476333133611,-0.49,-1.3066666666666666,-0.21777777777777776,-0.2825054344463116,-0.034628942789194865,-0.007635815477475192
1592341270.7665565,-0.13082055305894383,9.779179446941056,-0.0603516655966902,-0.49,-1.3066666666666666,-0.21777777777777776,-0.19723578088091737,-0.002143300799191446,-0.004324962364184358
1592341270.7765565,-0.1998615550400906,9.709792332560136,-0.0883386604810871,-0.49,-1.3066666666666666,-0.21777777777777776,-0.17994932410592757,0.0010379737741137215,-0.0010530757765087884
1592341270.7865565,-0.18454019104673886,9.686810286570108,0.09551770743913351,-0.49,-1.3066666666666666,-0.21777777777777776,-0.17577107023748234,-0.004811581641709587,0.0031251780919364317
1592341270.7965565,-0.1406076089208037,9.829392391079196,-0.02979746369306543,-0.5155555555555555,-1.2922222222222222,-0.21333333333333335,-0.15599432521794762,-0.026251741952322587,0.009778813795787062
1592341270.8065565,-0.2564482496720293,9.713551750327971,0.008816083224009764,-0.5155555555555555,-1.2922222222222222,-0.21333333333333335,-0.15704734635791054,-0.03994101677184053,0.002407665816046631
1592341270.8165565,-0.14181897457683967,9.619091518905261,0.02818169621894774,-0.5155555555555555,-1.2922222222222222,-0.21333333333333335,-0.1699711827233476,-0.058210577474633735,-0.0007933115220512318
1592341270.8265564,-0.0939524149417083,9.655059481322864,0.002964311206281229,-0.5155555555555555,-1.2922222222222222,-0.21333333333333335,-0.15258257052922775,-0.05999569303730508,-0.004039966938714747
1592341270.8365564,-0.17247653816392533,9.667497867105812,0.022493601317434178,-0.5155555555555555,-1.2922222222222222,-0.21333333333333335,-0.12436215440983354,-0.046091555825757725,-0.0019096518573598203
1592341270.8465564,-0.1600898020273488,9.67,0.0399775494931628,-0.4900573735174728,-1.2933308388325735,-0.22663673265755038,-0.0873301358299622,-0.024037460741227094,-0.0021792125945988457
1592341270.8565564,-0.14655988488772767,9.629679654663182,0.033279942443863834,-0.49,-1.2933333333333332,-0.22666666666666666,-0.07187252675071587,-0.02179914352220766,-0.004380795257707282
1592341270.8665564,-0.12255209835120187,9.679791606595192,-0.08341136071718787,-0.49,-1.2933333333333332,-0.22666666666666666,-0.04247140172753928,-0.01691924322573673,-0.00545415391248228
1592341270.8765564,-0.17343759008359758,9.681093734986067,-0.1,-0.49,-1.2933333333333332,-0.22666666666666666,-0.01595336088762617,-0.014419416130592985,-0.003511108305628426
1592341270.8865564,-0.18,9.686997679293308,-0.12799071717322955,-0.49,-1.2933333333333332,-0.22666666666666666,-0.003166700217026412,-0.011890814978700606,-0.005562477541242689
1592341270.8965564,-0.17132788696554727,9.742032678206716,-0.16601633910335822,-0.4774736145057905,-1.2933333333333332,-0.22666666666666666,0.009604657845039274,-0.01185428860969154,-0.0046530231255247755
1592341270.9065564,-0.18806063488289146,9.740969682558555,-0.23321222209012007,-0.47555555555555556,-1.2933333333333332,-0.22666666666666666,0.018788746417639467,-0.006088809662954835,-0.007318487602238914
1592341270.9165564,-0.19,9.74,-0.3465394264812774,-0.47555555555555556,-1.2933333333333332,-0.22666666666666666,0.020603424801230338,0.0003566703852824933,-0.006667344761181062
1592341270.9265563,-0.1987612288685073,9.775044915474028,-0.3074326267889562,-0.47555555555555556,-1.2933333333333332,-0.22666666666666666,0.020725784867432664,0.0030022344109493265,-0.0055892828807523
1592341270.9365563,-0.16584973099763575,9.78,-0.29316994619952713,-0.47555555555555556,-1.2933333333333332,-0.22666666666666666,0.01625552510843505,0.006997708813320713,-0.004709110619316011
