time,acc_x,acc_y,acc_z,mag_x,mag_y,mag_z,gyr_x,gyr_y,gyr_z
1592341647.2961974,-0.15109132723220636,9.725634691071175,-0.18,-1.8344444444444445,-1.9866666666666666,-1.991111111111111,0.024474458550388975,-0.014042332060891357,0.0018245255633927043
1592341647.3061974,-0.15796164076718466,9.69,-0.18815343693126138,-1.8344444444444445,-1.9866666666666666,-1.991111111111111,0.029806878592919396,-0.02181661564992912,-0.000979655532649414
1592341647.3161974,-0.13748439738701768,9.687484397387017,-0.25161465795672555,-1.8344444444444445,-1.9866666666666666,-1.991111111111111,0.044188858577423586,-0.02163367586547781,9.146989222565537e-05
1592341647.3261974,-0.10755946524683141,9.66081351158439,-0.15511893049366282,-1.8344444444444445,-1.9866666666666666,-1.991111111111111,0.0639521615586371,-0.019634954084936207,0.001090830782496456
1592341647.3361974,-0.08328549105851032,9.66890483631383,-0.10657098211702067,-1.8344444444444445,-1.9866666666666666,-1.991111111111111,0.08160469373073381,-0.019634954084936207,0.001090830782496456
1592341647.3461974,-0.08453022016547469,9.61151007338849,-0.008489926611508438,-1.8411111111111111,-1.9866666666666666,-1.991111111111111,0.11871755189481645,-0.015538844469449175,-0.00747109202387566
1592341647.3561974,-0.1112615647175065,9.622523129435013,-0.015138776610078146,-1.8411111111111111,-1.9866666666666666,-1.991111111111111,0.15316952411740442,-0.010495461736574294,-0.006544984694978735
1592341647.3661973,-0.1149479377635874,9.645773785413043,-0.11855655364673925,-1.8411111111111111,-1.9866666666666666,-1.991111111111111,0.18913008073667542,-0.0072421765487204245,-0.006859895837982549
1592341647.3761973,-0.049412340267313754,9.719412340267315,-0.10470127786149,-1.8411111111111111,-1.9866666666666666,-1.991111111111111,0.22323462068792957,-0.0010918981107116538,-0.010780100359755
1592341647.3861973,-0.04120447740748713,9.711204477407488,-0.17036418074010293,-1.8411111111111111,-1.9866666666666666,-1.991111111111111,0.23308334910053868,0.014128863981502402,-0.008989422466553347
1592341647.3961973,-0.1413191705302978,9.620765806287917,-0.04604248840910664,-1.8344444444444445,-1.9744444444444444,-1.991111111111111,0.25041303476308874,0.029081096255813354,-0.0032724923474893677
1592341647.4061973,-0.152943373027619,9.559018875657461,-0.030792367767936427,-1.8344444444444445,-1.9744444444444444,-1.991111111111111,0.2805822226990885,0.03317360987681081,-0.00359356453777903
1592341647.4161973,-0.18,9.550553854188923,-0.1266768748664625,-1.8344444444444445,-1.9744444444444444,-1.991111111111111,0.3261483820897263,0.026666608364119673,-0.00666581693463708
1592341647.4261973,-0.18290783152289258,9.564569449535975,-0.06709216847710742,-1.8344444444444445,-1.9744444444444444,-1.991111111111111,0.3830595547279535,0.01559213050454339,-0.008182883036745685
1592341647.4361973,-0.23955584711262035,9.653587759748403,-0.010444152887379654,-1.8344444444444445,-1.9744444444444444,-1.991111111111111,0.40777691439699915,0.0005851621340513813,0.00241027110713103
1592341647.4461973,-0.2192217723796671,9.803022941970312,-0.16279352226720648,-1.8344444444444445,-1.9744444444444444,-1.991111111111111,0.4082754386617403,-0.0708524771410991,-0.004168514393750515
1592341647.4561973,-0.45022548343362745,9.939173227410032,-0.07454391932069547,-1.8344444444444445,-1.9744444444444444,-1.991111111111111,0.3754496437433475,-0.13420498148310994,-0.029468828745427236
1592341647.4661973,-0.20821760850634768,10.606715477336266,-1.0153723818690132,-1.8344444444444445,-1.9744444444444444,-1.991111111111111,0.3049812434301058,-0.10359697782861503,-0.012846246026619544
1592341647.4761972,0.1588044613474688,10.59171359883343,-0.997460145427316,-1.8344444444444445,-1.9744444444444444,-1.991111111111111,0.07695138684630959,-0.07526732399225547,0.010354777892553457
1592341647.4861972,-0.15527006522553055,10.00489014128914,-0.4684925217254221,-1.8344444444444445,-1.9744444444444444,-1.991111111111111,-0.13672417182571003,-0.07526732399225547,0.015764285707034965
1592341647.4961972,0.12,10.57,-0.3,-1.8288888888888888,-1.9944444444444445,-1.9655555555555555,-0.3217950808364545,-0.09817477042468103,0.006544984694978735
1592341647.5061972,0.7077734080165256,10.221320859651215,-0.3996226115282247,-1.8288888888888888,-1.9944444444444445,-1.9655555555555555,-0.46524134373618387,-0.04166563655509067,0.008718412920732211
1592341647.5161972,-0.2477365919239449,9.334322754117252,0.683933355740145,-1.8288888888888888,-1.9944444444444445,-1.9655555555555555,-0.5360816047169403,-0.02793458044911424,0.0011697611127995317
1592341647.5261972,-0.05891543495991565,9.609690664226461,0.03418170244086814,-1.8288888888888888,-1.9944444444444445,-1.9655555555555555,-0.5236551518614615,-0.01119745859734446,-0.0064736572211466364
1592341647.5361972,-0.35094531420955255,9.000599773220076,0.9853647377111143,-1.8288888888888888,-1.9944444444444445,-1.9655555555555555,-0.45812380019864907,0.00791585230430916,0.016280284328441003
1592341647.5461972,-0.43,8.74,1.1,-1.8322222222222222,-2.0122222222222224,-1.9866666666666666,-0.28034351110158917,-0.031634092692397225,-0.0032724923474893677
1592341647.5561972,-0.31349122042094413,9.138071663561774,1.2747631693685837,-1.8322222222222222,-2.0122222222222224,-1.9866666666666666,-0.04840177326901948,-0.04116594493209187,0.021086685598396947
1592341647.5661972,-0.2424851609241611,9.482307092014093,1.0368645210111855,-1.8322222222222222,-2.0122222222222224,-1.9866666666666666,0.20465646219004413,-0.07853334157146127,0.00955286280719843
1592341647.5761971,-0.27499733048585157,9.864361986118526,0.6468873465029366,-1.8322222222222222,-2.0122222222222224,-1.9866666666666666,0.31292982393781005,-0.0900619712788318,-0.0044320460516807415
1592341647.5861971,-0.34134840125763777,10.187823456130985,0.3400136441834253,-1.8322222222222222,-2.0122222222222224,-1.9866666666666666,0.3690226115361457,-0.08372891461450359,0.009138789657593994
1592341647.5961971,0.01,10.17,0.12,-1.8266666666666667,-2.0033333333333334,-2.008888888888889,0.3021601267515183,-0.07853981633974483,-0.0032724923474893677
1592341647.606197,-0.17451320330684644,10.194066939561761,0.007687615378441287,-1.8266666666666667,-2.0033333333333334,-2.008888888888889,0.19539809545941192,-0.06891373155111229,-0.014648774370418737
1592341647.616197,-0.09439827332669229,10.11060006641051,-0.08259807409515678,-1.8266666666666667,-2.0033333333333334,-2.008888888888889,0.014725310030819767,-0.03931342549296333,0.0006545709121284649
1592341647.626197,0.14673613913324188,10.107877088209184,0.20398797514324912,-1.8266666666666667,-2.0033333333333334,-2.008888888888889,-0.11792223211513983,-0.023110893284039594,0.01080658439915755
1592341647.636197,0.08749939472197563,9.887854894681624,0.4578597369058187,-1.8266666666666667,-2.0033333333333334,-2.008888888888889,-0.19915536432605702,-0.02680330838453583,0.008960376848909431
1592341647.646197,-0.36,9.76,0.61,-1.8266666666666667,-2.0244444444444443,-2.0388888888888888,-0.23343778745424157,-0.025089107997418484,0.016362461737446838
1592341647.656197,-0.5528893687579531,9.466073342845023,0.9590379053715343,-1.8266666666666667,-2.0244444444444443,-2.0388888888888888,-0.2113948705815526,-0.0270930095312993,0.008346855601923582
1592341647.666197,-0.21,9.69,0.65,-1.8266666666666667,-2.0244444444444443,-2.0388888888888888,-0.12544553998709243,-0.0370882466048795,0.01090830782496456
1592341647.676197,-0.3472115691914349,9.359077980185361,0.9405656759348034,-1.8266666666666667,-2.0244444444444443,-2.0388888888888888,-0.042684288701598294,-0.04501219619604384,-0.012863540948528438
1592341647.686197,-0.15052782230364095,9.398985573620335,0.6615422486833066,-1.8266666666666667,-2.0244444444444443,-2.0388888888888888,0.05496842939440981,-0.026509660930795487,-0.014835748263066637
1592341647.696197,-0.16,9.84,0.37,-1.8177777777777777,-2.0355555555555553,-2.0533333333333332,0.10690141668465267,-0.001090830782496456,-0.007635815477475192
1592341647.706197,-0.21541608349662095,9.705418082936777,0.4333326668532811,-1.8177777777777777,-2.0355555555555553,-2.0533333333333332,0.12417272231994066,0.012726213725733938,0.0044540984672264
1592341647.716197,-0.36,10.15,0.01,-1.8177777777777777,-2.0355555555555553,-2.0533333333333332,0.12762720155208535,0.031634092692397225,0.03381575425739013
1592341647.726197,-0.20359320419180693,10.13435932041918,0.08038305811368689,-1.8177777777777777,-2.0355555555555553,-2.0533333333333332,0.06364719625487986,0.01798502489566005,0.0380810879438705
1592341647.736197,0.1516396688264939,10.064391648668106,-0.08862401007919365,-1.8177777777777777,-2.0355555555555553,-2.0533333333333332,-0.05259056981494747,-0.014446243516214763,0.019588815633912692
1592341647.746197,0.11,9.78,0.2,-1.8166666666666667,-2.062222222222222,-2.1044444444444443,-0.15926129424448257,0.009817477042468103,0.0272707695624114
1592341647.756197,0.31313787281935845,9.5683980491465,0.5300990433314574,-1.8166666666666667,-2.062222222222222,-2.1044444444444443,-0.24051061065729157,0.0005846001773761721,-0.010584025584465518
1592341647.766197,-0.15552561282212451,9.668771736853133,0.5999122669180809,-1.8166666666666667,-2.062222222222222,-2.1044444444444443,-0.24011675487418124,0.04215959273175911,-0.0023156442899538478
1592341647.776197,0.16834281888182126,9.749598259122866,0.5801004352192836,-1.8166666666666667,-2.062222222222222,-2.1044444444444443,-0.22153177300129565,0.07293228146688474,-0.013035190475536826
1592341647.786197,-0.43373535998097545,9.774811042190999,0.47248548383900435,-1.8166666666666667,-2.062222222222222,-2.1044444444444443,-0.15467918237963918,0.09563953623372921,-0.007677039676405469
1592341647.796197,-0.32,9.57,0.53,-1.8077777777777777,-2.081111111111111,-2.17,-0.0643590161672909,0.1461713248545251,0.00545415391248228
1592341647.806197,-0.053953226260918585,9.635033655802886,0.488614946307254,-1.8077777777777777,-2.081111111111111,-2.17,-0.03598273070806372,0.1577798052696635,0.013838056434526673
1592341647.816197,-0.16797218155197657,9.872240117130309,0.07551976573938507,-1.8077777777777777,-2.081111111111111,-2.17,-0.0006348539327120685,0.17943687237023143,0.026974504393812434
1592341647.826197,0.03658997078635412,9.968604988048964,-0.12705497477003308,-1.8077777777777777,-2.081111111111111,-2.17,-0.016108841407756577,0.14776939629640207,-0.0006512222110333435
1592341647.836197,-0.048743016759776554,9.824784154393093,0.1523641442356526,-1.8077777777777777,-2.081111111111111,-2.17,-0.028682921753667604,0.14726215563702155,-0.0037309293574009058
1592341647.846197,-0.08,9.91,-0.17,-1.8055555555555556,-2.062222222222222,-2.241111111111111,-0.074176493209759,0.11890055529211369,0.004363323129985824
1592341647.8561969,-0.11183041831224308,9.679229467236237,0.1960498105907955,-1.8055555555555556,-2.062222222222222,-2.241111111111111,-0.10368985330728259,0.12237271530358705,0.013911763161537576
1592341647.8661969,-0.19902350167869132,9.65512155630164,0.2197568873967188,-1.8055555555555556,-2.062222222222222,-2.241111111111111,-0.14574524708334927,0.09548791423341588,-0.004708959371209728
1592341647.8761969,0.04901704692006473,9.953552653176073,0.07185757497596548,-1.8055555555555556,-2.062222222222222,-2.241111111111111,-0.1448837726250762,0.08692072293017337,0.001782310121582656
1592341647.8861969,-0.12247793858100953,9.822935051182492,0.2412301447229086,-1.8055555555555556,-2.062222222222222,-2.241111111111111,-0.16562222771671745,0.07922230753705332,0.008680633454285687
1592341647.8961968,-0.09130434782608697,9.868695652173914,0.1758695652173913,-1.777294685990338,-2.0556280193236716,-2.328719806763285,-0.1782322643748557,0.06618497204233931,0.014607647000387323
1592341647.9061968,0.0002783370839748861,9.740658533696553,0.13243041572900627,-1.7722222222222221,-2.0544444444444445,-2.3444444444444446,-0.20285305252750066,0.05477629448805814,0.012396814451180557
1592341647.9161968,-0.11861784641185104,9.840043323317728,-0.12723569282370206,-1.7722222222222221,-2.0544444444444445,-2.3444444444444446,-0.2482571097051647,0.03661467161699253,-0.0020308919969838288
1592341647.9261968,-0.046646845608964496,9.571453886427708,0.11854611357229158,-1.7722222222222221,-2.0544444444444445,-2.3444444444444446,-0.24599690360845383,0.039370253954820265,0.01600317576059132
1592341647.9361968,-0.12825700750098698,9.667385511251481,0.17,-1.7722222222222221,-2.0544444444444445,-2.3444444444444446,-0.21908182130437728,0.034236066473622484,0.012744697546346523
1592341647.9461968,-0.2835690968443961,9.68132752992383,0.0726550598476605,-1.7803343005682504,-2.0256014992141216,-2.4165518075202512,-0.20657889850284897,0.021900297445539563,-0.0043407705893248535
1592341647.9561968,-0.18824480422029197,9.726819091363863,0.10681909136386375,-1.7822222222222222,-2.0188888888888887,-2.433333333333333,-0.20173987404231722,0.019634954084936207,0.017156190079797257
1592341647.9661968,-0.1683118101681523,9.698440949159238,-0.07948344403565522,-1.7822222222222222,-2.0188888888888887,-2.433333333333333,-0.19164608558966031,0.004221430822467334,0.00840060100892546
1592341647.9761968,0.0721909791607194,9.673297173850985,0.17229945760776477,-1.7822222222222222,-2.0188888888888887,-2.433333333333333,-0.17978357984946547,0.003823824320201322,0.010920140987892011
1592341647.9861968,-0.1168074745405708,9.676765927844016,0.12174515449573906,-1.7822222222222222,-2.0188888888888887,-2.433333333333333,-0.1608303081087957,0.00288722665710525,0.014213283316781877
1592341647.9961967,-0.043067484662576705,9.561042944785274,0.044509202453987734,-1.7793899113837766,-1.9764042263122017,-2.488091342876619,-0.13417887846045362,-0.0005989530983646187,0.01619850250940289
1592341648.0061967,-0.054751671442215856,9.79060936007641,0.11160267430754536,-1.778888888888889,-1.968888888888889,-2.497777777777778,-0.08403585315333156,-0.016712111031244172,0.006599161581979516
1592341648.0161967,-0.08458605260285933,9.83639070173524,-0.002930263014296622,-1.778888888888889,-1.968888888888889,-2.497777777777778,-0.04903867104054116,-0.033741683002029524,0.001878257512578804
1592341648.0261967,-0.12942192877713002,9.824231228489149,-0.07730631453255601,-1.778888888888889,-1.968888888888889,-2.497777777777778,-0.04512255972229036,-0.05256920183445096,0.0071112022606631365
1592341648.0361967,-0.09399185091976753,9.734556294565282,-0.030846665468272513,-1.778888888888889,-1.968888888888889,-2.497777777777778,-0.0658897349698126,-0.06819453903550796,0.005858811673548585
1592341648.0461967,0.0521479266609713,9.763288755996582,0.2117230728790169,-1.8006040758508395,-1.9127913225705169,-2.5203977641964763,-0.08790585703781052,-0.07684134757815714,-0.00540780955414069
1592341648.0561967,0.06311175225109937,9.678670513506596,0.15022638963214596,-1.8055555555555556,-1.9,-2.5255555555555556,-0.07856451161770311,-0.06363232017705292,0.01354973810549118
1592341648.0661967,0.01193019133754488,9.75613961732491,0.17806980866245511,-1.8055555555555556,-1.9,-2.5255555555555556,-0.0781060223413426,-0.04885145085366667,0.016579358736647946
1592341648.0761967,-0.11059330302958187,9.74840191342012,0.1663014350650896,-1.8055555555555556,-1.9,-2.5255555555555556,-0.08715685771707529,-0.057878750793113797,-0.005180141705879309
1592341648.0861967,-0.14651511872676123,9.824696543447896,0.30984773071550825,-1.8055555555555556,-1.9,-2.5255555555555556,-0.08518398892944723,-0.04616205049638398,-0.0038014157661942953
1592341648.0961967,-0.10870150678393672,9.886519397286426,0.10917024613076975,-1.81932171996091,-1.8339224108542989,-2.5815379574706636,-0.06668525910824162,-0.03277311726687961,0.021623840481985377
1592341648.1061966,-0.17497896784115066,9.823352028585644,0.3165918856574246,-1.8222222222222222,-1.82,-2.5933333333333333,-0.08326114155746842,-0.04708319518946347,0.008004524077484056
1592341648.1161966,-0.11165960243885853,9.590646886828804,0.08797456877989074,-1.8222222222222222,-1.82,-2.5933333333333333,-0.14452206110542773,-0.07752417349010207,-0.014437022648008922
1592341648.1261966,0.12840944123314066,9.725008429672446,0.10360404624277457,-1.8222222222222222,-1.82,-2.5933333333333333,-0.17141362731949505,-0.06721622040835153,0.008444244042219853
1592341648.1361966,-0.02522225652106805,9.716699336317333,0.23128106189226733,-1.8222222222222222,-1.82,-2.5933333333333333,-0.18903349082390977,-0.06010584522737272,0.008766927362720878
1592341648.1461966,-0.21876987698769879,9.894905865586558,0.27280753075307534,-1.8298633196652998,-1.7464544371103776,-2.6038398423175653,-0.21150592764311033,-0.0401507875731395,0.012802656736736927
1592341648.1561966,-0.2997081545064378,9.7652352711666,0.529821303160359,-1.8311111111111111,-1.7344444444444445,-2.6055555555555556,-0.24283621182856843,-0.0370882466048795,0.007959361931183271
1592341648.1661966,-0.289447449468154,9.964889878102435,0.33455757136571856,-1.8311111111111111,-1.7344444444444445,-2.6055555555555556,-0.25318422710454125,-0.03341196138795648,-0.003908318608090968
1592341648.1761966,-0.3731138756432652,9.808377555356214,0.44776285350077893,-1.8311111111111111,-1.7344444444444445,-2.6055555555555556,-0.2538286649717581,-0.024414529507048352,0.0047029942704397846
1592341648.1861966,-0.24959629974446845,9.755959629974447,0.5502018501277658,-1.8311111111111111,-1.7344444444444445,-2.6055555555555556,-0.2916869584843834,-0.046646731555772175,-0.002644415997929626
1592341648.1961966,-0.3024481203905527,9.541167776417545,0.5880320085993251,-1.8409280105102863,-1.681790165848868,-2.619834681954356,-0.2988527184385804,-0.04708548224185353,0.032882045319411995
1592341648.2061965,-0.15334093820044828,9.377972302273456,0.6029262728146013,-1.8433333333333333,-1.6688888888888889,-2.6233333333333335,-0.28448564672180365,-0.051304237683941344,0.03408217474389323
1592341648.2161965,-0.16962067963984895,9.286365959918676,0.4670066802207377,-1.8433333333333333,-1.6688888888888889,-2.6233333333333335,-0.15942680397459474,-0.045941813228333024,0.022029078944364823
1592341648.2261965,0.18766495456341367,9.218104910869918,0.48732656239105676,-1.8433333333333333,-1.6688888888888889,-2.6233333333333335,-0.00354751343491172,-0.038969053151026445,-0.00855683696392123
1592341648.2361965,0.009277476120645223,9.538403154849192,0.27665391779953236,-1.8433333333333333,-1.6688888888888889,-2.6233333333333335,0.15797971615064788,-0.0012650195670344602,-0.0049356947652547615
1592341648.2461965,-0.27674755406797114,9.66700051493306,0.12050077239958806,-1.8433333333333333,-1.5863901762215358,-2.6059169384368923,0.2871329076113124,0.022661911208018384,-0.02789756194110256
1592341648.2561965,-0.3955813121272366,9.936880715705765,-0.19205168986083498,-1.8433333333333333,-1.568888888888889,-2.602222222222222,0.31864195096663633,0.04321836861856286,-0.020087117540503824
1592341648.2661965,-0.48774677152100154,10.186759685436995,-0.5907080297730202,-1.8433333333333333,-1.568888888888889,-2.602222222222222,0.2556969210281923,0.07907818828244875,0.0027504738291041853
1592341648.2761965,-0.5614944662620492,9.965516601213853,-0.3260783053671308,-1.8433333333333333,-1.568888888888889,-2.602222222222222,0.09976673689118909,0.06146399826337444,-0.004077757313570769
1592341648.2861965,-0.573368643224085,9.644745728963402,0.14125004977898137,-1.8433333333333333,-1.568888888888889,-2.602222222222222,-0.050289162664364104,0.06358942681829216,0.021666398898470683
1592341648.2961965,-0.43716699596001296,9.724008728731091,0.21454660729556782,-1.844153290148395,-1.533630745841238,-2.5825432586607424,-0.23868658429334183,0.05636163842402407,0.016677638523943855
1592341648.3061965,-0.2952808022922636,9.523735673352435,0.39101146131805165,-1.8444444444444446,-1.521111111111111,-2.5755555555555554,-0.3191477064158972,0.0902448369625843,0.02445484772080504
1592341648.3161964,-0.2541659893866233,9.25999187263948,0.2124898407993498,-1.8444444444444446,-1.521111111111111,-2.5755555555555554,-0.2989772810127736,0.11158337901151442,0.026634377726163165
1592341648.3261964,-0.2579902373337822,9.257941424002693,0.19794142400269316,-1.8444444444444446,-1.521111111111111,-2.5755555555555554,-0.1735858615441364,0.10320643626604324,0.022693540042658132
1592341648.3361964,-0.346018813113847,9.442037626227695,0.1709005394937059,-1.8444444444444446,-1.521111111111111,-2.5755555555555554,-0.06167343574794096,0.09353228877379073,0.01669850823801671
1592341648.3461964,-0.3805285997295682,9.778864815571838,-0.1501559699380523,-1.8350924324532072,-1.4888041605959281,-2.5398478734071954,0.16002317099395674,0.06620983710157477,-0.0021240002793296766
1592341648.3561964,-0.450612187361553,9.763413750050345,-0.22542671875629305,-1.8322222222222222,-1.478888888888889,-2.528888888888889,0.194201268925301,0.05061030430873817,-0.003957551125187512
1592341648.3661964,-0.5086377842439918,9.934767755146028,-0.3197136006035133,-1.8322222222222222,-1.478888888888889,-2.528888888888889,0.1312669778819235,0.025628616044467936,0.015388984315078319
1592341648.3761964,-0.4645356886305753,9.981811206164696,-0.39729086397178864,-1.8322222222222222,-1.478888888888889,-2.528888888888889,0.044302133608200275,0.0031661732106203037,0.015170333928064082
1592341648.3861964,-0.4478207224617214,9.894358555076556,-0.24074178682919578,-1.8322222222222222,-1.478888888888889,-2.528888888888889,-0.16376796424703072,-0.042198465317469555,0.006668061930583732
1592341648.3961964,-0.050763864666899194,9.377406538351778,0.36923613533310085,-1.8178242135340146,-1.4382356878868912,-2.522113355388556,-0.26607153453497406,-0.036561699469706735,0.01927657828072383
1592341648.4061964,0.150269652100638,9.306961999919746,0.36949921752738657,-1.8133333333333332,-1.4255555555555555,-2.52,-0.25006861256103496,-0.032364114593222866,0.019622347878710172
1592341648.4161963,0.008326416086981925,9.341400596247151,0.3249614193020401,-1.8133333333333332,-1.4255555555555555,-2.52,-0.11581256746728484,-0.03462432850988598,0.006621375369990764
1592341648.4261963,-0.059062525277036315,9.516562323060747,0.13482164523173984,-1.8133333333333332,-1.4255555555555555,-2.52,-0.0341079836152829,-0.03346026147872167,0.006773862398594024
1592341648.4361963,-0.08069918909592821,9.98423740510697,-0.40637724292615596,-1.8133333333333332,-1.4255555555555555,-2.52,0.0806313752068219,-0.019715834783483113,0.011803853360620455
1592341648.4461963,-0.29111425050347167,10.052961916498843,-0.34749646818359436,-1.8355148102504502,-1.4105038390760833,-2.5089092615414414,0.1100223619499725,-0.015887819686065112,0.010756760742795014
1592341648.4561963,-0.27656215134844,10.013312430269687,-0.3826410956796061,-1.8444444444444446,-1.4044444444444444,-2.5044444444444443,0.07085611728119671,-0.0220041212066634,0.011637808517156146
1592341648.4661963,-0.2295875753168502,9.885618637024725,-0.3103610014543943,-1.8444444444444446,-1.4044444444444444,-2.5044444444444443,-0.056177728637920143,-0.0329160964990025,0.01645804824950125
1592341648.4761963,-0.22393018206113247,9.775074327710039,-0.23164189076332053,-1.8444444444444446,-1.4044444444444444,-2.5044444444444443,-0.12534259704536693,-0.04749732671244966,0.009584078974591377
1592341648.4861963,-0.18721484242629616,9.722151474076584,-0.1311375804811928,-1.8444444444444446,-1.4044444444444444,-2.5044444444444443,-0.1484635850539209,-0.054293024880474314,0.0015740344418930562
1592341648.4961963,-0.1336539187103413,9.626346081289658,0.14903824386897616,-1.808033994550201,-1.384722117418396,-2.488514872615713,-0.16187292759313004,-0.06893216193587183,-0.011600557906863013
1592341648.5061963,-0.07535796301518877,9.614378953305668,0.10470528987550864,-1.791111111111111,-1.3755555555555556,-2.4811111111111113,-0.1372873890667119,-0.060515860361007916,0.0010483331648874147
1592341648.5161963,-0.016678471626594374,9.586665191046675,-0.14668732534654014,-1.791111111111111,-1.3755555555555556,-2.4811111111111113,-0.06035608399471841,-0.05018063047240109,0.013451567586152863
1592341648.5261962,-0.06438018535756203,9.571570278036344,-0.2119009267878101,-1.791111111111111,-1.3755555555555556,-2.4811111111111113,-0.038152059359981574,-0.06415165722174937,-0.0020734570141046184
1592341648.5361962,-0.19410677792915532,9.658080083446867,-0.031919916553133504,-1.791111111111111,-1.3755555555555556,-2.4811111111111113,0.006158122449653657,-0.06188936747345515,-0.009000073807312752
1592341648.5461962,-0.2311697540236866,9.719305192833282,-0.0811521409049499,-1.8046760468333503,-1.3600527718729967,-2.461732631507912,0.04530641267926595,-0.03460341822174484,0.0019024777862233968
1592341648.5561962,0.03249889731827804,9.696209641848975,-0.14653250705716303,-1.8144444444444445,-1.3488888888888888,-2.4477777777777776,0.06756107025324291,-0.02181661564992912,-0.00011434189108163514
1592341648.5661962,0.11257124858258788,9.71247625047247,-0.18861937759858888,-1.8144444444444445,-1.3488888888888888,-2.4477777777777776,0.0524013283049478,0.0019999709647081296,0.00870592088741269
1592341648.5761962,-0.11150132230284124,9.695575597296626,-0.19946949662078162,-1.8144444444444445,-1.3488888888888888,-2.4477777777777776,0.0659127984828032,0.029683906893912225,0.005280547087601341
1592341648.5861962,-0.15795919164307332,9.848907546617202,-0.3006482475837157,-1.8144444444444445,-1.3488888888888888,-2.4477777777777776,0.0692160299485993,0.0460754867264902,0.001014878374600676
1592341648.5961962,0.020695431785868815,9.748366817085985,-0.08631204796933917,-1.8112621485923086,-1.338811618690459,-2.4355789770112573,0.03163065371298773,0.0732868090072333,0.013686531171050759
1592341648.6061962,-0.035814237631979357,9.636210521462491,-0.16590091751579145,-1.8077777777777777,-1.3277777777777777,-2.422222222222222,0.04557443632139062,0.07870327247156804,-0.002609212511648012
1592341648.6161962,-0.17910602397750258,9.7858212047955,-0.44760915684049535,-1.8077777777777777,-1.3277777777777777,-2.422222222222222,0.0868763919740549,0.08160139715550577,-0.020367466679566393
1592341648.6261961,-0.3483206953471577,9.79,-0.3777563705767048,-1.8077777777777777,-1.3277777777777777,-2.422222222222222,0.07770349023223194,0.08389187015654777,-0.010102760858998435
1592341648.6361961,-0.38190513219284605,9.784503443679181,-0.346258609197956,-1.8077777777777777,-1.3277777777777777,-2.422222222222222,0.06763150851478027,0.07498389217707448,-0.005903839874917777
1592341648.6461961,-0.18975108187640644,9.866207027869136,-0.3245594599272979,-1.8084951051103033,-1.3170178677898947,-2.41935291289212,0.031011316495957925,-0.002777285006278503,-0.015768990878975944
1592341648.656196,-0.20488252333440618,9.918720630833601,-0.3684595268747988,-1.808888888888889,-1.3111111111111111,-2.417777777777778,0.01090830782496456,-0.02945243112740431,-0.019634954084936207
1592341648.666196,-0.13530281309487438,9.89,-0.4862684778266081,-1.808888888888889,-1.3111111111111111,-2.417777777777778,-0.011947379839162728,-0.017715726651230838,-0.009133692185202047
1592341648.676196,-0.06376246816006857,9.867634203823172,-0.5711828980884138,-1.808888888888889,-1.3111111111111111,-2.417777777777778,-0.08678608364750846,0.024819639789025467,0.0037886290064485786
1592341648.686196,0.006147568451970276,9.813060182538587,-0.5292077509905576,-1.808888888888889,-1.3111111111111111,-2.417777777777778,-0.11939830906122462,0.07040921452102018,0.010154258601644501
1592341648.696196,-0.06545572217837411,9.709922967640095,-0.40068034727703233,-1.8058080154345348,-1.309057195474875,-2.401859931596948,-0.1163142101430603,0.09927400413412078,0.010569435689218226
1592341648.706196,-0.1762367437866939,9.715134708653377,-0.32577959297333675,-1.8022222222222222,-1.3066666666666666,-2.3833333333333333,-0.1354829652501326,0.10059685875903675,0.008266271270036785
1592341648.716196,-0.22826307562206902,9.733473848755862,-0.47001691310252935,-1.8022222222222222,-1.3066666666666666,-2.3833333333333333,-0.15556388021683717,0.062125836237945146,-0.008539022135426731
1592341648.726196,-0.44350251507855154,9.652764917634157,-0.4709676496531337,-1.8022222222222222,-1.3066666666666666,-2.3833333333333333,-0.16303144384242216,0.011224970433457646,-0.02310349795623516
1592341648.736196,-0.5530275606746196,9.635106951871657,-0.42581036610448375,-1.8022222222222222,-1.3066666666666666,-2.3833333333333333,-0.16397820629121346,-0.010778179924131992,-0.02179328237115914
1592341648.746196,-0.38161570800687944,9.652204280527423,-0.3155857060959297,-1.7919279359619509,-1.2980880947831073,-2.3844771429178078,-0.19448889579593892,-0.09506341168981726,-0.009079764422698382
1592341648.756196,-0.3011975204282897,9.567799380107072,-0.1641504649196957,-1.7822222222222222,-1.29,-2.3855555555555554,-0.17891469010088956,-0.13763001839783473,-0.021789260355580802
1592341648.766196,0.023049110944798612,9.63397868332086,-0.25892539162300965,-1.7822222222222222,-1.29,-2.3855555555555554,-0.01654201008013343,-0.11695333690647072,-0.016913690351141722
1592341648.776196,0.2316874790679872,9.473578776135113,-0.16357877613511312,-1.7822222222222222,-1.29,-2.3855555555555554,0.0565761804365124,-0.08986815220822557,-0.01768924515224158
1592341648.786196,0.17958976621085135,9.374413689163358,-0.041979488310542566,-1.7822222222222222,-1.29,-2.3855555555555554,0.07881653385297847,-0.08011844143444058,-0.021108040780149127
1592341648.796196,0.6326746941027556,9.703901204115413,-0.22025542825614228,-1.7786447120256474,-1.2834412313062795,-2.374226773266402,0.10110161411002011,0.018280222336786948,0.004363323129985824
1592341648.806196,0.5160185578967718,9.669349313744442,-0.33534467427024933,-1.7755555555555556,-1.2777777777777777,-2.3644444444444446,0.10733488116493486,0.043777719459952305,0.0025466776261762417
1592341648.816196,-0.19611683750678127,9.38,-0.3333063986523142,-1.7755555555555556,-1.2777777777777777,-2.3644444444444446,0.21858553909034034,0.09657018428835198,-0.009046641561898057
1592341648.826196,-0.5066235635630832,9.433376436436918,-0.3520785452102776,-1.7755555555555556,-1.2777777777777777,-2.3644444444444446,0.2811557132983015,0.141250744552971,0.014067433117544863
1592341648.836196,-0.4534678383128295,9.545313181019333,-0.31082390158172235,-1.7755555555555556,-1.2777777777777777,-2.3644444444444446,0.28350458150693675,0.14093909461758197,0.018621842599315687
1592341648.846196,-0.49182355222722796,9.972848703642928,-0.7592114449383895,-1.7744877060728719,-1.2852527241565639,-2.3516302506522395,0.23230341066264582,0.06448643218046253,-0.0027058409540458676
1592341648.856196,-0.13258238063214522,9.653568066096648,-0.568544528773177,-1.7733333333333334,-1.2933333333333332,-2.3377777777777777,0.1390297314896691,0.04309038343230788,-0.009699685343022813
1592341648.866196,0.23305093152298584,9.685143060851235,-0.6945484980935552,-1.7733333333333334,-1.2933333333333332,-2.3377777777777777,0.09946625807389171,0.028891410218126322,-0.01470939271382175
1592341648.876196,-0.1271496904895892,9.960932751828924,-0.736891530669668,-1.7733333333333334,-1.2933333333333332,-2.3377777777777777,0.012581232186246759,0.001486464119198181,-0.01576333351926083
1592341648.886196,0.1852982715717264,9.980262963212052,-0.8811460084740064,-1.7733333333333334,-1.2933333333333332,-2.3377777777777777,-0.022139411765537728,0.0006430245348430584,-0.005357828617074529
1592341648.896196,-0.04698339953152059,9.479373663305836,-0.24839936178157992,-1.7733333333333334,-1.2972492861534515,-2.344490839755123,-0.04525049893620844,0.024036234289711005,-0.0021664787350773214
1592341648.9061959,-0.3145668863900737,9.452834819697557,-0.09165374176037225,-1.7733333333333334,-1.301111111111111,-2.351111111111111,-0.0418209041432701,0.029813179314450152,0.0003607481870458423
1592341648.9161959,0.07554724118082395,9.699659567469782,-0.49817531453005515,-1.7733333333333334,-1.301111111111111,-2.351111111111111,-0.03542944110691824,0.03783669591407697,0.004408441778418988
1592341648.9261959,0.3226842228647339,9.485052746737518,-0.3641580057826053,-1.7733333333333334,-1.301111111111111,-2.351111111111111,-0.031783349916758505,0.04224959722456853,0.005063749522091269
1592341648.9361959,0.08803491893817922,9.784275788348477,-0.5030001781578478,-1.7733333333333334,-1.301111111111111,-2.351111111111111,0.016099130949938787,0.04087982126486629,-0.00011660403874895302
1592341648.9461958,-0.33839974247084914,9.820399527863223,-0.294799699549324,-1.7761333667167418,-1.2959110491133525,-2.332710891734427,0.047952972700677145,0.045204046354701474,-0.0017889578012821017
1592341648.9561958,-0.32710347781008403,9.728317217751933,-0.22289652218991593,-1.781111111111111,-1.2866666666666666,-2.3,0.04321494058598053,0.041492186690095204,-0.0022734430988144293
1592341648.9661958,-0.14510385540412504,9.68898501081068,-0.26304496756796153,-1.781111111111111,-1.2866666666666666,-2.3,0.018397550286430524,0.01823147306868873,-0.0004070177097967361
1592341648.9761958,-0.05400809516757984,9.730828767461375,-0.2481114566365566,-1.781111111111111,-1.2866666666666666,-2.3,0.0030412851121845758,-0.0014376416354536445,0.008213833565737171
1592341648.9861958,-0.12987431659649343,9.779654370640356,-0.1894658455350971,-1.781111111111111,-1.2866666666666666,-2.3,0.0011422430295191634,-0.004493567489110016,0.013052267075474152
1592341648.9961958,-0.12520454830221778,9.692402894374139,-0.07440702919433655,-1.7679538556850296,-1.2866666666666666,-2.3049784209720308,0.021293513017137545,-0.04616400381914154,0.005978384142561863
1592341649.0061958,-0.1531270267766145,9.683752432131937,-0.16656351338830724,-1.74,-1.2866666666666666,-2.3155555555555556,0.02331677328030018,-0.06377878272688396,0.006647670146198636
1592341649.0161958,-0.09098831282744234,9.72814024607069,-0.2841869947609227,-1.74,-1.2866666666666666,-2.3155555555555556,0.014887927871938685,-0.08536069591224424,-0.005837856995493977
1592341649.0261958,0.0931740637378466,9.800867392870003,-0.3248397551314368,-1.74,-1.2866666666666666,-2.3155555555555556,0.023687000578910315,-0.08098544559859357,0.0011182537655728096
1592341649.0361958,0.15706582745349584,9.729788726747916,-0.15631454457985888,-1.74,-1.2866666666666666,-2.3155555555555556,0.03212829886113489,-0.06841250382205273,0.0091747597553309
1592341649.0461957,-0.10449587724045718,9.797752061379772,-0.22448759988539047,-1.7453057845977524,-1.2872561982886392,-2.319387511098377,0.02542266724946008,-0.05805924353672296,0.002537759073627424
1592341649.0561957,0.12968016714882674,9.895348762455802,-0.29834297653487624,-1.76,-1.288888888888889,-2.33,0.01971735371010068,-0.03749095285807692,0.00796243356615904
1592341649.0661957,0.0337299664554603,9.66109345881476,-0.24588427133805443,-1.76,-1.288888888888889,-2.33,0.004426443323419507,-0.035152103280207146,0.007186859125789872
1592341649.0761957,-0.029917294161214667,9.472380446858413,-0.2742646586841131,-1.76,-1.288888888888889,-2.33,0.045028837590699644,-0.038375591205913835,0.012035225837396706
1592341649.0861957,-0.06055055283255443,9.694097990045213,-0.3834556784072343,-1.76,-1.288888888888889,-2.33,0.07966067512109833,-0.0360474624871448,0.020685747535623262
1592341649.0961957,-0.19284523555094188,9.812900802979879,-0.39501389185723446,-1.7609514989296995,-1.288888888888889,-2.323577382224529,0.0847744339824815,-0.055079377683322335,0.007795545103245442
1592341649.1061957,-0.18300956758277834,9.68179298377263,-0.3362006378388519,-1.7644444444444445,-1.288888888888889,-2.3,0.07714397040270171,-0.08840036999410966,-0.00514913875793562
1592341649.1161957,-0.06391595951825765,9.846883578932186,-0.47159907690088704,-1.7644444444444445,-1.288888888888889,-2.3,0.06292377875248818,-0.09218554590673132,0.0021609719934313426
1592341649.1261957,-0.05373429848839685,9.863818039883613,-0.5638180398836137,-1.7644444444444445,-1.288888888888889,-2.3,0.024144717370356172,-0.09926103382259391,0.0035471031200233092
1592341649.1361957,-0.11621519849377078,9.641753194728198,-0.33864559548131234,-1.7644444444444445,-1.288888888888889,-2.3,-0.00521940877113024,-0.11664502242007393,-0.0012385733965901355
1592341649.1461957,-0.13447202018702686,9.685527979812973,-0.36881994953243286,-1.7676742368017417,-1.2918702356802403,-2.2967702076427026,0.013963961730429398,-0.11621753578813873,0.005955511851464323
1592341649.1561956,-0.09686721852076183,9.687710927159745,-0.2910359602485587,-1.778888888888889,-1.3022222222222222,-2.2855555555555553,0.027975207854259783,-0.1169476214415025,0.01218049102976582
1592341649.1661956,-0.03280307185957214,9.6740756993966,-0.23312122874382885,-1.778888888888889,-1.3022222222222222,-2.2855555555555553,0.032280333638692434,-0.13812562507314968,0.0022510726295949905
1592341649.1761956,0.006278058692878424,9.548116582392137,-0.2068609706535608,-1.778888888888889,-1.3022222222222222,-2.2855555555555553,0.05954566927986479,-0.13510159098186014,-0.0026806054307735075
1592341649.1861956,0.1720247324795651,9.618686230594001,-0.23868623059400063,-1.778888888888889,-1.3022222222222222,-2.2855555555555553,0.10335579379034861,-0.1066940421081682,0.00802527708516947
1592341649.1961956,0.078241370622323,9.84742360436238,-0.504724111866969,-1.7766439509372238,-1.3001499718053007,-2.2878004935072203,0.13448895631340613,-0.07696267990011987,0.010502333297699205
1592341649.2061956,-0.04,9.48205296217633,-0.22932622350761445,-1.7644444444444445,-1.288888888888889,-2.3,0.1489478685146496,-0.06750304789662374,-0.01907304979239352
1592341649.2161956,-0.01737489209807993,9.757541702633974,-0.3965627697548002,-1.7644444444444445,-1.288888888888889,-2.3,0.18284823539012596,-0.024586790894441213,-0.008869823685311102
1592341649.2261956,-0.11566081582200248,9.762463288009888,-0.48623164400494434,-1.7644444444444445,-1.288888888888889,-2.3,0.17065895226423528,0.005327811706895237,-0.01214149944060808
1592341649.2361956,-0.17177786154039454,9.830606441345228,-0.511541650961176,-1.7644444444444445,-1.288888888888889,-2.3,0.14512645360493442,0.02019551419304156,-0.005770297021535992
1592341649.2461956,0.038560817084493965,9.898194207326204,-0.5078275975679156,-1.767353094850624,-1.2910703766935234,-2.285456747969103,0.11594799031222865,0.04787658166699245,0.0101744221498085
1592341649.2561955,-0.17,9.73,-0.38,-1.7733333333333334,-1.2955555555555556,-2.2555555555555555,0.08072147790473774,0.061086523819801536,0.01090830782496456
1592341649.2661955,-0.3366288311688312,9.64010155844156,-0.3934488311688312,-1.7733333333333334,-1.2955555555555556,-2.2555555555555555,0.04690572364734761,0.029081435328287206,0.007636467142617982
1592341649.2761955,-0.3442741365499694,9.818871036140036,-0.7071083258728738,-1.7733333333333334,-1.2955555555555556,-2.2555555555555555,0.036025068225953846,-0.009446739520244718,0.006051096319677957
1592341649.2861955,-0.4868927247824686,9.652178738317756,-0.4628569126651627,-1.7733333333333334,-1.2955555555555556,-2.2555555555555555,0.02859926382730924,-0.051050915774903824,-0.002427102885313326
1592341649.2961955,-0.31703317170289974,9.8629668282971,-0.30151472335506246,-1.7701636641940421,-1.2941147968558777,-2.2549792520756844,0.04112566210183019,-0.09413507805798106,-0.0036753231492847255
1592341649.3061955,-0.28,9.9,-0.62,-1.761111111111111,-1.29,-2.2533333333333334,0.015271630954950384,-0.09817477042468103,0.007635815477475192
1592341649.3161955,0.009597325870646767,9.869870957711443,-0.45676305970149256,-1.761111111111111,-1.29,-2.2533333333333334,-0.04680210150678397,-0.11048307951045222,0.006766305306166216
1592341649.3261955,-0.25276265989555885,9.214200641977675,-4.5513342595698836e-05,-1.761111111111111,-1.29,-2.2533333333333334,-0.029811041812475486,-0.12566968473035536,-0.01002419295106604
1592341649.3361955,-0.32984944756971146,8.914331215346635,0.46145007891861267,-1.761111111111111,-1.29,-2.2533333333333334,0.1125095998415451,-0.14318848165366083,-0.03584744811150278
1592341649.3461955,0.08606710035333355,9.935369679358056,0.20767163094805668,-1.7631830106366975,-1.2971036555162963,-2.2577731180310185,0.27782721234842495,-0.12527678054397265,-0.026064382687379574
1592341649.3561954,-0.09,9.84,-0.68,-1.768888888888889,-1.3166666666666667,-2.27,0.20180369476184434,0.004363323129985824,0.05235987755982988
1592341649.3661954,-0.3294378301862946,9.546957862541392,-0.2253686711660474,-1.768888888888889,-1.3166666666666667,-2.27,-0.03761680086967752,-0.042443108749009875,0.041326800156472554
1592341649.3761954,-0.04022675682779383,10.06757855248381,-0.6526919308977086,-1.768888888888889,-1.3166666666666667,-2.27,-0.13417059630470352,-0.12406583492292032,-0.013454639612363335
1592341649.3861954,0.08838642235853336,9.790120904913119,-0.3744129307114258,-1.768888888888889,-1.3166666666666667,-2.27,-0.19028593222048806,-0.08077296324156569,0.01343362809666574
1592341649.3961954,0.12095229043908001,10.084190268009884,-0.7387616422733321,-1.773044098080213,-1.3153544953430907,-2.266500876470464,-0.25493582080093824,-0.08553846721075517,0.018682628332416493
1592341649.4061954,-0.12,9.53,-0.04,-1.79,-1.31,-2.252222222222222,-0.28034351110158917,-0.13635384781205698,-0.016362461737446838
1592341649.4161954,0.14109275858596032,9.750788599053278,-0.056680431060529765,-1.79,-1.31,-2.252222222222222,-0.22322051856793174,-0.10292887662379163,-0.0035440739462738614
1592341649.4261954,0.09486230248306998,9.524379470119996,-0.09562052988000477,-1.79,-1.31,-2.252222222222222,-0.17607885416130623,-0.0813872514458855,0.004017269149301252
1592341649.4361954,0.18620069697449707,9.612816608585458,-0.035349477269127204,-1.79,-1.31,-2.252222222222222,-0.1344507472442496,-0.06437562572043005,0.00760486425556569
1592341649.4461954,0.08249204043151681,9.612996816172606,-0.09474761212945504,-1.7921398617250368,-1.3090273355795288,-2.249693294728997,-0.07801845917740179,-0.03362477204503009,0.008315414080956261
1592341649.4561954,0.0,9.58,-0.07,-1.8022222222222222,-1.3044444444444445,-2.2377777777777776,-0.044724062082354694,-0.032724923474893676,-0.014180800172453926
1592341649.4661953,-0.019376665343840353,9.577625999206305,-0.08091955326265662,-1.8022222222222222,-1.3044444444444445,-2.2377777777777776,0.03470259925066585,-0.004240350341789543,-0.0068266130970133666
1592341649.4761953,-0.1890496494904965,9.6401900701019,-0.2998099298980993,-1.8022222222222222,-1.3044444444444445,-2.2377777777777776,0.08666096230123455,0.009900410769662311,0.005097454795582978
1592341649.4861953,-0.29,9.62,-0.32,-1.8022222222222222,-1.3044444444444445,-2.2377777777777776,0.11235557059713495,0.001090830782496456,0.004363323129985824
1592341649.4961953,-0.23909988606152677,9.747274971515381,-0.4327250284846183,-1.7985888509093977,-1.3044444444444445,-2.2397458539055575,0.14155849437977722,-0.02151666825664107,0.007288120933529065
1592341649.5061953,-0.17,9.73,-0.45,-1.7755555555555556,-1.3044444444444445,-2.252222222222222,0.1538071403320003,-0.04036073895236887,0.011999138607461015
1592341649.5161953,-0.14302892355521013,9.735273968800312,-0.4869710764447898,-1.7755555555555556,-1.3044444444444445,-2.252222222222222,0.14724223206363335,-0.06952261292136436,0.003768098805267139
1592341649.5261953,-0.054192411662483106,9.807096205831241,-0.5612886174937246,-1.7755555555555556,-1.3044444444444445,-2.252222222222222,0.13547290559390843,-0.08723084051898859,-0.010450986655531187
1592341649.5361953,-0.04460679522497704,9.790786409550046,-0.530786409550046,-1.7755555555555556,-1.3044444444444445,-2.252222222222222,0.11446362863054124,-0.07879716826319662,-0.010994091799448486
1592341649.5461953,-0.06003450542228064,9.760023003614853,-0.5000345054222807,-1.775517216197466,-1.3044585022090773,-2.2522056085003834,0.09596801580849694,-0.06871355672935982,-0.007632051519796516
1592341649.5561953,-0.08456424015627574,9.75553908070324,-0.5109748405469651,-1.7422222222222221,-1.3166666666666667,-2.2377777777777776,0.07239764496062123,-0.05930767557066377,-0.0031774242972273147
1592341649.5661952,-0.07490810135617416,9.712086456102783,-0.48454050678087085,-1.7422222222222221,-1.3166666666666667,-2.2377777777777776,0.06682842230834116,-0.05079380349477364,0.0
1592341649.5761952,-0.09782635958036899,9.787826359580368,-0.575652719160738,-1.7422222222222221,-1.3166666666666667,-2.2377777777777776,0.062011276832373945,-0.03606844544044022,0.0002134308486288134
1592341649.5861952,-0.13162557475070485,9.824876724252114,-0.6318721262464758,-1.7422222222222221,-1.3166666666666667,-2.2377777777777776,0.047572164721071716,-0.021488864850571304,0.001622798875691808
1592341649.5961952,-0.13956195954511913,9.848685878635356,-0.5921902022744044,-1.7422222222222221,-1.3166666666666667,-2.2377777777777776,0.02419758206526519,-0.014563062582184183,0.004219974726336977
1592341649.6061952,-0.13238837893235897,9.850485473665449,-0.5233593262632564,-1.7755555555555556,-1.3044444444444445,-2.258888888888889,-0.02549575135925635,-0.01090830782496456,0.008258539769871296
1592341649.6161952,-0.10277984611566146,9.80861007694217,-0.41138992305783073,-1.7755555555555556,-1.3044444444444445,-2.258888888888889,-0.06981723125171099,-0.011059924910642895,0.01090830782496456
1592341649.6261952,-0.12,9.796236704197582,-0.3936569293830748,-1.7755555555555556,-1.3044444444444445,-2.258888888888889,-0.10773404324208045,-0.015077977786148866,0.01090830782496456
1592341649.6361952,-0.12429998990612698,9.777850005046936,-0.2520500656101746,-1.7755555555555556,-1.3044444444444445,-2.258888888888889,-0.12966704520571706,-0.03399027396974068,0.008563027147950882
1592341649.6461952,-0.13044165911293096,9.76713249773388,-0.1308833182258619,-1.7755555555555556,-1.3044444444444445,-2.256021386622768,-0.14685300459179423,-0.05673111094335677,-0.00031279597407628186
1592341649.6561952,-0.04,9.74,0.05,-1.7755555555555556,-1.3044444444444445,-2.2288888888888887,-0.1636246173744684,-0.07744898555724837,-0.0032724923474893677
1592341649.6661952,-0.09182321717055159,9.702707131317794,0.08541426263558735,-1.7755555555555556,-1.3044444444444445,-2.2288888888888887,-0.16947049358041122,-0.09153336565361272,-0.0072440931840146595
1592341649.6761951,-0.088196906030658,9.672360618793869,0.0388849503509472,-1.7755555555555556,-1.3044444444444445,-2.2288888888888887,-0.1588679201633842,-0.09522059816586073,-0.014756623825732122
1592341649.6861951,-0.05,9.687568742703007,0.10946092837875922,-1.7755555555555556,-1.3044444444444445,-2.2288888888888887,-0.15053464798451094,-0.09148218388341336,-0.012677158513695677
1592341649.6961951,-0.047279115372044885,9.721360442313978,0.15,-1.7755555555555556,-1.3046963782062921,-2.2295439166696926,-0.1501883784352682,-0.08558202687566105,-0.010957774903427807
1592341649.706195,0.008460438725818703,9.743841754903276,0.15,-1.7755555555555556,-1.31,-2.243333333333333,-0.14222707217526914,-0.06989480085137134,-0.01031973777804459
1592341649.716195,-0.008077619792054394,9.70697089257798,0.1439417851559592,-1.7755555555555556,-1.31,-2.243333333333333,-0.13787466065316425,-0.04982662411826816,-0.0007604064205536227
1592341649.726195,-0.0719561646407284,9.674637443093818,0.10608767071854319,-1.7755555555555556,-1.31,-2.243333333333333,-0.1311130783601485,-0.026100841133181146,0.0029128668332618207
1592341649.736195,-0.021025588869452015,9.641025588869452,0.22128147756397218,-1.7755555555555556,-1.31,-2.243333333333333,-0.12343180095092124,-0.01798475134794775,0.006852694741186393
1592341649.746195,-0.029557178308449616,9.64955717830845,0.3151289613929458,-1.7755555555555556,-1.31,-2.243333333333333,-0.10668006426029678,-0.013331491156107626,0.0003381304726102173
1592341649.756195,-0.04,9.637072923301956,0.4105494609196216,-1.768888888888889,-1.31,-2.2488888888888887,-0.0747420719982301,-0.0013436517324869055,-0.008088057186980706
1592341649.766195,-0.04470369793867159,9.677839496564452,0.2949136109937515,-1.768888888888889,-1.31,-2.2488888888888887,-0.043314066695199945,0.009175097028395621,-0.015271630954950384
1592341649.776195,-0.06900161310336271,9.720998386896637,0.1609983868966373,-1.768888888888889,-1.31,-2.2488888888888887,-0.023235927403136878,0.01854236367963637,-0.014836002491073154
1592341649.786195,-0.06452350090733244,9.726607374319501,0.17678525136099868,-1.768888888888889,-1.31,-2.2488888888888887,-0.016239102386587618,0.02885503774834474,-0.010414870421527672
