time,acc_x,acc_y,acc_z,mag_x,mag_y,mag_z,gyr_x,gyr_y,gyr_z
1592299465.4146252,-0.29954256063003715,9.645228719684981,1.604313840945056,-0.3888888888888889,-0.6169426759405783,-0.20037766246723668,0.03170546858505827,0.01033794298642227,-0.0020818637758166637
1592299465.4246252,-0.3118287905989881,9.64,1.62,-0.3888888888888889,-0.6233333333333333,-0.20444444444444446,0.044138321381454855,0.01060907266294711,-0.004662558292003275
1592299465.4346251,-0.33,9.680855481727574,1.4974335548172757,-0.3888888888888889,-0.6233333333333333,-0.20444444444444446,0.06835189624396008,0.0015079331259281892,-0.009307056118806192
1592299465.4446251,-0.31876022196261683,9.725619889018692,1.3631403329439253,-0.3888888888888889,-0.6233333333333333,-0.20444444444444446,0.07758422436191244,-0.0062024275107266,-0.009682238237804043
1592299465.4546251,-0.31,9.73,1.3411465227197101,-0.3888888888888889,-0.6233333333333333,-0.20444444444444446,0.07467675811995556,-0.006187168645054213,-0.006312234872603351
1592299465.4646251,-0.4376347717733473,9.699058237145856,1.4266930089192025,-0.3914673691267343,-0.6130194123819517,-0.19584951031829312,0.06770365586814776,-0.0060509344992861515,-0.0041162980321395315
1592299465.474625,-0.41366281192939747,9.599074132684114,1.659218015824711,-0.39555555555555555,-0.5966666666666667,-0.18222222222222223,0.058803865797941085,-0.030330008807443153,-0.00545415391248228
1592299465.484625,-0.8196787843816118,9.542609636468551,1.9402779380650126,-0.39555555555555555,-0.5966666666666667,-0.18222222222222223,0.06782049982605814,-0.06903732481607319,-0.003557159526591516
1592299465.494625,-1.1020197384452928,9.531943383965558,2.0585411420680693,-0.39555555555555555,-0.5966666666666667,-0.18222222222222223,0.08147680135574831,-0.09102052957988137,-0.001475027214378889
1592299465.504625,0.3037884043099025,9.591057567983581,1.4871753719856335,-0.39555555555555555,-0.5966666666666667,-0.18222222222222223,0.14597856850691515,-0.11276882140091335,-0.0014369190958184192
1592299465.514625,-0.7629164076558155,9.683668902339278,1.5458796008506461,-0.39555555555555555,-0.5997543668320701,-0.18530992238762564,0.1520913614771238,0.0009923294587702945,-0.02568122229522312
1592299465.524625,-0.98,9.75,1.57,-0.39555555555555555,-0.6044444444444445,-0.19,0.1461713248545251,0.020725784867432664,-0.038179077387375956
1592299465.534625,-0.17535605067715157,9.658383573612932,1.355910878112713,-0.39555555555555555,-0.6044444444444445,-0.19,0.15495849339906514,-0.05248092212896667,-0.0049528197127504
1592299465.544625,-0.18138467411012502,9.738130785380283,1.1782922988834812,-0.39555555555555555,-0.6044444444444445,-0.19,0.16432526717781681,-0.047003054192402874,-0.0130102572350098
1592299465.554625,-0.37,9.79,1.15,-0.39555555555555555,-0.6044444444444445,-0.19,0.16689710972195776,-0.030543261909900768,-0.020725784867432664
1592299465.564625,-0.2689651416122004,9.83,0.9812064270152505,-0.3873658012587751,-0.6014271665456306,-0.18698272210118616,0.15013019098277647,-0.0007992593192556411,-0.01709592067044895
1592299465.574625,-0.2213177893606016,9.831317789360602,0.91165400071619,-0.37444444444444447,-0.5966666666666667,-0.18222222222222223,0.13581552870191083,0.007551224334552118,-0.012994137043331435
1592299465.584625,-0.2641956785884093,9.883659464314015,0.6826810713719689,-0.37444444444444447,-0.5966666666666667,-0.18222222222222223,0.0802258238522124,0.042356667112956575,-0.008843630067276197
1592299465.594625,-0.28140189163193335,9.909766351394678,0.6309345944212889,-0.37444444444444447,-0.5966666666666667,-0.18222222222222223,0.05648870179925339,0.057283917089955956,-0.006519497585881451
1592299465.604625,-0.37964033055139745,9.863963335862367,0.7564879939303217,-0.37444444444444447,-0.5966666666666667,-0.18222222222222223,-0.018564120487412204,0.08465246815871948,-0.00427485683628776
1592299465.614625,-0.4318718381112985,9.793957279370433,0.9522990444069702,-0.3788086315657985,-0.599016613578165,-0.18222222222222223,-0.06597472112056699,0.09624389570063306,0.0004549727041103825
1592299465.624625,-0.4113949941239717,9.78,1.0628369964743831,-0.3888888888888889,-0.6044444444444445,-0.18222222222222223,-0.10937203534988231,0.11623674395735632,0.008878816513154647
1592299465.634625,-0.4540320443615664,9.747258563156345,1.0987093924820885,-0.3888888888888889,-0.6044444444444445,-0.18222222222222223,-0.13739176436212153,0.12718737374148656,0.015060455793651506
1592299465.644625,-0.4166364812419146,9.71,1.2073221216041399,-0.3888888888888889,-0.6044444444444445,-0.18222222222222223,-0.1467329686468066,0.10851155630021343,0.018014936312224783
1592299465.654625,-0.36,9.71,1.3,-0.3888888888888889,-0.6044444444444445,-0.18222222222222223,-0.1461713248545251,0.09053895494720585,0.017453292519943295
1592299465.664625,-0.33322949263387364,9.673229492633874,1.4626064484371153,-0.3867358937996398,-0.6087504346229426,-0.18688704491559524,-0.1556705006887397,0.06090414976928395,0.0193166528766827
1592299465.674625,-0.34001120989563205,9.679932740626208,1.51005604947816,-0.38222222222222224,-0.6177777777777778,-0.19666666666666666,-0.1526857393014439,0.04905559215435821,0.016350233638222873
1592299465.684625,-0.2954610354081446,9.615804695031395,1.5180469503139575,-0.38222222222222224,-0.6177777777777778,-0.19666666666666666,-0.11903862506469304,0.01981051130708989,0.004996517132310895
1592299465.694625,-0.2524879038919965,9.63320564563714,1.46,-0.38222222222222224,-0.6177777777777778,-0.19666666666666666,-0.10359241655908076,0.029175764989692612,0.0028445171746639864
1592299465.704625,-0.29,9.66,1.46,-0.38222222222222224,-0.6177777777777778,-0.19666666666666666,-0.09599310885968812,0.04145156973486533,0.001090830782496456
1592299465.714625,-0.34133525918793134,9.641903386294334,1.6029545819290645,-0.38438131921039964,-0.6143592075464969,-0.19792613990977015,-0.07571356499122568,0.06429704311368735,0.0016207529103437954
1592299465.7246249,-0.41142874329299106,9.596190418902337,1.6776191621953274,-0.39555555555555555,-0.5966666666666667,-0.20444444444444446,-0.053606428826254826,0.0736050806603562,0.004778883962960641
1592299465.7346249,-0.4224831374730547,9.59,1.678724706209582,-0.39555555555555555,-0.5966666666666667,-0.20444444444444446,-0.030792057193023525,0.060244488320427836,0.0034042476544357794
1592299465.7446249,-0.3914785118665811,9.601112892880051,1.6637042976266836,-0.39555555555555555,-0.5966666666666667,-0.20444444444444446,0.0010526971855458096,0.03122826725695916,-0.00040407618787152233
1592299465.7546248,-0.3361664459721744,9.62,1.6640416114930434,-0.39555555555555555,-0.5966666666666667,-0.20444444444444446,0.037763315512467734,0.006474484049619036,-0.0027157291818617436
1592299465.7646248,-0.28533355295667934,9.62,1.6457331576346566,-0.39614817255074214,-0.5982074708541518,-0.2013628360694742,0.07077323053719947,-0.0077085854440228875,-0.007126785069500811
1592299465.7746248,-0.3265667839940719,9.633732864023711,1.5894007039644313,-0.4011111111111111,-0.6111111111111112,-0.17555555555555555,0.10494856081685904,-0.01670428097949811,-0.012373644377683608
1592299465.7846248,-0.36140117682912537,9.656815294090068,1.5595541177297982,-0.4011111111111111,-0.6111111111111112,-0.17555555555555555,0.12416015636231376,-0.014576835906999784,-0.011352981770080973
1592299465.7946248,-0.36937406640003856,9.668605984676915,1.5055760612923434,-0.4011111111111111,-0.6111111111111112,-0.17555555555555555,0.14119974779426175,-0.01985529633136926,-0.007974081824545782
1592299465.8046248,-0.23034275782623634,9.70462096562317,1.3373104828115843,-0.4011111111111111,-0.6111111111111112,-0.17555555555555555,0.16571567215067248,-0.03197277690070936,-0.01107369277131343
1592299465.8146248,-0.34771674078036713,9.699645925975458,1.3068497776588988,-0.4000393415582823,-0.6098249876477166,-0.18241488069365966,0.1828386885402161,-0.02252518699776225,-0.017032409600754788
1592299465.8246248,-0.38,9.74,1.21,-0.39555555555555555,-0.6044444444444445,-0.2111111111111111,0.1810779098944117,-0.016362461737446838,-0.015271630954950384
1592299465.8346248,-0.32414060322238947,9.738789095166416,1.0794921112783633,-0.39555555555555555,-0.6044444444444445,-0.2111111111111111,0.1686483866380279,-0.009629985750588939,-0.01026914678777675
1592299465.8446248,-0.31,9.76,1.03,-0.39555555555555555,-0.6044444444444445,-0.2111111111111111,0.15707963267948966,-0.006544984694978735,-0.008726646259971648
1592299465.8546247,-0.3458128573299001,9.75209357133505,1.1296491074935626,-0.39555555555555555,-0.6044444444444445,-0.2111111111111111,0.13920787018275835,0.004997407500957338,-0.0061009970950327685
1592299465.8646247,-0.4223084502735211,9.702416499609257,1.293958750976861,-0.39184348325084284,-0.6030768388584976,-0.20603143322045162,0.13384858040417813,0.008354820144311138,-0.009110258729776898
1592299465.8746247,-0.48,9.62,1.5,-0.37444444444444447,-0.5966666666666667,-0.18222222222222223,0.13744467859455345,-0.008726646259971648,-0.01090830782496456
1592299465.8846247,-0.18782168998784365,9.657306986007294,1.343207717973256,-0.37444444444444447,-0.5966666666666667,-0.18222222222222223,0.16582357400889902,-0.05749219646892554,-0.022613684176331812
1592299465.8946247,-0.12951619380595783,9.844816800926035,0.805065791027852,-0.37444444444444447,-0.5966666666666667,-0.18222222222222223,0.19117129644027422,-0.06789461078709344,-0.03281689330935849
1592299465.9046247,-0.32215303009695534,10.01551304719529,0.3842052188781161,-0.37444444444444447,-0.5966666666666667,-0.18222222222222223,0.18353389525558178,-0.029175839491762466,-0.03648686644628167
1592299465.9146247,-0.4551919185430251,9.983461279028683,0.3717306395143417,-0.37348297804758795,-0.6012817053715779,-0.18222222222222223,0.13452992184239024,0.026431159565271305,-0.03847290409672023
1592299465.9246247,-0.48,10.0,0.38,-0.3688888888888889,-0.6233333333333333,-0.18222222222222223,0.06326818538479445,0.05890486225480862,-0.02945243112740431
1592299465.9346247,-0.43075389880097176,9.880709490347693,0.7159867819544944,-0.3688888888888889,-0.6233333333333333,-0.18222222222222223,-0.04239245794591651,0.09639945265839764,-0.0033910045395533876
1592299465.9446247,-0.49,9.720265679442509,1.055781068524971,-0.3688888888888889,-0.6233333333333333,-0.18222222222222223,-0.10566568024507372,0.09829069495034702,0.008367866187708912
1592299465.9546247,-0.49,9.68,1.19,-0.3688888888888889,-0.6233333333333333,-0.18222222222222223,-0.12762720155208535,0.08072147790473774,0.007635815477475192
1592299465.9646246,-0.45596688309457556,9.708066233810849,1.2008426946992339,-0.3709054473416011,-0.6221009920566758,-0.18087784992041409,-0.1235757745574088,0.025474865394615867,0.0022826165317745067
1592299465.9746246,-0.42,9.78,1.03,-0.3888888888888889,-0.6111111111111112,-0.1688888888888889,-0.10690141668465267,-0.02945243112740431,-0.006544984694978735
1592299465.9846246,-0.2939380886325473,9.82404127424497,0.8777729916526733,-0.3888888888888889,-0.6111111111111112,-0.1688888888888889,-0.1073760187320468,-0.08620939922992196,-0.017673709837289383
1592299465.9946246,-0.2484588235294118,9.84,0.8139346405228759,-0.3888888888888889,-0.6111111111111112,-0.1688888888888889,-0.13183324542022887,-0.09848234192766729,-0.01932738258194995
1592299466.0046246,-0.1401651002809805,9.84,0.9373039434163356,-0.3888888888888889,-0.6111111111111112,-0.1688888888888889,-0.17040966728012075,-0.08920355654231846,-0.023446108206097837
1592299466.0146246,-0.02596387233644277,9.831054191495335,1.1058434467912521,-0.3901037517722383,-0.6104484586292842,-0.17021419385254286,-0.1973122407893134,-0.06340945261650888,-0.028470026603699034
1592299466.0246246,-0.08,9.75,1.34,-0.4011111111111111,-0.6044444444444445,-0.18222222222222223,-0.22580197197676635,-0.015271630954950384,-0.02945243112740431
1592299466.0346246,-0.20041405760801503,9.662590273429347,1.6630572949279898,-0.4011111111111111,-0.6044444444444445,-0.18222222222222223,-0.24704770016410688,0.059860193001940176,-0.04202245719745394
1592299466.0446246,-0.25243873395413086,9.56013622615447,1.8125068470313652,-0.4011111111111111,-0.6044444444444445,-0.18222222222222223,-0.23237667660828032,0.08290313946973066,-0.0538980401493188
1592299466.0546246,-0.4613775971093045,9.46,2.0632757452574526,-0.4011111111111111,-0.6044444444444445,-0.18222222222222223,-0.19414878728219132,0.07141160177178499,-0.07507936015145944
1592299466.0646245,-0.12272585885117854,9.462478053501073,2.0387609732494645,-0.4006430343386865,-0.6042517069499167,-0.18241495971675,-0.13493076114768657,0.02993111635742289,-0.09789488075407712
1592299466.0746245,-0.23,9.56,1.99,-0.38222222222222224,-0.5966666666666667,-0.19,-0.03599741582238304,-0.0370882466048795,-0.12980886311707826
1592299466.0846245,0.0,9.888834970046776,1.436132614820691,-0.38222222222222224,-0.5966666666666667,-0.19,0.06449317310571867,-0.07119171020397794,-0.17264604486102542
1592299466.0946245,0.0,9.958001480561657,1.2297134396790523,-0.38222222222222224,-0.5966666666666667,-0.19,0.09109999977941065,-0.05700291558480202,-0.2077571832638212
1592299466.1046245,0.027059298104074227,10.014162968939088,1.1937555465913674,-0.38222222222222224,-0.5966666666666667,-0.19,0.08545486504766406,-0.01968907759693583,-0.23625133002111626
1592299466.1146245,0.1323492560689115,10.031174628034455,1.1709397024275645,-0.38222222222222224,-0.5970060036543984,-0.19,0.05691710717973481,0.018657733712832882,-0.2562282066218261
1592299466.1246245,0.23,10.08,1.21,-0.38222222222222224,-0.6111111111111112,-0.19,0.019634954084936207,0.06872233929727672,-0.296705972839036
1592299466.1346245,0.250373923612009,10.049626076387991,1.3344459672622897,-0.38222222222222224,-0.6111111111111112,-0.19,-0.012768144549702445,0.1096496355216696,-0.36329042935579486
1592299466.1446245,0.31214495032520906,9.968550496747909,1.4372182117075263,-0.38222222222222224,-0.6111111111111112,-0.19,-0.03997503815321155,0.12801929561292263,-0.43190271825362103
1592299466.1546245,0.29047041059294965,9.865681514605958,1.7356333120390266,-0.38222222222222224,-0.6111111111111112,-0.19,-0.05605738783633771,0.13858156512818962,-0.48280250254815055
1592299466.1646245,0.15243858528369825,9.752008246704222,1.8087089842615716,-0.38222222222222224,-0.6111111111111112,-0.19,-0.06314300496629088,0.14389577797565448,-0.5164591839154282
1592299466.1746244,0.04,9.68,1.71,-0.37444444444444447,-0.6233333333333333,-0.19,-0.0643590161672909,0.13853550937704992,-0.5563236990731926
1592299466.1846244,-0.08141743231822024,9.612856130210746,1.5423907412961095,-0.37444444444444447,-0.6233333333333333,-0.19,-0.05501003219488105,0.13334059840824172,-0.5773087268842992
1592299466.1946244,-0.3779035579179237,9.658867978738687,1.2737106737537711,-0.37444444444444447,-0.6233333333333333,-0.19,-0.023787873231208206,0.14777212934432,-0.5905968260419526
1592299466.2046244,-0.34116909991836425,9.714736582309722,1.2601756117935186,-0.37444444444444447,-0.6233333333333333,-0.19,-0.004510008422876344,0.1536221424890819,-0.5928761084243308
1592299466.2146244,-0.20579974560021266,9.643070453553054,1.3079530309646308,-0.37444444444444447,-0.6233333333333333,-0.19,0.0050447894928060235,0.15275352449674712,-0.595481962401335
1592299466.2246244,-0.04,9.74,1.23,-0.3477777777777778,-0.6233333333333333,-0.19,0.01090830782496456,0.15053464798451094,-0.6043202535030366
1592299466.2346244,0.012035648606592161,9.785908898005376,1.19502970717216,-0.3477777777777778,-0.6233333333333333,-0.19,-0.010028730026092045,0.14649576561279343,-0.6154462954111958
1592299466.2446244,-0.13743097152948475,10.170373004319499,1.0806491182015607,-0.3477777777777778,-0.6233333333333333,-0.19,-0.04546684123222395,0.16288483193722084,-0.619564758818406
1592299466.2546244,-0.05850763630905475,9.8771334759278,1.3135404705617473,-0.3477777777777778,-0.6233333333333333,-0.19,-0.0892103837172352,0.20250115679430172,-0.6456104642771678
1592299466.2646244,-0.5936354084581035,9.955828736537956,1.5732348305752561,-0.3477777777777778,-0.6233333333333333,-0.19,-0.12268923667418866,0.23426314549705246,-0.6919657991406419
1592299466.2746243,-0.71,9.64,1.82,-0.31555555555555553,-0.6377777777777778,-0.19666666666666666,-0.13526301702956053,0.28361600344907856,-0.7853981633974483
1592299466.2846243,-0.5255302013422819,9.218640939597316,1.753755033557047,-0.31555555555555553,-0.6377777777777778,-0.19666666666666666,-0.07400426640332794,0.2820727341272648,-0.8907588731144742
1592299466.2946243,-0.9274539219888556,9.813649092727534,0.8656293756250892,-0.31555555555555553,-0.6377777777777778,-0.19666666666666666,0.0070047576351651274,0.2531653195481509,-0.9201396888141737
1592299466.3046243,-1.3503181890137723,10.338127275605508,1.0393145480449582,-0.31555555555555553,-0.6377777777777778,-0.19666666666666666,0.054412027792406725,0.2326954284968326,-0.8877172964594437
1592299466.3146243,-1.1658820115033506,10.26435280460134,0.9729175241412062,-0.31555555555555553,-0.6377777777777778,-0.19666666666666666,0.053607273153069325,0.20774803467737343,-0.9134694449182403
1592299466.3246243,-0.85,9.62,1.51,-0.30333333333333334,-0.6622222222222223,-0.20444444444444446,0.04581489286485115,0.11780972450961724,-1.1017390903214204
1592299466.3346243,-1.0011673449651448,9.667239795301608,1.2832489825522828,-0.30333333333333334,-0.6622222222222223,-0.20444444444444446,0.07467204167419327,0.10131992518999317,-1.2573615714003727
1592299466.3446243,-1.0078752371119168,9.838757653612506,0.8902586020601724,-0.30333333333333334,-0.6622222222222223,-0.20444444444444446,0.06472078423624764,0.16646176747795763,-1.348300582850011
1592299466.3546243,-1.14,9.46,1.04,-0.30333333333333334,-0.6622222222222223,-0.20444444444444446,0.05126904677733343,0.21162117180431245,-1.4049900478554354
1592299466.3646243,-1.6349741011116832,9.73976797019356,0.9969587738163753,-0.30333333333333334,-0.6622222222222223,-0.20444444444444446,0.026228676410671985,0.24213912318868108,-1.4456806497012602
1592299466.3746243,-2.09,9.06,1.28,-0.27,-0.65,-0.17555555555555555,-0.020725784867432664,0.23780111058422737,-1.5086189721925987
1592299466.3846242,-2.1465251781658705,9.229575534497611,1.2894208630276451,-0.27,-0.65,-0.17555555555555555,-0.020725784867432664,0.21416500559127993,-1.4860105239384749
1592299466.3946242,-2.0071413649851633,8.894943620178042,1.1808785756676556,-0.27,-0.65,-0.17555555555555555,0.024789294613448302,0.1744250721380894,-1.4444519163479344
1592299466.4046242,-2.444948755224423,9.323029801926221,1.325756859894603,-0.27,-0.65,-0.17555555555555555,0.06706958100211063,0.16356949107234006,-1.3901700918088977
1592299466.4146242,-2.2086716336543706,9.16297110666909,1.0971015809558424,-0.27,-0.65,-0.17555555555555555,0.07205806533904492,0.1527611083423158,-1.363564842011915
1592299466.4246242,-2.99,9.52,1.54,-0.2111111111111111,-0.6822222222222222,-0.2111111111111111,0.062177354602297986,0.16035212502697901,-1.3526301702956054
1592299466.4346242,-2.761647846740908,8.993797212055137,1.420859746125691,-0.2111111111111111,-0.6822222222222222,-0.2111111111111111,0.03618498333019023,0.1614351404966502,-1.3948677736127804
1592299466.4446242,-3.0948013466405615,8.753200897760374,1.460827085621508,-0.2111111111111111,-0.6822222222222222,-0.2111111111111111,0.015711015781384535,0.13164722110191535,-1.4361964761228145
1592299466.4546242,-3.482799111222606,9.0051644058989,1.5651644058989016,-0.2111111111111111,-0.6822222222222222,-0.2111111111111111,0.06270483609201163,0.1131826606347746,-1.4145323299118484
1592299466.4646242,-3.1370758148619347,8.68950400487394,1.2495040048739405,-0.2111111111111111,-0.6822222222222222,-0.2111111111111111,0.09713804431733197,0.09596605652211443,-1.3694412239025004
1592299466.4746242,-3.4,9.04,1.22,-0.18444444444444444,-0.6966666666666667,-0.19666666666666666,0.14180800172453928,0.02181661564992912,-1.239183768915974
1592299466.4846241,-3.537190988914935,8.928532321506616,1.1771278159640828,-0.18444444444444444,-0.6966666666666667,-0.19666666666666666,0.14180800172453928,0.02181661564992912,-1.239183768915974
1592299466.4946241,-3.811767721113458,8.761784807423052,1.182339875175016,-0.18444444444444444,-0.6966666666666667,-0.19666666666666666,0.12852147621954593,0.030414709602872188,-1.1711535566893825
1592299466.5046241,-3.8432557477400526,8.936977009039788,1.0526745675848814,-0.18444444444444444,-0.6966666666666667,-0.19666666666666666,0.08960669411029651,0.027695699747115467,-1.0399042654363253
1592299466.514624,-3.9029653356110754,8.698138657555699,0.9183279948750801,-0.18444444444444444,-0.6966666666666667,-0.19666666666666666,0.0725092667895757,0.015483251660886327,-0.9861694938569172
1592299466.524624,-4.42,8.87,1.32,-0.1511111111111111,-0.7088888888888889,-0.19,0.05235987755982988,-0.011999138607461015,-0.8977537339945831
1592299466.534624,-3.953461357210179,8.608083568960101,0.9844195727301288,-0.1511111111111111,-0.7088888888888889,-0.19,0.03807455228883326,-0.04324828763776614,-0.8486479283755323
1592299466.544624,-3.516726398075767,8.693961515333733,1.0991196632591702,-0.1511111111111111,-0.7088888888888889,-0.19,0.03234080410854977,-0.034018309005216296,-0.7984641253270092
1592299466.554624,-4.26,8.87,1.06,-0.1511111111111111,-0.7088888888888889,-0.19,0.015271630954950384,0.00545415391248228,-0.7973973020049092
1592299466.564624,-4.121991593823288,8.491976974385526,1.2400109645783206,-0.1511111111111111,-0.7088888888888889,-0.19,0.00021724918486718502,0.006108692250311984,-0.820306143828949
1592299466.574624,-4.759160199556541,8.658973577235772,1.279696738728751,-0.09888888888888889,-0.7155555555555555,-0.16111111111111112,0.006478823349015236,0.020679980858688704,-0.8421060960843494
1592299466.584624,-4.410410199556542,8.232723577235774,1.1537592387287507,-0.09888888888888889,-0.7155555555555555,-0.16111111111111112,-0.020996476985114247,0.0016586190889067536,-0.8357656421610886
1592299466.594624,-4.770046024705489,8.250598321171365,1.218573234129823,-0.09888888888888889,-0.7155555555555555,-0.16111111111111112,-0.03282031328935007,0.001035605100442753,-0.7742840143939199
1592299466.604624,-4.775843246267984,8.378395638910451,0.9111303453130923,-0.09888888888888889,-0.7155555555555555,-0.16111111111111112,-0.05350241544236128,-0.010832735909528877,-0.7296385144746584
1592299466.614624,-3.9127406631888664,8.045268326143072,1.1458336793082908,-0.09888888888888889,-0.7155555555555555,-0.16111111111111112,-0.06423880602040845,0.0048589118583862185,-0.7032104761286961
1592299466.624624,-5.76,8.48,1.64,-0.08,-0.7155555555555555,-0.17555555555555555,-0.08290313946973066,0.0272707695624114,-0.6523168079328807
1592299466.634624,-4.915609018421776,7.905246474724066,1.6045213873286461,-0.08,-0.7155555555555555,-0.17555555555555555,-0.07980704644395611,0.011016281177095084,-0.6290961102395717
1592299466.644624,-5.582302506187238,8.387457116035616,1.4130927659090262,-0.08,-0.7155555555555555,-0.17555555555555555,-0.047449261666469955,0.005435411222167716,-0.5874292416925302
1592299466.654624,-5.2065481714136155,8.281964451424084,1.3509822257120423,-0.08,-0.7155555555555555,-0.17555555555555555,-0.03832193632631665,-0.008494500484193021,-0.5664804660956447
1592299466.664624,-5.244329232257025,8.110071276348073,1.652916420423002,-0.08,-0.7155555555555555,-0.17555555555555555,-0.027702010980123197,-0.029680779074477165,-0.553246325152888
1592299466.674624,-5.0673309859154925,8.550939436619718,1.3939288732394366,-0.06608501564945228,-0.7284001564945227,-0.1894705399061033,0.00647627003758838,-0.054952636373592496,-0.5371285725689031
1592299466.684624,-4.780402321541377,8.141283559696777,1.485625789639924,-0.06555555555555556,-0.7288888888888889,-0.19,0.003569232085779031,-0.04343261973223077,-0.5102559529422313
1592299466.694624,-5.3366507204947204,7.795066798903215,1.4933778659354764,-0.06555555555555556,-0.7288888888888889,-0.19,-0.01949755815357807,-0.050409288077635214,-0.45605782493915664
1592299466.704624,-5.161826608505998,8.42554857522166,0.9967384192309516,-0.06555555555555556,-0.7288888888888889,-0.19,-0.01451734352752028,-0.03367846298091501,-0.3937706725660393
1592299466.714624,-5.2779363831308075,8.218342387419586,1.481745532523231,-0.06555555555555556,-0.7288888888888889,-0.19,-0.01883269833646544,-0.03660150527823661,-0.35872944934631923
1592299466.724624,-5.28,8.0,1.58,-0.02666666666666667,-0.7144444444444444,-0.15444444444444444,-0.019634954084936207,-0.04581489286485115,-0.3337942194439155
1592299466.734624,-5.2381043803714995,8.181547685056834,1.440347934571666,-0.02666666666666667,-0.7144444444444444,-0.15444444444444444,-0.006686328481219179,-0.03210458340209194,-0.3322708517258312
1592299466.744624,-5.048571007515842,7.900815444318908,1.3881632853563883,-0.02666666666666667,-0.7144444444444444,-0.15444444444444444,0.007813932170554636,-0.014603746940948525,-0.33428398676483795
1592299466.754624,-5.433083097261568,8.234946883852691,1.4062724268177524,-0.02666666666666667,-0.7144444444444444,-0.15444444444444444,0.027567941121193488,0.015514080714563321,-0.3242347717791767
1592299466.7646239,-5.3508585217170435,8.157035814071628,1.428531877063754,-0.02666666666666667,-0.7144444444444444,-0.15444444444444444,0.026917226235394512,0.02720732017221793,-0.31573053824887953
1592299466.7746239,-5.564808403034429,8.5047317642482,1.350677689165532,-0.02035094771877499,-0.7261736367762432,-0.1715871101601504,0.027541387259356735,0.05357347719872635,-0.302234051171791
1592299466.7846239,-4.86354096294429,7.870960675573482,1.5919379884043359,-0.01888888888888889,-0.7288888888888889,-0.17555555555555555,0.0048909200602545305,0.07625275637824803,-0.25303710461721873
1592299466.7946239,-5.205557729941291,7.581301369863014,1.364481409001957,-0.01888888888888889,-0.7288888888888889,-0.17555555555555555,-0.007142700192237068,0.07000956231458663,-0.23789717200342964
1592299466.8046238,-5.881579670692709,8.336967782858048,1.1069950048893942,-0.01888888888888889,-0.7288888888888889,-0.17555555555555555,-0.011024174540477239,0.053866144861494714,-0.21967242380095603
1592299466.8146238,-5.284194542015672,8.077940736737819,1.2266261370800684,-0.01888888888888889,-0.7288888888888889,-0.17555555555555555,-0.026557087407119068,0.039691817898085756,-0.2338149360814457
1592299466.8246238,-5.308450344289061,8.29895435507915,1.1517051181940796,0.0031998769551122783,-0.7096812664158444,-0.13906107285677102,-0.022501530697219614,0.0243872346239147,-0.257102086308625
1592299466.8346238,-5.6996739701615295,8.159679453494483,1.1038712330644977,0.006666666666666667,-0.7066666666666667,-0.13333333333333333,-0.03687695406052151,0.019107171328169373,-0.27576889542724536
1592299466.8446238,-5.697276292852993,8.033339870230487,1.2845329750145265,0.006666666666666667,-0.7066666666666667,-0.13333333333333333,-0.045021172442200844,0.012792859030111327,-0.287747289990477
1592299466.8546238,-5.491331841556039,8.012053273662241,1.3020532736622417,0.006666666666666667,-0.7066666666666667,-0.13333333333333333,-0.051882866461362726,0.027602499284205082,-0.23965951521853796
1592299466.8646238,-5.497723142704436,7.958690539818279,1.4924104756814538,0.006666666666666667,-0.7066666666666667,-0.13333333333333333,-0.05065221141235147,0.05192319543471506,-0.1884134699721083
1592299466.8746238,-5.237862822322954,7.655568105818533,1.387536598053058,0.017486562136186865,-0.7194538158579178,-0.13923509449852617,-0.03556795743747807,0.0690622258597355,-0.15241200853460515
1592299466.8846238,-5.538393586800016,7.708502938086158,1.4745332139938514,0.01888888888888889,-0.7211111111111111,-0.14,-0.03438364678212989,0.074924202802431,-0.15848514333086755
1592299466.8946238,-5.281433248659328,7.555884278859724,1.170297488004516,0.01888888888888889,-0.7211111111111111,-0.14,-0.04767561680419508,0.056828804685976106,-0.21049789011454106
1592299466.9046237,-5.620710920177384,8.286224362527715,1.423859940872136,0.01888888888888889,-0.7211111111111111,-0.14,-0.03925267497846379,0.07056911258711851,-0.2383766840604407
1592299466.9146237,-5.340607880474586,8.089714369415555,1.368992236707192,0.01888888888888889,-0.7211111111111111,-0.14,-0.03569878351939698,0.06306078852589882,-0.2588379907400035
1592299466.9246237,-5.959436946048325,8.044502960538413,1.202419182817844,-0.007313367576689999,-0.7165934806860113,-0.11650832178948099,-0.017165891845977475,0.04164361147499296,-0.24262036736295994
1592299466.9346237,-6.100259508555673,8.045181655988971,1.2496366880220582,-0.013333333333333334,-0.7155555555555555,-0.1111111111111111,0.002644983779194936,0.03438098524309779,-0.19493126621467108
1592299466.9446237,-5.965194305722978,7.93367487515068,1.1673497503013603,-0.013333333333333334,-0.7155555555555555,-0.1111111111111111,0.03704585567211158,0.0027906633553930332,-0.08611007301868526
1592299466.9546237,-5.768179135068662,7.794998155359705,1.0661352736216438,-0.013333333333333334,-0.7155555555555555,-0.1111111111111111,0.04222013704331169,-0.002181661564992912,-0.04380632439102625
1592299466.9646237,-5.912957746478873,7.817323943661972,1.2032394366197183,-0.013333333333333334,-0.7155555555555555,-0.1111111111111111,0.025565386226395814,0.004593780337555498,0.0048703289866391004
1592299466.9746237,-6.140277893220292,7.769722106779708,1.351709472750949,0.0020940348544039,-0.7146984795451257,-0.1128252631319708,-0.015362571298632863,-0.003302805795383527,0.012996732115028772
1592299466.9846237,-6.024908542804687,7.846909494775494,1.4387275323556745,0.006666666666666667,-0.7144444444444444,-0.11333333333333333,-0.04091613077600989,-0.010709990689344893,-0.004660885370003611
1592299466.9946237,-5.484183054925732,7.7268800610800055,1.2922972097542917,0.006666666666666667,-0.7144444444444444,-0.11333333333333333,-0.06013157367524318,-0.026315819417853055,-0.02890638478965748
1592299467.0046237,-6.025009153023076,8.075381461905375,1.1988168106226633,0.006666666666666667,-0.7144444444444444,-0.11333333333333333,-0.0680010156649785,-0.029082923977206077,-0.03684780539411343
1592299467.0146236,-6.183448571144081,8.263152245345017,1.1500987752663545,0.006666666666666667,-0.7144444444444444,-0.11333333333333333,-0.07525116192709211,-0.0276361756082617,-0.008071257139033318
1592299467.0246236,-5.562458291457286,7.845531658291457,1.13841608040201,0.0010559463986599665,-0.6976122836404243,-0.11333333333333333,-0.07853981633974483,-0.04563180870336682,0.0487753747191762
1592299467.0346236,-5.8151577293112044,8.000235348231055,1.231289432327801,0.0,-0.6944444444444444,-0.11333333333333333,-0.07958804079132159,-0.04541859963182185,0.08974227091448372
1592299467.0446236,-6.075352164633343,7.960782588074096,1.1803912940370478,0.0,-0.6944444444444444,-0.11333333333333333,-0.09704125608412269,-0.04226755864383458,0.1474772405292621
1592299467.0546236,-5.9604315962855985,7.659024611491728,1.4082736148576067,0.0,-0.6944444444444444,-0.11333333333333333,-0.11855875765417122,-0.028208122112542092,0.15742754965652375
1592299467.0646236,-5.92686151789512,7.849631159992708,1.660800267363432,0.0,-0.6944444444444444,-0.11333333333333333,-0.14046211128043704,0.006815223322932679,0.15745387042622205
1592299467.0746236,-5.2804487589373945,7.5948157298145675,1.6555208393884788,-0.00888265612586952,-0.703327100570314,-0.10202813462768122,-0.16847042213114816,0.03321352410237298,0.13488192692883372
1592299467.0846236,-5.1712302839116715,7.470189274447949,1.646919032597266,-0.012222222222222223,-0.7066666666666667,-0.09777777777777778,-0.17011798547090629,0.05030209583133499,0.10928495650171645
1592299467.0946236,-5.629602490020378,7.752374452167602,1.5431694721268459,-0.012222222222222223,-0.7066666666666667,-0.09777777777777778,-0.15926129424448257,0.0919104790874069,0.051938837523272975
1592299467.1046236,-5.747580426885729,7.662097865571357,1.53261259764002,-0.012222222222222223,-0.7066666666666667,-0.09777777777777778,-0.14614325057526334,0.09817477042468103,0.046641789163992795
1592299467.1146235,-5.685847089999018,7.766844047502208,1.482026499165767,-0.012222222222222223,-0.7066666666666667,-0.09777777777777778,-0.10743048406721632,0.10693766708243002,0.06956676158738002
1592299467.1246235,-6.038762293041205,8.009916594049546,1.586912423752023,-0.02077268074747223,-0.7066666666666667,-0.09389120572084596,-0.06938684576237648,0.08717239151486966,0.09892879888571765
1592299467.1346235,-5.628765381460213,7.814421657095981,1.4232772764561115,-0.024444444444444446,-0.7066666666666667,-0.09222222222222222,-0.045539724312252575,0.06466684700336865,0.12964286712843748
1592299467.1446235,-5.757928729944137,7.548610310435426,1.0366076575772263,-0.024444444444444446,-0.7066666666666667,-0.09222222222222222,0.004306838001590856,0.04492320694142995,0.21049316657278366
1592299467.1546235,-6.067059308460524,7.92601634633503,1.1958813830789523,-0.024444444444444446,-0.7066666666666667,-0.09222222222222222,0.04100720572546086,0.05221175622336172,0.2675988584093129
1592299467.1646235,-5.759808040565013,7.747778180208459,1.576217554026319,-0.024444444444444446,-0.7066666666666667,-0.09222222222222222,0.06240343124642277,0.0399132388921343,0.2792503537050853
1592299467.1746235,-5.409124508987025,7.645154148315677,1.3593834067372932,-0.028825867290930972,-0.6942526352682882,-0.08272913938816807,0.06837935280614896,0.03590460885871332,0.2691850237491666
1592299467.1846235,-5.6449277603679135,7.794524439379757,1.3763110984493916,-0.03111111111111111,-0.6877777777777778,-0.07777777777777778,0.06569819286152417,0.051192021364951705,0.27216070420857785
1592299467.1946235,-5.736077859951063,7.911655898606109,1.6352822148296813,-0.03111111111111111,-0.6877777777777778,-0.07777777777777778,0.055915926530322686,0.07002810929892343,0.27725164927132345
1592299467.2046235,-5.455730513595166,7.811003021148037,1.3691407854984894,-0.03111111111111111,-0.6877777777777778,-0.07777777777777778,0.05380702442753334,0.057610893075233365,0.2641342270522705
1592299467.2146235,-5.883569493911152,7.8283633688071825,1.216842756296786,-0.03111111111111111,-0.6877777777777778,-0.07777777777777778,0.05747595744788771,0.03147454743644464,0.26748969567680736
1592299467.2246234,-5.598439043798283,7.640857398627366,1.1722393156725572,-0.03111111111111111,-0.6877777777777778,-0.06731783871003393,0.07173171722738399,-0.0042321095071319,0.3144230669480357
1592299467.2346234,-5.657828926282051,7.674138621794872,1.116965544871795,-0.03111111111111111,-0.6877777777777778,-0.06222222222222222,0.08466730478211183,-0.017833204058094004,0.35716443859893143
1592299467.2446234,-6.257032176882977,8.019780693870214,1.4662717957936364,-0.03111111111111111,-0.6877777777777778,-0.06222222222222222,0.10752497265954729,-0.032929049817618614,0.459408786239297
1592299467.2546234,-5.252324830174339,7.852899624720916,1.135945085744145,-0.03111111111111111,-0.6877777777777778,-0.06222222222222222,0.12127187248695492,-0.0641375439918888,0.5292581825025378
1592299467.2646234,-5.428527243907272,7.888664355062414,1.2107875965920347,-0.03111111111111111,-0.6877777777777778,-0.06222222222222222,0.11743241852645812,-0.08389683941140011,0.5867623518888337
1592299467.2746234,-5.6358165981127515,7.8953496249697555,1.5648826518267602,-0.04320402182971746,-0.6756848670591715,-0.06222222222222222,0.10928604192536294,-0.11032593383996153,0.6402920679254918
1592299467.2846234,-5.556069125186043,7.917342070448156,1.6665172812965106,-0.051111111111111114,-0.6677777777777778,-0.06222222222222222,0.11281322525154104,-0.128325905095711,0.6578853755089644
1592299467.2946234,-5.674799525759862,8.16510239275706,1.5296971330028022,-0.051111111111111114,-0.6677777777777778,-0.06222222222222222,0.11962420947041351,-0.15635597850118985,0.6662081464340146
1592299467.3046234,-5.579560015163721,8.130146661612093,1.555444486565891,-0.051111111111111114,-0.6677777777777778,-0.06222222222222222,0.10406186056513085,-0.1560367967973177,0.6708449329352122
1592299467.3146234,-5.042048002526449,7.721341386388756,1.339640770566872,-0.051111111111111114,-0.6677777777777778,-0.06222222222222222,0.10760555630866114,-0.13901495473992356,0.6755260284898813
1592299467.3246233,-5.547302512178814,8.005338618779254,1.3071783360397364,-0.0671983952622027,-0.6590638321959366,-0.058870704690744804,0.15665364358319522,-0.09472375512937647,0.7120582620639586
1592299467.3346233,-6.126402710229871,8.310456416011972,1.411288606226878,-0.07777777777777778,-0.6533333333333333,-0.056666666666666664,0.17952439310349383,-0.08153117841947521,0.7440827604680798
1592299467.3446233,-5.801335986073116,8.117127082815221,1.163540910221338,-0.07777777777777778,-0.6533333333333333,-0.056666666666666664,0.17288818785346938,-0.12226783407964392,0.800081923100056
1592299467.3546233,-5.2614294913071475,7.853000643915003,0.9697553122987767,-0.07777777777777778,-0.6533333333333333,-0.056666666666666664,0.14937708898286625,-0.16971093336309157,0.8424507907691641
1592299467.3646233,-5.015846815523444,7.67,0.8571772815885202,-0.07777777777777778,-0.6533333333333333,-0.056666666666666664,0.13596238782748685,-0.19377641929979902,0.8983652367583385
1592299467.3746233,-5.32033390585427,7.971087013478502,1.089580798230037,-0.08853088540200997,-0.6479567795212172,-0.02978389760608619,0.13267059897504502,-0.1992819960503645,0.9670168365125851
1592299467.3846233,-5.420353877551021,8.16394,1.2558510204081634,-0.09777777777777778,-0.6433333333333333,-0.006666666666666667,0.12748013975312267,-0.2001860149732548,0.9988940058179653
1592299467.3946233,-4.943275367029633,8.071549379706376,1.0160182025028441,-0.09777777777777778,-0.6433333333333333,-0.006666666666666667,0.11305058445665828,-0.18735259500657775,1.0374428328242098
1592299467.4046233,-5.374579019201807,8.524058734939759,1.6123748117469878,-0.09777777777777778,-0.6433333333333333,-0.006666666666666667,0.07607743834409064,-0.1973485278691568,1.0212363894959189
1592299467.4146233,-4.567179394812681,8.417845821325649,1.299614553314121,-0.09777777777777778,-0.6433333333333333,-0.006666666666666667,0.05009648227626375,-0.19846990212542506,0.9892098355723176
1592299467.4246233,-4.337169396469314,8.337922694538271,1.009409534127844,-0.11238742662106374,-0.6354197735432201,-0.017623903299131136,0.010375093109411197,-0.19019334406790775,0.9582892808615663
1592299467.4346232,-4.797667908206176,8.366596179262286,1.254369818575033,-0.12444444444444444,-0.6288888888888889,-0.02666666666666667,-0.017231011010017307,-0.17832901108003218,0.9485197640059403
1592299467.4446232,-4.841091380529583,8.282840418008957,0.9434375736622929,-0.12444444444444444,-0.6288888888888889,-0.02666666666666667,-0.019436021245604528,-0.11986419247979402,0.9695969447032107
1592299467.4546232,-5.244775530340404,8.467049827331032,1.2069511593487914,-0.12444444444444444,-0.6288888888888889,-0.02666666666666667,-0.010302888668423606,-0.12483743007874464,0.9781124985557578
1592299467.4646232,-4.945631014464233,8.235742005313393,1.1495145134310736,-0.12444444444444444,-0.6288888888888889,-0.02666666666666667,0.010316749744215668,-0.17905359930129122,0.9677756892793267
1592299467.4746232,-4.530513193371505,8.454927444030417,0.9896503983762005,-0.13079624748805882,-0.6288888888888889,-0.017138962101245117,0.03776692186859939,-0.2513166193115234,0.9693364101205728
1592299467.4846232,-4.585960846175626,8.869401367148,1.3371492132831777,-0.13777777777777778,-0.6288888888888889,-0.006666666666666667,0.047498415873261736,-0.2783802098303541,0.9798477623172274
1592299467.4946232,-3.733976218985826,8.628730194090947,0.9509999721533793,-0.13777777777777778,-0.6288888888888889,-0.006666666666666667,0.0883243962270949,-0.2482237373259212,1.065134793370595
1592299467.5046232,-4.139096502358095,8.678610519259774,0.985352517296689,-0.13777777777777778,-0.6288888888888889,-0.006666666666666667,0.06278287262565738,-0.2136587332937071,1.088904468981336
1592299467.5146232,-3.9484146341463413,8.125853658536585,1.481951219512195,-0.13777777777777778,-0.6288888888888889,-0.006666666666666667,0.028055635613232016,-0.2150932063681122,1.0773816371171399
1592299467.5246232,-3.4592270249221184,8.963204828660436,1.272016160436137,-0.14733579958463136,-0.612958852544133,-0.002949658186223607,-0.049901048126620884,-0.12778086511733772,1.0295212500470552
1592299467.5346231,-3.8759592543066153,9.190323291119325,1.0057413671045388,-0.15777777777777777,-0.5955555555555555,0.0011111111111111111,-0.11606883992328275,-0.1092455917006051,1.0046436528954827
1592299467.5446231,-3.495671975482315,8.208656049035369,1.6678496784565917,-0.15777777777777777,-0.5955555555555555,0.0011111111111111111,-0.1648327300035556,-0.08305272862873508,0.9873777809291787
1592299467.5546231,-3.7212524697604934,8.622336754855187,1.4377008336947616,-0.15777777777777777,-0.5955555555555555,0.0011111111111111111,-0.20111863347528017,-0.08474227039144146,1.0097667739484362
1592299467.564623,-3.8044741731698255,9.028005437227405,1.5530734025699702,-0.15777777777777777,-0.5955555555555555,0.0011111111111111111,-0.21423501391578645,-0.10652214662616455,1.0482414025861262
1592299467.574623,-3.4252712491213058,8.914748922644335,1.714748922644335,-0.1812588675964696,-0.5899200939990695,0.010033925242214003,-0.2002066723545842,-0.12547884601575204,1.0963515484662574
1592299467.584623,-3.0511868849814485,8.731142926278432,1.5301758348120664,-0.21333333333333335,-0.5822222222222222,0.022222222222222223,-0.20391342906722357,-0.13747344949839893,1.1204078875405241
1592299467.594623,-3.4666217041501817,9.351972332120761,1.6066554260375454,-0.21333333333333335,-0.5822222222222222,0.022222222222222223,-0.18862251626607235,-0.1399911765828045,1.1416474622319945
1592299467.604623,-3.64,9.78,1.65,-0.21333333333333335,-0.5822222222222222,0.022222222222222223,-0.18980455615438332,-0.13526301702956053,1.1333731830138176
1592299467.614623,-2.400754803393453,8.64943406102109,1.7109811789850173,-0.21333333333333335,-0.5822222222222222,0.022222222222222223,-0.18628096313934223,-0.12058001552200313,1.080762204786436
1592299467.624623,-2.594473836648002,9.03188517731866,1.736404067709339,-0.22656912173807328,-0.5708772607324452,0.016549741477333676,-0.17671458676442586,-0.09262976660342934,1.0656268834628413
1592299467.634623,-2.5593941336752684,9.208258134316397,1.61,-0.24444444444444444,-0.5555555555555556,0.008888888888888889,-0.1763758767254146,-0.08046538007036337,1.0581884712261993
1592299467.644623,-2.5520734329923944,9.074596380802518,1.5514403356936795,-0.24444444444444444,-0.5555555555555556,0.008888888888888889,-0.1246199072469181,-0.03314723776839519,1.071962413820588
1592299467.654623,-2.64,9.19,1.48,-0.24444444444444444,-0.5555555555555556,0.008888888888888889,-0.11562806294462433,-0.016362461737446838,1.0755591515415055
1592299467.664623,-2.412612694241834,9.655225388483668,1.4960361074616046,-0.24444444444444444,-0.5555555555555556,0.008888888888888889,-0.09966851623321353,0.015448502398367899,1.0614570020821554
1592299467.674623,-2.34896235287412,9.513207842913733,1.5346219612984124,-0.2505764706254888,-0.5539203485739437,0.013794509833724402,-0.12300644248178054,0.02715757981978352,1.0149667952989665
1592299467.684623,-1.7014830875975715,8.902428447528187,1.6895229835212489,-0.2611111111111111,-0.5511111111111111,0.022222222222222223,-0.16596143613662473,0.026127904354036967,0.9485052747545485
1592299467.694623,-1.0628945864876447,8.530812741036994,1.7,-0.2611111111111111,-0.5511111111111111,0.022222222222222223,-0.15669867549291577,0.044580482512854555,0.9380961651884971
1592299467.704623,-1.12,8.78,1.7,-0.2611111111111111,-0.5511111111111111,0.022222222222222223,-0.13744467859455345,0.06326818538479445,0.9533861039019024
1592299467.714623,-2.1805452806866152,9.927014250064138,1.7099932364671036,-0.2611111111111111,-0.5511111111111111,0.022222222222222223,-0.045481769319220426,0.10469372904762828,1.012127380972779
1592299467.724623,-1.456499223673395,8.695100618016866,2.755237616829543,-0.27345115231223555,-0.5412390781502115,0.00947084631439367,0.031599222770589415,0.09413151996744161,1.0625898320810032
1592299467.734623,-2.08,9.01,2.56,-0.29444444444444445,-0.5244444444444445,-0.012222222222222223,0.16144295580947549,0.10581058590215622,1.064650843716541
1592299467.744623,-1.5632018537047765,9.607512243930696,1.499445731739428,-0.29444444444444445,-0.5244444444444445,-0.012222222222222223,0.23801736380876307,0.07997457275786224,0.9649097094524618
1592299467.754623,-1.78,9.74,1.65,-0.29444444444444445,-0.5244444444444445,-0.012222222222222223,0.29779680362153244,0.04581489286485115,0.9162978572970231
1592299467.764623,-1.327577853960955,9.527018455032538,1.6237889269804775,-0.29444444444444445,-0.5244444444444445,-0.012222222222222223,0.34743306394544016,0.006246799350209931,0.8257384575300685
1592299467.774623,-1.3235489240280585,9.530668172631078,1.6016074188562597,-0.299510561566203,-0.5205474312738609,-0.007350955758992854,0.3725881617391283,-0.028015455135243957,0.7676032648519319
1592299467.784623,-0.87,9.91,1.28,-0.3233333333333333,-0.5022222222222222,0.015555555555555555,0.34470252726888007,-0.04690572364734761,0.7352199474026113
1592299467.794623,-0.9370863379458195,9.75712225408581,1.4281654926636411,-0.3233333333333333,-0.5022222222222222,0.015555555555555555,0.3458522168106403,-0.03643296456675985,0.6929129819223048
1592299467.804623,-0.89,10.08,1.26,-0.3233333333333333,-0.5022222222222222,0.015555555555555555,0.3392483733563978,-0.028361600344907853,0.6664976081053345
1592299467.8146229,-0.8299385094531734,9.958871808181437,1.0644820220008384,-0.3233333333333333,-0.5022222222222222,0.015555555555555555,0.29910693736435434,-0.015517764227800209,0.6073264898432829
1592299467.8246229,-0.69,9.929388217817912,1.1394382549548492,-0.3258107797019489,-0.500005559681882,0.015555555555555555,0.2424313740487751,-0.024254301139636024,0.5451144650595693
1592299467.8346229,-0.69,10.0,1.06,-0.34444444444444444,-0.48333333333333334,0.015555555555555555,0.21162117180431245,-0.02617993877991494,0.4854196982109229
1592299467.8446229,-0.5228458282950423,9.99263301088271,1.0294679564691658,-0.34444444444444444,-0.48333333333333334,0.015555555555555555,0.1971879768673716,-0.02069096269976893,0.3927773656248924
1592299467.8546228,-0.5793738941706574,9.989373894170656,0.9206261058293426,-0.34444444444444444,-0.48333333333333334,0.015555555555555555,0.20112187727187658,-0.007363011280036117,0.31334046675940225
1592299467.8646228,-0.5621772071271728,9.949682696659346,0.965940930957609,-0.34444444444444444,-0.48333333333333334,0.015555555555555555,0.19331694021756277,-0.0049421533162358495,0.2620416747751105
1592299467.8746228,-0.6676340535376054,9.998895891650882,0.9307886488207983,-0.34444444444444444,-0.48333333333333334,0.015555555555555555,0.18027957513141935,-0.011844287773605897,0.22446338717387354
1592299467.8846228,-0.5279926369943834,9.956942936706472,0.8980478595365082,-0.38333333333333336,-0.49777777777777776,0.022222222222222223,0.06042158401917182,-0.0683989051642875,0.13045372343476214
1592299467.8946228,-0.5380391923424925,9.745852183437307,1.0624434496880804,-0.38333333333333336,-0.49777777777777776,0.022222222222222223,0.008277488282884377,-0.08481826202119962,0.08774689254837682
1592299467.9046228,-0.7185627860079112,9.737859303498022,1.0579554797176762,-0.38333333333333336,-0.49777777777777776,0.022222222222222223,-0.020436515461913746,-0.08979314921171323,0.07274063738025871
1592299467.9146228,-0.8853761143966811,9.676320063553712,1.1536799364462882,-0.38333333333333336,-0.49777777777777776,0.022222222222222223,-0.017453292519943295,-0.09412035393397539,0.07289018139145848
1592299467.9246228,-0.8172570640937284,9.639695229343749,1.1903047706562524,-0.383164016302082,-0.49781164118402804,0.023102670784729135,-0.017386801877254943,-0.10399462287194926,0.07569951316972975
1592299467.9346228,-0.73,9.63,1.2,-0.37777777777777777,-0.4988888888888889,0.051111111111111114,-0.015271630954950384,-0.11562806294462433,0.08944812416470939
1592299467.9446228,-0.6002119109569239,9.84052211621856,1.0437192830297775,-0.37777777777777777,-0.4988888888888889,0.051111111111111114,0.0002740479762906676,-0.12855789244694038,0.11072200498472339
1592299467.9546227,-0.26648548486720197,9.954823015156554,0.9003539696868912,-0.37777777777777777,-0.4988888888888889,0.051111111111111114,0.004410901533479517,-0.1611278395859007,0.12723486112240426
1592299467.9646227,-0.1,9.91,0.99,-0.37777777777777777,-0.4988888888888889,0.051111111111111114,-0.0032724923474893677,-0.17998707911191522,0.1265363707695889
1592299467.9746227,-0.11989569829110194,9.91994784914555,0.99,-0.37777777777777777,-0.4988888888888889,0.051111111111111114,-0.03691189455704338,-0.17239108506459658,0.09832267859383392
1592299467.9846227,0.39,9.87,1.1,-0.3711111111111111,-0.4777777777777778,0.051111111111111114,-0.06544984694978735,-0.15707963267948966,0.0643590161672909
1592299467.9946227,-0.5812637193844779,9.619258245594438,1.300741754405563,-0.3711111111111111,-0.4777777777777778,0.051111111111111114,-0.08738783188051256,-0.12399060136220769,0.007126363047065267
1592299468.0046227,-0.93,9.54,1.38,-0.3711111111111111,-0.4777777777777778,0.051111111111111114,-0.10035643198967394,-0.08508480103472357,-0.02399827721492203
1592299468.0146227,-0.6606692773228907,9.646480756299198,1.305055773110241,-0.3711111111111111,-0.4777777777777778,0.051111111111111114,-0.06859123335476593,-0.11682566405943706,0.0026844896384007064
1592299468.0246227,-0.36203631185475255,9.729434357818125,1.2801696926545627,-0.3711111111111111,-0.4777777777777778,0.051111111111111114,-0.04596914784081828,-0.1503063506200796,0.021687041470116734
1592299468.0346227,-0.52,9.68,1.37,-0.38555555555555554,-0.48444444444444446,0.051111111111111114,-0.03599741582238304,-0.1679879405044542,0.022907446432425576
1592299468.0446227,-0.4503066466450644,9.68229589820596,1.380153323322532,-0.38555555555555554,-0.48444444444444446,0.051111111111111114,-0.0223342279172261,-0.17419342534789803,0.01182102619169893
1592299468.0546227,-0.1950457987738911,9.696106022358457,1.2952650558961414,-0.38555555555555554,-0.48444444444444446,0.051111111111111114,-0.009093587101627866,-0.17371730004817865,0.020209282589243753
1592299468.0646226,-0.07,9.71,1.33,-0.38555555555555554,-0.48444444444444446,0.051111111111111114,0.0,-0.16689710972195776,0.02399827721492203
1592299468.0746226,-0.0937590156979211,9.70687381372396,1.3393785588281268,-0.38479137668807856,-0.48402761960763885,0.05069428627430548,0.001227650479820945,-0.16246392743371546,0.02304343795283907
1592299468.0846226,-0.44966058549002974,9.660044659803944,1.4798660205881695,-0.3733442501742973,-0.4777837324183036,0.04445039908497024,0.019617416220938766,-0.09605644003523445,0.008740286820858548
1592299468.0946226,-0.41271809244183455,9.622718092441835,1.5266023844477068,-0.37333333333333335,-0.4777777777777778,0.044444444444444446,0.03996908028225325,-0.07260886373277352,0.014826884119166762
1592299468.1046226,-0.4169695503342473,9.633939100668496,1.4254567449862896,-0.37333333333333335,-0.4777777777777778,0.044444444444444446,0.06197858985570514,-0.05569880077275867,0.024394751008656963
1592299468.1146226,-0.42,9.660501187453935,1.359498812546065,-0.37333333333333335,-0.4777777777777778,0.044444444444444446,0.0858128850972579,-0.028960391495106343,0.02388893507441137
1592299468.1246226,-0.4126582952263434,9.67,1.3426582952263435,-0.37333333333333335,-0.4777777777777778,0.044444444444444446,0.10393259710054684,0.0035898628480705297,0.009803779305270465
1592299468.1346226,-0.259943042730071,9.662497152136504,1.287480064955525,-0.37833523190899765,-0.4936171232673814,0.044444444444444446,0.12108718731657266,0.026730945938062467,0.0070910213936602184
1592299468.1446226,-0.06239276155867113,9.714381614162596,1.1146239595354435,-0.38,-0.4988888888888889,0.044444444444444446,0.13815721257217894,0.03332898237040876,0.012720484511509792
1592299468.1546226,-0.035332493350133,9.783663726725466,0.901342573148537,-0.38,-0.4988888888888889,0.044444444444444446,0.15769689965734918,0.0346520120433275,0.008326995670892377
1592299468.1646225,-0.3573172173995317,9.8,0.910441374742768,-0.38,-0.4988888888888889,0.044444444444444446,0.15429237257874506,0.03325830223724121,-0.0066412777261842795
1592299468.1746225,-0.5298786790106398,9.77379549537101,0.9474696697526599,-0.38,-0.4988888888888889,0.044444444444444446,0.1392387839749457,0.027007987417019062,-0.014719598530214303
1592299468.1846225,-0.43,9.8,0.97,-0.3655555555555556,-0.4722222222222222,0.027777777777777776,0.12435470920459597,0.008726646259971648,-0.00545415391248228
1592299468.1946225,-0.3563857783506539,9.78,0.9236142216493461,-0.3655555555555556,-0.4722222222222222,0.027777777777777776,0.11286543929930563,-0.001090830782496456,0.005314837840580426
1592299468.2046225,-0.4,9.78,0.88,-0.3655555555555556,-0.4722222222222222,0.027777777777777776,0.10144726277217041,-0.001090830782496456,0.004363323129985824
1592299468.2146225,-0.41738705246772273,9.770653236883069,0.9186935262338614,-0.3655555555555556,-0.4722222222222222,0.027777777777777776,0.0898263840468918,0.0068300130551043545,0.00014251418006280958
1592299468.2246225,-0.38666239355370385,9.778334401611573,0.9033311967768519,-0.3655555555555556,-0.4722222222222222,0.027777777777777776,0.08144753311561281,0.010181553427615946,0.0018182843663186049
1592299468.2346225,-0.46474507492462197,9.788418308358459,0.9268366167169187,-0.38555555555555554,-0.4777777777777778,0.057777777777777775,0.0545415391248228,0.0032724923474893677,0.002181661564992912
1592299468.2446225,-0.4851991614255765,9.781200209643606,0.8955974842767296,-0.38555555555555554,-0.4777777777777778,0.057777777777777775,0.052708623250250664,0.002617879535142176,0.0019198164400540353
1592299468.2546225,-0.4341970871950066,9.79,0.7994817476829961,-0.38555555555555554,-0.4777777777777778,0.057777777777777775,0.03289173578577856,-0.006663620537599403,-0.0006895321496317677
1592299468.2646224,-0.3467064352229178,9.788902145074305,0.8565871295541644,-0.38555555555555554,-0.4777777777777778,0.057777777777777775,-0.003006949098756379,-0.03162107846279698,-0.004602837919518314
1592299468.2746224,-0.3248865035462223,9.781628834515407,0.9002269929075555,-0.38555555555555554,-0.4777777777777778,0.057777777777777775,-0.01570127077604116,-0.03876163440626967,-0.006189628129178912
1592299468.2846224,-0.39,9.75,0.98,-0.3655555555555556,-0.4988888888888889,0.07222222222222222,-0.030543261909900768,-0.03490658503988659,-0.006544984694978735
1592299468.2946224,-0.4483855900492891,9.720605403731517,1.028385590049289,-0.3655555555555556,-0.4988888888888889,0.07222222222222222,-0.03490658503988659,-0.037220325210114806,-0.0043192969282407215
1592299468.3046224,-0.3756265043182784,9.749062249280287,0.9575020057577044,-0.3655555555555556,-0.4988888888888889,0.07222222222222222,-0.03531575598043508,-0.0444515731809552,-0.0020793688298557907
1592299468.3146224,-0.42935286265474426,9.741294274690512,1.0293528626547443,-0.3655555555555556,-0.4988888888888889,0.07222222222222222,-0.039269908169872414,-0.053136386630208664,-0.0011614225161672544
1592299468.3246224,-0.42168321538939785,9.756633569221204,1.0216832153893978,-0.3655555555555556,-0.4988888888888889,0.07222222222222222,-0.039269908169872414,-0.06233930269093127,-0.001998051248960219
1592299468.3346224,-0.38160434550657163,9.755186963480286,1.0748130365197148,-0.37333333333333335,-0.48444444444444446,0.06555555555555556,-0.042717407463794606,-0.07251985248406453,-0.005629160858915097
1592299468.3446224,-0.39,9.73,1.1,-0.37333333333333335,-0.48444444444444446,0.06555555555555556,-0.04363323129985824,-0.07526732399225547,-0.006544984694978735
1592299468.3546224,-0.3694950532247965,9.710757420162807,1.0,-0.37333333333333335,-0.48444444444444446,0.06555555555555556,-0.03809645566448881,-0.06511936005823878,-0.005481694486777995
1592299468.3646224,-0.35168002220782824,9.73943999259739,1.0044800592208754,-0.37333333333333335,-0.48444444444444446,0.06555555555555556,-0.035150934365163485,-0.05156574225267997,-0.006544984694978735
1592299468.3746223,-0.3749665957249931,9.731677801425002,1.0665775885999815,-0.37333333333333335,-0.48444444444444446,0.06555555555555556,-0.03853782919334884,-0.04055833406107758,-0.006544984694978735
1592299468.3846223,-0.39,9.747558030901905,1.111220984549048,-0.38,-0.4922222222222222,0.044444444444444446,-0.04022755019926348,-0.025513995014388,0.0002663775062107767
1592299468.3946223,-0.38761840507353934,9.731190797463231,1.1080920253676967,-0.38,-0.4922222222222222,0.044444444444444446,-0.03952969987559448,-0.02033609730884956,0.002051765712131878
1592299468.4046223,-0.3713182736892165,9.739340863155393,1.0232956842230412,-0.38,-0.4922222222222222,0.044444444444444446,-0.041667271762858206,-0.017453292519943295,0.0012346321344917086
1592299468.4146223,-0.3881148789908225,9.730471280252296,1.0714138407568832,-0.38,-0.4922222222222222,0.044444444444444446,-0.04451842727980053,-0.017401883819304752,0.003221083646850826
1592299468.4246223,-0.35839020587505754,9.737902448531235,1.093707345593707,-0.38,-0.4922222222222222,0.044444444444444446,-0.04127596843636842,-0.016591269108446723,0.0024104689359927974
1592299468.4346223,-0.36,9.73,1.16,-0.38555555555555554,-0.4922222222222222,0.03666666666666667,-0.04145156973486533,-0.007635815477475192,0.0032724923474893677
1592299468.4446223,-0.3945290529929513,9.712735473503525,1.1772645264964756,-0.38555555555555554,-0.4922222222222222,0.03666666666666667,-0.039568302040107195,0.0008388891489364107,0.002330858500110301
1592299468.4546223,-0.34939346882849964,9.7093934688285,1.0930326558575019,-0.38555555555555554,-0.4922222222222222,0.03666666666666667,-0.028856970542229722,0.004694134566193929,0.007371166328508707
