time,acc_x,acc_y,acc_z,mag_x,mag_y,mag_z,gyr_x,gyr_y,gyr_z
1592299549.1145453,-0.4006213392578448,9.789689330371077,0.34124267851568957,-0.52,-0.5966666666666667,-0.3055555555555556,-0.031803536689604874,0.008896090257179294,0.001090830782496456
1592299549.1245453,-0.4160237225272203,9.78198813873639,0.37204744505444065,-0.52,-0.5966666666666667,-0.3055555555555556,-0.03600388513811568,0.013096438705690102,0.001090830782496456
1592299549.1345453,-0.4,9.789978352963082,0.46997835296308366,-0.54,-0.5966666666666667,-0.3055555555555556,-0.041458653711130784,0.010920114452073653,0.0021793002395710933
1592299549.1445453,-0.4,9.780215539313811,0.4602155393138122,-0.54,-0.5966666666666667,-0.3055555555555556,-0.04465352700685134,0.01624490327827458,0.0011143424743309078
1592299549.1545453,-0.4398755620366995,9.770031109490825,0.38024887592660106,-0.54,-0.5966666666666667,-0.3055555555555556,-0.04037431302845681,0.020712210791344728,3.3935190219844345e-06
1592299549.1645453,-0.3904960458398447,9.760099209167969,0.4295039541601553,-0.54,-0.5966666666666667,-0.3055555555555556,-0.04252075643449651,0.019645776126368846,0.0010800087410638183
1592299549.1745453,-0.42175953191326626,9.76,0.485579180848216,-0.54,-0.5966666666666667,-0.3055555555555556,-0.042542400517361786,0.011839992198985587,0.001090830782496456
1592299549.1845453,-0.43,9.76,0.51,-0.5066666666666667,-0.59,-0.28888888888888886,-0.04145156973486533,0.011999138607461015,-0.001090830782496456
1592299549.1945453,-0.4377972166998012,9.775594433399602,0.4944055666003976,-0.5066666666666667,-0.59,-0.28888888888888886,-0.03549775893910833,0.010298049808673302,0.0006102580162912579
1592299549.2045453,-0.39057432248954543,9.78988513550209,0.3516081029707272,-0.5066666666666667,-0.59,-0.28888888888888886,-0.03381575425739013,0.008739176032985171,1.252977301352304e-05
1592299549.2145452,-0.40955815158509584,9.809558151585096,0.38911630317019175,-0.5066666666666667,-0.59,-0.28888888888888886,-0.03594921763716557,0.009793377949859369,0.002133463379775442
1592299549.2245452,-0.41,9.802011494252874,0.42195402298850576,-0.5066666666666667,-0.59,-0.28888888888888886,-0.03774023741740612,0.012431709435002714,0.0013102507674813751
1592299549.2345452,-0.4386810595065312,9.771318940493469,0.47780176584421863,-0.5321609417835833,-0.582564169757566,-0.3101341181529861,-0.04235056839862088,0.0141328421427687,4.795802968522744e-05
1592299549.2445452,-0.4114712168541701,9.789019188763886,0.4419616224722268,-0.5333333333333333,-0.5822222222222222,-0.3111111111111111,-0.04461707217353761,0.013143464344366015,-0.0010373358280879113
1592299549.2545452,-0.41,9.780713253798117,0.4121397613943517,-0.5333333333333333,-0.5822222222222222,-0.3111111111111111,-0.047763142670228416,0.010050888802083748,-7.780391987188113e-05
1592299549.2645452,-0.4194603406326034,9.789460340632603,0.4289206812652068,-0.5333333333333333,-0.5822222222222222,-0.3111111111111111,-0.04696459135234948,0.011881403197457261,0.0030958892324837372
1592299549.2745452,-0.41246405129567093,9.805071897408657,0.4676797435216451,-0.5333333333333333,-0.5822222222222222,-0.3111111111111111,-0.04526163468294833,0.010355049643061739,0.004916581311888643
1592299549.2845452,-0.43,9.8,0.47,-0.5066666666666667,-0.5966666666666667,-0.31777777777777777,-0.04690572364734761,0.011999138607461015,0.004363323129985824
1592299549.2945452,-0.4034548958564969,9.813272552071751,0.4567274479282485,-0.5066666666666667,-0.5966666666666667,-0.31777777777777777,-0.04690572364734761,0.013446949443676384,0.005087228548093508
1592299549.3045452,-0.37174004833467594,9.810870024167338,0.36783021750604183,-0.5066666666666667,-0.5966666666666667,-0.31777777777777777,-0.051885352988205825,0.014180800172453926,0.004458228044310636
1592299549.3145452,-0.37924027427265367,9.819240274272653,0.4246819199085758,-0.5066666666666667,-0.5966666666666667,-0.31777777777777777,-0.058407622929022296,0.013172842610921859,0.0013394504453896174
1592299549.3245451,-0.3873918931807344,9.805216213638532,0.44478378636146876,-0.5066666666666667,-0.5966666666666667,-0.31777777777777777,-0.06535550595278518,0.015508960776698682,0.0018971612447435263
1592299549.3345451,-0.3616288094202656,9.818914127053157,0.4783711905797344,-0.5192760847021042,-0.5830064637949427,-0.2978128658883351,-0.07278953651818823,0.022552095341536387,0.005276478367037686
1592299549.3445451,-0.38358950291368454,9.82,0.4564104970863155,-0.52,-0.5822222222222222,-0.2966666666666667,-0.07951870140777179,0.028697181514883884,0.0041675461163804325
1592299549.354545,-0.44298267191428886,9.794210396851426,0.4228069312342845,-0.52,-0.5822222222222222,-0.2966666666666667,-0.09055812528155441,0.04116455136974306,0.004210228780250411
1592299549.364545,-0.40614231584967714,9.77245692633987,0.5077153683006458,-0.52,-0.5822222222222222,-0.2966666666666667,-0.09641391692172022,0.041585574278958204,0.00627697560679299
1592299549.374545,-0.39298086279597794,9.755961725591956,0.5621148232241323,-0.52,-0.5822222222222222,-0.2966666666666667,-0.09478693236357058,0.03838889336337998,0.007310653787850072
1592299549.384545,-0.2580288310874334,9.782992792228141,0.6707301786273895,-0.5309975974093806,-0.6005515512378565,-0.31957832793620944,-0.08481405895395353,0.03618850777080533,0.0040368601411785165
1592299549.394545,-0.20383170169881948,9.79,0.7336138305019675,-0.5333333333333333,-0.6044444444444445,-0.3244444444444444,-0.08290313946973066,0.03599741582238304,0.0032724923474893677
1592299549.404545,-0.011920367834083345,9.772087654079437,0.74,-0.5333333333333333,-0.6044444444444445,-0.3244444444444444,-0.07313347031129291,0.03795134965407059,-0.0055202098951045945
1592299549.414545,0.5548554967227264,10.174247626600733,0.4851482354038861,-0.5333333333333333,-0.6044444444444445,-0.3244444444444444,-0.044194816665267936,0.06597909236687412,0.01454468184119228
1592299549.424545,0.5250765218715499,10.006163246659307,0.47098469562569,-0.5333333333333333,-0.6044444444444445,-0.3244444444444444,-0.058673340512225995,0.10262324787451721,-0.022224010859747147
1592299549.434545,0.19911512027491407,9.872548682703322,0.49872565864833907,-0.5146076746849942,-0.5794768995799923,-0.2984365852106402,-0.09718046504647765,0.16063592221079864,-0.052547149339356405
1592299549.444545,0.1349982343940048,9.97125397261349,0.4774991171970024,-0.5133333333333333,-0.5777777777777777,-0.2966666666666667,-0.11767409290331869,0.16669269932382527,-0.06879111808911068
1592299549.454545,0.07464483723994073,10.092258604600099,0.4938068836800791,-0.5133333333333333,-0.5777777777777777,-0.2966666666666667,-0.1347563438854592,0.15893743420786116,-0.13050622356572258
1592299549.464545,0.008578265493570533,10.003480131489896,0.5263236005027555,-0.5133333333333333,-0.5777777777777777,-0.2966666666666667,-0.14196308890095433,0.1408080295632476,-0.1970555276286361
1592299549.474545,-0.007011542337751241,9.905861491946984,0.5370115423377513,-0.5133333333333333,-0.5777777777777777,-0.2966666666666667,-0.14672303561443384,0.12629805943337596,-0.23337529010407973
1592299549.484545,0.1024367658406928,10.124856669238904,0.5474957843893795,-0.5133333333333333,-0.5869392920314638,-0.30332958612389294,-0.16061793494585538,0.11781156391674998,-0.2724198128196448
1592299549.494545,0.3205371022903928,10.270179034096797,0.5671940097419421,-0.5133333333333333,-0.59,-0.3055555555555556,-0.18628456652317749,0.13078571005291162,-0.3433283337175654
1592299549.504545,0.4541747272856905,10.34944981819046,0.5005501818095397,-0.5133333333333333,-0.59,-0.3055555555555556,-0.2125319560106643,0.1766422051891061,-0.4433917979599638
1592299549.514545,0.5131955752842595,10.368639115056851,0.47272176988629616,-0.5133333333333333,-0.59,-0.3055555555555556,-0.2414287890556635,0.244514353603432,-0.562604799406493
1592299549.524545,0.4364587289474151,10.51780378724688,0.4635737483805704,-0.5133333333333333,-0.59,-0.3055555555555556,-0.2699717618505979,0.29692428612517746,-0.6731645168116744
1592299549.534545,0.4046698509872515,10.526650745063742,0.46733492549362576,-0.5084433830042495,-0.59,-0.3096305141631254,-0.31722088601529147,0.3519087838654415,-0.8518208381092298
1592299549.544545,0.33990384615384617,10.429903846153847,0.5089423076923077,-0.5066666666666667,-0.59,-0.3111111111111111,-0.36851200684837004,0.38958392071409487,-1.0226433698329036
1592299549.554545,0.10315769833569668,10.233313680125383,0.5762183745055601,-0.5066666666666667,-0.59,-0.3111111111111111,-0.4102714790350561,0.4426179211077686,-1.1746228525814624
1592299549.564545,0.0022232362232362177,10.126297648297648,0.45463250263250266,-0.5066666666666667,-0.59,-0.3111111111111111,-0.4377661294655156,0.48331821213412046,-1.3126307187866775
1592299549.574545,-0.20914319952067106,9.971203224576502,0.5769007026526499,-0.5066666666666667,-0.59,-0.3111111111111111,-0.44814351665506363,0.491532129493593,-1.4176494840001195
1592299549.584545,-0.4688860394293958,9.928332264786023,0.5994462253566276,-0.48071045039269117,-0.6052157129881925,-0.3111111111111111,-0.473571578210351,0.49547950438699256,-1.54558430582423
1592299549.594545,-0.6823173616273569,9.83790227748868,0.5982317361627356,-0.47444444444444445,-0.6088888888888889,-0.3111111111111111,-0.49398939517469026,0.49990779906032734,-1.588116628929517
1592299549.6045449,-1.0865963949354458,9.573403605064554,0.7093800286908252,-0.47444444444444445,-0.6088888888888889,-0.3111111111111111,-0.5407930527880503,0.5077198499658356,-1.6674859943492268
1592299549.6145449,-1.1902705323148959,9.493152978456736,0.8336940430865277,-0.47444444444444445,-0.6088888888888889,-0.3111111111111111,-0.553798100912484,0.5032169273265817,-1.7254979138020519
1592299549.6245449,-1.3167338160831925,9.420703435509338,0.9192965644906625,-0.47444444444444445,-0.6088888888888889,-0.3111111111111111,-0.5545860431122691,0.5004885095915157,-1.7668005695460696
1592299549.6345448,-1.6827652552225931,9.277532160672093,1.1137017589918614,-0.4402884980018086,-0.6251536252901441,-0.33306850525280557,-0.5517468573648828,0.49161656457232095,-1.8203133437356296
1592299549.6445448,-1.8658131255192056,9.206831757585348,1.1747383203449502,-0.42777777777777776,-0.6311111111111111,-0.3411111111111111,-0.5477683217469496,0.4788716497481702,-1.8496524433697297
1592299549.6545448,-2.0252647483904873,9.04957640257522,1.149894100643805,-0.42777777777777776,-0.6311111111111111,-0.3411111111111111,-0.5336514168961762,0.45647225107761236,-1.8841923402488558
1592299549.6645448,-2.3732603809298474,8.956123269845024,1.401686975038448,-0.42777777777777776,-0.6311111111111111,-0.3411111111111111,-0.5158709499057615,0.451015620572792,-1.8884793382022431
1592299549.6745448,-2.5398024200830775,8.899281921618204,1.4858168683402564,-0.42777777777777776,-0.6311111111111111,-0.3411111111111111,-0.4957365893826358,0.44734050364939587,-1.89330425973599
1592299549.6845448,-2.696321876263647,8.80165022240194,1.512783259199353,-0.35267740486139193,-0.6403931796738105,-0.35545612616255556,-0.4644467230602266,0.4392600004844957,-1.9052389575814204
1592299549.6945448,-2.8144305239179954,8.76391799544419,1.5119589977220957,-0.3288888888888889,-0.6433333333333333,-0.36,-0.44806184992062004,0.4330374573776477,-1.9113715877090465
1592299549.7045448,-3.184471834852311,8.624954430657736,1.370573734489953,-0.3288888888888889,-0.6433333333333333,-0.36,-0.4212946411109331,0.41867138292934103,-1.9016871240954039
1592299549.7145448,-3.578533600094151,8.587463340002353,1.3797067200188302,-0.3288888888888889,-0.6433333333333333,-0.36,-0.4069278696958806,0.40420879071042315,-1.8755107974418288
1592299549.7245448,-3.5796981941712858,8.539849097085643,1.4891571607366352,-0.3288888888888889,-0.6433333333333333,-0.36,-0.40056815904207915,0.37237397674539136,-1.8540048241047031
1592299549.7345448,-3.6618428871657365,8.5,1.5351010942821943,-0.27978271372321667,-0.652324604842541,-0.34893381968097525,-0.39747422329101995,0.34268754565931103,-1.811857637228122
1592299549.7445447,-3.8192567756356524,8.526934898016206,1.5038390611902765,-0.25,-0.6577777777777778,-0.3422222222222222,-0.39882528978147874,0.34021424168546494,-1.7792227268020233
1592299549.7545447,-3.870937193609781,8.463671492012226,1.5145314031951094,-0.25,-0.6577777777777778,-0.3422222222222222,-0.4184785228281764,0.3472804713818253,-1.7365045888729975
1592299549.7645447,-3.8419170212765956,8.37077730496454,1.569222695035461,-0.25,-0.6577777777777778,-0.3422222222222222,-0.4333932589966646,0.36550737802707245,-1.7232639888170995
1592299549.7745447,-4.289028246331969,8.299023854676115,1.512926240143727,-0.25,-0.6577777777777778,-0.3422222222222222,-0.45296097707790006,0.38993225403695453,-1.6912131575611609
1592299549.7845447,-4.605082717132473,8.140718761749593,1.5682316079709238,-0.19542688446059794,-0.6647943212042724,-0.36872916405564604,-0.486564667230024,0.38994493562418064,-1.6756305788164665
1592299549.7945447,-4.579017235664567,8.018280162412992,1.6612284554192907,-0.17222222222222222,-0.6677777777777778,-0.38,-0.49111239226551723,0.3723967756360641,-1.6851754210340897
1592299549.8045447,-4.97899671095227,8.068900111361458,1.5238748607981767,-0.17222222222222222,-0.6677777777777778,-0.38,-0.4678097857480029,0.36122160894930366,-1.6766746852878176
1592299549.8145447,-4.923835701050031,8.069264978381717,1.3541630636195183,-0.17222222222222222,-0.6677777777777778,-0.38,-0.4758872251344808,0.35314416956282574,-1.6379602401502866
1592299549.8245447,-4.875494119049511,8.000963800365573,1.3706506794881983,-0.17222222222222222,-0.6677777777777778,-0.38,-0.5005178824768421,0.34118294436764274,-1.6004563608005002
1592299549.8345447,-4.975345186658792,8.025345186658793,1.4842124895091853,-0.13623397884222851,-0.6577010696313795,-0.3663244675156024,-0.5286204761894682,0.34271973184231436,-1.5590925544162233
1592299549.8445446,-4.9928196601646455,7.988967111399489,1.4869179609878747,-0.11666666666666667,-0.6522222222222223,-0.35888888888888887,-0.5413882664209703,0.35166775984226895,-1.5444482888636175
1592299549.8545446,-5.192501333875352,7.893281333367209,1.3967186666327904,-0.11666666666666667,-0.6522222222222223,-0.35888888888888887,-0.5584713267399435,0.36795089469664316,-1.5243166088884914
1592299549.8645446,-5.436241165030122,7.702450310706324,1.6352340970542194,-0.11666666666666667,-0.6522222222222223,-0.35888888888888887,-0.5769872091506847,0.3805425097315674,-1.4783576932222744
1592299549.8745446,-5.658206327809055,7.576098644040917,1.9364574577749585,-0.11666666666666667,-0.6522222222222223,-0.35888888888888887,-0.5811290924590348,0.39985552328066404,-1.403302421657521
1592299549.8845446,-6.392139720558882,7.41027245508982,1.833813373253493,-0.06713362164559769,-0.6603545131958305,-0.37515347083610556,-0.555279571524797,0.37132391503312867,-1.2786107697823677
1592299549.8945446,-6.666345650159165,7.255864125397912,1.8467207962283918,-0.042222222222222223,-0.6644444444444444,-0.38333333333333336,-0.5363503795386186,0.3234846663805727,-1.2142306576321407
1592299549.9045446,-6.61337383024134,7.111205603896459,2.415030372681005,-0.042222222222222223,-0.6644444444444444,-0.38333333333333336,-0.4618187596753801,0.17790379707571094,-1.0419401563416926
1592299549.9145446,-6.877561132102374,7.127701337895963,2.515927615788598,-0.042222222222222223,-0.6644444444444444,-0.38333333333333336,-0.3862903180004427,0.13076987567855472,-0.8973312026442186
1592299549.9245446,-6.719140551472797,6.731752137607882,2.6163329261699273,-0.042222222222222223,-0.6644444444444444,-0.38333333333333336,-0.31802290197180644,0.08622432045364015,-0.8105632641118276
1592299549.9345446,-6.765816664658392,6.692188516688758,2.6818140739848175,0.0004397116118407818,-0.6539430453468289,-0.391865720100146,-0.22086471070823727,0.017021606654487938,-0.7633885920192742
1592299549.9445446,-6.825699849843756,6.808208270768232,2.6848208270768232,0.03,-0.6466666666666666,-0.3977777777777778,-0.15093072212967532,-0.028947942364881296,-0.7396791570418657
1592299549.9545445,-6.816820902808108,6.739099504149218,2.49963183721707,0.03,-0.6466666666666666,-0.3977777777777778,-0.025770740612886943,-0.10731658425169281,-0.664662732248088
1592299549.9645445,-6.894703335699077,7.124814052519517,1.9541100070972321,0.03,-0.6466666666666666,-0.3977777777777778,0.035660411819813345,-0.15823518557228897,-0.5665834696756608
1592299549.9745445,-6.964782467926666,7.133193573191955,2.0789501800963213,0.03,-0.6466666666666666,-0.3977777777777778,0.046390571095607305,-0.19825643084163824,-0.461302091375009
1592299549.9845445,-7.052725340003126,7.076367984992966,2.3331786775050807,0.04641481249891442,-0.6361611866673614,-0.39909096277769096,0.05087285540011719,-0.2460826937924067,-0.3321053330540451
1592299549.9945445,-6.973263869332582,7.15,2.265534054793418,0.057777777777777775,-0.6288888888888889,-0.4,0.0570841047552802,-0.26798346842866366,-0.265534683438758
1592299550.0045445,-6.505532820153953,7.255580965710287,2.4000601819454164,0.057777777777777775,-0.6288888888888889,-0.4,0.030419140786574022,-0.29949773628968496,-0.08967667191577969
1592299550.0145445,-6.567194115536419,7.464721923214927,2.3879727305346248,0.057777777777777775,-0.6288888888888889,-0.4,0.008481238688882564,-0.26817176525513253,0.04071808681904245
1592299550.0245445,-6.656739903432272,7.508138638320171,2.2838960212598716,0.057777777777777775,-0.6288888888888889,-0.4,-0.0011147974579961536,-0.2388011374718153,0.10185588029925895
1592299550.0345445,-6.4155543334799825,6.866324241091069,2.8672657281126264,0.06484332991152172,-0.6324216649557609,-0.39587842792198275,-0.05340415727065799,-0.19300242281481675,0.29378789251656806
1592299550.0445445,-6.173060552521683,6.738136845486669,3.0416920976549955,0.07111111111111111,-0.6355555555555555,-0.39222222222222225,-0.05561169563293207,-0.18592234791818732,0.32883983983388604
1592299550.0545444,-6.487132336193151,6.887481588338016,2.7462255460228278,0.07111111111111111,-0.6355555555555555,-0.39222222222222225,0.02929200752815629,-0.165226782850696,0.40341621185636933
1592299550.0645444,-6.628094839142092,6.88015918230563,2.816665549597855,0.07111111111111111,-0.6355555555555555,-0.39222222222222225,0.062610177540125,-0.10740369600608368,0.5088116943089648
1592299550.0745444,-6.686969087187316,6.778680567602262,2.9627217846858414,0.07111111111111111,-0.6355555555555555,-0.39222222222222225,0.07543373217150942,-0.0807979643569261,0.5596973533636307
1592299550.0845444,-6.77379383771576,6.479310211324407,2.885518309404743,0.06823752935061211,-0.6395785700202541,-0.4008429675037193,0.1525284100319123,-0.034868857322550365,0.6722152225513793
1592299550.0945444,-6.869746257904426,6.478456735772032,3.018979828704074,0.06555555555555556,-0.6433333333333333,-0.4088888888888889,0.1832301898410335,-0.01865597427757606,0.6973199299032413
1592299550.1045444,-6.584233362812292,6.734314061463631,2.660242095954013,0.06555555555555556,-0.6433333333333333,-0.4088888888888889,0.3363984181592365,-0.016327250308252834,0.7642986188560882
1592299550.1145444,-6.4804149026248945,6.659585097375106,2.6735684044998185,0.06555555555555556,-0.6433333333333333,-0.4088888888888889,0.3908376628226291,-0.011812429334782597,0.7861450004881619
1592299550.1245444,-6.48427728678745,7.188377154220062,2.2656504639858595,0.06555555555555556,-0.6433333333333333,-0.4088888888888889,0.47659773078999734,-0.011314682058806202,0.832797701271543
1592299550.1345444,-6.877007928300586,7.722550844536367,2.046504653567735,0.06555555555555556,-0.6463989428932552,-0.4088888888888889,0.48756187779309534,-0.014029640581084201,0.9397926452262634
1592299550.1445444,-6.793119893749748,7.8184935807139695,1.7078766048215075,0.06555555555555556,-0.65,-0.4088888888888889,0.46827955802210797,-0.008549370343373238,1.0313610782547837
1592299550.1545444,-6.258993598216832,7.163581888396444,1.6920128035663375,0.06555555555555556,-0.65,-0.4088888888888889,0.40366727028975996,-0.015191789933522035,1.2352226477586652
1592299550.1645443,-6.492729646952681,7.32,1.4113032123269784,0.06555555555555556,-0.65,-0.4088888888888889,0.38134637668016863,-0.03389355419733694,1.3920870417698974
1592299550.1745443,-6.433837555886736,7.252743772620822,1.5498999361294445,0.06555555555555556,-0.65,-0.4088888888888889,0.3727886910994084,-0.05074203639769109,1.5387586011665872
1592299550.1845443,-6.017321896592804,7.21256850131046,1.7586609482964022,0.05721308871416091,-0.6552140417758716,-0.3977655997670294,0.3844537836896897,-0.0820373883769273,1.700177642464463
1592299550.1945443,-5.585371155638398,7.309815237651445,1.5512965983224605,0.03888888888888889,-0.6666666666666666,-0.37333333333333335,0.3920728706164797,-0.1577054879455422,1.8412007225472835
1592299550.2045443,-5.500062966700303,7.33768355196771,1.515396569122099,0.03888888888888889,-0.6666666666666666,-0.37333333333333335,0.3918471989952028,-0.18517115609120546,1.8761666881854702
1592299550.2145443,-4.703744360527431,7.828760936214761,1.523937286572447,0.03888888888888889,-0.6666666666666666,-0.37333333333333335,0.376305378789536,-0.2084075455463095,1.9447020083743627
1592299550.2245443,-4.492700223024062,8.023912349730738,1.5514177440118946,0.03888888888888889,-0.6666666666666666,-0.37333333333333335,0.3531422991354712,-0.19573801420191733,1.943766009756975
1592299550.2345443,-4.7379638227537795,8.705392043977268,1.1751339003825725,0.025414288485268687,-0.6666666666666666,-0.3676928029318179,0.32937668498580946,-0.1788680892314789,1.8965928762236377
1592299550.2445443,-4.3,8.49,1.01,-0.008888888888888889,-0.6666666666666666,-0.35333333333333333,0.2792526803190927,-0.18435040224190105,1.8456856839840035
1592299550.2545443,-4.054938825666507,8.180740503285783,1.6565437837260244,-0.008888888888888889,-0.6666666666666666,-0.35333333333333333,0.21372205699143818,-0.18076815055215764,1.7176680341321193
1592299550.2645442,-3.962303273980471,8.474868849320314,1.421632682366456,-0.008888888888888889,-0.6666666666666666,-0.35333333333333333,0.18374932795661963,-0.19459085555131364,1.6243805955977642
1592299550.2745442,-3.8297438197409495,8.910566897492018,1.4824679774676186,-0.008888888888888889,-0.6666666666666666,-0.35333333333333333,0.17436940429924025,-0.20929992256805646,1.5542663324549428
1592299550.2845442,-3.0835576615908846,9.225805558513471,1.4467255883292514,-0.024204498396810183,-0.6666666666666666,-0.3512566405186999,0.1811088076676141,-0.22619969368896617,1.4788113328304084
1592299550.2945442,-2.8,8.72,1.6,-0.07444444444444444,-0.6666666666666666,-0.34444444444444444,0.16689710972195776,-0.2203478180642841,1.4060808786379317
1592299550.3045442,-2.979413010168547,9.486171333054742,1.0276414542415377,-0.07444444444444444,-0.6666666666666666,-0.34444444444444444,0.1035983525091318,-0.16012830642513792,1.2542327360697445
1592299550.3145442,-2.8322156280909994,9.40130328293533,1.506101926428336,-0.07444444444444444,-0.6666666666666666,-0.34444444444444444,0.006046093126138803,-0.10695181963305969,1.1125737204419859
1592299550.3245442,-2.7441936989498252,9.253180863477246,1.6963127187864644,-0.07444444444444444,-0.6666666666666666,-0.34444444444444444,-0.05857824944408681,-0.06752586212627712,0.9838435758529464
1592299550.3345442,-2.731832627118644,9.512748940677966,1.589328465496368,-0.07998419424266881,-0.6650509063088512,-0.3400588091875168,-0.10538406743449956,-0.038236813172209214,0.8503035028811241
1592299550.3445442,-2.51,9.18,1.93,-0.10111111111111111,-0.6588888888888889,-0.3233333333333333,-0.1287180323345818,-0.02181661564992912,0.7275841319251362
1592299550.3545442,-2.2970611551528877,9.274552661381653,1.5755549263873159,-0.10111111111111111,-0.6588888888888889,-0.3233333333333333,-0.08751662481201039,-0.022586868190004477,0.5095427476897545
1592299550.3645442,-2.1597450956199875,9.458863170882172,1.4202783466995683,-0.10111111111111111,-0.6588888888888889,-0.3233333333333333,-0.05108431212809782,-0.02904748459336664,0.32137000002912114
1592299550.3745441,-1.91,9.41,1.48,-0.10111111111111111,-0.6588888888888889,-0.3233333333333333,-0.032724923474893676,-0.0272707695624114,0.2301652951067522
1592299550.3845441,-2.226514896449125,10.12120032885722,1.5098289159456604,-0.11010148464245477,-0.6596507849508672,-0.3282094681299943,0.01131345646191182,0.01986552196634005,0.009157076650167857
1592299550.3945441,-1.89,9.94,1.32,-0.16666666666666666,-0.6644444444444444,-0.35888888888888887,0.020725784867432664,0.05563236990731925,-0.17344209441693648
1592299550.404544,-2.0963502863298746,9.575817882859896,1.5190123036797643,-0.16666666666666666,-0.6644444444444444,-0.35888888888888887,0.014699280324955362,0.143346619254514,-0.45862114575030666
1592299550.414544,-2.067595135439123,9.388233667635205,1.3917663323647953,-0.16666666666666666,-0.6644444444444444,-0.35888888888888887,-0.0021935217553359244,0.20309906270624764,-0.6983199557586721
1592299550.424544,-2.180758735200693,9.142943979208779,1.6493777071902973,-0.16666666666666666,-0.6644444444444444,-0.35888888888888887,-0.018461358131171793,0.24377170026566808,-0.8867493524218101
1592299550.434544,-2.2404643640984174,8.94797851449694,1.9372253667552268,-0.1620422779253783,-0.6652151759013258,-0.3581181574320075,-0.016034469069451197,0.2770018416604657,-1.0543799983992175
1592299550.444544,-2.74,9.37,1.92,-0.13333333333333333,-0.67,-0.35333333333333333,0.01308996938995747,0.3239767424014474,-1.2140946609185554
1592299550.454544,-2.621395284018061,9.233696973075421,1.8258141479458163,-0.13333333333333333,-0.67,-0.35333333333333333,0.05949706923349935,0.39876380653974464,-1.4445039776502677
1592299550.464544,-2.926048527275758,8.875422530180728,1.2537871752744243,-0.13333333333333333,-0.67,-0.35333333333333333,0.09078563018451728,0.47271894946233767,-1.6164712456833477
1592299550.474544,-3.150790266063285,8.842652885140252,1.2493884594389957,-0.13333333333333333,-0.67,-0.35333333333333333,0.1003369360617235,0.5414553745213708,-1.7252961584073667
1592299550.484544,-3.353301961673659,8.89114525456401,1.0330490985372491,-0.13183165135880864,-0.6702589106852629,-0.35260838341459727,0.1049463570012261,0.6058729464175029,-1.7960201671153087
1592299550.494544,-3.83,8.71,1.3,-0.10111111111111111,-0.6755555555555556,-0.3377777777777778,0.08726646259971647,0.6599526234103559,-1.8511398378964856
1592299550.504544,-4.03115395315195,8.470672675680188,1.171249652256162,-0.10111111111111111,-0.6755555555555556,-0.3377777777777778,0.09679549735131414,0.7544826425099453,-1.8496346880611483
1592299550.514544,-4.189532483591743,8.23156805859412,1.0168638828117569,-0.10111111111111111,-0.6755555555555556,-0.3377777777777778,0.10363343790503533,0.8372029239891096,-1.8311537593591602
1592299550.524544,-4.570079192630237,8.025855406109144,0.8478072081455277,-0.10111111111111111,-0.6755555555555556,-0.3377777777777778,0.11762347603008025,0.9122003907472093,-1.8046332713029376
1592299550.534544,-5.176164415373302,7.578935247900298,0.23489414405697256,-0.095508852506956,-0.6763356168801847,-0.33820326577303006,0.11859897986619845,0.963807069553923,-1.7868735362238486
1592299550.544544,-6.0,7.71,0.16,-0.013333333333333334,-0.6877777777777778,-0.34444444444444444,0.09817477042468103,0.9566585962493918,-1.804234114249138
1592299550.554544,-6.569041864727106,7.462739533818223,0.32710268598591147,-0.013333333333333334,-0.6877777777777778,-0.34444444444444444,0.014232433620809308,0.8467281422060471,-1.7908268474796318
1592299550.564544,-6.915053261206301,7.260870767104354,0.5970912470509735,-0.013333333333333334,-0.6877777777777778,-0.34444444444444444,-0.05094013125911673,0.669126410730064,-1.7396088306628086
1592299550.574544,-6.842950992817913,7.024613434727503,0.6703436135755527,-0.013333333333333334,-0.6877777777777778,-0.34444444444444444,-0.08703826528562009,0.5199608295919502,-1.6682335843922622
1592299550.584544,-6.998000105618927,6.891714195183777,0.7884762709477539,-0.013333333333333334,-0.6877777777777778,-0.34444444444444444,-0.10234071555133492,0.39431965898923904,-1.602191430613914
1592299550.594544,-7.25,6.94,1.14,0.03111111111111111,-0.6822222222222222,-0.3322222222222222,-0.10144726277217041,0.26616271092913524,-1.5151639568875774
1592299550.604544,-7.467052365792074,6.831184542759908,1.216473817103963,0.03111111111111111,-0.6822222222222222,-0.3322222222222222,-0.07622894120418285,0.11228796998491417,-1.4005253238071182
1592299550.614544,-7.255448309062462,6.880395956192081,1.2142375737152487,0.03111111111111111,-0.6822222222222222,-0.3322222222222222,-0.04592412035444521,0.01773778286844129,-1.2554548576573181
1592299550.624544,-7.07,6.64,1.07,0.03111111111111111,-0.6822222222222222,-0.3322222222222222,-0.017453292519943295,-0.04145156973486533,-1.1595531217937327
1592299550.634544,-7.223059066057184,6.821757640942906,1.2613238325714797,0.03111111111111111,-0.6822222222222222,-0.3322222222222222,0.006547428969386052,-0.14684604236192028,-1.0374624950871443
1592299550.644544,-7.45,7.18,1.54,0.10222222222222223,-0.7022222222222222,-0.3322222222222222,0.03381575425739013,-0.2530727415391778,-0.928296995904484
1592299550.6545439,-6.917174842698771,6.994869937079509,1.6372489308964127,0.10222222222222223,-0.7022222222222222,-0.3322222222222222,0.03546618809486815,-0.337338431550235,-0.7996032088758842
1592299550.6645439,-7.08,7.06,1.45,0.10222222222222223,-0.7022222222222222,-0.3322222222222222,0.028361600344907853,-0.3719732968312915,-0.6850417314077744
1592299550.6745439,-7.246530182001044,7.086493433649886,1.5890288764675164,0.10222222222222223,-0.7022222222222222,-0.3322222222222222,0.009141791944113433,-0.3824704675953793,-0.5022139097720357
1592299550.6845438,-7.10862116318202,6.713327853316056,1.9946436376999401,0.10222222222222223,-0.7022222222222222,-0.3322222222222222,0.01799093329185899,-0.39928383615609586,-0.37655610263404893
1592299550.6945438,-7.04,6.89,1.93,0.13666666666666666,-0.6966666666666667,-0.3244444444444444,0.031634092692397225,-0.3850632662212489,-0.21380283336930533
1592299550.7045438,-7.010540454016298,6.8554554714784635,2.1501699650756696,0.13666666666666666,-0.6966666666666667,-0.3244444444444444,0.12124276200457706,-0.39470165780259764,-0.10164266624906987
1592299550.7145438,-7.024220185675759,7.070381613803967,1.490752488007446,0.13666666666666666,-0.6966666666666667,-0.3244444444444444,0.22076654130014178,-0.3558987138268784,0.09355210130640783
1592299550.7245438,-7.71,7.53,1.25,0.13666666666666666,-0.6966666666666667,-0.3244444444444444,0.2454369260617026,-0.3272492347489368,0.2399827721492203
1592299550.7345438,-7.308223428769847,7.329111714384924,1.6517765712301524,0.13666666666666666,-0.6966666666666667,-0.3244444444444444,0.2454369260617026,-0.28939862211216005,0.45114934791229033
1592299550.7445438,-6.820319467254606,7.207657315125199,1.5213455870773247,0.15555555555555556,-0.7022222222222222,-0.3244444444444444,0.19609610411308365,-0.25452788609625093,0.7522297317693617
1592299550.7545438,-7.108366359098473,7.336819946553724,1.2577557606010186,0.15555555555555556,-0.7022222222222222,-0.3244444444444444,0.16692565513496216,-0.2332595848759484,0.97582730858859
1592299550.7645438,-6.908944665614474,6.979110975006478,1.389110975006478,0.15555555555555556,-0.7022222222222222,-0.3244444444444444,0.14494723340825097,-0.21046371068992717,1.2427346542506148
1592299550.7745438,-6.76879444632577,7.069187267185913,1.4946393498137487,0.15555555555555556,-0.7022222222222222,-0.3244444444444444,0.11915359257149401,-0.20196807664406952,1.4411588641123183
1592299550.7845438,-6.58938153884542,7.196271409984494,1.6890033329174612,0.15555555555555556,-0.7022222222222222,-0.3244444444444444,0.12975450336040154,-0.22643171692616385,1.5748934309877674
1592299550.7945437,-6.25,7.08,1.67,0.12,-0.6888888888888889,-0.3244444444444444,0.16035212502697901,-0.1974403716318585,1.7595100521667832
1592299550.8045437,-6.1164603658536585,7.038018292682927,1.1284420731707319,0.12,-0.6888888888888889,-0.3244444444444444,0.17632348402045764,-0.17274735493381604,1.9096685630735493
1592299550.8145437,-6.244587646076795,7.13,1.3838530884808014,0.12,-0.6888888888888889,-0.3244444444444444,0.1895896159224495,-0.1831985910789092,2.005931977872819
1592299550.8245437,-5.58,7.13,1.55,0.12,-0.6888888888888889,-0.3244444444444444,0.20943951023931953,-0.15817046346198613,2.055125194223323
1592299550.8345437,-5.5553955075176615,7.991157236881831,1.402373045105972,0.12,-0.6888888888888889,-0.3244444444444444,0.23806813721258563,-0.18322051206359394,2.088227044161162
1592299550.8445437,-4.46,6.79,1.31,0.06888888888888889,-0.7088888888888889,-0.3322222222222222,0.29779680362153244,-0.19853120241435498,2.0682151636132806
1592299550.8545437,-4.639044868199663,8.481408581043185,1.595108524957936,0.06888888888888889,-0.7088888888888889,-0.3322222222222222,0.4603537466605697,-0.14568984205821287,2.08447606735303
1592299550.8645437,-5.04,8.09,0.65,0.06888888888888889,-0.7088888888888889,-0.3322222222222222,0.6904958853202566,-0.020725784867432664,2.10530341021816
1592299550.8745437,-5.605006976515673,8.538943696570698,0.3246247420654417,0.06888888888888889,-0.7088888888888889,-0.3322222222222222,0.6650425382381295,-0.012199640529612718,2.089084599007853
1592299550.8845437,-4.508727326324064,9.11593298614523,0.21746958828731455,0.06888888888888889,-0.7088888888888889,-0.3322222222222222,0.549053537534148,-0.08143338513586527,2.070202668660693
1592299550.8945436,-3.77,8.59,0.68,-0.015555555555555555,-0.7288888888888889,-0.3111111111111111,0.33488505022641196,-0.07635815477475191,2.0256727630959186
1592299550.9045436,-3.8661788664198236,9.473753916263174,0.8541885502705782,-0.015555555555555555,-0.7288888888888889,-0.3111111111111111,0.14851398571074265,-0.06302771172325863,1.9737143584888492
1592299550.9145436,-3.356778510658637,8.709647500238983,1.4640603192811394,-0.015555555555555555,-0.7288888888888889,-0.3111111111111111,0.01274041031428366,-0.02555217145190383,1.8630310248198267
1592299550.9245436,-3.361690380313199,9.110294407158836,1.5423123042505593,-0.015555555555555555,-0.7288888888888889,-0.3111111111111111,-0.04719475719964935,0.005927579352760384,1.7582943737269436
1592299550.9345436,-3.196545682326622,9.170347024608501,0.7391085458612976,-0.015555555555555555,-0.7288888888888889,-0.3111111111111111,-0.10615127651486934,0.04686960665499649,1.6493885811029956
1592299550.9445436,-3.37,9.64,1.11,-0.08888888888888889,-0.7233333333333334,-0.32,-0.19307704850187268,0.056723200689815706,1.435533309765336
1592299550.9545436,-3.0942833038727304,9.136103969146713,0.37792463442069746,-0.08888888888888889,-0.7233333333333334,-0.32,-0.2791567089462152,0.059834513717924476,1.2395205889944838
1592299550.9645436,-2.409068635677127,9.542097667393858,0.6619348884040946,-0.08888888888888889,-0.7233333333333334,-0.32,-0.3731430247554654,0.02771065316206553,0.9885185800620443
1592299550.9745436,-2.86,9.44,0.73,-0.08888888888888889,-0.7233333333333334,-0.32,-0.40469822030618513,0.02399827721492203,0.8093964406123703
1592299550.9845436,-2.9242388138734445,9.539927043803136,0.6372106021828023,-0.08888888888888889,-0.7233333333333334,-0.32,-0.4482996184599181,0.019326698841307784,0.6388838299754502
1592299550.9945436,-2.61,9.74,1.68,-0.11888888888888889,-0.6966666666666667,-0.2822222222222222,-0.5225079448158023,0.00545415391248228,0.3217950808364545
1592299551.0045435,-2.5161926694275647,9.224059681851609,1.3141514107675039,-0.11888888888888889,-0.6966666666666667,-0.2822222222222222,-0.49999580157711115,-0.004778638468741005,0.10895299930701013
1592299551.0145435,-3.03,9.11,1.39,-0.11888888888888889,-0.6966666666666667,-0.2822222222222222,-0.4516039439535327,-0.01090830782496456,-0.1287180323345818
1592299551.0245435,-2.865217443633154,9.226317098611892,1.0798210703682902,-0.11888888888888889,-0.6966666666666667,-0.2822222222222222,-0.41142455791629934,-0.03205535310771901,-0.3232708489359227
1592299551.0345435,-3.2022373670212767,9.427737145390072,1.3285793439716311,-0.11888888888888889,-0.6966666666666667,-0.2822222222222222,-0.32221405462769265,-0.02276964201176445,-0.45055348744866863
1592299551.0445435,-3.05,9.04,1.22,-0.13444444444444445,-0.7088888888888889,-0.31222222222222223,-0.2574360646691636,-0.044724062082354694,-0.691586716102753
1592299551.0545435,-1.9325431235431234,9.167429292929294,1.7787284382284383,-0.13444444444444445,-0.7088888888888889,-0.31222222222222223,-0.18579564708166316,-0.07680186100213102,-0.8615990503775676
1592299551.0645435,-3.19,8.92,1.82,-0.13444444444444445,-0.7088888888888889,-0.31222222222222223,0.0032724923474893677,-0.05017821599483697,-1.0341075818066403
1592299551.0745435,-2.5968577396147596,9.270493153864006,1.2538187514504524,-0.13444444444444445,-0.7088888888888889,-0.31222222222222223,0.07091526611402668,-0.010965013811337083,-1.1684127992851272
1592299551.0845435,-2.9050202654374946,9.099051100691408,1.565020265437495,-0.13444444444444445,-0.7088888888888889,-0.31222222222222223,0.15609525824292864,0.0011253337350064768,-1.2807087657884675
1592299551.0945435,-3.17,9.44,1.23,-0.11555555555555555,-0.7,-0.32666666666666666,0.17344209441693648,0.032724923474893676,-1.4322608174178466
1592299551.1045434,-2.9350115848007414,8.99613299351251,1.2648130985480384,-0.11555555555555555,-0.7,-0.32666666666666666,0.12407433502756877,0.01563608368626639,-1.5366926161261245
1592299551.1145434,-3.0686702661378944,8.804025514835875,1.5210382722538105,-0.11555555555555555,-0.7,-0.32666666666666666,0.08311573915255367,0.017439376335752623,-1.6422566623015529
1592299551.1245434,-3.3,8.73,1.41,-0.11555555555555555,-0.7,-0.32666666666666666,0.09926560120717749,0.05781403147231216,-1.6896968820870104
1592299551.1345434,-3.7202307009760425,8.61837622005324,1.3377728482697426,-0.11555555555555555,-0.7,-0.32666666666666666,0.12003687768665747,0.08001780977796319,-1.7126169113057468
1592299551.1445434,-3.87,8.67,1.62,-0.09333333333333334,-0.7144444444444444,-0.3055555555555556,0.13526301702956053,0.11890055529211369,-1.7027868514769677
1592299551.1545434,-3.692039115100994,8.621465213209362,1.3368804103879448,-0.09333333333333334,-0.7144444444444444,-0.3055555555555556,0.13526301702956053,0.11890055529211369,-1.7027868514769677
1592299551.1645434,-4.388940682013564,8.319271181583723,1.4262584774094946,-0.09333333333333334,-0.7144444444444444,-0.3055555555555556,0.13972918188104066,0.1359457110105441,-1.6742535356740837
1592299551.1745434,-4.585937674502387,8.110956498243718,1.5393927767270108,-0.09333333333333334,-0.7144444444444444,-0.3055555555555556,0.07054703206418599,0.1506108479624362,-1.5753601120638183
1592299551.1845434,-4.714377015221111,8.564271818427452,1.093632711879672,-0.09333333333333334,-0.7144444444444444,-0.3055555555555556,0.03922931272005457,0.15225914898054838,-1.5325042855929016
1592299551.1945434,-4.79,8.1,1.44,-0.027777777777777776,-0.7144444444444444,-0.3055555555555556,-0.04036073895236887,0.11453723216212788,-1.459531586980258
1592299551.2045434,-4.992456560633168,8.068852836825666,1.2531170209539981,-0.027777777777777776,-0.7144444444444444,-0.3055555555555556,-0.0352642962956684,0.09698281856682625,-1.4238564883833547
1592299551.2145433,-5.6226572428071675,7.5657723519192785,1.6071073986816116,-0.027777777777777776,-0.7144444444444444,-0.3055555555555556,0.02994067142052426,0.07322989164188262,-1.304970617965149
1592299551.2245433,-5.309813035621634,7.382606587586997,1.4769334263682392,-0.027777777777777776,-0.7144444444444444,-0.3055555555555556,0.14784755039702693,0.030965070109533924,-1.2223399348912949
1592299551.2345433,-5.790079258583365,7.510177303061206,1.3268502316926987,-0.027777777777777776,-0.7144444444444444,-0.3055555555555556,0.17649773991733733,-0.0017780036279636952,-1.1453937116081754
1592299551.2445433,-6.0,7.97,1.54,0.03666666666666667,-0.7266666666666667,-0.31222222222222223,0.22798363354175932,-0.07635815477475191,-1.01883595085169
1592299551.2545433,-5.8859500121329775,8.251323303405321,1.2434700315457412,0.03666666666666667,-0.7266666666666667,-0.31222222222222223,0.23378939795883175,-0.11533971586080985,-0.9649252812645885
1592299551.2645433,-6.086513078691036,7.630460763926891,1.1697094232242529,0.03666666666666667,-0.7266666666666667,-0.31222222222222223,0.1818703351235701,-0.1867512268373162,-0.8436586690318313
1592299551.2745433,-5.696171988302703,8.250124818715674,0.8943203918118923,0.03666666666666667,-0.7266666666666667,-0.31222222222222223,0.15744992539512848,-0.2155468762703615,-0.7035754549778306
1592299551.2845433,-6.267334041235289,7.8288264755331385,1.394253782851075,0.03666666666666667,-0.7266666666666667,-0.31222222222222223,0.08613043873940701,-0.2287394062044255,-0.573855080443949
1592299551.2945433,-5.531171305809827,7.380357556510368,1.540049318139361,0.04887381945741744,-0.7333251136434398,-0.27671050501276545,0.07306952310389739,-0.26721184845960505,-0.39613296727986513
1592299551.3045433,-6.31173063170441,7.347961859356377,1.655337306317044,0.04888888888888889,-0.7333333333333333,-0.27666666666666667,0.07937633663230528,-0.2581670123043478,-0.30930006277673583
1592299551.3145432,-6.643090216235377,7.116180432470755,1.4381469337114496,0.04888888888888889,-0.7333333333333333,-0.27666666666666667,0.13697263617068514,-0.26473478984722676,-0.14726863256563083
1592299551.3245432,-5.962254239690113,7.071271670839435,1.9237861967972034,0.04888888888888889,-0.7333333333333333,-0.27666666666666667,0.20190458978154904,-0.26084727478633885,-0.05844140474345837
1592299551.3345432,-6.6087300137866825,7.280795330432759,1.4675277076507136,0.04888888888888889,-0.7333333333333333,-0.27666666666666667,0.25790279907336977,-0.2615014605864549,0.0062141085372327265
1592299551.3445432,-6.72,7.18,1.84,0.08888888888888889,-0.7266666666666667,-0.2911111111111111,0.32834006553143325,-0.29561514205653955,0.1712604328519436
1592299551.3545432,-6.992707714847515,7.089097428384162,1.5413201218336738,0.08888888888888889,-0.7266666666666667,-0.2911111111111111,0.2879680553198706,-0.3140304449600594,0.2916681826057269
1592299551.3645432,-6.62293168092962,7.472457139586136,1.041555282063024,0.08888888888888889,-0.7266666666666667,-0.2911111111111111,0.283596490319365,-0.3875587613540502,0.5043760324759345
1592299551.3745432,-6.808268044674112,7.329181530255043,1.646334389064844,0.08888888888888889,-0.7266666666666667,-0.2911111111111111,0.2588271057570279,-0.38746749436030015,0.6856226956268235
1592299551.3845432,-6.436325475418456,7.047939882569451,1.6241927964245026,0.08888888888888889,-0.7266666666666667,-0.2911111111111111,0.24373891617149385,-0.38952778586918685,0.7975878221827654
1592299551.3945432,-5.886688503483793,7.4628964707664345,1.5719528173280826,0.06395805984718435,-0.7328993739270927,-0.2911111111111111,0.28369320591547076,-0.37114075766053956,0.8992315271661445
1592299551.4045432,-5.956561696658097,7.373262773136247,1.6001755302056557,0.06222222222222222,-0.7333333333333333,-0.2911111111111111,0.30992997385510435,-0.3342419262616994,0.9275660218546611
1592299551.4145432,-5.775852035637758,7.52510544716364,1.3848945528363596,0.06222222222222222,-0.7333333333333333,-0.2911111111111111,0.3605774551853014,-0.2526900219537096,0.9849968225276848
1592299551.4245431,-5.989353744745892,7.9642660966755825,1.36,0.06222222222222222,-0.7333333333333333,-0.2911111111111111,0.3542953877894079,-0.1943088703092753,1.0275434752690376
1592299551.4345431,-6.0373595465816505,7.92476124690046,1.1274438540559688,0.06222222222222222,-0.7333333333333333,-0.2911111111111111,0.3347762762748453,-0.17712058602165895,1.0673947680770035
1592299551.4445431,-5.80569183983781,7.561123630550899,1.0481894030956374,0.04342928682513072,-0.740641697098869,-0.27127412374751453,0.3107834696479793,-0.15281051166979037,1.165260451878705
1592299551.454543,-5.784226533411719,7.591961199294532,0.963398001175779,0.042222222222222223,-0.7411111111111112,-0.27,0.2871235919546298,-0.14721696621365887,1.2296614553350915
1592299551.464543,-5.562372744035313,7.290501480695089,0.6910778342739007,0.042222222222222223,-0.7411111111111112,-0.27,0.24393784894847131,-0.17247700447951408,1.3347220957516581
1592299551.474543,-5.917936192839418,7.857171215880894,1.1272867777383906,0.042222222222222223,-0.7411111111111112,-0.27,0.2419062846073736,-0.18921741774242212,1.3602533799299366
1592299551.484543,-5.465579873366085,7.8286345174964085,1.1965509107355052,0.042222222222222223,-0.7411111111111112,-0.27,0.25073955581462415,-0.2101894116628044,1.3645914278631763
1592299551.494543,-5.071796792314581,8.081350647236016,1.0351673044044616,0.006610220087383649,-0.7278837960324568,-0.25677268492134564,0.2802272612038209,-0.2253423896842141,1.3617244823896189
1592299551.504543,-4.877126623376623,8.122191558441559,0.879797077922078,0.0033333333333333335,-0.7266666666666667,-0.25555555555555554,0.26723140634672715,-0.23976584557315567,1.3507176747678518
1592299551.514543,-4.8280540335268265,8.317148592198773,0.5943446536103727,0.0033333333333333335,-0.7266666666666667,-0.25555555555555554,0.21753451854795522,-0.23571821734647294,1.331840265905966
1592299551.524543,-4.962636728610237,8.65659182152559,0.7527148592446571,0.0033333333333333335,-0.7266666666666667,-0.25555555555555554,0.1359980434978778,-0.22101573786691855,1.3316338084150756
1592299551.534543,-4.783406256680681,8.752424998218485,0.9110624955462125,0.0033333333333333335,-0.7266666666666667,-0.25555555555555554,0.05682137779223807,-0.22068665732751377,1.3404824057025293
1592299551.544543,-4.251252371916508,8.652963665753038,0.8291443530817345,-0.038129914650049584,-0.7381352246195173,-0.25555555555555554,-0.034704272689404604,-0.23529616323598987,1.3233419885849906
1592299551.554543,-4.286915507295555,8.61183802737247,0.8961056441579007,-0.04888888888888889,-0.7411111111111112,-0.25555555555555554,-0.0918233739547602,-0.2700535998247382,1.264303599327694
1592299551.564543,-3.5478426751123227,8.510366796788686,0.8037612629201346,-0.04888888888888889,-0.7411111111111112,-0.25555555555555554,-0.14039199190491944,-0.3060531427598665,1.1870639592929564
1592299551.574543,-3.8111428302020225,9.167131609344429,0.829546215317885,-0.04888888888888889,-0.7411111111111112,-0.25555555555555554,-0.215911157450701,-0.325489238000223,1.0773509312950322
1592299551.584543,-3.6167212647263263,9.112936531983532,0.772259432869339,-0.04888888888888889,-0.7411111111111112,-0.25555555555555554,-0.3107763814884533,-0.3370729332227842,0.9327396034006098
1592299551.594543,-3.895506882106523,9.746466786355477,1.462064631956912,-0.09859698118225946,-0.7347846266374094,-0.24380637010439524,-0.38945818492865714,-0.3602666131553436,0.5349005919784333
1592299551.604543,-3.6300829015544043,9.645987334484744,1.6208662444828248,-0.11,-0.7333333333333333,-0.2411111111111111,-0.3730557961869709,-0.3483960706691258,0.2601611111017835
1592299551.614543,-2.849548897304522,9.072399198039653,1.4242993985297394,-0.11,-0.7333333333333333,-0.2411111111111111,-0.27405054865550704,-0.2551559877629118,-0.24261252726799437
1592299551.624543,-2.781465190388686,9.267454118303831,1.2834707264311136,-0.11,-0.7333333333333333,-0.2411111111111111,-0.20673642389750585,-0.1630752310354064,-0.5452884477855304
1592299551.634543,-2.5907976126881205,9.358109307937443,1.2901821798957394,-0.11,-0.7333333333333333,-0.2411111111111111,-0.18494925702869608,-0.0913118218285432,-0.769144750578833
1592299551.644543,-2.5389685301167555,9.235753498801515,1.5311118843269158,-0.13544541525984347,-0.7280687646588829,-0.22970454564980197,-0.1608065745944491,-0.005038418589902449,-1.094736029234287
1592299551.654543,-2.609635221645126,9.135092402464066,1.5250924024640657,-0.14222222222222222,-0.7266666666666667,-0.22666666666666666,-0.15057443913033938,0.040379843972716975,-1.2379719835908598
1592299551.664543,-2.97653523072672,8.97122354241503,1.5302058579718154,-0.14222222222222222,-0.7266666666666667,-0.22666666666666666,-0.13780080364830297,0.14773055879701036,-1.4821290855559162
1592299551.674543,-3.464739834883776,8.81149365944184,1.5623052033023246,-0.14222222222222222,-0.7266666666666667,-0.22666666666666666,-0.13635384781205698,0.2065990575776863,-1.5844103911819212
1592299551.684543,-3.5975153862862936,8.530623054087322,1.5074538411411194,-0.14222222222222222,-0.7266666666666667,-0.22666666666666666,-0.13762760264728402,0.23345121452201542,-1.6130744115339928
1592299551.694543,-3.862571961620469,8.663086353944562,1.4844326835211696,-0.12297864419399601,-0.7226575879107863,-0.23709027143195585,-0.12121753237223659,0.242771733733314,-1.634052965920266
1592299551.7045429,-4.043128917863667,8.625617723967475,1.4227051617294122,-0.11555555555555555,-0.7211111111111111,-0.2411111111111111,-0.11194638694723337,0.23093743778300369,-1.6507456620233827
1592299551.7145429,-4.1556604528819765,8.282453396614821,1.3988675091491307,-0.11555555555555555,-0.7211111111111111,-0.2411111111111111,-0.08140081448137138,0.17313358292046876,-1.7124600217367674
1592299551.7245429,-4.55642051860203,8.262578917700113,1.2568949642991356,-0.11555555555555555,-0.7211111111111111,-0.2411111111111111,-0.0429902519378343,0.1505116917560931,-1.7325205988856527
1592299551.7345428,-4.907183354864536,8.20713113411816,1.422898706308339,-0.11555555555555555,-0.7211111111111111,-0.2411111111111111,-0.03942678741630797,0.13401367945783907,-1.7065218438498164
1592299551.7445428,-5.096028511797376,7.854164986380842,1.6355498956454066,-0.07723580207608649,-0.7290642674936424,-0.23171192629539228,-0.07060629809644983,0.109067527476525,-1.6374469789772887
1592299551.7545428,-5.239121332147765,7.746687414113653,1.5088335623635922,-0.056666666666666664,-0.7333333333333333,-0.22666666666666666,-0.08371065933927253,0.09560716056650351,-1.582987160990519
1592299551.7645428,-5.866000498380264,7.904600049838026,1.5398405183154746,-0.056666666666666664,-0.7333333333333333,-0.22666666666666666,-0.08525061383744542,0.06252202777254606,-1.4552816145695098
1592299551.7745428,-5.688486159583114,7.853697231916623,1.1990457522589282,-0.056666666666666664,-0.7333333333333333,-0.22666666666666666,-0.07039060584203316,0.0076448114286144855,-1.37026658909048
1592299551.7845428,-6.1129965939815305,7.770270374662031,1.2480585694722426,-0.056666666666666664,-0.7333333333333333,-0.22666666666666666,-0.04718181158162319,-0.035973246637237666,-1.3208326387553233
1592299551.7945428,-6.310181120899149,7.375588927703523,1.621268985419198,-0.02041286958282705,-0.7333333333333333,-0.22666666666666666,0.006821834366538819,-0.0997698453576222,-1.2352686075822599
1592299551.8045428,-6.261250561293219,7.378066531956295,1.5667849124382578,0.0033333333333333335,-0.7333333333333333,-0.22666666666666666,0.048470619266990964,-0.137558357824057,-1.1571310398833985
1592299551.8145428,-6.586692271880819,8.206922718808194,0.973173300744879,0.0033333333333333335,-0.7333333333333333,-0.22666666666666666,0.08653854380415742,-0.18582509322817753,-0.936539230519831
1592299551.8245428,-6.5274355437161065,7.744971458472077,1.3834383027304729,0.0033333333333333335,-0.7333333333333333,-0.22666666666666666,0.07192763414389401,-0.21851309278564696,-0.7122781498152998
1592299551.8345428,-6.234024991074616,7.644845412352731,1.5754280614066405,0.0033333333333333335,-0.7333333333333333,-0.22666666666666666,0.04640894972869267,-0.23518233781956507,-0.5600410914870596
1592299551.8445427,-5.923020619341094,7.669233432245302,1.722894696796774,0.027494272405251634,-0.7333333333333333,-0.22804729175649058,0.034196420420664876,-0.257074114350175,-0.45206324986164625
1592299551.8545427,-5.9118731778425655,7.633957725947522,1.756495383867833,0.042222222222222223,-0.7333333333333333,-0.2288888888888889,0.04343221207038215,-0.2529672627608897,-0.4198643724828475
1592299551.8645427,-6.01868342913182,7.5547337165272825,1.705266283472718,0.042222222222222223,-0.7333333333333333,-0.2288888888888889,0.05069458436519413,-0.19440863525701307,-0.35857285861855154
1592299551.8745427,-5.979461544058793,7.568999975745228,1.691000024254772,0.042222222222222223,-0.7333333333333333,-0.2288888888888889,0.04926359450704634,-0.16677124971971818,-0.32482424031856705
1592299551.8845427,-6.111839654316662,7.541994686286532,1.6519430089632419,0.042222222222222223,-0.7333333333333333,-0.2288888888888889,0.056598865535371565,-0.15753461526565488,-0.303349846021348
1592299551.8945427,-6.774040843409024,7.434524845178413,1.7287522117369507,0.05985099446246601,-0.7268694501785773,-0.2212497542514499,0.0885989987727167,-0.16239767400723473,-0.20141377342234762
1592299551.9045427,-6.729313832895121,7.60648517382413,1.7876449751679813,0.07555555555555556,-0.7211111111111111,-0.21444444444444444,0.10581444985869662,-0.17575799859575547,-0.1256159922555084
1592299551.9145427,-5.9979934974454245,7.409962842545285,1.5360613098002787,0.07555555555555556,-0.7211111111111111,-0.21444444444444444,0.12730902146318254,-0.20409276743965157,0.02246513557635526
1592299551.9245427,-5.8450253098967675,7.269130694726773,1.4033819602216109,0.07555555555555556,-0.7211111111111111,-0.21444444444444444,0.13709167707503936,-0.2020881742472712,0.08956438553472794
1592299551.9345427,-6.341871563668353,7.548486914449087,1.6896151308555092,0.07555555555555556,-0.7211111111111111,-0.21444444444444444,0.14776282945339939,-0.17647684466953825,0.2171228261555311
1592299551.9445426,-6.03509674845402,7.573516457211251,1.838649910233393,0.0649200523084425,-0.7279929073298314,-0.19880399849280758,0.12946009320321722,-0.14825994049041458,0.3123651936183995
1592299551.9545426,-5.756121422730989,7.347112428454619,1.7562706459525756,0.056666666666666664,-0.7333333333333333,-0.18666666666666668,0.11838216538958962,-0.12119205807612904,0.37103355904516044
1592299551.9645426,-6.44484604835023,7.124432731868664,1.7933509021970044,0.056666666666666664,-0.7333333333333333,-0.18666666666666668,0.07057206117542397,-0.06766509555449733,0.5198993318420044
1592299551.9745426,-6.2169576172478545,7.036295134184316,1.880963892652547,0.056666666666666664,-0.7333333333333333,-0.18666666666666668,0.06625812328514069,-0.06873877864016822,0.5702219447985034
1592299551.9845426,-6.2711861796643635,7.305447581441264,1.7309445212240868,0.056666666666666664,-0.7333333333333333,-0.18666666666666668,0.09026160610580428,-0.07170430238008935,0.5930764909837352
1592299551.9945426,-6.312847682119205,7.551937086092716,1.4689735099337748,0.062279249448123616,-0.7264735099337748,-0.1904083885209713,0.10655646853985662,-0.0738875314130712,0.6303791895305885
1592299552.0045426,-6.202753976972213,7.516495789088246,1.4170084218235077,0.06666666666666667,-0.7211111111111111,-0.19333333333333333,0.11044738229312677,-0.08118556584536045,0.6494535047230542
1592299552.0145426,-6.2833191707776095,7.4376352333970175,1.4158906726738714,0.06666666666666667,-0.7211111111111111,-0.19333333333333333,0.155056452475152,-0.11887800396993999,0.664655460583826
1592299552.0245426,-6.207703260177742,7.4239228212441954,1.3920831663562858,0.06666666666666667,-0.7211111111111111,-0.19333333333333333,0.16756779283808118,-0.1348428693631875,0.7293799745546825
1592299552.0345426,-6.2475098344837825,7.393754917241891,1.6782765531062125,0.06666666666666667,-0.7211111111111111,-0.19333333333333333,0.16850619240371642,-0.13319000943251166,0.8242713469451702
1592299552.0445426,-6.060581586212042,7.516786167275983,1.570393568604044,0.04968663732000299,-0.7137530983942235,-0.1899373274640006,0.1607437188723854,-0.1342337148654008,0.9379055523606156
1592299552.0545425,-5.840169724770642,7.510845183486238,1.4520366972477066,0.03333333333333333,-0.7066666666666667,-0.18666666666666668,0.15022028356290384,-0.1377220148152868,0.9947454784204032
1592299552.0645425,-5.654925196155108,7.186040820445544,1.657183692004945,0.03333333333333333,-0.7066666666666667,-0.18666666666666668,0.16389027293728692,-0.14841383428540342,1.0283239522494814
1592299552.0745425,-5.5434597839135655,7.74805762304922,1.5578199279711886,0.03333333333333333,-0.7066666666666667,-0.18666666666666668,0.18905839123257484,-0.167003966614937,1.0213208974217562
1592299552.0845425,-5.552826362484157,8.139809885931559,1.5585361216730038,0.03333333333333333,-0.7066666666666667,-0.18666666666666668,0.19752816346289595,-0.17444029444857456,1.0144982048693292
1592299552.0945425,-5.138153004031597,7.99699400176997,1.3434970008849847,0.011316332885378085,-0.7104256667431468,-0.1829076665901865,0.2550358007440742,-0.17920484449722915,0.9841479681718998
1592299552.1045425,-5.35,8.09,1.39,-0.012222222222222223,-0.7144444444444444,-0.17888888888888888,0.2617993877991494,-0.18653206380689397,0.9773843811168246
1592299552.1145425,-4.825628804708462,8.141202215746805,1.1820221574680476,-0.012222222222222223,-0.7144444444444444,-0.17888888888888888,0.22872576102458,-0.18949956665283482,0.9265087585226361
1592299552.1245425,-5.085589858243744,8.252220055180286,1.1373737037389402,-0.012222222222222223,-0.7144444444444444,-0.17888888888888888,0.20810650900387326,-0.1758129467836125,0.9256061381417631
1592299552.1345425,-5.1449344162144675,8.26585151112229,1.4298690121105402,-0.012222222222222223,-0.7144444444444444,-0.17888888888888888,0.19121453735969557,-0.17437096856099243,0.9457312370081663
1592299552.1445425,-4.765580033355311,8.183116006671062,1.5970356436411588,-0.02180355703801385,-0.7087827465987494,-0.17627579757549117,0.19503955389988226,-0.19153136290253492,0.9790235253981828
1592299552.1545424,-5.1,8.256243910360507,1.6678146313738227,-0.03666666666666667,-0.7,-0.17222222222222222,0.21237038726299526,-0.2104611676829779,1.0033259331598858
1592299552.1645424,-4.811002140283384,8.391220774294926,1.5069328926336323,-0.03666666666666667,-0.7,-0.17222222222222222,0.24256558613602802,-0.2672773909826207,0.9692125924315966
1592299552.1745424,-4.257175572519084,8.428931297709923,1.3825190839694657,-0.03666666666666667,-0.7,-0.17222222222222222,0.2539970332709114,-0.28384083116760833,0.9335929377187416
1592299552.1845424,-4.0702261416990515,8.51404522833981,1.2305526931260662,-0.03666666666666667,-0.7,-0.17222222222222222,0.26008366042633896,-0.2561232197927882,0.9347076864339844
1592299552.1945424,-4.240750203228428,8.466827701002593,1.1400890334068827,-0.0474401390125464,-0.7045179077579495,-0.16561912626829595,0.25852203943261515,-0.2115393373268426,0.954621179563159
1592299552.2045424,-4.55,8.35,1.36,-0.07111111111111111,-0.7144444444444444,-0.1511111111111111,0.24652775684419903,-0.1778054175469223,0.9741118887693352
1592299552.2145424,-4.086556028449827,8.649345311205689,1.187485789368448,-0.07111111111111111,-0.7144444444444444,-0.1511111111111111,0.24910890258361532,-0.0780451115400163,1.0549761976120307
1592299552.2245424,-4.177191016570913,8.59804306538151,1.1034457053321305,-0.07111111111111111,-0.7144444444444444,-0.1511111111111111,0.22186558575101673,-0.054815269749460466,1.0787295063692626
1592299552.2345424,-4.272846338578444,8.734463600845908,0.9817574106598803,-0.07111111111111111,-0.7144444444444444,-0.1511111111111111,0.19680586853359863,-0.0351864967776511,1.0651071714007776
1592299552.2445424,-4.287851786031633,8.992402701261772,0.8091803803092235,-0.08060462452856268,-0.7087483363939735,-0.1384530932211757,0.16771196632603552,-0.024640446408115163,1.0447121551958458
1592299552.2545424,-3.73,9.35,0.33,-0.10444444444444445,-0.6944444444444444,-0.10666666666666667,0.13962634015954636,-0.009817477042468103,1.038470904936626
1592299552.2645423,-3.378587338487322,8.623423798453803,0.8122728009947559,-0.10444444444444445,-0.6944444444444444,-0.10666666666666667,0.08996036702445769,0.024327879487905362,1.0445107825519657
1592299552.2745423,-3.0211913116123643,8.84270247046187,0.18693662728249194,-0.10444444444444445,-0.6944444444444444,-0.10666666666666667,0.04997624501071417,0.057479869346460405,1.0606194435085092
1592299552.2845423,-2.95,8.98,0.37,-0.10444444444444445,-0.6944444444444444,-0.10666666666666667,0.02945243112740431,0.07744898555724837,1.0733774899765127
1592299552.2945423,-3.77293771043771,8.852413019079686,0.8399803591470258,-0.11202986656690361,-0.6915672153635116,-0.10666666666666667,0.017576332355679427,0.05896638217267668,1.1125222158259471
1592299552.3045423,-3.75,9.25,0.71,-0.13666666666666666,-0.6822222222222222,-0.10666666666666667,-0.017453292519943295,0.04145156973486533,1.1333731830138176
1592299552.3145423,-3.7363225510438176,9.260513879330121,1.1429020417526956,-0.13666666666666666,-0.6822222222222222,-0.10666666666666667,-0.10450178916151469,0.03378046929746079,1.1811305004103818
1592299552.3245423,-3.6870302375809936,8.923232541396688,0.8613534917206623,-0.13666666666666666,-0.6822222222222222,-0.10666666666666667,-0.17486499115757953,0.025589366606813907,1.1895755754862645
1592299552.3345423,-3.64,9.08,0.83,-0.13666666666666666,-0.6822222222222222,-0.10666666666666667,-0.20507618710933373,0.039269908169872414,1.189005552921137
1592299552.3445423,-3.2457432768040873,8.814786064003407,1.1133548570212162,-0.14449916033964852,-0.678835197931203,-0.10412639844840228,-0.3148374644164003,0.06804816516007783,1.182979628130183
1592299552.3545423,-3.593314644997276,8.990825767205376,1.5360491193027057,-0.17777777777777778,-0.6644444444444444,-0.09333333333333334,-0.37201590895623876,0.09261957056106002,1.168811788233101
1592299552.3645422,-3.7324707763013287,8.89498051753422,1.4510090918173644,-0.17777777777777778,-0.6644444444444444,-0.09333333333333334,-0.34666828956520224,0.0819499022393275,1.1470367949078886
1592299552.3745422,-3.679994979079498,8.819282008368202,1.4619062761506276,-0.17777777777777778,-0.6644444444444444,-0.09333333333333334,-0.2872779086934825,0.014595954850177263,1.0950639361958276
1592299552.3845422,-2.669661702584664,8.419051335290328,1.6972628338225817,-0.17777777777777778,-0.6644444444444444,-0.09333333333333334,-0.22160277721288757,-0.061921614257393245,1.0206821313809404
1592299552.3945422,-2.273168848606915,8.83600201409869,1.622202454216553,-0.1828642472616961,-0.6631728270734648,-0.0948168869328095,-0.12839067324779033,-0.11860981355283805,0.9351205165562332
1592299552.4045422,-3.22,9.71,1.08,-0.20444444444444446,-0.6577777777777778,-0.10111111111111111,-0.08072147790473774,-0.18216874067690814,0.8344855486097889
1592299552.4145422,-2.3361013526596777,9.106302453597412,1.3656817238803907,-0.20444444444444446,-0.6577777777777778,-0.10111111111111111,-0.015484269181396473,-0.16566515378193494,0.7339641537729485
1592299552.4245422,-2.01251175736635,9.021895575391113,0.8863981668106344,-0.20444444444444446,-0.6577777777777778,-0.10111111111111111,-0.025771518501335553,-0.11517307898521997,0.737210354995829
1592299552.4345422,-2.071940118485934,8.878992514810742,1.1747447585937776,-0.20444444444444446,-0.6577777777777778,-0.10111111111111111,-0.014165205266449953,-0.061745921334212805,0.7917151838461008
1592299552.4445422,-2.3810990025858882,8.936380864425564,1.5793557443664572,-0.21046476213930962,-0.6552576447892295,-0.10013105939334237,0.00646024080374896,-0.02982086355608422,0.855977655198342
1592299552.4545422,-2.25,9.05,1.02,-0.25222222222222224,-0.6377777777777778,-0.09333333333333334,0.05126904677733343,0.00545415391248228,0.9293878266869805
1592299552.4645422,-1.908360673786194,9.464549157767257,1.3830331388307828,-0.25222222222222224,-0.6377777777777778,-0.09333333333333334,0.08401630808395058,-0.05014242742573162,0.945669824191875
1592299552.4745421,-1.8532871931520738,9.515264461055958,1.207795411134954,-0.25222222222222224,-0.6377777777777778,-0.09333333333333334,0.12838965386476905,-0.11182660499685065,0.9119469326021343
1592299552.4845421,-1.6781133884693755,9.527439370330416,1.4934236285908347,-0.25222222222222224,-0.6377777777777778,-0.09333333333333334,0.18884599879171496,-0.15470832110250932,0.857719385698258
1592299552.4945421,-1.4831112042019785,9.637216511455547,0.8682106145071375,-0.25222222222222224,-0.6342384629981704,-0.09006627353677268,0.25378784679613353,-0.15877009876371675,0.8195028913236073
1592299552.504542,-1.77,10.06,1.14,-0.25222222222222224,-0.6233333333333333,-0.08,0.2694352032766246,-0.15053464798451094,0.8170322560898455
1592299552.514542,-1.4863935790406142,9.747264381392103,1.3572128419187717,-0.25222222222222224,-0.6233333333333333,-0.08,0.3013942641601513,-0.12384350946763993,0.7741630133532201
1592299552.524542,-1.5992839186956833,10.394257224257224,0.9159814695108812,-0.25222222222222224,-0.6233333333333333,-0.08,0.2836058966351059,-0.10864472457385246,0.7258567546729475
1592299552.534542,-1.45,10.5,0.86,-0.25222222222222224,-0.6233333333333333,-0.08,0.2530727415391778,-0.10253809355466686,0.7068583470577035
1592299552.544542,-1.4607506909184393,9.666949032714186,1.009576450928723,-0.2562859652505517,-0.6182001842449172,-0.07550849454763588,0.1817277531056052,-0.10526779961010099,0.6605720391802226
1592299552.554542,-1.38,9.78,0.84,-0.2733333333333333,-0.5966666666666667,-0.056666666666666664,0.08835729338221293,-0.11671889372712078,0.6174102228929941
1592299552.564542,-1.079323633296431,9.399236649269861,1.240676366703569,-0.2733333333333333,-0.5966666666666667,-0.056666666666666664,0.05562288142194248,-0.12854413427531303,0.6015789438187302
1592299552.574542,-1.193910867378706,9.640432491977586,1.2443538962593994,-0.2733333333333333,-0.5966666666666667,-0.056666666666666664,0.08536987781831915,-0.11064798339012724,0.6323501742070288
1592299552.584542,-1.0670587647211724,9.677650410893168,1.4635268830104173,-0.2733333333333333,-0.5966666666666667,-0.056666666666666664,0.12255820711390185,-0.1085699321512353,0.6488517903756039
1592299552.594542,-1.01859058309947,10.044801995634549,1.1248019956345494,-0.28299553061012367,-0.5948262481377542,-0.056666666666666664,0.14542165505576546,-0.13248066723198615,0.6349308632442234
1592299552.604542,-0.86,9.91,0.99,-0.32,-0.5877777777777777,-0.056666666666666664,0.15926129424448257,-0.13853550937704992,0.593411945678072
1592299552.614542,-0.5716641897765191,9.52893194627485,1.0858668648178786,-0.32,-0.5877777777777777,-0.056666666666666664,0.11221792826415024,-0.15072376855003192,0.511876542777618
1592299552.624542,-0.9067344018317115,9.721389524899829,1.2523125357756153,-0.32,-0.5877777777777777,-0.056666666666666664,0.07016829887630716,-0.12630955664151686,0.46154864296047343
1592299552.634542,-1.1872882062273025,9.80322259927368,1.5649169494552597,-0.32,-0.5877777777777777,-0.056666666666666664,0.07415791979761434,-0.07669111241134532,0.4508089239833403
1592299552.644542,-1.105755768182644,9.53524738085145,1.4358102706958153,-0.32333484729203255,-0.5840918939286891,-0.055438038716970464,0.08548785947470432,-0.06016800770430332,0.4541886639585064
1592299552.654542,-0.71,9.35,1.68,-0.3411111111111111,-0.5644444444444444,-0.04888888888888889,0.09926560120717749,-0.061086523819801536,0.4679664056909796
1592299552.664542,-1.0302269194902083,9.667628225054399,1.1745756916381722,-0.3411111111111111,-0.5644444444444444,-0.04888888888888889,0.15518754820130182,-0.06390294920973487,0.4845075642958109
1592299552.674542,-0.62,9.18,1.43,-0.3411111111111111,-0.5644444444444444,-0.04888888888888889,0.18980455615438332,-0.06981317007977318,0.49632800603588745
1592299552.684542,-0.8474432443920629,9.61340900747725,1.1311648665880942,-0.3411111111111111,-0.5644444444444444,-0.04888888888888889,0.19836232038757323,-0.09066987908927103,0.5109527300982832
1592299552.694542,-0.6529512916127287,9.87273161118303,0.839426937419093,-0.3411111111111111,-0.5644444444444444,-0.04888888888888889,0.16477066728964526,-0.1110016691222274,0.5136047027112776
1592299552.704542,-0.31,9.52,1.44,-0.3333333333333333,-0.5722222222222222,-0.013333333333333334,0.17562375598192942,-0.11453723216212788,0.5137812985558308
1592299552.714542,-0.3544105452554174,10.006121150486324,1.2752473336984016,-0.3333333333333333,-0.5722222222222222,-0.013333333333333334,0.1914138224069515,-0.07718976782221251,0.5018361197907227
1592299552.724542,-0.45,10.5,1.1,-0.3333333333333333,-0.5722222222222222,-0.013333333333333334,0.210530341021816,-0.06763150851478027,0.4636030825609938
1592299552.734542,0.004469964664310953,10.581070510761323,1.2066423064567942,-0.3333333333333333,-0.5722222222222222,-0.013333333333333334,0.23488919159850763,-0.04254012284306489,0.37414015351335456
1592299552.744542,0.18973056537102476,10.286337736909733,1.0298026421458402,-0.3333333333333333,-0.5722222222222222,-0.013333333333333334,0.21284323166745295,-0.026005652894773863,0.2666660988494629
1592299552.7545419,-0.69,9.62,0.9,-0.3566666666666667,-0.5311111111111111,-0.006666666666666667,0.17562375598192942,0.03490658503988659,0.05126904677733343
1592299552.7645419,-0.6593040527904679,9.650943870054233,0.8079121583714034,-0.3566666666666667,-0.5311111111111111,-0.006666666666666667,0.15271630954950383,0.07489296016997046,-0.04776880623809899
1592299552.7745419,-0.5525073633294222,9.904955820023467,0.520117813270755,-0.3566666666666667,-0.5311111111111111,-0.006666666666666667,0.14779311316475807,0.04824757533020063,-0.0013322131071785686
1592299552.7845418,-0.56,9.86,0.64,-0.3566666666666667,-0.5311111111111111,-0.006666666666666667,0.13308135546456762,0.02617993877991494,0.030543261909900768
1592299552.7945418,-0.5165131759748389,9.842605270389935,0.7443683776603865,-0.3566666666666667,-0.5311111111111111,-0.006666666666666667,0.09608067776643896,-0.0022821209878763384,0.02769705593312164
1592299552.8045418,-0.66,9.81,0.83,-0.35,-0.5188888888888888,0.0,0.0545415391248228,-0.02399827721492203,0.02399827721492203
1592299552.8145418,-0.6500787612311222,9.780236283693366,0.9192911489199006,-0.35,-0.5188888888888888,0.0,0.040472428680356845,-0.018587080890127432,0.011011406035414999
1592299552.8245418,-0.784317385125533,9.656420653718618,0.8451845097110374,-0.35,-0.5188888888888888,0.0,0.04499374686936791,-0.03303486203640073,-0.019944892646443252
1592299552.8345418,-0.6524837125771384,9.701176706597122,0.8212418562885692,-0.35,-0.5188888888888888,0.0,0.06079427261972993,-0.04144446300597533,-0.02659344202890736
1592299552.8445418,-0.6685105366729716,9.77329741502837,0.8292552683364857,-0.35,-0.5188888888888888,0.0,0.08002508099605968,-0.0484374842337316,-0.022222803761559693
1592299552.8545418,-0.6929619983426069,9.717065230259264,0.7599727713981296,-0.3377777777777778,-0.5188888888888888,-0.006666666666666667,0.10253809355466686,-0.04908738521234052,-0.032724923474893676
1592299552.8645418,-0.8143420555345591,9.76593561726062,0.607251506191503,-0.3377777777777778,-0.5188888888888888,-0.006666666666666667,0.10392873850234426,-0.04682758717236476,-0.029769802961079218
1592299552.8745418,-0.8870812720848057,9.834433451118963,0.5409729093050648,-0.3377777777777778,-0.5188888888888888,-0.006666666666666667,0.10776251773345023,-0.03660463210955363,-0.010784706033119849
1592299552.8845417,-0.8488426952451342,9.701901125071856,0.563388765705839,-0.3377777777777778,-0.5188888888888888,-0.006666666666666667,0.07299545411667917,-0.052765568609039935,0.021618305175694782
1592299552.8945417,-0.7196760285784676,9.839678902849634,0.7183887657058389,-0.3377777777777778,-0.5188888888888888,-0.006666666666666667,0.04669431191648683,-0.05746220114478857,0.03195089675434176
1592299552.9045417,-0.6670085141180432,9.914572370003366,0.8159829717639137,-0.3511111111111111,-0.5455555555555556,0.022222222222222223,0.0066148505464816475,-0.04429515973899398,0.02089823257375209
1592299552.9145417,-0.6440965232790119,9.768524130819753,0.8263860931160476,-0.3511111111111111,-0.5455555555555556,0.022222222222222223,-0.02351530015509665,-0.02639357641517691,0.004238446467140127
1592299552.9245417,-0.6212410295665487,9.76,0.6937470098555162,-0.3511111111111111,-0.5455555555555556,0.022222222222222223,-0.02164543944829347,-0.006274234044342834,0.01032839625405744
1592299552.9345417,-0.742705126698782,9.768734774605413,0.7260296479066306,-0.3511111111111111,-0.5455555555555556,0.022222222222222223,-0.03140945836606008,0.018319488976102603,0.01397233627071142
1592299552.9445417,-0.8741209415266518,9.859083147299572,0.6849622057729213,-0.3511111111111111,-0.5455555555555556,0.022222222222222223,-0.040368984373628486,0.027279014983671017,0.0005330472593588001
1592299552.9545417,-1.04,9.8,0.77,-0.3322222222222222,-0.5377777777777778,0.022222222222222223,-0.0643590161672909,0.020725784867432664,-0.038179077387375956
1592299552.9645417,-1.0786361999279683,9.693750450198086,0.8472723998559366,-0.3322222222222222,-0.5377777777777778,0.022222222222222223,-0.08753907207735426,0.002813923482383709,-0.07084188344246521
1592299552.9745417,-1.0255269154087154,9.728508971802906,0.7874551409854742,-0.3322222222222222,-0.5377777777777778,0.022222222222222223,-0.08492215508922744,-0.01123359971595681,-0.09123722956516676
1592299552.9845417,-0.9904169652062982,9.716805655068766,0.8427773797249357,-0.3322222222222222,-0.5377777777777778,0.022222222222222223,-0.08318092263668342,-0.012044622455687017,-0.10249260970644086
1592299552.9945416,-0.9244492599129721,9.69481641997099,0.9307343201160372,-0.3322222222222222,-0.5377777777777778,0.022222222222222223,-0.0775840645801023,-0.0048486620972255645,-0.1096885700649023
1592299553.0045416,-1.14,9.87,1.4,-0.32666666666666666,-0.5188888888888888,0.03,-0.06544984694978735,0.014180800172453926,-0.01854412330243975
1592299553.0145416,-0.8742059502784948,9.628948512430377,1.21,-0.32666666666666666,-0.5188888888888888,0.03,-0.038602013272886745,0.015098396179140255,0.02376887821325045
1592299553.0245416,-0.99,9.6,1.21,-0.32666666666666666,-0.5188888888888888,0.03,0.009817477042468103,0.04036073895236887,0.017453292519943295
1592299553.0345416,-0.9486387928918096,9.56136120710819,1.2996596982229525,-0.32666666666666666,-0.5188888888888888,0.03,0.04541504723781857,0.049347233369959734,0.019820559911807076
1592299553.0445416,-0.9169556021377449,9.593044397862254,1.2917389005344362,-0.32666666666666666,-0.5188888888888888,0.03,0.08688824695250791,0.05539540832835193,0.02414068488208721
1592299553.0545416,-0.8783687370122374,9.63489378896329,1.1929311937196951,-0.31444444444444447,-0.5111111111111111,0.03,0.1401369980703087,0.07002725601030238,0.02405759161096865
1592299553.0645416,-0.8497506750447926,9.719750675044793,1.0632682262094026,-0.31444444444444447,-0.5111111111111111,0.03,0.1684230946420297,0.09323736205056964,0.025252290799009293
1592299553.0745416,-0.8431708253358925,9.71237811900192,0.7992072936660269,-0.31444444444444447,-0.5111111111111111,0.03,0.18604652895380197,0.11465699323844034,0.031201738457108323
1592299553.0845416,-0.8882610632081522,9.74,0.7861872015962375,-0.31444444444444447,-0.5111111111111111,0.03,0.1931463671329773,0.12892598822789567,0.026110620148810316
1592299553.0945415,-0.98539977196608,9.74,0.7413539514002708,-0.31444444444444447,-0.5111111111111111,0.03,0.19396145862286274,0.13137126269755198,0.025295528658924885
1592299553.1045415,-0.95,9.73,0.74,-0.30666666666666664,-0.5044444444444445,0.044444444444444446,0.19634954084936207,0.13308135546456762,0.02181661564992912
1592299553.1145415,-0.914992796719737,9.703744597539803,0.7750072032802631,-0.30666666666666664,-0.5044444444444445,0.044444444444444446,0.19539486747568152,0.12544396847512326,0.03709138962881784
1592299553.1245415,-0.8413284151615364,9.729430679216485,0.6917079623505469,-0.30666666666666664,-0.5044444444444445,0.044444444444444446,0.19525871006686563,0.12863522798314528,0.07458418809290421
1592299553.1345415,-0.7813677119407941,9.671367711940794,0.8561248161677498,-0.30666666666666664,-0.5044444444444445,0.044444444444444446,0.2112481862326609,0.11272855616878652,0.1019164509352476
1592299553.1445415,-0.6357620788768746,9.742118960561562,0.6997356431965274,-0.30666666666666664,-0.5044444444444445,0.044444444444444446,0.23085151411551702,0.10711093178498826,0.10603451942943132
1592299553.1545415,-0.46,9.77,0.55,-0.32,-0.5111111111111111,0.044444444444444446,0.24434609527920614,0.09599310885968812,0.07963064712224129
1592299553.1645415,-0.4693433017539854,9.835403112277898,0.36313396492029065,-0.32,-0.5111111111111111,0.044444444444444446,0.24230770304652605,0.08987793216164784,0.041920390817659525
1592299553.1745415,-0.4256264831514001,9.92349881347888,0.05650118652112007,-0.32,-0.5111111111111111,0.044444444444444446,0.20828808062289275,0.05690114019619636,-0.005746845503789528
1592299553.1845415,-0.33292102928127776,9.997955279503106,-0.017371073646850043,-0.32,-0.5111111111111111,0.044444444444444446,0.1575406659699233,0.012229655252677834,-0.03669841252683312
1592299553.1945415,-0.40735403726708075,9.945852173913043,0.049618633540372686,-0.32,-0.5111111111111111,0.044444444444444446,0.11369600514377531,-0.00969267516039615,-0.05456105212267118
1592299553.2045414,-0.56,9.86,0.21,-0.32,-0.5111111111111111,0.057777777777777775,0.05781403147231216,-0.03599741582238304,-0.0643590161672909
1592299553.2145414,-0.8244927591031119,9.804317313873028,0.3004843649563278,-0.32,-0.5111111111111111,0.057777777777777775,0.038073405346510984,-0.05573804194818422,-0.05980348706133678
1592299553.2245414,-0.99,9.8,0.28,-0.32,-0.5111111111111111,0.057777777777777775,0.01854412330243975,-0.10144726277217041,-0.039269908169872414
1592299553.2345414,-0.942199080551669,9.8,0.2959336398161103,-0.32,-0.5111111111111111,0.057777777777777775,0.010722716147558806,-0.14663761522259366,-0.021019958141816873
1592299553.2445414,-0.820129970786383,9.851272680299688,0.29267533138575885,-0.32,-0.5111111111111111,0.057777777777777775,-0.004057312133628187,-0.18773336724718573,0.00041648365415294236
1592299553.2545414,-0.44,9.85,0.4,-0.30666666666666664,-0.5111111111111111,0.051111111111111114,-0.03381575425739013,-0.2159844949342983,0.022907446432425576
1592299553.2645414,-0.31157034466058603,9.834890628783599,0.4679921704738074,-0.30666666666666664,-0.5111111111111111,0.051111111111111114,-0.04864934476170528,-0.19785455098457977,0.031148330045933995
1592299553.2745414,-0.188717684740334,9.758717684740335,0.5469245024021964,-0.30666666666666664,-0.5111111111111111,0.051111111111111114,-0.0618696210315141,-0.12334735654992955,0.0382350289457003
1592299553.2845414,-0.14073896133607872,9.71073896133608,0.8060096087851751,-0.30666666666666664,-0.5111111111111111,0.051111111111111114,-0.05035555398478023,-0.04484235395856227,0.040328495681470095
1592299553.2945414,-0.20692590258395607,9.702563788601783,0.8323086341946521,-0.30666666666666664,-0.5111111111111111,0.051111111111111114,-0.03152142490868605,0.019637625427088364,0.04117190378220152
1592299553.3045413,-0.27,9.7,0.82,-0.32666666666666666,-0.5188888888888888,0.051111111111111114,0.0032724923474893677,0.10362892433716332,0.039269908169872414
1592299553.3145413,-0.29881023096544257,9.721607673224081,0.740771864845033,-0.32666666666666666,-0.5188888888888888,0.051111111111111114,0.022914421589950187,0.124842207919021,0.037698553830475545
1592299553.3245413,-0.3487884675829357,9.749394233791469,0.583937480355459,-0.32666666666666666,-0.5188888888888888,0.051111111111111114,0.04641013232690032,0.1256768159366345,0.02545254163241316
1592299553.3345413,-0.3984131011417368,9.75,0.614580786529812,-0.32666666666666666,-0.5188888888888888,0.051111111111111114,0.05218677374749969,0.11262013260100878,0.016035879254300625
1592299553.3445413,-0.45852907769195816,9.74357848705134,0.6813721035892776,-0.32666666666666666,-0.5188888888888888,0.051111111111111114,0.06364775831779966,0.08728802149977943,0.0077962682107024645
1592299553.3545413,-0.4879750778816199,9.71607476635514,0.70202492211838,-0.3319833852544133,-0.5188888888888888,0.056427829698857734,0.08525131414482427,0.05547944970416554,0.0028443157786589832
1592299553.3645413,-0.4477849774263725,9.718443004514727,0.5902409413085685,-0.3333333333333333,-0.5188888888888888,0.057777777777777775,0.1051049358411219,0.029916459707714914,0.005865617253560558
1592299553.3745413,-0.3735371989775326,9.786462801022466,0.3706115969325979,-0.3333333333333333,-0.5188888888888888,0.057777777777777775,0.11834934307375546,0.015822843173308607,0.006544984694978735
1592299553.3845413,-0.3985743153290225,9.818574315329023,0.3123761411182959,-0.3333333333333333,-0.5188888888888888,0.057777777777777775,0.1199395467171023,0.01215465667998458,0.003428010420012933
1592299553.3945413,-0.4202063327277446,9.84525791590968,0.25948416818063846,-0.3333333333333333,-0.5188888888888888,0.057777777777777775,0.11282783690885359,0.01144809636394128,0.0016193656169301623
1592299553.4045413,-0.459897864092146,9.860051067953927,0.219948932046073,-0.3267007119692847,-0.5188888888888888,0.051145156413729125,0.0851906433773947,0.006567267293435815,0.0032557803986465583
1592299553.4145412,-0.435262547366793,9.86,0.2756592684247158,-0.32666666666666666,-0.5188888888888888,0.051111111111111114,0.07024339488765594,0.0031719378433724566,0.005296320458453135
1592299553.4245412,-0.3941781832818999,9.825570911042533,0.31,-0.32666666666666666,-0.5188888888888888,0.051111111111111114,0.04794181530296178,-0.0017258924711120633,0.005606076943775896
1592299553.4345412,-0.39,9.742793221763183,0.5073062110496465,-0.32666666666666666,-0.5188888888888888,0.051111111111111114,0.048622210542121104,0.0006256561122770445,0.0026468362352123236
1592299553.4445412,-0.39,9.736695988346034,0.5868719184222322,-0.32666666666666666,-0.5188888888888888,0.051111111111111114,0.057121994440140086,-0.006943778445303106,-0.0014704335385523435
1592299553.4545412,-0.3533586402266289,9.703358640226629,0.6832827195467421,-0.3154706956248033,-0.5188888888888888,0.05721800440667296,0.07707433308112976,-0.017902974376795656,-0.008268682741654439
1592299553.4645412,-0.32089431535760776,9.70582113692848,0.6783577261430431,-0.31444444444444447,-0.5188888888888888,0.057777777777777775,0.09631946732173606,-0.015369185627084173,-0.009361633795042764
1592299553.4745412,-0.31731565865782935,9.718657829328915,0.5747638773819388,-0.31444444444444447,-0.5188888888888888,0.057777777777777775,0.13269364510359746,0.003909638744887879,-0.010761899716626179
1592299553.4845412,-0.3999529979948686,9.74398589939846,0.5200235010025658,-0.31444444444444447,-0.5188888888888888,0.057777777777777775,0.1564133418261634,0.02398802296811475,-0.01178045973862136
1592299553.4945412,-0.4614276649746193,9.767754713560551,0.4626540971718637,-0.31444444444444447,-0.5188888888888888,0.057777777777777775,0.1678987518382276,0.025133702330531783,-0.013290297813211442
1592299553.5045412,-0.4739185497889247,9.81216290042215,0.3013483983113981,-0.31891151394752093,-0.5072745081808901,0.06403167508208482,0.17235126363444003,0.011505054836099324,-0.011549479034840177
1592299553.5145411,-0.4440372136294918,9.837308524247005,0.20076590301197814,-0.32,-0.5044444444444445,0.06555555555555556,0.16857512942479605,0.0011743778406837066,-0.01090830782496456
1592299553.5245411,-0.4312653702137939,9.866203889358617,0.041511293634496904,-0.32,-0.5044444444444445,0.06555555555555556,0.1622711386777518,-0.00762240243560321,-0.009955507520514158
1592299553.5345411,-0.3438339828160947,9.87,0.06308300859195268,-0.32,-0.5044444444444445,0.06555555555555556,0.14828399965657033,-0.02000575153389035,-0.011697327921454554
1592299553.5445411,-0.34321795882449996,9.8567820411755,0.08982693823674996,-0.32,-0.5044444444444445,0.06555555555555556,0.1331946241237434,-0.02181661564992912,-0.014882849880968062
1592299553.554541,-0.36808546744831844,9.877128201172479,0.10904273372415921,-0.3320569782988789,-0.498415955295005,0.08464577119544722,0.1048353677002792,-0.018857387958659613,-0.018335280198293176
1592299553.564541,-0.4013359828798532,9.867465606848059,0.11626719657597065,-0.3333333333333333,-0.49777777777777776,0.08666666666666667,0.088181546570114,-0.011707672357414576,-0.01854412330243975
1592299553.574541,-0.46639732743703133,9.844534224187656,0.0426711209382811,-0.3333333333333333,-0.49777777777777776,0.08666666666666667,0.066977738873771,-0.000887597744957701,-0.017700596085875063
1592299553.584541,-0.45701607201772165,9.862983927982278,0.01233869067257388,-0.3333333333333333,-0.49777777777777776,0.08666666666666667,0.04989667810706064,0.001926549987354819,-0.01578185411022657
1592299553.594541,-0.4615021104625056,9.875751055231254,0.004248944768747194,-0.3333333333333333,-0.49777777777777776,0.08666666666666667,0.03389537951648426,-0.004091766513094923,-0.013389602531524034
1592299553.604541,-0.47,9.860650724791027,0.051598067223926916,-0.32115045634990613,-0.5149771335190868,0.06373419234492136,0.00961079898499373,-0.015762241265619266,-0.011295579106896254
1592299553.614541,-0.48488014937565643,9.864880149375656,0.07255992531217179,-0.31444444444444447,-0.5244444444444445,0.051111111111111114,-0.015140894204615006,-0.0228812990823585,-0.010096721575608987
1592299553.624541,-0.47522784176264393,9.847841762643966,0.04045568352528793,-0.31444444444444447,-0.5244444444444445,0.051111111111111114,-0.03522831730372756,-0.028832454693686997,-0.0065946920566247935
1592299553.634541,-0.47,9.81791488451668,0.10361705161106359,-0.31444444444444447,-0.5244444444444445,0.051111111111111114,-0.04598200117334736,-0.03777059905115883,-0.0022420040719231408
1592299553.644541,-0.45302136093371503,9.81,0.1922550099097115,-0.31444444444444447,-0.5244444444444445,0.051111111111111114,-0.05170071885752416,-0.04529962485594234,0.00014389069339691197
1592299553.654541,-0.42716601178781927,9.80358300589391,0.2785019646365422,-0.30660145164811176,-0.5208794477188387,0.055389107181838024,-0.05804146647583365,-0.05398728350375571,0.0024908017229007973
1592299553.664541,-0.4124167104822905,9.81516657903542,0.3227498685531284,-0.3022222222222222,-0.5188888888888888,0.057777777777777775,-0.061650110165005115,-0.056723200689815706,0.004099700911339388
1592299553.674541,-0.402695123350545,9.812695123350546,0.2715609868043603,-0.3022222222222222,-0.5188888888888888,0.057777777777777775,-0.061380516171141486,-0.05991055441444173,0.001175969405359805
1592299553.684541,-0.4069875977601925,9.761086815678652,0.33385117312231016,-0.3022222222222222,-0.5188888888888888,0.057777777777777775,-0.05879983780004515,-0.060324295146549405,0.0
1592299553.694541,-0.42053544110147884,9.734732279449261,0.41740948495665475,-0.3022222222222222,-0.5188888888888888,0.057777777777777775,-0.05206783974197642,-0.059421073864271506,-0.0011492383460671484
1592299553.704541,-0.41757571039314906,9.74242428960685,0.46,-0.31740746507504003,-0.5023231694130876,0.057777777777777775,-0.04012932487044572,-0.05890486225480862,-0.0035369413203732887
1592299553.714541,-0.3869486188636038,9.757683793712133,0.4292648251514718,-0.32666666666666666,-0.4922222222222222,0.057777777777777775,-0.025939353373327416,-0.059743034125563255,-0.0026869793884765525
1592299553.724541,-0.4084523888337195,9.76,0.363095222332561,-0.32666666666666666,-0.4922222222222222,0.057777777777777775,-0.011268668341658192,-0.0576679374191516,-0.004509417183146389
1592299553.734541,-0.44049156272927364,9.76,0.34683052090975786,-0.32666666666666666,-0.4922222222222222,0.057777777777777775,0.0023961462676407837,-0.057468294936700665,-0.00768943665313716
1592299553.744541,-0.46508878554064054,9.765029595180213,0.39023676144170805,-0.32666666666666666,-0.4922222222222222,0.057777777777777775,0.0109341344918369,-0.058362675196919435,-0.008726646259971648
1592299553.754541,-0.4575015364444627,9.764375384111116,0.42437538411111564,-0.3229169227407438,-0.495347008827158,0.0659022229506107,0.023247786351658195,-0.06197261433046547,-0.005045343769183428
1592299553.764541,-0.3803031243287109,9.767462109458911,0.42,-0.32,-0.49777777777777776,0.07222222222222222,0.03840631969755638,-0.06598699590731855,-0.0005536818249652633
1592299553.774541,-0.35308997815100085,9.776910021848998,0.35780980335900775,-0.32,-0.49777777777777776,0.07222222222222222,0.04295910264298759,-0.06277184546197814,-0.0015075329081222677
1592299553.784541,-0.3700838564377785,9.773305381187408,0.33,-0.32,-0.49777777777777776,0.07222222222222222,0.05093592757771438,-0.05013247940301732,-0.002911931192778526
1592299553.794541,-0.3901171776715431,9.785175766507315,0.29458987814959925,-0.32,-0.49777777777777776,0.07222222222222222,0.0589559906592648,-0.03810238478069169,-0.004927911672905119
1592299553.8045409,-0.38329646614513085,9.811135689236579,0.2321607769085514,-0.32,-0.5126253634265504,0.060467883583610584,0.06509025827533074,-0.02616787402078833,-0.00593762706479997
1592299553.8145409,-0.4061844764055628,9.812763104718888,0.21723689528111256,-0.32,-0.5244444444444445,0.051111111111111114,0.05943587240417698,-0.01629065595029047,-0.00545415391248228
1592299553.8245409,-0.447335016227912,9.84416877028489,0.11065993508835197,-0.32,-0.5244444444444445,0.051111111111111114,0.049268731404454064,-0.010453565529773105,-0.006199600841018444
1592299553.8345408,-0.4733833901069904,9.839924914839514,0.06669169505349518,-0.32,-0.5244444444444445,0.051111111111111114,0.0363255338279898,-0.01091649834540119,-0.006544984694978735
1592299553.8445408,-0.4605888436875129,9.834852789078122,0.09426394539060884,-0.32,-0.5244444444444445,0.051111111111111114,0.02581116381428162,-0.011469781436723232,-0.003898198841289824
1592299553.8545408,-0.4219891932178126,9.844502701695546,0.11549729830445314,-0.32,-0.5154390410533508,0.06061681469059892,0.01570560559381501,-0.00943480214079411,-0.00010849365971615592
1592299553.8645408,-0.4063426638675064,9.837314672264988,0.11,-0.32,-0.5044444444444445,0.07222222222222222,0.003989534835260539,-0.0104033246733568,0.001782708081466858
1592299553.8745408,-0.4131343532949853,9.826865646705015,0.11313435329498532,-0.32,-0.5044444444444445,0.07222222222222222,-0.009231432454950794,-0.012341043513199933,0.001155946847776157
1592299553.8845408,-0.4181398429481824,9.821860157051818,0.11813984294818244,-0.32,-0.5044444444444445,0.07222222222222222,-0.02397381638192312,-0.012887057732717427,-0.0004820958107763238
1592299553.8945408,-0.4152806775654914,9.810561355130984,0.1624739019105771,-0.32,-0.5044444444444445,0.07222222222222222,-0.03408561509308357,-0.013604767608366276,0.0009683620911387681
1592299553.9045408,-0.41,9.805219432451691,0.24131659471014796,-0.32347962163446087,-0.5044444444444445,0.06120342037976275,-0.044394073996791676,-0.01076468962117442,0.0032724923474893677
1592299553.9145408,-0.40269208254061173,9.807564027513537,0.2821798624323138,-0.32666666666666666,-0.5044444444444445,0.051111111111111114,-0.050150278721759714,-0.00630719859070119,0.003803939102198968
1592299553.9245408,-0.38577600955924285,9.8,0.2391358661705999,-0.32666666666666666,-0.5044444444444445,0.051111111111111114,-0.05408077324504793,0.0034889225595014007,0.0035639592043175084
1592299553.9345407,-0.3960480839750642,9.793951916024936,0.21024041987532088,-0.32666666666666666,-0.5044444444444445,0.051111111111111114,-0.0545415391248228,0.006316328242450486,0.002181661564992912
1592299553.9445407,-0.4,9.798842745905308,0.2565282377159223,-0.32666666666666666,-0.5044444444444445,0.051111111111111114,-0.05550613306835318,0.004007262997186703,0.0016993645932277196
1592299553.9545407,-0.4,9.800919201280648,0.29908079871935295,-0.3236397337602157,-0.5044444444444445,0.06725475327884967,-0.057713762167088165,0.002676942303629141,0.000595550043860227
1592299553.9645407,-0.4059823663872864,9.79149559159682,0.3129911831936432,-0.32,-0.5044444444444445,0.08666666666666667,-0.05874171851962302,0.002946204877118163,-0.0008157186759280127
1592299553.9745407,-0.44,9.784750707359283,0.3045845122654727,-0.32,-0.5044444444444445,0.08666666666666667,-0.05670507161739282,0.002199790637415799,-0.004899673985022608
1592299553.9845407,-0.44580632697416084,9.77580632697416,0.30903163487080415,-0.32,-0.5044444444444445,0.08666666666666667,-0.05246550980899218,0.0051726084064856095,-0.00372995111032041
1592299553.9945407,-0.4455716319212959,9.77114326384259,0.3521418403935206,-0.32,-0.5044444444444445,0.08666666666666667,-0.047279855864951884,0.006544984694978735,-0.0018233122825468248
1592299554.0045407,-0.4360404541208594,9.76791909175828,0.3760404541208594,-0.32,-0.501804747191684,0.07522797857137155,-0.04190555348798881,0.003953467977174588,0.00043191945296735797
1592299554.0145407,-0.39942450419759096,9.792230198320963,0.3822301983209636,-0.32,-0.49777777777777776,0.057777777777777775,-0.03526758512850933,-0.003335269201135897,0.0024249384629508146
1592299554.0245407,-0.40381445661640003,9.7880927716918,0.3423710867671999,-0.32,-0.49777777777777776,0.057777777777777775,-0.032724923474893676,-0.006753031029762059,0.001973615230209589
1592299554.0345407,-0.4087286228100708,9.763092934215106,0.3719925745446107,-0.32,-0.49777777777777776,0.057777777777777775,-0.028421615654927554,-0.008865331997465512,0.00047607252250129583
1592299554.0445406,-0.3918801768917591,9.76217973466236,0.40782026533763865,-0.32,-0.49777777777777776,0.057777777777777775,-0.020660431499970867,-0.008488874093233819,0.0
1592299554.0545406,-0.392227047849239,9.783056761962309,0.39305676196230976,-0.32,-0.49981561908598426,0.062193100612225195,-0.010846390129202174,-0.004544338669027684,-0.0006668820086503504
