time,acc_x,acc_y,acc_z,mag_x,mag_y,mag_z,gyr_x,gyr_y,gyr_z
1592299736.5643666,-0.5194482157078387,9.770110356858432,0.5697792862831355,-0.31777777777777777,-0.5220628178711535,0.12564138866766952,0.017393102190824544,-0.00547823004412978,0.008726646259971648
1592299736.5743666,-0.54996834228703,9.76001055257099,0.5899788948580199,-0.31777777777777777,-0.5222222222222223,0.12555555555555556,0.02181201122222096,-0.002185114885774031,0.01417504463781873
1592299736.5843666,-0.7030976523248378,9.807843016351512,0.4369023476751621,-0.31777777777777777,-0.5222222222222223,0.12555555555555556,0.02286038834920333,-0.005312979662815535,0.02253098176664759
1592299736.5943666,-0.7374831892411143,9.81,0.43916106308037145,-0.31777777777777777,-0.5222222222222223,0.12555555555555556,0.025905397314963864,-0.013448689599251055,0.03889651780596312
1592299736.6043665,-0.7536794138670478,9.830519120800572,0.4263205861329521,-0.31777777777777777,-0.5222222222222223,0.12555555555555556,0.021703361060109526,-0.032087111051675596,0.05379047211178512
1592299736.6143665,-0.6541584554412246,9.822359742573537,0.44646038613969385,-0.3226778492851285,-0.5222222222222223,0.15103592739377925,0.008089432597767957,-0.07114879625148421,0.07538972168686274
1592299736.6243665,-0.49,9.84,0.49,-0.3233333333333333,-0.5222222222222223,0.15444444444444444,-0.0032724923474893677,-0.09926560120717749,0.09272061651219875
1592299736.6343665,-0.10888612670408987,9.782004410585404,0.40714915797914997,-0.3233333333333333,-0.5222222222222223,0.15444444444444444,-0.008695067277415014,-0.10649570111374503,0.09272061651219875
1592299736.6443665,-0.28859941906522313,9.71032321098495,0.4695690520200686,-0.3233333333333333,-0.5222222222222223,0.15444444444444444,-0.020667023452162193,-0.0786984721609751,0.028708292695003634
1592299736.6543665,-0.5518877048446315,9.715237754096893,0.6218948688098863,-0.3233333333333333,-0.5222222222222223,0.15444444444444444,-0.01615498214740274,-0.07454036395971865,0.020934045924859226
1592299736.6643665,-0.9619417796890506,9.672238394530819,0.8077616054691807,-0.3297015473958908,-0.5020562110241237,0.14064664730890336,0.0015468170540196748,-0.08028197016637166,0.03293673878065796
1592299736.6743665,-1.0904591014504146,9.688068865217561,0.8039770449274793,-0.33,-0.5011111111111111,0.14,0.014664708674920616,-0.1004315522888341,0.02987373938057086
1592299736.6843665,-1.3131280544478758,9.862211795040926,0.5423695019938237,-0.33,-0.5011111111111111,0.14,0.02707087276924082,-0.16965265692663722,0.03247505248343045
1592299736.6943665,-1.3296534180480581,9.937573926336405,0.5010397458558258,-0.33,-0.5011111111111111,0.14,0.004104229323528441,-0.24606298257634035,0.0432551690380223
1592299736.7043664,-1.3015025687944262,9.954248715602787,0.5071243578013935,-0.33,-0.5011111111111111,0.14,-0.0122704452430682,-0.29922396557850406,0.06694763768569459
1592299736.7143664,-1.09,10.02,0.46,-0.35555555555555557,-0.5077777777777778,0.14666666666666667,-0.03599741582238304,-0.3741549583962844,0.11999138607461016
1592299736.7243664,-0.934644925099929,10.067801561507714,0.4241488288692144,-0.35555555555555557,-0.5077777777777778,0.14666666666666667,-0.04968506219268627,-0.3950123242938893,0.15258102028961784
1592299736.7343664,-0.9209592319140865,10.02723261446873,0.39090407680859135,-0.35555555555555557,-0.5077777777777778,0.14666666666666667,-0.08867120129204448,-0.43089019206347734,0.23902665978011062
1592299736.7443664,-0.9234234665390445,10.046306133843823,0.46891840153146686,-0.35555555555555557,-0.5077777777777778,0.14666666666666667,-0.09808628235689777,-0.45314669904681226,0.29350195650860217
1592299736.7543664,-0.9331994618763106,10.027001345309223,0.5627978475052428,-0.35555555555555557,-0.5077777777777778,0.14666666666666667,-0.10288710070487722,-0.4880803274170096,0.3753961868308842
1592299736.7643664,-0.9560998926933957,10.01,0.5819500536533021,-0.3349834704473276,-0.5024111468799791,0.15113885908149882,-0.10275081140992103,-0.5191317006379614,0.4749472544855686
1592299736.7743664,-0.902431133888533,10.04289649492084,0.5635517525395809,-0.33,-0.5011111111111111,0.15222222222222223,-0.09984675535747521,-0.548717932105421,0.5511741232441181
1592299736.7843664,-0.8170986776624485,10.03379970614721,0.37369662069292386,-0.33,-0.5011111111111111,0.15222222222222223,-0.10810149081723279,-0.577998939455349,0.6231599749380382
1592299736.7943664,-0.7014378152814092,10.03,0.34792039722156193,-0.33,-0.5011111111111111,0.15222222222222223,-0.1346090601869467,-0.6080296197904086,0.6956895397494616
1592299736.8043664,-0.6025293440736479,10.04345702398867,0.3634570239886695,-0.33,-0.5011111111111111,0.15222222222222223,-0.15432591500333254,-0.6358201094109931,0.7443311315494745
1592299736.8143663,-0.4765398022337626,10.024961940670128,0.336615920893505,-0.34669203955324746,-0.506675124295527,0.13460284713823878,-0.19166689149970112,-0.6779969992389906,0.8229385883454741
1592299736.8243663,-0.4345353362922499,9.918141345169,0.4318586548310004,-0.35,-0.5077777777777778,0.13111111111111112,-0.22892169587530387,-0.7033952479521117,0.8918926692890127
1592299736.8343663,-0.18295476130967253,9.90882304423894,0.5029382654336416,-0.35,-0.5077777777777778,0.13111111111111112,-0.2460779561381349,-0.727069688385148,0.9415772949543416
1592299736.8443663,-0.0971120475367534,9.84829738879288,0.6334052224142421,-0.35,-0.5077777777777778,0.13111111111111112,-0.2639645994882291,-0.7518809860086745,0.9891484440250108
1592299736.8543663,-0.07042088523721177,9.813894513649617,0.7283164590511529,-0.35,-0.5077777777777778,0.13111111111111112,-0.27470571136004734,-0.7733647357545237,1.030433508765568
1592299736.8643663,0.0014053458252962225,9.677189308349408,0.9805326142581585,-0.36656969649254023,-0.50192964960394,0.14378205548775955,-0.2725543961754854,-0.797569967854471,1.1010516904408474
1592299736.8743663,0.030996047430830037,9.639003952569169,1.0362450592885375,-0.3688888888888889,-0.5011111111111111,0.14555555555555555,-0.25730240556142686,-0.7955709149714487,1.1369129935767806
1592299736.8843663,0.11692499091391988,9.5781718806788,1.06,-0.3688888888888889,-0.5011111111111111,0.14555555555555555,-0.2114943671859664,-0.7709545440328571,1.1993275342448217
1592299736.8943663,0.29249508375387967,9.552895254341697,1.1113142369749094,-0.3688888888888889,-0.5011111111111111,0.14555555555555555,-0.1621619060003795,-0.7323360313769367,1.2381780966955247
1592299736.9043663,0.5345273018612104,9.505832614322692,1.2651214100825836,-0.3688888888888889,-0.5011111111111111,0.14555555555555555,-0.11360156207518188,-0.6886382595232676,1.2731428518574686
1592299736.9143662,0.7758752070679183,9.455169598485446,1.407937603533959,-0.3909603569018257,-0.4909950216051817,0.1280823100453139,-0.0217337083801543,-0.6060060633377986,1.3428186305666967
1592299736.9243662,0.8454700348173939,9.434843321727534,1.4402089043632862,-0.39555555555555555,-0.4888888888888889,0.12444444444444444,0.0403109610605237,-0.553180742376073,1.3867877435181013
1592299736.9343662,1.0384123514141277,9.33407705970761,1.3193988249760897,-0.39555555555555555,-0.4888888888888889,0.12444444444444444,0.1716211119739058,-0.44476385815876673,1.4762593481094113
1592299736.9443662,1.2275739930899514,9.334595665514993,1.23900722414168,-0.39555555555555555,-0.4888888888888889,0.12444444444444444,0.2820081026933574,-0.34672352526504796,1.5450216049393064
1592299736.9543662,1.3076060049019607,9.319597426470589,1.2061969975490197,-0.39555555555555555,-0.4888888888888889,0.12444444444444444,0.33222735331626346,-0.3008693437456249,1.5699689797712604
1592299736.9643662,1.5431998440241763,9.287955546890231,1.104311171768376,-0.4167703472628409,-0.4632543489092524,0.15803453131431294,0.4465036454233702,-0.18382202244154344,1.6071670368636115
1592299736.9743662,1.6599394108502412,9.26002272093116,0.9351173914776578,-0.4222222222222222,-0.45666666666666667,0.16666666666666666,0.4908507197450304,-0.14564284566887267,1.6111562395908947
1592299736.9843662,1.7788171276118023,9.268817127611802,0.6247314895527908,-0.4222222222222222,-0.45666666666666667,0.16666666666666666,0.5586788815979074,-0.12241702006835858,1.6054730296998343
1592299736.9943662,1.8928497152175454,9.359115165551959,0.5562654503344127,-0.4222222222222222,-0.45666666666666667,0.16666666666666666,0.5754547565193966,-0.15065246276190816,1.5698637596707024
1592299737.0043662,2.1759067376141514,9.54068562594377,0.32980117926224206,-0.4222222222222222,-0.45666666666666667,0.16666666666666666,0.5692592249591063,-0.2152990293264579,1.5181324253540747
1592299737.0143661,2.271108238856679,9.427668673141548,0.14414010857121756,-0.459675886603395,-0.443916483047544,0.16029157485710532,0.5271894655288208,-0.3128391824629193,1.4044911395042694
1592299737.0243661,2.359261295443107,9.368061481280732,0.056338611638081224,-0.47444444444444445,-0.4388888888888889,0.15777777777777777,0.4897327220857322,-0.3470721247579161,1.3202846239905273
1592299737.0343661,2.7101467673837494,9.42,-0.2607593991440963,-0.47444444444444445,-0.4388888888888889,0.15777777777777777,0.4156921541336359,-0.39679230538947335,1.1464339211339913
1592299737.0443661,2.974837161793002,9.128435280423783,-0.39138204622657197,-0.47444444444444445,-0.4388888888888889,0.15777777777777777,0.3592480951189643,-0.4037858735588892,1.0338970442360822
1592299737.054366,3.3051359104927203,9.391593272609912,-0.29472351717707806,-0.47444444444444445,-0.4388888888888889,0.15777777777777777,0.31058415998224975,-0.38428322402682297,0.939228813350774
1592299737.064366,3.493316427059768,9.315821352988397,-0.39045646938626577,-0.48706897110932723,-0.42106602771493673,0.14812372797522036,0.2635639576408051,-0.370882466048795,0.7690987092177878
1592299737.074366,3.5797629093831627,9.268487040385775,-0.40459915611814345,-0.49333333333333335,-0.4122222222222222,0.14333333333333334,0.23153118970922718,-0.35482421832101363,0.6435478610217091
1592299737.084366,3.7258236753838183,9.557969785389,-0.3975869215456355,-0.49333333333333335,-0.4122222222222222,0.14333333333333334,0.1606027088264868,-0.27744689445336146,0.40329743187994804
1592299737.094366,3.6318985558295176,9.487214981801102,-0.34721498180110366,-0.49333333333333335,-0.4122222222222222,0.14333333333333334,0.12323621381613273,-0.20457899266320817,0.24851589424430381
1592299737.104366,3.412745357819857,9.43751635718799,-0.24133996453394754,-0.49333333333333335,-0.4122222222222222,0.14333333333333334,0.07913162333384825,-0.13029018850342347,0.1431235088295144
1592299737.114366,3.1694891726818435,9.575012030353507,-0.025985563575791237,-0.5126682707138009,-0.4017491311411356,0.15219517963271434,0.030131903827476828,-0.04409243815064264,0.050337509995834515
1592299737.124366,3.003223350253807,9.567962404822335,0.09838832487309646,-0.52,-0.3977777777777778,0.15555555555555556,0.01565421770306264,-0.0017061534764300536,0.02138756823159156
1592299737.134366,2.6561554921540655,9.501098430813125,0.0835544460294817,-0.52,-0.3977777777777778,0.15555555555555556,-0.00023964042867967786,0.08416125172029895,0.015167631158521214
1592299737.144366,2.4543431724662845,9.505720333943819,0.17279666056180576,-0.52,-0.3977777777777778,0.15555555555555556,-0.004363323129985824,0.12917563484893355,0.04066349813703579
1592299737.154366,2.2145269473052696,9.41025497450255,0.3855580441955805,-0.52,-0.3977777777777778,0.15555555555555556,0.006078984751459301,0.1476725287733144,0.08628810703998877
1592299737.164366,2.316330686917501,9.473453101955,0.5517265509775002,-0.5413375731774075,-0.39320544066833335,0.14107648804231476,0.030297348320875925,0.15979231561231974,0.16962019879775325
1592299737.174366,2.42,9.476068303354399,0.5260683033543996,-0.5511111111111111,-0.39111111111111113,0.13444444444444445,0.05465157674629485,0.15978837003215213,0.22811793247013423
1592299737.184366,2.658691579029775,9.27770360898724,0.24586649617703085,-0.5511111111111111,-0.39111111111111113,0.13444444444444445,0.12193390801893156,0.14001956414716166,0.35165966558458284
1592299737.194366,2.946765516585876,9.42797737857618,0.018587586731299316,-0.5511111111111111,-0.39111111111111113,0.13444444444444445,0.1897598695212443,0.10608637811596104,0.4253022833469235
1592299737.204366,2.984527269823525,9.415406052862732,-0.05182424339215843,-0.5511111111111111,-0.39111111111111113,0.13444444444444445,0.24471070000234235,0.07619981750294141,0.45061624689669916
1592299737.214366,3.0932420777523686,9.462203854949363,-0.17921659588369815,-0.5495527242368143,-0.3918903045482595,0.13834041163018623,0.2767590575430585,0.044908872550764575,0.4322531546728967
1592299737.224366,3.15,9.42212032223501,-0.21169173379896028,-0.5488888888888889,-0.39222222222222225,0.14,0.27355329618386975,0.02430666558329001,0.39658835078294946
1592299737.234366,3.2292181185023257,9.124766782745736,-0.09418037162248036,-0.5488888888888889,-0.39222222222222225,0.14,0.2538781445980521,-0.0035792425812596917,0.301930431466645
1592299737.244366,3.837165745073019,9.448366416182239,0.01076775840068056,-0.5488888888888889,-0.39222222222222225,0.14,0.24169846301486095,-0.006544984694978735,0.20159106034800595
1592299737.254366,3.647661911788818,9.306089158514146,-0.026782168297170762,-0.5488888888888889,-0.39222222222222225,0.14,0.21146374050484737,0.018111276655930212,0.09407897319136256
1592299737.264366,3.6127997886951926,9.296127839408348,-0.21889593238246172,-0.5518725910273717,-0.3892385200837393,0.13522607657842736,0.15899718219554215,0.07777417952005283,-0.0593539487787524
1592299737.274366,3.939034553261092,9.483762011858516,-0.22707871600899612,-0.5544444444444444,-0.38666666666666666,0.13111111111111112,0.1288179043493849,0.11532028406917041,-0.1596934336278735
1592299737.284366,3.7850815347721825,9.337050359712231,-0.23262589928057556,-0.5544444444444444,-0.38666666666666666,0.13111111111111112,0.07634010505676816,0.183653264583543,-0.33515370327524263
1592299737.294366,3.115041471587803,9.156989804406209,-0.7925084963281603,-0.5544444444444444,-0.38666666666666666,0.13111111111111112,0.05339598144207561,0.2368133561425158,-0.43429569975519194
1592299737.3043659,3.0113425101855147,9.037495352240814,-0.6734306396107748,-0.5544444444444444,-0.38666666666666666,0.13111111111111112,0.044476606897131905,0.2446193099667093,-0.5022255513142546
1592299737.3143659,3.166585480093677,9.173414519906324,-0.6921599197055872,-0.5531204044459314,-0.40255514664882347,0.13971737110144605,0.030820732182209917,0.22394339923470558,-0.5624543578439932
1592299737.3243659,3.0986233223499156,9.20440247528731,-0.8045841035120148,-0.5522222222222222,-0.41333333333333333,0.14555555555555555,0.019969970546827247,0.21349258261472406,-0.5842050638618426
1592299737.3343658,3.314349458802739,9.231983653633753,-0.2848862381267948,-0.5522222222222222,-0.41333333333333333,0.14555555555555555,-0.005325119257296317,0.21224152608960892,-0.6004274068702508
1592299737.3443658,3.2735868377286765,9.363746020432407,-0.3213335709194583,-0.5522222222222222,-0.41333333333333333,0.14555555555555555,0.011871032725829275,0.2468221697139819,-0.5965459136603335
1592299737.3543658,3.098901595369194,9.36263730057885,-0.3406607369758577,-0.5522222222222222,-0.41333333333333333,0.14555555555555555,0.01762116002706191,0.2777540392991191,-0.5932081945662208
1592299737.3643658,2.886856609342529,9.30685660934253,0.21196036502725657,-0.5493197067199416,-0.41623584883561393,0.12581845014004758,0.010632306577976253,0.35372307986804435,-0.600072804244986
1592299737.3743658,2.833201598579041,9.31200871952204,0.3083937510092039,-0.5466666666666666,-0.41888888888888887,0.10777777777777778,0.016231546191008844,0.3625924691525903,-0.6192434368565864
1592299737.3843658,2.759590940100969,9.576140810478918,-0.17994132896711695,-0.5466666666666666,-0.41888888888888887,0.10777777777777778,0.01107417244824387,0.36739948756505153,-0.6710714173715746
1592299737.3943658,2.474714000190349,9.384214333301609,-0.0883925002379366,-0.5466666666666666,-0.41888888888888887,0.10777777777777778,-0.026702046708455402,0.36551598764747845,-0.6960669399142932
1592299737.4043658,2.5370971481103983,9.546961848232309,0.014797050182864679,-0.5466666666666666,-0.41888888888888887,0.10777777777777778,-0.048534590357497846,0.33327765699230466,-0.7146269928798786
1592299737.4143658,2.667431774356963,9.825409353858221,0.05642056410759225,-0.5491742472936707,-0.43079989686715836,0.10777777777777778,-0.07323012254853833,0.2863833488423831,-0.7193880165300967
1592299737.4243658,2.5817161355419156,9.875372908433532,0.10455225763053898,-0.5511111111111111,-0.44,0.10777777777777778,-0.10414182484466522,0.28173555169571585,-0.708384666325468
1592299737.4343657,2.367058184976118,9.616081198436822,0.12,-0.5511111111111111,-0.44,0.10777777777777778,-0.16026591955480604,0.2982242785590935,-0.6566597638359245
1592299737.4443657,2.3959158563206984,9.613052854402328,0.09347357279883575,-0.5511111111111111,-0.44,0.10777777777777778,-0.2093225401593813,0.3199671437204791,-0.6301671775272976
1592299737.4543657,2.4360609502176795,9.599191116158748,-0.0038393589500914788,-0.5511111111111111,-0.44,0.10777777777777778,-0.27092309398619674,0.34374404979540885,-0.6463671034093835
1592299737.4643657,2.3600943126607605,9.304967133466704,-0.028322377822234915,-0.5484563843637865,-0.45539741513448284,0.08760185449811057,-0.326997336700278,0.3660842446788599,-0.7033236687462017
1592299737.4743657,2.261937143540861,9.06156263709967,0.0027507677581462137,-0.5455555555555556,-0.4722222222222222,0.06555555555555556,-0.3505793003422593,0.3811225622521601,-0.7468166537228274
1592299737.4843657,2.4230669215099465,9.073066921509946,-0.16101300203706964,-0.5455555555555556,-0.4722222222222222,0.06555555555555556,-0.3839957537538978,0.4075925718819538,-0.838095635293958
1592299737.4943657,2.570111803913137,9.42033541173941,0.061291239637831785,-0.5455555555555556,-0.4722222222222222,0.06555555555555556,-0.3872388298287392,0.4162193207408729,-0.8858954477815749
1592299737.5043657,2.190520343749385,9.425665375312187,0.3048699140626536,-0.5455555555555556,-0.4722222222222222,0.06555555555555556,-0.3633342370904627,0.4200582529376939,-0.8969281082417617
1592299737.5143657,1.8739400830531936,9.350116669962429,0.5495877002175202,-0.5386732362182234,-0.4817515874585283,0.055496781139454665,-0.302397728117332,0.4235567367004755,-0.8726005609897688
1592299737.5243657,2.039656786271451,9.489656786271452,0.6876755070202808,-0.5311111111111111,-0.4922222222222222,0.044444444444444446,-0.24405679538369224,0.4267683988057117,-0.8450245736269504
1592299737.5343657,1.7873472202061258,9.35398316156191,0.6836485701843519,-0.5311111111111111,-0.4922222222222222,0.044444444444444446,-0.12278282980586723,0.41448466195405764,-0.8175388772378492
1592299737.5443656,1.794585344765473,9.402058505656028,0.5848195114921824,-0.5311111111111111,-0.4922222222222222,0.044444444444444446,-0.04480493713640678,0.39255540861922245,-0.8103297654586954
1592299737.5543656,1.7414493878769781,9.34241564646163,0.5451621379516274,-0.5311111111111111,-0.4922222222222222,0.044444444444444446,0.026654249853510444,0.3665545159325384,-0.8056489206108968
1592299737.5643656,1.8301197247273986,9.676595544103321,0.521343053766144,-0.5320596912784953,-0.4974394131428352,0.03495864277060268,0.10316613621553793,0.3394732374463069,-0.811086349092937
1592299737.5743656,1.7862169427204808,9.856388899869549,0.5458730284223426,-0.5333333333333333,-0.5044444444444445,0.022222222222222223,0.15463247539848968,0.31592825939072755,-0.8191013719639535
1592299737.5843656,1.5973478318879253,9.90980440293529,0.13223909272848566,-0.5333333333333333,-0.5044444444444445,0.022222222222222223,0.2092616589763161,0.2739463379800199,-0.818138106717139
1592299737.5943656,1.0716687858359522,9.858118657486266,0.04924333661204809,-0.5333333333333333,-0.5044444444444445,0.022222222222222223,0.224369391339686,0.21476250171431238,-0.8263598628874284
1592299737.6043656,0.55,9.52,0.17,-0.5333333333333333,-0.5044444444444445,0.022222222222222223,0.2301652951067522,0.17998707911191522,-0.8279405639148101
1592299737.6143656,1.0460105425138329,9.94827227187899,0.07695282061356121,-0.5228167574312353,-0.5263920811096924,0.02313670708327422,0.18711117591566456,0.13611627434628198,-0.8396164497503634
1592299737.6243656,0.74,9.86,0.33,-0.5077777777777778,-0.5577777777777778,0.024444444444444446,0.1832595714594046,0.09053895494720585,-0.8453938564347533
1592299737.6343656,0.8115827180749248,9.799966639321848,0.018047033087229977,-0.5077777777777778,-0.5577777777777778,0.024444444444444446,0.1427041712632137,0.08262770246000758,-0.8180239367076982
1592299737.6443655,0.7692268655294006,9.824721004479176,0.27577575526541503,-0.5077777777777778,-0.5577777777777778,0.024444444444444446,0.12649782835916187,0.04715148024410941,-0.7900686822733863
1592299737.6543655,0.9141492199498827,9.924249858540133,0.4258843262468677,-0.5077777777777778,-0.5577777777777778,0.024444444444444446,0.10799224746714915,0.002711998784403223,-0.7797510794265955
1592299737.6643655,0.8394819990885614,9.635202795078232,0.39662160109372624,-0.5004179114554324,-0.5634059108478067,0.02227977787904873,0.09566634016713413,-0.05522208629537011,-0.7929357162812701
1592299737.6743655,0.87,9.8,0.36,-0.4888888888888889,-0.5722222222222222,0.01888888888888889,0.07635815477475191,-0.06654067773228381,-0.8115781021773633
1592299737.6843655,0.5397669933277731,9.77919359883236,0.5161290658882401,-0.4888888888888889,-0.5722222222222222,0.01888888888888889,0.06500217645611582,-0.09462468029361433,-0.8670775299261401
1592299737.6943655,0.5061437205857761,9.449217850402542,0.2761437205857761,-0.4888888888888889,-0.5722222222222222,0.01888888888888889,0.047240068924096434,-0.08499948174898111,-0.9208308287318907
1592299737.7043655,0.46634158039889684,9.25,0.1471463687597426,-0.4888888888888889,-0.5722222222222222,0.01888888888888889,0.025155619942688015,-0.044654868731228675,-0.9672130675015377
1592299737.7143655,0.6642054196627626,9.186075611517568,0.16158916067447485,-0.48375915401066905,-0.5757735771379129,0.02086186384205036,0.023366186554571303,0.02424242711342533,-1.0129737843703281
1592299737.7243655,0.69,9.07,0.11,-0.47444444444444445,-0.5822222222222222,0.024444444444444446,0.02617993877991494,0.09599310885968812,-1.0439250588491082
1592299737.7343655,-0.20048150752355506,9.855309801715652,0.2705127267613556,-0.47444444444444445,-0.5822222222222222,0.024444444444444446,0.04770865241710474,0.09703482080987473,-1.0456612454327525
1592299737.7443655,-0.1900115000359376,9.533302666570833,0.46940056062675195,-0.47444444444444445,-0.5822222222222222,0.024444444444444446,0.14748913437024425,0.1233280126548374,-1.0031053445930138
1592299737.7543654,0.0,10.04,0.36,-0.47444444444444445,-0.5822222222222222,0.024444444444444446,0.2203478180642841,0.15598880189699318,-0.940296134511945
1592299737.7643654,-0.319002868545772,10.007995759541032,0.11800573709154404,-0.46311063994900364,-0.5925559851445359,0.02277770848923256,0.28787069245835806,0.18925975297796688,-0.9099706850344186
1592299737.7743654,-0.48,9.77,0.44,-0.43666666666666665,-0.6166666666666667,0.01888888888888889,0.31306843457648287,0.22362031041177347,-0.890117918517108
1592299737.7843654,-0.4926705162503642,9.843848965645114,-0.03539586258045718,-0.43666666666666665,-0.6166666666666667,0.01888888888888889,0.3245191672757569,0.28366217587485737,-0.8847481347443468
1592299737.7943654,-0.4544687946641257,10.005686755597903,-0.14411171986660315,-0.43666666666666665,-0.6166666666666667,0.01888888888888889,0.28908114881989805,0.33320184999778474,-0.884990416195068
1592299737.8043654,-0.69,10.2,-0.15,-0.43666666666666665,-0.6166666666666667,0.01888888888888889,0.2781618495365963,0.34797501961636945,-0.8792096106921435
1592299737.8143654,-3.1981322334918563,10.809712975043137,-0.34283363494802405,-0.4331342676374451,-0.619492585890044,0.01888888888888889,0.3224803563337116,0.4235763735220732,-0.5165792352112758
1592299737.8243654,-2.17,9.12,0.73,-0.4033333333333333,-0.6433333333333333,0.01888888888888889,0.2454369260617026,0.5552328682906961,-0.13526301702956053
1592299737.8343654,-0.9337208417849898,10.267441683569979,0.04850532454361055,-0.4033333333333333,-0.6433333333333333,0.01888888888888889,0.30114908924507416,0.21278100925015397,-0.26640167588757263
1592299737.8443654,-0.8786909434854575,10.307469378103571,-0.2838396784109719,-0.4033333333333333,-0.6433333333333333,0.01888888888888889,0.2549745375569944,0.13703728721647948,-0.42558588869196606
1592299737.8543653,-0.8052876688300298,10.269005086826873,-0.5209424662339941,-0.4033333333333333,-0.6433333333333333,0.01888888888888889,0.22086757472760166,0.14952946109926854,-0.5192982120713052
1592299737.8643653,-1.0598176194110795,10.395075724099145,-0.46744667175511184,-0.4030091011752523,-0.6434346558827336,0.01903074045804934,0.18269914744954852,0.16949318444366418,-0.5765389718040372
1592299737.8743653,-1.05,10.13,-0.33,-0.38555555555555554,-0.6488888888888888,0.02666666666666667,0.09381144729469522,0.13308135546456762,-0.6664976081053345
1592299737.8843653,-1.1012462938349863,10.220637971577547,-0.07969583887128105,-0.38555555555555554,-0.6488888888888888,0.02666666666666667,0.02293739102552447,0.1202301063782533,-0.7737138054753565
1592299737.8943653,-1.1129765641594487,10.206442378041585,-0.1902905288994831,-0.38555555555555554,-0.6488888888888888,0.02666666666666667,-0.026649188329667436,0.12342622481265964,-0.8676936237991832
1592299737.9043653,-1.2241444507805261,9.893422196877895,-0.3292777460973697,-0.38555555555555554,-0.6488888888888888,0.02666666666666667,-0.07186352217980488,0.12746681156016898,-0.9626520811915334
1592299737.9143653,-1.2017214341720721,9.983114263311712,-0.4413928291396393,-0.38555555555555554,-0.6488888888888888,0.02666666666666667,-0.0922466194739139,0.11849824875076102,-1.0482610898267912
1592299737.9243653,-1.2464408604723505,10.212393816850518,-0.3146612907085258,-0.37333333333333335,-0.67,-0.015555555555555555,-0.14971872399537314,0.13122782277341746,-1.206245957119144
1592299737.9343653,-1.2440841691608215,10.201757408211291,-0.26985149306586853,-0.37333333333333335,-0.67,-0.015555555555555555,-0.20577551110021425,0.14756456466429685,-1.3253810084986999
1592299737.9443653,-1.4072948968066537,9.960893572235342,-0.4027538761679844,-0.37333333333333335,-0.67,-0.015555555555555555,-0.27956638237413706,0.1645258212430346,-1.4388244231845566
1592299737.9543653,-1.48,9.91,-0.49,-0.37333333333333335,-0.67,-0.015555555555555555,-0.3327033886614191,0.19307704850187268,-1.499892325932627
1592299737.9643652,-1.8437237479806141,9.477463651050082,-0.2933925686591276,-0.37333333333333335,-0.67,-0.015555555555555555,-0.41098327359499554,0.22310220984625817,-1.5395684319948506
1592299737.9743652,-1.98,9.19,-0.18,-0.3333333333333333,-0.6933333333333334,-0.04,-0.4799655442984406,0.2247111411942699,-1.5282539262775348
1592299737.9843652,-2.4447764141627872,8.901941035406969,0.1476117929186063,-0.3333333333333333,-0.6933333333333334,-0.04,-0.49809866336614367,0.24273008387029404,-1.4506139799358206
1592299737.9943652,-2.4966923076923075,8.724230769230768,0.1736923076923077,-0.3333333333333333,-0.6933333333333334,-0.04,-0.4533576642115463,0.2762570911702371,-1.346638991997894
1592299738.0043652,-2.75,8.69,0.16,-0.3333333333333333,-0.6933333333333334,-0.04,-0.4003348971761993,0.29343348049154666,-1.2839078309983287
1592299738.0143652,-2.9819655358104473,8.863974151857834,0.44995691976305874,-0.3333333333333333,-0.6933333333333334,-0.04,-0.3001751515123228,0.29237916737929537,-1.2037800344672274
1592299738.0243652,-2.91,8.41,0.45,-0.29444444444444445,-0.7055555555555556,-0.05333333333333334,-0.13744467859455345,0.26398104936414235,-1.1399181677087964
1592299738.0343652,-3.062440730359154,8.977511853928169,0.4437322191077463,-0.29444444444444445,-0.7055555555555556,-0.05333333333333334,0.0014756634691566548,0.21233234215204488,-1.1059289001170778
1592299738.0443652,-2.726910553624982,9.14390250868758,0.21146332174989288,-0.29444444444444445,-0.7055555555555556,-0.05333333333333334,0.055339709256576636,0.17849272350384732,-1.0878509507997092
1592299738.0543652,-2.686705931263858,9.39045375356351,-0.07033595977193538,-0.29444444444444445,-0.7055555555555556,-0.05333333333333334,0.04854101962006224,0.15989380419832597,-1.08033129866467
1592299738.0643651,-2.754965502437828,9.3290000306645,0.12,-0.2889808483163486,-0.709118770421705,-0.05273946418897509,0.008734172460519368,0.17153502209770463,-1.0716622521467971
1592299738.0743651,-2.88,9.07,0.12,-0.24333333333333335,-0.7388888888888889,-0.04777777777777778,-0.01854412330243975,0.16471544815696484,-1.0755591515415055
1592299738.0843651,-3.0621421263870308,9.321728443639989,0.19970305081188847,-0.24333333333333335,-0.7388888888888889,-0.04777777777777778,-0.05908648138800305,0.15415764494244596,-1.106939916018026
1592299738.0943651,-3.18846152012775,9.102797149462544,0.09447553447577281,-0.24333333333333335,-0.7388888888888889,-0.04777777777777778,-0.0890743397149167,0.17129857306115595,-1.1312906807930212
1592299738.104365,-3.293428346920735,9.303792554758864,0.030831352519398884,-0.24333333333333335,-0.7388888888888889,-0.04777777777777778,-0.11176049406575442,0.17522991689045503,-1.1658459114689845
1592299738.114365,-3.3922903932272086,9.179217794920406,-0.04614519661360442,-0.24258225374722614,-0.7393668486255026,-0.051260055858820285,-0.14475748436200886,0.17814058602845295,-1.1757998077801657
1592299738.124365,-3.58,9.32,-0.14,-0.2311111111111111,-0.7466666666666667,-0.10444444444444445,-0.18980455615438332,0.1832595714594046,-1.15737146022874
1592299738.134365,-3.844609578554353,9.083690134035296,0.18439549813317574,-0.2311111111111111,-0.7466666666666667,-0.10444444444444445,-0.26761760124781364,0.12918927334226105,-1.0939013353410587
1592299738.144365,-3.81,9.3,0.02,-0.2311111111111111,-0.7466666666666667,-0.10444444444444445,-0.31197760379398637,0.062177354602297986,-1.0155634585042006
1592299738.154365,-3.8718167523033307,9.093456546775336,0.3332153614457831,-0.2311111111111111,-0.7466666666666667,-0.10444444444444445,-0.36849562141692266,-0.011562463235525698,-0.8751847321146026
1592299738.164365,-4.007093852380034,8.898770476006938,0.024359221429947966,-0.2303162673176163,-0.7467411832723069,-0.10424573349607076,-0.3921691174661796,-0.04466309832692514,-0.7505216397955838
1592299738.174365,-3.75,8.79,0.41,-0.16,-0.7533333333333333,-0.08666666666666667,-0.44178646691106466,-0.039269908169872414,-0.6566801310628665
1592299738.184365,-3.863508282892641,9.329084103217586,0.154054635234151,-0.16,-0.7533333333333333,-0.08666666666666667,-0.4746644681048783,0.009917385882852854,-0.6055939609020634
1592299738.194365,-4.312063756393481,8.964634233376948,0.20163221125252767,-0.16,-0.7533333333333333,-0.08666666666666667,-0.48923863099583415,0.03490658503988659,-0.5929596537854079
1592299738.204365,-4.487737050217477,8.458562672993278,0.5876757611704231,-0.16,-0.7533333333333333,-0.08666666666666667,-0.470281520416947,0.02519254066710716,-0.5656474770592567
1592299738.214365,-4.3800415199627984,8.499709360260413,0.7701162558958348,-0.15998523734656067,-0.7533379466625331,-0.0866860426493058,-0.4286403363667569,-0.021892704955823045,-0.5421274998745458
1592299738.224365,-4.43,8.15,0.91,-0.14222222222222222,-0.7588888888888888,-0.11,-0.3610649890063269,-0.11344640137963141,-0.5235987755982988
1592299738.234365,-4.292742299417537,8.868528362281577,1.0889775410610276,-0.14222222222222222,-0.7588888888888888,-0.11,-0.2611192284470471,-0.17170656472573156,-0.43969441523167796
1592299738.244365,-3.7881762386988647,8.816782097585156,1.0599386256875103,-0.14222222222222222,-0.7588888888888888,-0.11,-0.19770865683174596,-0.16647244713278958,-0.3252062605902778
1592299738.254365,-3.794440162071351,9.442996145864216,0.9627799189643245,-0.14222222222222222,-0.7588888888888888,-0.11,-0.15426790018283004,-0.11756965334125874,-0.22677486928006022
1592299738.264365,-3.877339658068979,9.51760569226208,0.9213301709655105,-0.14222222222222222,-0.7588888888888888,-0.11,-0.15065072729932388,-0.07235499229743145,-0.16347434381870202
1592299738.274365,-3.94,9.16,0.7,-0.12,-0.7588888888888888,-0.11666666666666667,-0.148352986419518,-0.04799655442984406,-0.15162547876700738
1592299738.284365,-4.223023125794155,8.918944853875477,0.5939893265565438,-0.12,-0.7588888888888888,-0.11666666666666667,-0.15239235914228014,-0.021377566655439186,-0.1517308749203759
1592299738.294365,-4.34,8.687764836253036,0.5846832339141301,-0.12,-0.7588888888888888,-0.11666666666666667,-0.1707595246322963,-0.010661171499097292,-0.12484566407237413
1592299738.304365,-4.344768737837359,8.924964126353862,0.797811019597822,-0.12,-0.7588888888888888,-0.11666666666666667,-0.18388849363190088,-0.030782042630398486,-0.06909682791828002
1592299738.314365,-4.377747331590431,8.751826509150238,0.5752055117645903,-0.12,-0.7588888888888888,-0.11666666666666667,-0.21086904255387257,-0.055064536660173,0.0037506541710435326
1592299738.324365,-4.53,8.43,0.66,-0.10222222222222223,-0.7533333333333333,-0.11,-0.23343778745424157,-0.08508480103472357,0.09381144729469522
1592299738.334365,-4.301708659750159,8.549397628625872,0.7162979038746559,-0.10222222222222223,-0.7533333333333333,-0.11,-0.24462567407704902,-0.11729358347824227,0.15084529109322525
1592299738.344365,-4.382750889166586,9.158235845429202,0.5096654811112179,-0.10222222222222223,-0.7533333333333333,-0.11,-0.2697680990784828,-0.16040410804730226,0.17259752106909282
1592299738.3543649,-4.0438427962725605,8.831741781272733,0.8843239685453979,-0.10222222222222223,-0.7533333333333333,-0.11,-0.3193350716931241,-0.1890020490241697,0.17196794055072354
1592299738.3643649,-3.658804690477015,8.846271521114074,0.7535563099733259,-0.10222222222222223,-0.7533333333333333,-0.11,-0.3534114697764147,-0.20960638274895008,0.15057113245191314
1592299738.3743649,-3.93,9.05,1.26,-0.11,-0.7388888888888889,-0.15222222222222223,-0.4319689898685966,-0.18435040224190105,0.17016960206944715
1592299738.3843648,-3.760339287138187,9.07678853360976,0.8492424846503469,-0.11,-0.7388888888888889,-0.15222222222222223,-0.46703509836395707,-0.14343994233064714,0.20036541771822983
1592299738.3943648,-3.8720857142857144,8.937545714285715,1.1830671428571429,-0.11,-0.7388888888888889,-0.15222222222222223,-0.5237125336656163,-0.10498747616027819,0.23254096871806054
1592299738.4043648,-4.044403274225076,9.220811225914549,1.5116107581681095,-0.11,-0.7388888888888889,-0.15222222222222223,-0.5347244842314407,-0.07251812428103559,0.3004992066617216
1592299738.4143648,-3.993160430047473,9.045121474448479,1.343241413013125,-0.11,-0.7388888888888889,-0.15222222222222223,-0.5467024710482121,-0.07730931900774414,0.3452170241110014
1592299738.4243648,-3.85,8.69,1.63,-0.1288888888888889,-0.7388888888888889,-0.16,-0.5715953300281429,-0.10144726277217041,0.40797071265367457
1592299738.4343648,-3.928906285977435,8.681232634891396,1.2968401258730524,-0.1288888888888889,-0.7388888888888889,-0.16,-0.5400350812800363,-0.11292371686239101,0.46057112723385224
1592299738.4443648,-3.9612212863705976,8.595915007656966,1.0337098009188361,-0.1288888888888889,-0.7388888888888889,-0.16,-0.4905869452522049,-0.08222199666488697,0.5587154249121502
1592299738.4543648,-4.28,8.35,1.48,-0.1288888888888889,-0.7388888888888889,-0.16,-0.4319689898685966,-0.07526732399225547,0.605411084285533
1592299738.4643648,-3.934950906678461,8.905912428129147,1.9081164676396873,-0.1288888888888889,-0.7388888888888889,-0.16,-0.41036140589360315,-0.08990471958821875,0.5845005191484427
1592299738.4743648,-3.42,9.28,1.8,-0.14222222222222222,-0.7322222222222222,-0.19555555555555557,-0.3621558197888234,-0.12762720155208535,0.47342055960346185
1592299738.4843647,-3.518623307099197,9.041660341176941,1.4137253805281451,-0.14222222222222222,-0.7322222222222222,-0.19555555555555557,-0.3262953733703549,-0.1079039560219277,0.4276984904199146
1592299738.4943647,-3.3620642945721646,9.209419059429553,2.0615637222169223,-0.14222222222222222,-0.7322222222222222,-0.19555555555555557,-0.3116169158039236,-0.06806433410285563,0.3873433658211786
1592299738.5043647,-3.2514747064536063,9.040828816103117,1.6742554957181954,-0.14222222222222222,-0.7322222222222222,-0.19555555555555557,-0.30679155908062744,-0.07476633344783036,0.3400542610719524
1592299738.5143647,-3.273692239781054,8.752000882846296,1.8890249845501899,-0.14222222222222222,-0.7322222222222222,-0.19555555555555557,-0.3108308206247476,-0.08365270884489467,0.3028930548660471
1592299738.5243647,-3.47,8.58,2.17,-0.14666666666666667,-0.7022222222222222,-0.20222222222222222,-0.3021601267515183,-0.09053895494720585,0.24870941840919195
1592299738.5343647,-3.5857378079930835,8.91067945140881,2.136932054859119,-0.14666666666666667,-0.7022222222222222,-0.20222222222222222,-0.24805282804115256,-0.10136041468927899,0.19189675476330792
1592299738.5443647,-3.5307555896379017,8.673022358551608,2.2069776414483933,-0.14666666666666667,-0.7022222222222222,-0.20222222222222222,-0.1899531406440119,-0.12225546968319892,0.10637128060976406
1592299738.5543647,-3.56,8.79,2.09,-0.14666666666666667,-0.7022222222222222,-0.20222222222222222,-0.1112647398146385,-0.12544553998709243,0.04363323129985824
1592299738.5643647,-3.498676621285317,8.765470648514126,2.0654706485141268,-0.14666666666666667,-0.7022222222222222,-0.20222222222222222,-0.07112868230143997,-0.1107289855655863,0.02757880829457882
1592299738.5743647,-3.67,8.83,1.82,-0.14666666666666667,-0.6877777777777778,-0.20444444444444446,0.02399827721492203,-0.07744898555724837,0.02399827721492203
1592299738.5843647,-3.574221314604168,8.890950072524621,1.654564088861745,-0.14666666666666667,-0.6877777777777778,-0.20444444444444446,0.05344217256438864,-0.0698505609509344,0.0420445356549177
1592299738.5943646,-3.25,8.51,1.76,-0.14666666666666667,-0.6877777777777778,-0.20444444444444446,0.08290313946973066,-0.05890486225480862,0.07308566242726255
1592299738.6043646,-3.512110425565575,8.927738490745135,1.5224624268311975,-0.14666666666666667,-0.6877777777777778,-0.20444444444444446,0.09005109248523505,-0.0490764268584901,0.0891685567121474
1592299738.6143646,-3.362973625373459,8.79818602718585,1.965384539284937,-0.14666666666666667,-0.6877777777777778,-0.20444444444444446,0.1021147844761543,-0.03158149471022544,0.12578868948177815
1592299738.6243646,-3.3598791669196673,8.615181249620498,2.122530208270083,-0.1816062501265003,-0.6877777777777778,-0.223855324144352,0.1639331749796818,0.006216258410837023,0.20890687828003573
1592299738.6343646,-3.3080009847365828,8.750569037068297,1.827718928043891,-0.18666666666666668,-0.6877777777777778,-0.22666666666666666,0.2593046792064724,0.03796048155848573,0.30041350848235115
1592299738.6443646,-3.4390174122689525,8.750140369675863,1.780070184837932,-0.18666666666666668,-0.6877777777777778,-0.22666666666666666,0.40592288460016934,0.0512001429738208,0.3942912329447756
1592299738.6543646,-3.4625708602685235,8.62209845847837,1.290964694181999,-0.18666666666666668,-0.6877777777777778,-0.22666666666666666,0.4963361425161149,0.0652209406393878,0.45643321618454513
1592299738.6643646,-3.47,9.143132530120482,1.1025301204819278,-0.18666666666666668,-0.6877777777777778,-0.22666666666666666,0.5759717956976769,0.07280966909675139,0.535873907536271
1592299738.6743646,-3.68,9.16,1.03,-0.18666666666666668,-0.6877777777777778,-0.22,0.631591023065448,0.061086523819801536,0.5901394533305827
1592299738.6843646,-3.301013607944097,9.531090842221406,1.0931643986759838,-0.18666666666666668,-0.6877777777777778,-0.22,0.5945563752073657,0.006826458353308834,0.5298504917011464
1592299738.6943645,-3.3358154109864206,9.465081286659347,0.6540482631170152,-0.18666666666666668,-0.6877777777777778,-0.22,0.506376580153363,-0.051023078853883824,0.4280649977390234
1592299738.7043645,-3.0577992875948583,9.62797661452687,0.7811003562025708,-0.18666666666666668,-0.6877777777777778,-0.22,0.42334083429256414,-0.01351425644435423,0.43348630389569764
1592299738.7143645,-2.40872267920094,9.363904582843713,0.9050606345475911,-0.18666666666666668,-0.6877777777777778,-0.22,0.2587006080105836,-0.007416239316439183,0.4005280165248373
1592299738.7243645,-2.7212032952586838,9.27,1.1216014723496244,-0.2048001324335641,-0.6760443587521383,-0.2135999532587421,0.11789621087413173,0.061348850921011264,0.4324056281024129
1592299738.7343645,-2.8490343119915105,9.197310458672327,1.0573104586723263,-0.20555555555555555,-0.6755555555555556,-0.21333333333333335,0.07247887360264783,0.1145772760229482,0.4823866115581024
1592299738.7443645,-2.828188043040451,9.269355544047412,0.8263760860809023,-0.20555555555555555,-0.6755555555555556,-0.21333333333333335,-0.018281944800886858,0.19132873153221644,0.5758751100445145
1592299738.7543645,-2.5284975690738762,9.260988971896122,1.0888284121902052,-0.20555555555555555,-0.6755555555555556,-0.21333333333333335,-0.04404483138878314,0.20839265935318843,0.602150621733226
1592299738.7643645,-2.6310514067144406,9.069299062190373,1.0090654162538308,-0.20555555555555555,-0.6755555555555556,-0.21333333333333335,-0.06056022354203722,0.24883685249908477,0.6675228115882827
1592299738.7743645,-2.404008097165992,9.079123228744939,1.0287474696356276,-0.2264022435897436,-0.6623892262708052,-0.19358383940620782,-0.08264354272101154,0.3123989482245231,0.8229192092601604
1592299738.7843645,-2.592555229414491,8.997476330250933,1.1675394495817792,-0.22666666666666666,-0.6622222222222223,-0.19333333333333333,-0.055897331695674304,0.33007209132311094,0.9586968953348596
1592299738.7943645,-2.738437620146098,9.311094050365243,1.03321414840446,-0.22666666666666666,-0.6622222222222223,-0.19333333333333333,-0.017424040137367695,0.33361403944586476,1.111943846891267
1592299738.8043644,-2.1208759521218714,9.551847893673248,1.3281423907974506,-0.22666666666666666,-0.6622222222222223,-0.19333333333333333,0.005426853468524263,0.27217016514369835,1.144954463739145
1592299738.8143644,-1.2919794730208272,9.545583698457476,1.7946701878638738,-0.22666666666666666,-0.6622222222222223,-0.19333333333333333,0.03350567835642962,0.16422813926109298,1.0855648608929394
1592299738.8243644,-1.4275566337269452,9.532848631871856,1.4919785237772465,-0.26777115812255475,-0.6504780818062541,-0.18746126312534933,0.08577908636134479,0.15138755149348224,0.9964043589663145
1592299738.8343644,-1.7480887888548255,9.49012301602701,1.136972719158679,-0.2733333333333333,-0.6488888888888888,-0.18666666666666668,0.09707052067528436,0.20522476936113093,1.0118265513748115
1592299738.8443644,-1.6193353003852144,9.363111766795072,1.2858967844165778,-0.2733333333333333,-0.6488888888888888,-0.18666666666666668,0.08594434100217876,0.26348282492839187,1.0830292994966493
1592299738.8543644,-1.5092694977061523,8.969823550170569,1.2504281849194212,-0.2733333333333333,-0.6488888888888888,-0.18666666666666668,0.08785172071040537,0.24892922703528492,1.1342304751509613
1592299738.8643644,-1.7351328926735348,9.191872407153774,1.2767395144802398,-0.2733333333333333,-0.6488888888888888,-0.18666666666666668,0.11320478124620523,0.24732928871077944,1.1840024203707182
1592299738.8743644,-1.73667055393586,9.660353093618399,0.9011292517006804,-0.31139740128855775,-0.6241986826476622,-0.2041555627542022,0.15348247064526307,0.23852875514118127,1.2655626509192597
1592299738.8843644,-1.2612118150019431,9.768131364166344,1.1945456665371161,-0.31444444444444447,-0.6222222222222222,-0.20555555555555555,0.166478413849127,0.1814194463415081,1.2478718354630784
1592299738.8943644,-0.8390233648637723,9.76878001455251,0.9490201309725927,-0.31444444444444447,-0.6222222222222222,-0.20555555555555555,0.1929974122987363,0.10581023313935164,1.1646607744414055
1592299738.9043643,-0.3906979259746979,10.008995202934676,0.8098977096364577,-0.31444444444444447,-0.6222222222222222,-0.20555555555555555,0.20384227552674403,0.11706084606595962,1.0996224025224075
1592299738.9143643,-0.3128560066807174,9.935696106891479,0.8714399331928262,-0.31444444444444447,-0.6222222222222222,-0.20555555555555555,0.2004004544157602,0.1464872046715267,1.0612178087704904
1592299738.9243643,-0.015064470789538043,10.159655340992423,0.8915732705939868,-0.35189657513783645,-0.6184770091528831,-0.20555555555555555,0.19025828016569243,0.1855752537582162,1.0024993200191694
1592299738.9343643,-0.1793959893694129,10.068306756865589,1.0042687444632359,-0.35888888888888887,-0.6177777777777778,-0.20555555555555555,0.1837278108143781,0.19239116130413242,0.9498707947481941
1592299738.9443643,-0.4165889772415684,9.790748560460653,1.022944886207842,-0.35888888888888887,-0.6177777777777778,-0.20555555555555555,0.1778054175469223,0.192465381666061,0.850083800681955
1592299738.9543643,-0.4826236564253781,9.977870969276134,0.8850991629411205,-0.35888888888888887,-0.6177777777777778,-0.20555555555555555,0.16196139355367253,0.19462688838491787,0.803218715077921
1592299738.9643643,-0.5249660466489519,10.036241511662237,1.065969884853853,-0.35888888888888887,-0.6177777777777778,-0.20555555555555555,0.15748962015693813,0.183003530576002,0.7673010649329493
1592299738.9743643,-0.5071450869912818,10.22070202154795,1.0092979784520502,-0.4081712584019661,-0.5958745024386324,-0.21194401086280631,0.16424746277272026,0.14874439313231463,0.6859811075184862
1592299738.9843643,-0.2493459940652819,10.300283679525222,0.9431442136498517,-0.41888888888888887,-0.5911111111111111,-0.21333333333333335,0.1716653026272393,0.11897448578194224,0.6099437613221663
1592299738.9943643,0.0832207468879668,10.063610788381743,0.9022597510373445,-0.41888888888888887,-0.5911111111111111,-0.21333333333333335,0.19324986144492545,0.0700285299496121,0.4177430175334484
1592299739.0043643,0.2556516255605381,9.9405591367713,0.6870193385650224,-0.41888888888888887,-0.5911111111111111,-0.21333333333333335,0.20260316855563032,0.09361486540199757,0.3099723461980239
1592299739.0143642,0.24646979865771812,9.735953020134229,0.6166174496644296,-0.41888888888888887,-0.5911111111111111,-0.21333333333333335,0.18938725847248872,0.14816117590608574,0.2507461239373162
1592299739.0243642,-0.0005408767772512313,9.731258293838863,0.6252097156398104,-0.4298736835176409,-0.5835062532912059,-0.20065857030015796,0.15396365645493906,0.2301592851978202,0.2237900741834333
1592299739.0343642,-0.13175216575511997,9.887136811848777,0.63,-0.43333333333333335,-0.5811111111111111,-0.19666666666666666,0.13121201927671808,0.2756538837257953,0.23847706073816208
1592299739.0443642,0.0006286644037366007,9.832912447050242,0.5862493337447752,-0.43333333333333335,-0.5811111111111111,-0.19666666666666666,0.0639493005293173,0.3387941027875937,0.2802755158706102
1592299739.0543642,0.15468005074673374,9.643759932337687,0.6418667230519264,-0.43333333333333335,-0.5811111111111111,-0.19666666666666666,0.027614001656874936,0.3564616923302084,0.30038572098001276
1592299739.0643642,0.08199472741938658,9.702240256546458,0.6008198075901553,-0.43333333333333335,-0.5811111111111111,-0.19666666666666666,0.012717431438131626,0.3755288999951001,0.32224509226060544
1592299739.0743642,-0.024041950113378688,9.701916099773243,0.5976587301587302,-0.4416546989166037,-0.5818675988914084,-0.20044910556815318,0.004665094911084616,0.3772419353045737,0.362016064824626
1592299739.0843642,0.010384435797665369,9.821153307392997,0.5912088938299055,-0.44555555555555554,-0.5822222222222222,-0.20222222222222222,0.007983426078358776,0.3298805684141517,0.38231218977508497
1592299739.0943642,0.18592559787422497,9.419648234847527,0.6097001138808047,-0.44555555555555554,-0.5822222222222222,-0.20222222222222222,0.01143736696570971,0.2555623423014059,0.3688643669888329
1592299739.1043642,0.03834109183241638,9.357095029858467,0.44074763718437016,-0.44555555555555554,-0.5822222222222222,-0.20222222222222222,0.026664188247049428,0.20954824965996618,0.3844295000507253
1592299739.1143641,0.03901175192176118,9.415095182517003,0.39882138688775304,-0.44555555555555554,-0.5822222222222222,-0.20222222222222222,0.05079631099973767,0.19113175482567765,0.4497792707777969
1592299739.1243641,2.0038924080853096,11.040700620722584,0.19374852777335666,-0.4695834969140715,-0.5722796257980087,-0.2113362689444179,0.08007274349412558,0.16429213706132856,0.5689252512807023
1592299739.1343641,2.2459521700620018,10.784906997342782,0.5931975199291408,-0.4777777777777778,-0.5688888888888889,-0.21444444444444444,0.08653408905398369,0.14202442873541546,0.5081609596171399
1592299739.144364,-0.3286041480760391,9.276648549255023,0.7674384143208673,-0.4777777777777778,-0.5688888888888889,-0.21444444444444444,0.03956712054824061,0.19399328618516698,0.012040640971133554
1592299739.154364,-0.2709861156118354,9.46056335219483,0.40753520951217687,-0.4777777777777778,-0.5688888888888889,-0.21444444444444444,0.053619701869090944,0.309611558463106,0.03213337815312958
1592299739.164364,-0.09316748423265593,9.557652417659424,0.47068675543097405,-0.4777777777777778,-0.5688888888888889,-0.21444444444444444,0.036322295347653535,0.31899729480706623,0.06466096302018935
1592299739.174364,-0.15844510308438917,9.916452463928605,0.500204865974009,-0.4754903791522363,-0.5696513550974027,-0.22816883619769332,-0.035034558608546075,0.2540802935751618,0.022757125452692567
1592299739.184364,-0.12717452188525247,9.939129391053852,0.4836960870608946,-0.47444444444444445,-0.57,-0.23444444444444446,-0.04517472698833447,0.22416550758449277,0.02617993877991494
1592299739.194364,-0.03144313205043131,9.692455739880558,0.48265826144658264,-0.47444444444444445,-0.57,-0.23444444444444446,-0.05080234202927609,0.14314740005229737,0.017364925816607417
1592299739.204364,0.06659230427046264,9.722515346975088,0.4368153914590747,-0.47444444444444445,-0.57,-0.23444444444444446,-0.04150023980936906,0.09338435889913727,0.014528187075118168
1592299739.214364,0.059667578739011476,9.83232694882692,0.4248337893695057,-0.47444444444444445,-0.57,-0.23444444444444446,-0.03194380810988777,0.059906531576128796,0.015271630954950384
1592299739.224364,0.02149312179937745,9.84868761923888,0.42,-0.4928155437292901,-0.5744344032756523,-0.2249421517109036,-0.02695487881266546,0.020928090767148595,0.017759325375279685
1592299739.234364,-0.020770383764364398,9.823846922509576,0.4684642287835169,-0.5066666666666667,-0.5777777777777777,-0.21777777777777776,-0.03817962240049562,-0.022489447322652123,0.017369256687492875
1592299739.244364,-0.06841377027474346,9.71475868917577,0.5220114752289529,-0.5066666666666667,-0.5777777777777777,-0.21777777777777776,-0.04463754667173366,-0.06354024914963555,0.017759225840361423
1592299739.254364,-0.09,9.710155315205405,0.5821087206437838,-0.5066666666666667,-0.5777777777777777,-0.21777777777777776,-0.04253392938700948,-0.10128500607599633,0.017887930606871418
1592299739.264364,-0.11151121453041174,9.755377803632603,0.7175560726520587,-0.5066666666666667,-0.5777777777777777,-0.21777777777777776,-0.03390783783323787,-0.12912049255735278,0.021559684141208475
1592299739.274364,-0.1232498764618679,9.72624938230934,0.8842513589194532,-0.49691648822269807,-0.5837778875894507,-0.22677794249528724,-0.025416303328488498,-0.14366246795846216,0.030979702030257197
1592299739.284364,-0.1232911036036036,9.71,0.9167088963963964,-0.4922222222222222,-0.5866666666666667,-0.2311111111111111,-0.018972225248047876,-0.1418494606647524,0.03955981364810345
1592299739.294364,-0.12358718554057828,9.703587185540577,0.8651102987840479,-0.4922222222222222,-0.5866666666666667,-0.2311111111111111,0.006663003652534643,-0.12686866253182982,0.06386057852392948
1592299739.304364,0.05304297884560161,9.866387479659231,0.8133780032545228,-0.4922222222222222,-0.5866666666666667,-0.2311111111111111,0.031243682402768216,-0.12217304763960307,0.0774380219091042
1592299739.314364,0.07331052699158061,9.893570445915952,0.7538303648403251,-0.4922222222222222,-0.5866666666666667,-0.2311111111111111,0.049902151789064396,-0.12049427233130959,0.07064882605497692
1592299739.324364,-0.07525878515600962,9.802107206597329,0.6768438057726629,-0.4922222222222222,-0.5703517139516278,-0.234268843894667,0.06464583840362643,-0.11218367865187173,0.02698545780011157
1592299739.334364,-0.08479245283018869,9.766086253369272,0.5608787061994609,-0.4922222222222222,-0.5522222222222222,-0.23777777777777778,0.07778005711010309,-0.09409723907921988,-0.007588771562327097
1592299739.344364,-0.07439161966156327,9.757316680096697,0.47829170024174056,-0.4922222222222222,-0.5522222222222222,-0.23777777777777778,0.07736899715982115,-0.09072530154340991,-0.004070618335004906
1592299739.354364,-0.09634093289293483,9.757318134214131,0.4612196890356884,-0.4922222222222222,-0.5522222222222222,-0.23777777777777778,0.07364430347167807,-0.09205537933959759,-0.002873350043928673
1592299739.364364,-0.1340889878652911,9.837466709085124,0.48831113939008314,-0.4922222222222222,-0.5522222222222222,-0.23777777777777778,0.06631765804064811,-0.08526902714878787,0.0014980765881964576
1592299739.374364,-0.23160399056124734,9.788985035395322,0.5640099764031183,-0.4970231090136105,-0.5636243283517695,-0.22157478485684226,0.05392915032715797,-0.07701156498748778,0.0032724923474893677
1592299739.384364,-0.25113020728516805,9.715479170859329,0.6190416582813443,-0.5011111111111111,-0.5733333333333334,-0.20777777777777778,0.046659150667895,-0.07211811813449238,0.0033957788372156726
1592299739.3943639,-0.19786009729195392,9.721426601805364,0.6330384225176243,-0.5011111111111111,-0.5733333333333334,-0.20777777777777778,0.043594326770766835,-0.07139105945988077,0.004363323129985824
1592299739.4043639,-0.17231735658896893,9.840793391472422,0.7092694263558756,-0.5011111111111111,-0.5733333333333334,-0.20777777777777778,0.04606767725497798,-0.061587524358668724,0.004363323129985824
1592299739.4143639,-0.2820378664858402,9.88265404450472,0.84734595549528,-0.5011111111111111,-0.5733333333333334,-0.20777777777777778,0.05164422607214306,-0.03792207353610629,-0.0003242184463188311
1592299739.4243639,-0.44240232751454694,9.801706340210082,0.854652006347767,-0.5040567772487972,-0.5713695559082093,-0.21399640629067063,0.061094849513826474,0.0005324322545261564,-0.012455650424393335
1592299739.4343638,-0.5032399539104133,9.63178645158193,0.7029598156416534,-0.5111111111111111,-0.5666666666666667,-0.2288888888888889,0.09245886740033946,0.03176208685593946,-0.025217102160960726
1592299739.4443638,-0.44404998171400706,9.690618798000731,0.4317374131415336,-0.5111111111111111,-0.5666666666666667,-0.2288888888888889,0.12131197882541056,0.012048899533806275,-0.02179411551968428
1592299739.4543638,-0.4041556674702246,9.844287657827529,0.31091032770842786,-0.5111111111111111,-0.5666666666666667,-0.2288888888888889,0.1307154891167463,-0.03068575700197426,-0.014081498823802675
1592299739.4643638,-0.42600289721937606,9.894333816203229,0.4050072430484401,-0.5111111111111111,-0.5666666666666667,-0.2288888888888889,0.11326275269650257,-0.07948846873985675,-0.009017323776898767
1592299739.4743638,-0.45618898671609515,9.869511893728761,0.516677092987334,-0.5140752325541482,-0.572171463632307,-0.2288888888888889,0.08996691748866778,-0.12030402687116903,-0.006129267634720104
1592299739.4843638,-0.4390981495423386,9.805464199389785,0.5648452668700717,-0.5188888888888888,-0.5811111111111111,-0.2288888888888889,0.08766286506856281,-0.12184416023523584,-0.0053220197562001675
1592299739.4943638,-0.4077551710806109,9.709551034216123,0.5808979315677557,-0.5188888888888888,-0.5811111111111111,-0.2288888888888889,0.09574823601101734,-0.08904293735849116,-0.005405179342748121
1592299739.5043638,-0.46,9.763146496815287,0.5216475583864119,-0.5188888888888888,-0.5811111111111111,-0.2288888888888889,0.1082456166552704,-0.06367255705066256,-0.0034072829027787387
1592299739.5143638,-0.46,9.813506466011539,0.4484418058961557,-0.5188888888888888,-0.5811111111111111,-0.2288888888888889,0.11371558241304258,-0.050773235598111886,-0.0011474883189490513
1592299739.5243638,-0.4463460662211422,9.810247190157959,0.39390112393681653,-0.5108699119076549,-0.5782936327122992,-0.2288888888888889,0.1082589492976661,-0.04709153268783512,-0.003485265651320029
1592299739.5343637,-0.3948535329901732,9.774853532990173,0.4245605989705194,-0.4777777777777778,-0.5666666666666667,-0.2288888888888889,0.09823867871385676,-0.05659538411146423,-0.003304446492077238
1592299739.5443637,-0.41868483911760573,9.794013629338204,0.3699318533089785,-0.4777777777777778,-0.5666666666666667,-0.2288888888888889,0.09242625926647943,-0.06567247329678415,-0.0037103113906537806
1592299739.5543637,-0.43541625857002936,9.832918707149853,0.30375122428991186,-0.4777777777777778,-0.5666666666666667,-0.2288888888888889,0.08085716400598852,-0.07540407848800429,-0.00545415391248228
1592299739.5643637,-0.3962846645087919,9.836399265156153,0.3436007348438457,-0.4777777777777778,-0.5666666666666667,-0.2288888888888889,0.06721372729128543,-0.0810892551626978,-0.00582193117044233
1592299739.5743637,-0.3471770500634933,9.791561550005772,0.39312310001154427,-0.4788188111149592,-0.5657991388856821,-0.22784785555170747,0.05713267674643067,-0.08130129264282307,-0.006885662057919484
1592299739.5843637,-0.3722905859533583,9.818055843745771,0.38743019531778605,-0.48444444444444446,-0.5611111111111111,-0.2222222222222222,0.054435501850418,-0.07558543581546984,-0.011188630030200803
1592299739.5943637,-0.33861998896191864,9.84,0.34232000401384777,-0.48444444444444446,-0.5611111111111111,-0.2222222222222222,0.054185928618111105,-0.060905448427503624,-0.01852012404007837
1592299739.6043637,-0.4494308720545633,9.822025137434704,0.34696229384794364,-0.48444444444444446,-0.5611111111111111,-0.2222222222222222,0.04941874755022471,-0.042003840298005655,-0.02497865388479042
1592299739.6143637,-0.51632199417655,9.784195014558625,0.4021269796179249,-0.48444444444444446,-0.5611111111111111,-0.2222222222222222,0.04443564769394234,-0.034273359358747035,-0.023076637145370126
1592299739.6243637,-0.5271609853197313,9.751419507340135,0.4585170440408062,-0.48444444444444446,-0.5611111111111111,-0.220171822730917,0.041761258195384975,-0.031627171521719524,-0.015123707895368255
1592299739.6343637,-0.4951554168897995,9.7748445831102,0.4902072225197327,-0.48444444444444446,-0.5611111111111111,-0.20777777777777778,0.04471275984718715,-0.04681530576600724,-0.0070960512038107364
1592299739.6443636,-0.44839243498817966,9.799030732860519,0.4067848699763593,-0.48444444444444446,-0.5611111111111111,-0.20777777777777778,0.047785093143402665,-0.06006532053406016,-0.008022634903892375
1592299739.6543636,-0.38932632732818606,9.81,0.3093263273281861,-0.48444444444444446,-0.5611111111111111,-0.20777777777777778,0.050629245565590376,-0.06544984694978735,-0.012072624896235142
1592299739.6643636,-0.3660216473531507,9.794945881617124,0.3010757657360274,-0.48444444444444446,-0.5611111111111111,-0.20777777777777778,0.049626897203794665,-0.05953810848504779,-0.01691378052848915
1592299739.6743636,-0.3889728153161575,9.767690984556706,0.34102718468384247,-0.48615355212371253,-0.5623929418705622,-0.20777777777777778,0.04560515379729715,-0.04455645845952712,-0.02086561091246867
1592299739.6843636,-0.52,9.860267394652107,0.22183956320873582,-0.5111111111111111,-0.5811111111111111,-0.20777777777777778,0.03307142985113398,-0.02402744544668135,-0.019893955765898547
1592299739.6943636,-0.46909266692774626,9.826084051302134,0.21258835911494028,-0.5111111111111111,-0.5811111111111111,-0.20777777777777778,0.011709503490745683,-0.016026983746892993,-0.01185432104910335
1592299739.7043636,-0.39,9.81208248378128,0.20562882298424467,-0.5111111111111111,-0.5811111111111111,-0.20777777777777778,-0.005818505547340226,-0.005271978095053307,-0.006976818215593528
1592299739.7143636,-0.4075853280141844,9.797069111997637,0.2775853280141844,-0.5111111111111111,-0.5811111111111111,-0.20777777777777778,-0.019879274875777935,0.0,-0.0089146566186865
1592299739.7243636,-0.4583436327103158,9.78860939454828,0.33529665996891234,-0.5131197634302612,-0.579102458791961,-0.20669619575977388,-0.029271749484733534,-0.0027304474194770447,-0.012757596223982415
1592299739.7343636,-0.51,9.78,0.43,-0.5255555555555556,-0.5666666666666667,-0.2,-0.03490658503988659,-0.019634954084936207,-0.017453292519943295
1592299739.7443635,-0.5637859839243984,9.787571967848796,0.37135795177319536,-0.5255555555555556,-0.5666666666666667,-0.2,-0.03313791025557074,-0.029982145569688996,-0.01399000773107894
1592299739.7543635,-0.5315643617540776,9.76737425529837,0.337374255298369,-0.5255555555555556,-0.5666666666666667,-0.2,-0.030427482990779953,-0.03559521258851062,-0.006313426856737105
1592299739.7643635,-0.4886903339191564,9.78282741652021,0.3471725834797891,-0.5255555555555556,-0.5666666666666667,-0.2,-0.03021214013001889,-0.032439198659738544,-0.0009479683749188885
1592299739.7743635,-0.45876424955384787,9.790411916815383,0.34288341770768843,-0.5252809443452995,-0.5672616576222214,-0.20032037974529873,-0.03522111711932078,-0.026135005625710056,0.0020917952565831445
1592299739.7843635,-0.43,9.792352667531768,0.42911833117058,-0.5188888888888888,-0.5811111111111111,-0.20777777777777778,-0.04546208149847801,-0.02342071886535207,0.0
1592299739.7943635,-0.4224657472507662,9.78,0.43739724175229855,-0.5188888888888888,-0.5811111111111111,-0.20777777777777778,-0.05100007547703425,-0.017849276679742183,-0.0004109297410986401
1592299739.8043635,-0.40301071585849196,9.766021431716984,0.4384410627782943,-0.5188888888888888,-0.5811111111111111,-0.20777777777777778,-0.05045384598753706,-0.010802731503206082,-0.0026156560403307154
1592299739.8143635,-0.40627785336891026,9.748138926684454,0.5154259511229701,-0.5188888888888888,-0.5811111111111111,-0.20777777777777778,-0.04365038666725627,-0.0024018285384988488,-0.0060460333634079775
1592299739.8243635,-0.4508735337849001,9.769417644143399,0.53,-0.5186624171668777,-0.5806905207702333,-0.20755130605576666,-0.03471600953146267,0.008980746937870212,-0.0076675780622125125
1592299739.8343635,-0.48,9.75,0.53,-0.5111111111111111,-0.5666666666666667,-0.2,-0.028361600344907853,0.017453292519943295,-0.008726646259971648
1592299739.8443635,-0.49,9.752959946416611,0.4535732083054253,-0.5111111111111111,-0.5666666666666667,-0.2,-0.0186779162916499,0.023742293642949185,-0.003662268908672361
1592299739.8543634,-0.49639283154121866,9.73319641577061,0.4223749103942652,-0.5111111111111111,-0.5666666666666667,-0.2,-0.011650463735837238,0.022210096689178022,0.0025303364366166896
