time,acc_x,acc_y,acc_z,mag_x,mag_y,mag_z,gyr_x,gyr_y,gyr_z
1592170642.8742745,0.0781298759611607,8.227913416025894,5.11812987596116,-0.3511111111111111,-0.4622222222222222,-0.5811111111111111,-0.036154190477134834,0.0012948296693617077,-0.01024908693225534
1592170642.8842745,0.055248866548393456,8.228122166370984,5.111877833629016,-0.3511111111111111,-0.4622222222222222,-0.5811111111111111,-0.04576059860650691,0.004309028871641579,-0.01090830782496456
1592170642.8942745,0.03505173189383716,8.187525865946919,5.172267206477733,-0.3511111111111111,-0.4622222222222222,-0.5811111111111111,-0.04827772673680334,0.008445473953012372,-0.009828763190914986
1592170642.9042745,0.02721200442089155,8.189616005894521,5.261636013262675,-0.3511111111111111,-0.4574142192749612,-0.5771044419883936,-0.04476594934140995,0.01117054370582486,-0.006544984694978735
1592170642.9142745,0.06240935544687014,8.203454192737507,5.33,-0.3511111111111111,-0.44222222222222224,-0.5644444444444444,-0.04145156973486533,0.007938186533745213,-0.0056425509008196685
1592170642.9242744,0.09395052647351287,8.174419789410594,5.302098947052975,-0.3511111111111111,-0.44222222222222224,-0.5644444444444444,-0.040842863186491746,-0.0008618711768750005,-0.004972029678359406
1592170642.9342744,0.1225169929031643,8.162993202838734,5.244966014193672,-0.3511111111111111,-0.44222222222222224,-0.5644444444444444,-0.039596415949347125,-0.007094107362598081,-0.006218476915504022
1592170642.9442744,0.13617016935319323,8.17205672311773,5.205886553764538,-0.3511111111111111,-0.44222222222222224,-0.5644444444444444,-0.025700293740886202,-0.02361144516024363,-0.023723622004638286
1592170642.9542744,0.18285043868598247,8.187616812895326,5.174766374209345,-0.3511111111111111,-0.44222222222222224,-0.5644444444444444,-0.013818896305418785,-0.037190185086492106,-0.0381510331762773
1592170642.9642744,0.19,8.259469963677004,5.100530036322995,-0.3731650678339698,-0.4278871503523641,-0.6085523578901618,-0.004421141123682269,-0.04143505030809492,-0.059847018196371365
1592170642.9742744,0.5294779411764706,8.32047935520362,4.930740384615385,-0.37333333333333335,-0.42777777777777776,-0.6088888888888889,-0.019501901110815525,-0.04030844941118303,-0.06454435868259743
1592170642.9842744,1.091749390496343,8.35,4.7348452090712545,-0.37333333333333335,-0.42777777777777776,-0.6088888888888889,-0.065662654040664,-0.015947033794657926,0.024906859623435
1592170642.9942744,1.141184340718434,8.320592170359216,4.779910625941063,-0.37333333333333335,-0.42777777777777776,-0.6088888888888889,-0.10933781269555165,0.0237301449549311,0.09721313117344776
1592170643.0042744,1.0148771778877177,8.25743858894386,4.865619057861906,-0.37333333333333335,-0.42777777777777776,-0.6088888888888889,-0.1403382544802976,0.060635432793914375,0.08343515704689403
1592170643.0142744,0.6341019801980199,8.168665346534654,5.005780198019802,-0.36835786578657864,-0.43504961496149613,-0.6065925192519253,-0.19405976823354948,0.1326949205596397,0.04828665061615946
1592170643.0242743,0.1502729754322111,8.205523202911738,5.139954504094631,-0.35888888888888887,-0.4488888888888889,-0.6022222222222222,-0.2580087756441413,0.21543163529294201,0.027389877564139853
1592170643.0342743,0.15304868240526093,8.26304868240526,5.205935090126319,-0.35888888888888887,-0.4488888888888889,-0.6022222222222222,-0.2696757723116157,0.2143205354554393,0.06587555840954101
1592170643.0442743,0.08295474426492903,8.118979559046684,5.406246719628671,-0.35888888888888887,-0.4488888888888889,-0.6022222222222222,-0.30479961982050996,0.2091297777820205,0.08078342439619755
1592170643.0542743,0.06126610601033872,7.954715685518092,5.646201681968984,-0.35888888888888887,-0.45180018688544266,-0.6007665732239453,-0.35636341659659004,0.19448214223798707,0.07623409917924233
1592170643.0642743,0.03,7.9,5.74,-0.35888888888888887,-0.4622222222222222,-0.5955555555555555,-0.35124751196385884,0.17998707911191522,0.05235987755982988
1592170643.0742743,0.11502343300353551,7.968779291254419,5.709953133992929,-0.35888888888888887,-0.4622222222222222,-0.5955555555555555,-0.26285443256342983,0.14178755257127296,0.04362811901154166
1592170643.0842743,0.2743869821378472,7.9462452071448615,5.727193491068923,-0.35888888888888887,-0.4622222222222222,-0.5955555555555555,-0.2124950197873728,0.10533204038633365,0.026451600836754748
1592170643.0942743,0.4968278716924704,7.88,5.82671407990955,-0.35888888888888887,-0.4622222222222222,-0.5955555555555555,-0.1781142047934291,0.07559783356519305,0.006894113404857016
1592170643.1042743,0.6038671228756204,7.898398631373139,5.845689953376448,-0.3563903093196972,-0.4540450527230494,-0.6046412994435253,-0.11866455588158262,0.04566994640728826,-0.0041644831678282505
1592170643.1142743,0.58,7.97,5.79,-0.3466666666666667,-0.4222222222222222,-0.64,-0.0370882466048795,0.019634954084936207,-0.007635815477475192
1592170643.1242743,0.6311127395404142,7.986612283272959,5.791112739540414,-0.3466666666666667,-0.4222222222222222,-0.64,-0.008426692680314408,0.01125465406406597,0.01693377316129118
1592170643.1342742,0.76,7.87,5.92,-0.3466666666666667,-0.4222222222222222,-0.64,-0.02181661564992912,0.015271630954950384,0.01090830782496456
1592170643.1442742,0.6973027742993704,7.775043827933473,5.957302774299371,-0.3466666666666667,-0.4222222222222222,-0.64,-0.010195561427335922,0.036310761048128117,-0.02841897097566685
1592170643.1542742,0.6307254096192173,7.789838797862396,5.8907254096192165,-0.3466666666666667,-0.4222222222222222,-0.64,0.04629026875868886,0.05002874837901985,-0.047785541325161066
1592170643.1642742,0.35,8.2,5.5,-0.3322222222222222,-0.42777777777777776,-0.6088888888888889,0.1810779098944117,0.06654067773228381,-0.05890486225480862
1592170643.1742742,0.1245651557270097,8.2,5.352825778635048,-0.3322222222222222,-0.42777777777777776,-0.6088888888888889,0.2515075692381112,0.06517706189905584,-0.06882902746140131
1592170643.1842742,0.14868873510736963,8.169049011914103,5.276131126489263,-0.3322222222222222,-0.42777777777777776,-0.6088888888888889,0.21620613195138821,0.027070377947591654,-0.061580070857155646
1592170643.1942742,0.2306161500191351,8.090548357115521,5.29650647859603,-0.3322222222222222,-0.42777777777777776,-0.6088888888888889,0.17901588129370108,-0.019784167283657225,-0.05922612984134344
1592170643.2042742,0.2847525189380011,8.025940648672501,5.355247481061999,-0.33301430871188903,-0.4294939651720559,-0.6098129897935002,0.16673513374564974,-0.06061134615379237,-0.061032531827698855
1592170643.2142742,0.32,8.07,5.32,-0.3388888888888889,-0.44222222222222224,-0.6166666666666667,0.18980455615438332,-0.08944812416470939,-0.06872233929727672
1592170643.2242742,0.458308881785646,8.198486736059886,5.211572548698194,-0.3388888888888889,-0.44222222222222224,-0.6166666666666667,0.23000669058186501,-0.11810106570377304,-0.0811778905876854
1592170643.2342741,0.744214800795381,8.243558611437196,5.112664047339546,-0.3388888888888889,-0.44222222222222224,-0.6166666666666667,0.21627724035068804,-0.1348509730213283,-0.09301121899659924
1592170643.2442741,0.8670703201553565,8.202845053359226,5.141464839922322,-0.3388888888888889,-0.44222222222222224,-0.6166666666666667,0.1792527520952816,-0.12889628421751323,-0.09708393964218458
1592170643.2542741,0.9048991560577886,8.207449578028895,5.119362394507224,-0.34016409987444174,-0.44264729255073987,-0.6170917369951843,0.15181213394131168,-0.11381971172824003,-0.09666662782301896
1592170643.2642741,0.8946145437154114,8.202307271857705,5.04179575941151,-0.35888888888888887,-0.4488888888888889,-0.6233333333333333,0.1381439341921514,-0.07708550779235494,-0.07722539866065614
1592170643.274274,1.0268465784203586,8.28021589410443,4.889676158843355,-0.35888888888888887,-0.4488888888888889,-0.6233333333333333,0.13523946663607334,-0.04861387311523477,-0.04058697191785902
1592170643.284274,1.1088056746948203,8.354861196210585,4.826513880378942,-0.35888888888888887,-0.4488888888888889,-0.6233333333333333,0.12253360739252042,-0.014291363946680189,-0.002722501194368952
1592170643.294274,1.1529376062594834,8.404312535419827,4.838302042010201,-0.35888888888888887,-0.4488888888888889,-0.6233333333333333,0.09435234589151123,0.02540382786377119,0.02985238180789916
1592170643.304274,1.0211641847313855,8.358835815268614,4.891746277097078,-0.35888888888888887,-0.447660027227982,-0.6221044716724264,0.0556665444739641,0.06656999959271435,0.05791824128203303
1592170643.314274,1.04,8.34,4.92,-0.35888888888888887,-0.42777777777777776,-0.6022222222222222,0.0032724923474893677,0.11999138607461016,0.09490227807719166
1592170643.324274,0.9720183215130024,8.283690898345153,4.939700059101654,-0.35888888888888887,-0.42777777777777776,-0.6022222222222222,-0.019550659684929462,0.175637617011376,0.09366171594171956
1592170643.334274,0.6133552006084807,8.296589655828104,4.880693097547062,-0.35888888888888887,-0.42777777777777776,-0.6022222222222222,-0.03664664578040053,0.2172517378827033,0.0688675344955554
1592170643.344274,0.25245773594863224,8.252479549652563,4.985024540416924,-0.35888888888888887,-0.42777777777777776,-0.6022222222222222,-0.0755479138014148,0.23316552591598738,0.04171966713766694
1592170643.354274,0.023724689946345356,8.141802269328878,5.117837276805348,-0.35888888888888887,-0.42777777777777776,-0.6022222222222222,-0.11820591225410526,0.23558012960198874,0.016768762382319696
1592170643.364274,0.14,8.07,5.14,-0.35888888888888887,-0.4488888888888889,-0.6311111111111111,-0.1854412330243975,0.19525871006686563,0.05890486225480862
1592170643.374274,0.11463716908910838,8.15405310634653,5.114495570009904,-0.35888888888888887,-0.4488888888888889,-0.6311111111111111,-0.18944158826291907,0.1267429509185801,0.08393218599847935
1592170643.384274,0.12680457385472704,8.264850312401999,5.077931392179094,-0.35888888888888887,-0.4488888888888889,-0.6311111111111111,-0.18167231043755766,0.08479383739006423,0.025720928302046378
1592170643.394274,0.161508078994614,8.168025134649909,5.216624775583483,-0.35888888888888887,-0.4488888888888889,-0.6311111111111111,-0.22241393381928187,0.054478870210927136,-0.0019916964197466713
1592170643.404274,0.288253372913593,8.100924684928097,5.32845885845317,-0.35888888888888887,-0.4488888888888889,-0.6311111111111111,-0.27202403827073107,0.027640616983093932,0.008580948791217919
1592170643.414274,0.5,8.11,5.57,-0.35888888888888887,-0.41555555555555557,-0.6377777777777778,-0.27270769562411395,0.00545415391248228,-0.019634954084936207
1592170643.424274,0.6402544896936098,8.12954528029253,5.57,-0.35888888888888887,-0.41555555555555557,-0.6377777777777778,-0.2376959873204723,0.025991533958674585,-0.070632314483544
1592170643.434274,0.5067513650223366,7.881250620464699,5.598749379535302,-0.35888888888888887,-0.41555555555555557,-0.6377777777777778,-0.23597382012270748,0.04569205934208156,-0.10046567750520183
1592170643.444274,0.35,7.801493610655515,5.708278752050178,-0.35888888888888887,-0.41555555555555557,-0.6377777777777778,-0.24912915321761106,0.05867288647118705,-0.0676617858863183
1592170643.454274,0.35,7.771255159237964,5.8443517834291585,-0.35888888888888887,-0.41555555555555557,-0.6377777777777778,-0.23511051392856339,0.05784826063065483,-0.01735960961385323
1592170643.464274,0.3,7.78,5.79,-0.35888888888888887,-0.42777777777777776,-0.6666666666666666,-0.16253378659197193,0.05235987755982988,0.0272707695624114
1592170643.474274,0.2652024281822093,7.992138999091822,5.707051288179342,-0.35888888888888887,-0.42777777777777776,-0.6666666666666666,-0.10326310679641502,0.040795746897417766,0.08852143158322143
1592170643.484274,0.2649292894871358,8.033883114670303,5.560744590219799,-0.35888888888888887,-0.42777777777777776,-0.6666666666666666,-0.07700997681499984,0.025708032261469126,0.13050900957433914
1592170643.494274,0.1515874886497556,7.96,5.61,-0.35888888888888887,-0.42777777777777776,-0.6666666666666666,-0.06120787007751709,0.017158778113626028,0.12525466936254748
1592170643.504274,0.1596906937655764,7.96,5.61,-0.35888888888888887,-0.42777777777777776,-0.6666666666666666,-0.06739532798157113,0.010087397651849966,0.10757621820810732
1592170643.514274,0.23799808697275102,7.972011478163494,5.674022956326988,-0.3655555555555556,-0.41555555555555557,-0.6755555555555556,-0.0741733630262426,-0.004799029406281126,0.09664510318237288
1592170643.5242739,0.22639138832618835,7.994739718283318,5.751956941630941,-0.3655555555555556,-0.41555555555555557,-0.6755555555555556,-0.057740596828312195,0.0005738077221159573,0.07731876625151293
1592170643.5342739,0.187673865519975,7.869695630239988,5.657978235279987,-0.3655555555555556,-0.41555555555555557,-0.6755555555555556,-0.042542400517361786,0.01533803413564671,0.026971955249277924
1592170643.5442739,0.12575770158579508,7.837712658678373,5.6059042195594575,-0.3655555555555556,-0.41555555555555557,-0.6755555555555556,-0.04109328701789518,0.02698500183517417,-0.022943703927292038
1592170643.5542738,0.3828528492901491,7.937233361015542,5.6390777870051805,-0.3655555555555556,-0.41555555555555557,-0.6755555555555556,-0.03295126859751633,0.03150834540205131,-0.02927638492092003
1592170643.5642738,0.4083733248099358,7.930130362320495,5.733514075021119,-0.36,-0.43,-0.68,-0.004230807648748783,0.029319915646167267,0.019104892159988042
1592170643.5742738,0.21303652681062873,7.798805651223007,5.73679152316549,-0.36,-0.43,-0.68,-0.013049110196264323,0.033335480486690945,0.03084468758579008
1592170643.5842738,-0.029654910883579827,7.860115029705473,5.682253065352041,-0.36,-0.43,-0.68,-0.03398623879530931,0.024805693310230623,-0.0041300996202507075
1592170643.5942738,0.09,7.9,5.77,-0.36,-0.43,-0.68,-0.017453292519943295,0.002181661564992912,0.001090830782496456
1592170643.6042738,0.05515152523202821,7.934848474767971,5.7164738365323835,-0.3606366684038751,-0.42833486725140363,-0.679804102029577,0.010394444190656575,-0.01461352553359528,0.01735713132857855
1592170643.6142738,-0.05,8.04,5.64,-0.37444444444444447,-0.39222222222222225,-0.6755555555555556,0.022907446432425576,-0.02399827721492203,0.015271630954950384
1592170643.6242738,0.01405718108168372,8.067971409459158,5.491170874315586,-0.37444444444444447,-0.39222222222222225,-0.6755555555555556,0.062002850864652626,-0.039064216990188534,0.016599340359169244
1592170643.6342738,0.03,8.06,5.26,-0.37444444444444447,-0.39222222222222225,-0.6755555555555556,0.074176493209759,-0.042542400517361786,0.02181661564992912
1592170643.6442738,0.06482262475722383,8.02295850013873,5.324437750208094,-0.37444444444444447,-0.39222222222222225,-0.6755555555555556,0.0578173174978966,-0.0632262020842354,-0.00815859620565168
1592170643.6542737,0.006635419556859173,8.056208331681795,5.374312497522692,-0.37444444444444447,-0.39222222222222225,-0.6755555555555556,0.033335108159898284,-0.07501393250623459,-0.026293566085650432
1592170643.6642737,0.39,8.15,5.5,-0.4066666666666667,-0.3977777777777778,-0.6888888888888889,0.017453292519943295,-0.10253809355466686,0.031634092692397225
1592170643.6742737,0.5635215928210882,8.235975322490185,5.448490745933819,-0.4066666666666667,-0.3977777777777778,-0.6888888888888889,0.008452256127638691,-0.11038669139117303,0.06008525984973216
1592170643.6842737,0.5976215769298223,8.127621576929823,5.424047302883772,-0.4066666666666667,-0.3977777777777778,-0.6888888888888889,-0.0007009379670454897,-0.08454010989411388,-0.007726114500484443
1592170643.6942737,0.47,8.0,5.44,-0.4066666666666667,-0.3977777777777778,-0.6888888888888889,-0.016362461737446838,-0.04799655442984406,-0.038179077387375956
1592170643.7042737,0.5174767961498797,8.04747679614988,5.455825598716626,-0.4066666666666667,-0.3977777777777778,-0.6888888888888889,-0.035351816992132766,-0.014333606478355375,-0.002789824412734003
1592170643.7142737,0.61,7.98,5.57,-0.41888888888888887,-0.3977777777777778,-0.6755555555555556,0.032724923474893676,0.031634092692397225,0.10144726277217041
1592170643.7242737,0.25629477728169453,8.024612449382202,5.514612449382203,-0.41888888888888887,-0.3977777777777778,-0.6755555555555556,0.07997909909008993,0.07906153156058111,0.05484259075184757
1592170643.7342737,0.07263863381591815,7.974583442650321,5.486249672049038,-0.41888888888888887,-0.3977777777777778,-0.6755555555555556,0.008211762266707048,0.09849298902607666,0.04773882624200783
1592170643.7442737,0.13,7.95,5.56,-0.41888888888888887,-0.3977777777777778,-0.6755555555555556,-0.04363323129985824,0.08508480103472357,0.08617563181722002
1592170643.7542737,0.09318429821670511,7.867164670987587,5.587611776337471,-0.41888888888888887,-0.3977777777777778,-0.6755555555555556,-0.0627090891724614,0.06701293568173108,0.12834331764086915
1592170643.7642736,0.12,8.02,5.46,-0.4066666666666667,-0.3977777777777778,-0.6677777777777778,0.0032724923474893677,0.062177354602297986,0.15489797111449674
1592170643.7742736,0.0751388457154699,8.337797637550512,5.19486115428453,-0.4066666666666667,-0.3977777777777778,-0.6677777777777778,0.09807519297992097,0.05353078850079683,0.1167080995773199
1592170643.7842736,0.12611422144463885,8.285314171457136,5.139257185703574,-0.4066666666666667,-0.3977777777777778,-0.6677777777777778,0.11560308916315053,0.05168043257281178,0.06819870780493414
1592170643.7942736,0.05,8.15,5.19,-0.4066666666666667,-0.3977777777777778,-0.6677777777777778,0.06763150851478027,0.03599741582238304,0.02945243112740431
1592170643.8042736,0.2955138959807426,8.032153329929242,5.268564446713837,-0.4066666666666667,-0.3977777777777778,-0.6677777777777778,-0.01592649544834493,0.020999825367463143,0.03909373927699568
1592170643.8142736,0.26,8.02,5.52,-0.44,-0.37777777777777777,-0.6533333333333333,-0.04145156973486533,0.007635815477475192,0.042542400517361786
1592170643.8242736,0.491290102209727,8.018960561233873,5.578440841850811,-0.44,-0.37777777777777777,-0.6533333333333333,-0.041735032685518,0.008259433968911064,0.03897076733913815
1592170643.8342736,0.12913433473339503,8.001391044351108,5.5430447782444645,-0.44,-0.37777777777777777,-0.6533333333333333,-0.03992571125652313,0.019786693484736738,-0.037560393764954854
1592170643.8442736,-0.0301353774607366,8.026741876367076,5.494419374544308,-0.44,-0.37777777777777777,-0.6533333333333333,0.006072750642509336,0.017195024408494443,-0.11067075540151608
1592170643.8542736,-0.25329359370997306,8.150718663172208,5.4530937789425975,-0.44,-0.37777777777777777,-0.6533333333333333,0.02680919726468845,-0.00895093002816618,-0.13050561738794828
1592170643.8642735,-0.1,8.23,5.4,-0.4266666666666667,-0.39222222222222225,-0.65,0.02181661564992912,-0.05017821599483697,-0.14180800172453928
1592170643.8742735,-0.2304196724908797,8.078601091697069,5.497202183394135,-0.4266666666666667,-0.39222222222222225,-0.65,0.015271630954950384,-0.08259055452898566,-0.19693680079307815
1592170643.8842735,-0.26,7.98,5.3,-0.4266666666666667,-0.39222222222222225,-0.65,0.015271630954950384,-0.13744467859455345,-0.16144295580947549
1592170643.8942735,-0.15290926045750391,8.029626803181973,5.355971149088417,-0.4266666666666667,-0.39222222222222225,-0.65,0.0018152764456635633,-0.18625542217846272,-0.1338381860099464
1592170643.9042735,-0.001248429947093982,8.02164465420774,5.483685532676131,-0.4266666666666667,-0.39222222222222225,-0.65,-0.006021179984744834,-0.20366976980159252,-0.1033630776694693
1592170643.9142735,0.35,8.0,5.47,-0.4533333333333333,-0.38666666666666666,-0.6433333333333333,-0.03490658503988659,-0.21489366415180183,-0.09381144729469522
1592170643.9242735,0.3093722059627569,8.0,5.395515710931721,-0.4533333333333333,-0.38666666666666666,-0.6433333333333333,-0.0430315605726909,-0.20085961550423076,-0.12335681286852904
1592170643.9342735,0.04381327870024061,8.055302903971223,5.2591161826714625,-0.4533333333333333,-0.38666666666666666,-0.6433333333333333,-0.051304804052906126,-0.17302613023809044,-0.15145755470105476
1592170643.9442735,-0.007921580081048521,8.102618743382862,5.262749443247782,-0.4533333333333333,-0.38666666666666666,-0.6433333333333333,-0.07827554146578453,-0.17998707911191522,-0.10252383641107467
1592170643.9542735,0.1298926654740608,8.01839892665474,5.408220035778176,-0.4533333333333333,-0.38666666666666666,-0.6433333333333333,-0.12504550365361877,-0.17998707911191522,-0.07746849952473488
1592170643.9642735,0.0921791186542355,7.87,5.588716474616942,-0.4666666666666667,-0.38666666666666666,-0.6077777777777778,-0.18403346228100073,-0.1832595714594046,-0.09270215743154413
1592170643.9742734,0.12,7.87,5.7,-0.4666666666666667,-0.38666666666666666,-0.6077777777777778,-0.17998707911191522,-0.1832595714594046,-0.07853981633974483
1592170643.9842734,0.07148226146120201,7.957331929369836,5.7291106431232794,-0.4666666666666667,-0.38666666666666666,-0.6077777777777778,-0.13553037924791744,-0.1811425857515952,-0.05948694496946006
1592170643.9942734,0.06622376650451703,7.9671299513551075,5.733111883252259,-0.4666666666666667,-0.38666666666666666,-0.6077777777777778,-0.07712605719495269,-0.1567929390019774,-0.10059036554038861
1592170644.0042734,-0.13364360170753498,7.92549091631093,5.633178199146233,-0.4666666666666667,-0.38666666666666666,-0.6077777777777778,-0.040789144251242686,-0.1368076368829369,-0.1514620436615826
1592170644.0142734,-0.19298620006283684,8.134479300094256,5.427308649732944,-0.4666666666666667,-0.38666666666666666,-0.6022222222222222,0.02541485189254201,-0.13891052612260932,-0.20720857582389074
1592170644.0242734,-0.23,8.19,5.27,-0.4666666666666667,-0.38666666666666666,-0.6022222222222222,0.02945243112740431,-0.15707963267948966,-0.19307704850187268
1592170644.0342734,-0.06104955130706205,8.164657432696059,5.177077253218884,-0.4666666666666667,-0.38666666666666666,-0.6022222222222222,-0.030443882671620265,-0.18656704870362484,-0.1405525887088819
1592170644.0442734,0.19843138042539518,8.08654903693587,5.265333306553656,-0.4666666666666667,-0.38666666666666666,-0.6022222222222222,-0.11546122536185083,-0.20701829488180587,-0.1593639601555629
1592170644.0542734,0.15631063086223865,7.9938833878969255,5.408543855068388,-0.4666666666666667,-0.38666666666666666,-0.6022222222222222,-0.14027239487272106,-0.20058576945306172,-0.16212075676788182
1592170644.0642734,0.29,7.89,5.57,-0.48,-0.38555555555555554,-0.5955555555555555,-0.148352986419518,-0.1854412330243975,-0.13744467859455345
1592170644.0742733,0.29,7.915682490825145,5.5528783394499035,-0.48,-0.38555555555555554,-0.5955555555555555,-0.14368377782564284,-0.16209519005502168,-0.1309077865631282
1592170644.0842733,0.23120056261472813,7.958799437385272,5.538103797649415,-0.48,-0.38555555555555554,-0.5955555555555555,-0.14114279440539226,-0.12524909838862344,-0.12539046144518654
1592170644.0942733,0.2722584128126687,7.918745326215184,5.803011217083558,-0.48,-0.38555555555555554,-0.5955555555555555,-0.1550348347931436,-0.11887318255638431,-0.08753611131033179
1592170644.1042733,0.34773618859096633,7.876813228560574,5.903648251454622,-0.48,-0.38555555555555554,-0.5955555555555555,-0.15960891708277317,-0.1179583660984584,-0.060091617572554296
1592170644.1142733,0.42,7.79,6.02,-0.4722222222222222,-0.37777777777777777,-0.5811111111111111,-0.10035643198967394,-0.09381144729469522,-0.04908738521234052
1592170644.1242733,0.3215997401902724,7.805138501509188,6.072984755282161,-0.4722222222222222,-0.37777777777777777,-0.5811111111111111,-0.03595361254601413,-0.0673897777793476,-0.03257384176524826
1592170644.1342733,0.43,7.83,5.87,-0.4722222222222222,-0.37777777777777777,-0.5811111111111111,0.04581489286485115,-0.031634092692397225,0.03599741582238304
1592170644.1442733,0.43,7.83,5.836061842724847,-0.4722222222222222,-0.37777777777777777,-0.5811111111111111,0.06154872719405191,0.007237733297392898,0.054507809150854535
1592170644.1542733,0.32494275523676275,7.882528622381619,5.837504088911659,-0.4722222222222222,-0.37777777777777777,-0.5811111111111111,0.07827469117231993,0.047742134008112176,0.032438388816082755
1592170644.1642733,0.1022426729942923,7.918775732700571,5.708569871096005,-0.4920410511839358,-0.3965535104783485,-0.5612922821493975,0.10236022930375317,0.07119355057103335,0.035262908171461375
1592170644.1742733,0.10991097406311393,7.959821948126228,5.60044512968443,-0.49333333333333335,-0.3977777777777778,-0.56,0.08951124711576675,0.10566006194194254,0.015363887575726515
1592170644.1842732,-0.12206624794975397,7.97450414049686,5.556487578509421,-0.49333333333333335,-0.3977777777777778,-0.56,0.09261243675023498,0.1121392110732074,-0.024282276364119414
1592170644.1942732,-0.10276689179799328,7.970251535617999,5.510754606853998,-0.49333333333333335,-0.3977777777777778,-0.56,0.11401590485161267,0.10815687714415395,-0.019065450612954955
1592170644.2042732,-0.2142551456696828,7.921033508998708,5.70586596400517,-0.49333333333333335,-0.3977777777777778,-0.56,0.10029345731011569,0.10087036004114305,0.04199191981861205
1592170644.2142732,-0.05537565382786494,7.851697574893009,5.720848787446505,-0.498731706028425,-0.3912997305436678,-0.5751154435462568,0.08330435564198982,0.07700627320686286,0.06305214590742414
1592170644.2242732,-0.001794576287132206,7.888564338970294,5.594665898346544,-0.4988888888888889,-0.39111111111111113,-0.5755555555555556,0.10183336509467174,0.07951319237890876,0.03592452614876843
1592170644.2342732,-0.1612451793075934,7.997496786205062,5.5004193448291145,-0.4988888888888889,-0.39111111111111113,-0.5755555555555556,0.12208156078998725,0.08842520737813546,0.005591384186906013
1592170644.2442732,-0.2594411262798635,7.965866040955631,5.49,-0.4988888888888889,-0.39111111111111113,-0.5755555555555556,0.10702334401614333,0.06730249086835322,0.036844391941898216
1592170644.2542732,-0.21244462163791594,7.938416733114218,5.511583266885781,-0.4988888888888889,-0.39111111111111113,-0.5755555555555556,0.07568253510244859,0.05965027778612152,0.05557778487837347
1592170644.2642732,-0.21776223305868506,7.957762233058685,5.529254077686229,-0.4896348112026605,-0.3777441100087813,-0.5426521682267437,0.06133062632616546,0.046709935388185554,0.020707992604795673
1592170644.2742732,-0.3551680881952636,8.014067235278105,5.493955176481263,-0.4888888888888889,-0.37666666666666665,-0.54,0.07681404503735773,0.03991707240826758,0.0027087413784843625
1592170644.2842731,-0.21006052295616812,8.05554210600974,5.347831575961038,-0.4888888888888889,-0.37666666666666665,-0.54,0.07660129517423597,0.017946175349274996,0.03210716943063815
1592170644.2942731,-0.13719290780141846,8.068801182033097,5.33,-0.4888888888888889,-0.37666666666666665,-0.54,0.06003713429185524,0.014311570926544696,0.04271783602122285
1592170644.3042731,-0.15204955448801005,8.033250742519982,5.418198217952041,-0.4888888888888889,-0.37666666666666665,-0.54,0.03536518754818154,0.012577311320730311,0.04684020900330547
1592170644.314273,-0.22314901121047992,8.029021287315782,5.522170298526263,-0.4999149067192901,-0.36965010986550223,-0.5139385033099606,-0.0022513241429908577,0.01298320839764109,0.04799655442984406
1592170644.324273,-0.19384919711426576,7.957698394228531,5.575188503607168,-0.5011111111111111,-0.3688888888888889,-0.5111111111111111,-0.004468293697489264,0.004217227455020333,-0.018056079974687958
1592170644.334273,-0.23346246695022416,8.002154960340269,5.510460052879641,-0.5011111111111111,-0.3688888888888889,-0.5111111111111111,0.005118716236522052,0.005168900220790943,-0.047846002477037394
1592170644.344273,-0.31879835788456895,7.974978507606858,5.543776865491427,-0.5011111111111111,-0.3688888888888889,-0.5111111111111111,-0.012556276280723512,-0.00218635047779862,-0.07037030775303568
1592170644.354273,-0.2271167291235528,7.880834498573746,5.543141115274904,-0.5011111111111111,-0.3688888888888889,-0.5111111111111111,-0.027990831360891356,-0.010754374939219352,-0.03941719076447762
1592170644.364273,-0.2053630023919415,7.865363002391941,5.472365326954822,-0.49641425881630713,-0.3811007048553793,-0.49795992468565997,0.007684361361101434,-0.01694747454702003,-0.03137607554709831
1592170644.374273,-0.19318629878021334,8.04654386280776,5.3507109420713865,-0.4955555555555556,-0.38333333333333336,-0.4955555555555556,0.0574557075289058,-0.019287382805767445,-0.029973788046157454
1592170644.384273,-0.18167287665997897,8.179925480080252,5.238401643259769,-0.4955555555555556,-0.38333333333333336,-0.4955555555555556,-0.001767923320365905,-0.03598522252902754,-0.0321774758680862
1592170644.394273,-0.20450713116670563,8.020281038110825,5.416057049333645,-0.4955555555555556,-0.38333333333333336,-0.4955555555555556,-0.13646183419347133,-0.05352757913911017,-0.010447312585459684
1592170644.404273,-0.13616740781551295,7.81891070796112,5.614377238203928,-0.4955555555555556,-0.38333333333333336,-0.4955555555555556,-0.18558976218528994,-0.07136663056369674,0.014314476417257117
1592170644.414273,-0.08438020365842336,7.732190101829212,5.682190101829211,-0.49989438787266016,-0.37812673455280776,-0.4972910884823974,-0.1469377323187818,-0.0742801776733155,0.02399827721492203
1592170644.424273,-0.1437932532875929,7.921379759862779,5.5524134934248135,-0.5011111111111111,-0.37666666666666665,-0.49777777777777776,-0.08176046771831418,-0.06786658909713508,0.012690284999645848
1592170644.434273,-0.1361262778111846,8.06549488875526,5.456336740829826,-0.5011111111111111,-0.37666666666666665,-0.49777777777777776,-0.07045848536769862,-0.05785994738017431,0.018498207394577602
1592170644.444273,-0.026363701355956434,8.097972022972618,5.50377618378095,-0.5011111111111111,-0.37666666666666665,-0.49777777777777776,-0.122211156400348,-0.03737050098698627,0.05029262026225748
1592170644.454273,0.051773906310491676,7.938206542779713,5.6494347657762285,-0.5011111111111111,-0.37666666666666665,-0.49777777777777776,-0.16491321666468575,-0.015781952254822127,0.04228297452057991
1592170644.464273,0.024343569800187738,7.8420490814000265,5.759754592999865,-0.496693934111126,-0.36694887726669945,-0.47657532817784926,-0.17153749246063987,0.02207626760633669,0.0017252592528849628
1592170644.474273,-0.06621635035806292,7.8145945498806455,5.778468483373119,-0.4955555555555556,-0.36444444444444446,-0.4711111111111111,-0.13212804190912408,0.046080259347426274,-0.02224904468055503
1592170644.484273,-0.1578133456859351,7.853229636492187,5.710832581612502,-0.4955555555555556,-0.36444444444444446,-0.4711111111111111,-0.09715180906600715,0.05474613139655757,-0.035463476001816416
1592170644.494273,-0.6047966352817474,7.938263394350715,5.708695932705635,-0.4955555555555556,-0.36444444444444446,-0.4711111111111111,-0.07659477167989745,0.05563236990731925,-0.07692856913174154
1592170644.504273,-0.5631484154377158,7.995793536240979,5.648941951678695,-0.4955555555555556,-0.36444444444444446,-0.4711111111111111,-0.06668354336410497,0.027325670490404002,-0.0804054895211793
1592170644.514273,-0.5026416723742593,7.964402787290432,5.702955540335308,-0.5067015408845611,-0.35735154468962277,-0.44273951209182444,-0.07032767735364714,-0.013288736358126843,-0.00999626661475185
1592170644.524273,-0.36985002205558004,7.912278341420379,5.6752933392148215,-0.5077777777777778,-0.3566666666666667,-0.44,-0.07800258097642004,-0.027246951245810794,0.007611997160874587
1592170644.534273,-0.0718567515200107,7.890044765149997,5.589955234850003,-0.5077777777777778,-0.3566666666666667,-0.44,-0.07241456134854087,-0.03620972223445041,0.025311180650205732
1592170644.544273,-0.005786683781406739,7.942766645273242,5.665533290546483,-0.5077777777777778,-0.3566666666666667,-0.44,-0.07152140968496623,-0.026509373876818065,0.020581798004535926
1592170644.554273,0.021200851416070476,7.921732198111906,5.764803405664281,-0.5077777777777778,-0.3566666666666667,-0.44,-0.0920378341392449,-0.008129644348244099,0.0188640693736101
1592170644.5642729,-0.08033181746902933,7.714797553708641,5.910331817469029,-0.5077777777777778,-0.3566666666666667,-0.42208286724861915,-0.09943063704518165,0.019276657996333876,0.025024687913885763
1592170644.5742729,-0.1,7.774610866976056,5.882694566511971,-0.5077777777777778,-0.3566666666666667,-0.41888888888888887,-0.07539957305669054,0.03322789103804156,0.03908049453693492
1592170644.5842729,-0.03133617914291846,7.908663820857082,5.712672358285837,-0.5077777777777778,-0.3566666666666667,-0.41888888888888887,-0.026447931499760366,0.05117971587071829,0.055486615373316735
1592170644.5942729,-0.05499718785151857,7.9524985939257595,5.662500468691413,-0.5077777777777778,-0.3566666666666667,-0.41888888888888887,-0.02454318134314884,0.0627222587305248,0.020182721286082957
1592170644.6042728,-0.22951230038843332,7.923189469141131,5.684540353905913,-0.5077777777777778,-0.3566666666666667,-0.41888888888888887,-0.04065545628937482,0.06544984694978735,-0.009095042931229081
1592170644.6142728,-0.47190982560612504,7.868464483198639,5.684232241599319,-0.49814192542180635,-0.3557906800888511,-0.425020794933598,-0.04822738740061904,0.049109888527079384,-0.026514936578707984
1592170644.6242728,-0.5147716867709702,7.893401807396791,5.68477168677097,-0.4955555555555556,-0.35555555555555557,-0.4266666666666667,-0.05632471893257268,0.023903650825533133,-0.022115476967861387
1592170644.6342728,-0.4110804461127164,7.758840701034268,5.752239745078447,-0.4955555555555556,-0.35555555555555557,-0.4266666666666667,-0.09600171037162376,-0.03455300987631269,0.004247615120111771
1592170644.6442728,-0.12297868286292724,7.726063832321067,5.850319161605335,-0.4955555555555556,-0.35555555555555557,-0.4266666666666667,-0.11085277809289826,-0.06662771555820647,0.03610186121349025
1592170644.6542728,-0.021241779065878943,7.745503288373649,5.877751644186824,-0.4955555555555556,-0.35555555555555557,-0.4266666666666667,-0.09206181357166082,-0.06523024596960804,0.049729772797217214
1592170644.6642728,0.007990696797309613,7.8580255838073985,5.89,-0.49022067168844047,-0.3493315243772547,-0.40354883657583474,-0.0442831630704144,-0.025735234185523214,0.057594850493825824
1592170644.6742728,0.04069185998852365,7.864740552504303,5.823875727518649,-0.4888888888888889,-0.3477777777777778,-0.3977777777777778,-0.06366440402544055,-0.0007889499134327606,0.050065010668938086
1592170644.6842728,0.018227560963035516,7.803670670722276,5.76772155487962,-0.4888888888888889,-0.3477777777777778,-0.3977777777777778,-0.1106020700963549,0.04331577294200947,0.019206793020723346
1592170644.6942728,-0.04490504612045578,7.662769035992042,5.77,-0.4888888888888889,-0.3477777777777778,-0.3977777777777778,-0.08433745666791283,0.06351499842673748,-0.013309161467974031
1592170644.7042727,-0.1365487655736452,7.720102231903998,5.6757861346785905,-0.4888888888888889,-0.3477777777777778,-0.3977777777777778,-0.05188906438845774,0.07277007773630871,-0.020531973344547007
1592170644.7142727,-0.20846724127539026,7.913114941835936,5.659245976734375,-0.4888888888888889,-0.3525655810713975,-0.38888614308962693,-0.024329977612589114,0.07501517909135293,0.007224559583043553
1592170644.7242727,-0.23349625450846204,7.963007490983076,5.710244381762693,-0.4888888888888889,-0.35555555555555557,-0.38333333333333336,-0.038445656536802285,0.0727042802231353,0.04240093954771824
1592170644.7342727,-0.3357137602079604,7.874796331265174,5.706326605684577,-0.4888888888888889,-0.35555555555555557,-0.38333333333333336,-0.06922312042998226,0.06975752773169479,0.052760582719380965
1592170644.7442727,-0.34592839378724605,7.84681432124255,5.754514569940406,-0.4888888888888889,-0.35555555555555557,-0.38333333333333336,-0.06515992786799579,0.07020899357191551,0.053450708342326333
1592170644.7542727,-0.41669388289743703,7.794268218137361,5.810962101034799,-0.4888888888888889,-0.35555555555555557,-0.38333333333333336,-0.02985886716121794,0.07157948912026012,0.03723899015055479
1592170644.7642727,-0.6180907240106884,7.8613252322178395,5.791028756839292,-0.49841519277261737,-0.33823500303968557,-0.3668788084432569,0.021159466096585252,0.08049703797913693,0.024720107662100147
1592170644.7742727,-0.6112531959092362,7.9254522211569185,5.7534108341323105,-0.5011111111111111,-0.3333333333333333,-0.3622222222222222,0.041178164800006634,0.07758568802467772,0.04043403622690383
1592170644.7842727,-0.43380986956408996,7.875595519020823,5.66916681793429,-0.5011111111111111,-0.3333333333333333,-0.3622222222222222,0.03315352778514927,0.06298251518090907,0.08009808945506688
1592170644.7942727,-0.3970817067942325,7.889571947559627,5.70665365435386,-0.5011111111111111,-0.3333333333333333,-0.3622222222222222,0.012729197975397583,0.05458823240267093,0.08417648509421126
1592170644.8042727,-0.47707226354941557,7.887979353271596,5.763030970092607,-0.5011111111111111,-0.3333333333333333,-0.3622222222222222,0.00223113563456492,0.05836507738528575,0.07089273981881894
1592170644.8142726,-0.6273457085446369,7.881646094472618,5.8191152361815455,-0.5011111111111111,-0.34109739631507885,-0.35057612774960395,-0.007263228903630438,0.05818661804615692,0.05346417281184524
1592170644.8242726,-0.6361633928988009,7.815974665235851,5.786163392898801,-0.5011111111111111,-0.3466666666666667,-0.3422222222222222,0.013316426328636983,0.04499846203401007,0.05166696869554126
1592170644.8342726,-0.6428285915824125,7.747171408417588,5.6746456618857275,-0.5011111111111111,-0.3466666666666667,-0.3422222222222222,0.0809533916582137,0.03677969512795892,0.021221313922636785
1592170644.8442726,-0.6246388472085683,7.821938997257723,5.573422155533709,-0.5011111111111111,-0.3466666666666667,-0.3422222222222222,0.15569008911609794,0.027963438925384842,-0.05195330646541725
1592170644.8542726,-0.8965311373160512,8.068928954292954,5.520153006529578,-0.5011111111111111,-0.3466666666666667,-0.3422222222222222,0.14262606634177608,0.010112419145865253,-0.08633705053470786
1592170644.8642726,-1.008299180327869,8.032981557377049,5.602126024590164,-0.48749430783242254,-0.33304986338797815,-0.3270924408014572,0.010422686948945395,-0.04233284030043751,-0.06113346530839257
1592170644.8742726,-0.9376781683327958,7.848994276039988,5.686362060625605,-0.4811111111111111,-0.32666666666666666,-0.32,-0.07318345377119484,-0.08112834090177255,-0.04889993714616096
1592170644.8842726,-0.6990442468986993,7.829577118175883,5.630882426799257,-0.4811111111111111,-0.32666666666666666,-0.32,-0.08949025408644812,-0.12321774917098899,-0.06014607877875216
1592170644.8942726,-0.5854670642237828,7.8872741182470865,5.599081172270392,-0.4811111111111111,-0.32666666666666666,-0.32,-0.06575220167058211,-0.13099825340728743,-0.060592057231823815
1592170644.9042726,-0.48515744807563466,7.858223405047272,5.6848425519243655,-0.4811111111111111,-0.32666666666666666,-0.32,-0.04938747939507823,-0.12276998779311543,-0.04964997552434345
1592170644.9142725,-0.47874505504980697,7.8023249606787095,5.746605023592775,-0.4854161172277563,-0.3180566544333762,-0.30523997902864497,-0.06410540229964791,-0.08927520089210164,-0.04532783777832397
1592170644.9242725,-0.6360766727518057,7.80440193666164,5.739665052781967,-0.4888888888888889,-0.3111111111111111,-0.29333333333333333,-0.05500604481163075,-0.06219822056138852,-0.049364010686590555
1592170644.9342725,-0.9331893638538763,7.906581978737575,5.650076219136183,-0.4888888888888889,-0.3111111111111111,-0.29333333333333333,-0.023653142994081843,-0.042545171923360575,-0.06834117679845221
1592170644.9442725,-0.9561206032549038,7.994207034792153,5.626775879349019,-0.4888888888888889,-0.3111111111111111,-0.29333333333333333,-0.045188679049776526,-0.050321175061736,-0.09004999953703992
1592170644.9542725,-0.9567704134798765,7.852295865201234,5.736212618705885,-0.4888888888888889,-0.3111111111111111,-0.29333333333333333,-0.11317612258996898,-0.058200275776631366,-0.1147678334592593
1592170644.9642725,-0.9336091253807423,7.659348542301237,5.874586311928887,-0.47271516683588544,-0.31515454162436196,-0.27446399093816265,-0.17120571162104442,-0.06637936198468893,-0.1518741993059641
1592170644.9742725,-0.9368388296152603,7.644154946653734,5.918051648884578,-0.4622222222222222,-0.31777777777777777,-0.26222222222222225,-0.16878172886000026,-0.07039870250998324,-0.15957795434433192
1592170644.9842725,-0.8891921044376343,7.738763784657706,5.888225187616129,-0.4622222222222222,-0.31777777777777777,-0.26222222222222225,-0.12020233460121248,-0.0751324738173386,-0.06557798488683503
1592170644.9942725,-0.7304547402504643,7.76,5.89636350649969,-0.4622222222222222,-0.31777777777777777,-0.26222222222222225,-0.1090830782496456,-0.07555243280446074,0.016275614964991518
1592170645.0042725,-0.7421696831242492,7.7504354333655,5.9491291332689995,-0.4622222222222222,-0.31777777777777777,-0.26222222222222225,-0.10960474443495315,-0.0647865018742231,0.017217433151311263
1592170645.0142725,-0.8204476905389869,7.74,5.996119226347467,-0.4581592314570606,-0.30094538746496546,-0.26628521298738383,-0.11188340839903065,-0.04998287414645322,-0.020367486016375298
1592170645.0242724,-0.8325346150454185,7.729861539818327,6.02,-0.45444444444444443,-0.28555555555555556,-0.27,-0.11261695054563509,-0.046644343698847485,-0.05037456361165285
1592170645.0342724,-0.7938249953848994,7.717315626730663,5.89879061288536,-0.45444444444444443,-0.28555555555555556,-0.27,-0.09317433224171923,-0.04971699916754136,-0.11034980725782242
1592170645.0442724,-0.7209853937091484,7.780161636659667,5.826720545553222,-0.45444444444444443,-0.28555555555555556,-0.27,-0.06977790643098439,-0.05261012076678216,-0.1056325688254969
1592170645.0542724,-0.6312834599649327,7.797416715371128,5.867099941554646,-0.45444444444444443,-0.28555555555555556,-0.27,-0.06552074138755101,-0.05355615744310069,-0.06551717116406651
1592170645.0642724,-0.5554052883974957,7.668916344744904,6.033246636472626,-0.4636338676494531,-0.29117131418083864,-0.26030005328360195,-0.08393533827930352,-0.04734782470712454,-0.00875548999386342
1592170645.0742724,-0.55,7.537472634553545,6.215054730892909,-0.47444444444444445,-0.29777777777777775,-0.24888888888888888,-0.09562153831315744,-0.035074459670330224,0.03849059147578045
1592170645.0842724,-0.5717847675001791,7.539606290750161,6.232572185999857,-0.47444444444444445,-0.29777777777777775,-0.24888888888888888,-0.07960774725699292,-0.022853049482893618,0.054950962142241135
1592170645.0942724,-0.7245919881305638,7.701805523853001,6.19295138096325,-0.47444444444444445,-0.29777777777777775,-0.24888888888888888,-0.020331880667955517,-0.004023387789697469,-0.009961394000304883
1592170645.1042724,-0.7822893715244991,7.720778512223271,6.220302171860245,-0.47444444444444445,-0.29777777777777775,-0.24888888888888888,-0.006078483145355868,0.0025892209413930674,-0.037495805981279655
1592170645.1142724,-0.8049338121809332,7.364669060904665,6.250661878190669,-0.46841422955663725,-0.29119936153653353,-0.23573205640640046,0.03645288915279264,0.020100949794673577,-0.03939986764870836
1592170645.1242723,-0.7348141057934509,7.5529027707808565,6.093486649874055,-0.4622222222222222,-0.28444444444444444,-0.2222222222222222,0.20332321929417732,0.027546856910082036,0.008137817452190811
1592170645.1342723,-0.6394660894660894,7.751067821067822,5.928932178932179,-0.4622222222222222,-0.28444444444444444,-0.2222222222222222,0.2878091958040646,0.028131917240031556,0.04156805094396308
1592170645.1442723,-0.45,8.078969876140476,5.652060247719048,-0.4622222222222222,-0.28444444444444444,-0.2222222222222222,0.27292242565530833,0.020467241458563275,0.08352164202462593
1592170645.1542723,-0.4518296064871696,8.03634078702566,5.736403622705094,-0.4622222222222222,-0.28444444444444444,-0.2222222222222222,0.20627063666872614,0.014373524970723478,0.08169881051475834
1592170645.1642723,-0.4859799694899516,7.866833587583737,5.858593221463156,-0.4580792671692718,-0.28444444444444444,-0.23346738593737335,-0.017579689109252936,0.00022472112558426672,0.04437866006898081
1592170645.1742723,-0.5184838998211091,7.67270369165718,5.930164254350301,-0.45444444444444443,-0.28444444444444444,-0.24333333333333335,-0.08309539639939899,-0.005829709086745574,0.0265017418437381
1592170645.1842723,-0.5876749987008263,7.440693758769423,5.929537494153718,-0.45444444444444443,-0.28444444444444444,-0.24333333333333335,0.014051270040041919,-0.011872329458136868,-0.001953269047055053
1592170645.1942723,-0.5767095986450824,7.621728307534759,5.827187364606719,-0.45444444444444443,-0.28444444444444444,-0.24333333333333335,0.1202923108373265,-0.009151739007303955,-0.004070561660375723
1592170645.2042723,-0.6674969760663084,8.075413138744027,5.660209593305704,-0.45444444444444443,-0.28444444444444444,-0.24333333333333335,0.26195942937991706,0.006931018225450355,-0.009521576403881689
1592170645.2142723,-0.8362683550097257,7.945584118387429,5.73064418932835,-0.45444444444444443,-0.287361667323527,-0.23409546088290512,0.17158848505530697,0.009884834875980509,-0.036000328143782595
1592170645.2242723,-0.9640387091739181,7.672692472782612,5.860448745463769,-0.45444444444444443,-0.2911111111111111,-0.2222222222222222,0.08322468064626237,0.003678015618447488,-0.05528971615155008
1592170645.2342722,-1.0597279233618313,7.793231501851904,5.8116324598290126,-0.45444444444444443,-0.2911111111111111,-0.2222222222222222,0.06167281232970662,-0.029478464767455533,-0.045343674866631066
1592170645.2442722,-1.0364987644934422,7.848832921497814,5.800251853259836,-0.45444444444444443,-0.2911111111111111,-0.2222222222222222,0.07645799036147917,-0.0704048229286334,-0.05411472384906364
1592170645.2542722,-0.9417610736686275,7.817253691222875,5.867295570532549,-0.45444444444444443,-0.2911111111111111,-0.2222222222222222,0.05770199066986362,-0.10413887678525079,-0.06723816519315545
1592170645.2642722,-0.8039486061718482,7.7379522771595735,5.920018354938626,-0.4468819548009636,-0.28844199711929436,-0.2222222222222222,0.034902580613473844,-0.12959550227227426,-0.07155809888912623
1592170645.2742722,-0.6568523753533635,7.638950791784454,5.928950791784454,-0.43555555555555553,-0.28444444444444444,-0.2222222222222222,0.054766893253906324,-0.1380187067012708,-0.06803386032868285
1592170645.2842722,-0.5452757029354394,7.762283172367858,5.740354679099862,-0.43555555555555553,-0.28444444444444444,-0.2222222222222222,0.13345916830516774,-0.1331629640760846,-0.056495604781511874
1592170645.2942722,-0.4619516477259247,7.934354788962965,5.610870957792593,-0.43555555555555553,-0.28444444444444444,-0.2222222222222222,0.21209969943648307,-0.12101008832758472,-0.04078652243557444
1592170645.3042722,-0.3933133369690359,7.98,5.62,-0.43555555555555553,-0.28444444444444444,-0.2222222222222222,0.22497566914625144,-0.11203604832829973,-0.027812913056202586
1592170645.3142722,-0.29276082720107033,7.9711939734155495,5.646418079753352,-0.4502322665296401,-0.28737978663926134,-0.2222222222222222,0.17892048830841378,-0.11100425522360578,-0.015922842432532183
1592170645.3242722,-0.22,7.96,5.68,-0.4688888888888889,-0.2911111111111111,-0.2222222222222222,0.14289883250703572,-0.11344640137963141,-0.009817477042468103
1592170645.3342721,0.0554679802955665,7.913399014778325,5.633399014778325,-0.4688888888888889,-0.2911111111111111,-0.2222222222222222,0.08390261989113135,-0.11006106446843551,0.0165881508648599
1592170645.3442721,0.12141060002414586,7.88,5.605352650006036,-0.4688888888888889,-0.2911111111111111,-0.2222222222222222,0.061715736823859425,-0.08537466202135578,0.02742464215522425
1592170645.3542721,0.13878754566911314,7.8808083028872575,5.609191697112743,-0.4688888888888889,-0.2911111111111111,-0.2222222222222222,0.055896886408619756,-0.0658239790892268,0.02954060329450448
1592170645.364272,0.07763155290158688,7.912138167661905,5.585953944112698,-0.4630445859405643,-0.2852668081627865,-0.21053361632557302,0.07321126037622208,-0.004811840963190053,0.029427311537612404
1592170645.374272,0.03,7.93,5.58,-0.45444444444444443,-0.27666666666666667,-0.19333333333333333,0.08944812416470939,0.02181661564992912,0.02617993877991494
1592170645.384272,-0.07475205999901317,7.9773760299995065,5.5520558050032065,-0.45444444444444443,-0.27666666666666667,-0.19333333333333333,0.10517614726552146,0.05408514697896112,0.028307508227850126
1592170645.394272,-0.11939760464840507,7.982240958140638,5.504915688367129,-0.45444444444444443,-0.27666666666666667,-0.19333333333333333,0.09231582037194683,0.05805848208452156,0.03677808485339486
1592170645.404272,-0.13389267104553892,7.966778534209108,5.605100521072491,-0.45444444444444443,-0.27666666666666667,-0.19333333333333333,0.07049405459363355,0.050046459995833126,0.04391142156949049
1592170645.414272,-0.07147447340235631,7.947033851546526,5.712966148453474,-0.4550207177090433,-0.2786836230927627,-0.19880792934702252,0.046460129663754075,0.030622743754264936,0.049936017644148636
1592170645.424272,0.0528321834961025,7.897150344951169,5.75428321834961,-0.45666666666666667,-0.28444444444444444,-0.21444444444444444,0.032257696832502826,0.009197684603869298,0.050958197632657326
1592170645.434272,0.10613059050850653,7.868391771525519,5.732914133559546,-0.45666666666666667,-0.28444444444444444,-0.21444444444444444,0.037965399167504785,0.0019350049791774637,0.045710688425616486
1592170645.444272,0.10374280275434185,7.857485605508684,5.675028788982633,-0.45666666666666667,-0.28444444444444444,-0.21444444444444444,0.05657035979006614,0.009396639033362282,0.0358696980493954
1592170645.454272,0.11,7.883819920606279,5.644472031757489,-0.45666666666666667,-0.28444444444444444,-0.21444444444444444,0.07753708657822372,0.025966535904710566,0.025949569175470002
1592170645.464272,0.10610754810064134,7.923892451899358,5.627405032067094,-0.45709916132215095,-0.28271446582250725,-0.21264238337992655,0.09617607998255383,0.04381620242272395,0.018927286359735004
1592170645.474272,0.03153466295905648,7.9873861348163775,5.578920797775433,-0.4633333333333333,-0.2577777777777778,-0.18666666666666668,0.11332867867892188,0.06499731272977864,0.008323795098902983
1592170645.484272,-0.025490566037735852,7.996358490566037,5.512660377358491,-0.4633333333333333,-0.2577777777777778,-0.18666666666666668,0.10490910687813085,0.07378544066509046,0.006841361360411735
1592170645.494272,-0.07700062138521103,7.9864996893073945,5.489505281774293,-0.4633333333333333,-0.2577777777777778,-0.18666666666666668,0.08846590198218139,0.07881235457883995,0.006981452573200514
1592170645.504272,-0.09270666617722634,7.971880001468321,5.635186660303942,-0.4633333333333333,-0.2577777777777778,-0.18666666666666668,0.07588255303409037,0.07172430625138286,0.010407979999280203
1592170645.514272,-0.09463017700038252,7.947698647285878,5.73383558785687,-0.46282192161908403,-0.2605053069204406,-0.1899056075235788,0.06788554383662812,0.060671122773130505,0.012417536337785315
1592170645.524272,-0.005075990654421797,7.905757708945384,5.776439427236346,-0.45666666666666667,-0.29333333333333333,-0.2288888888888889,0.06519359798274552,0.036716426956493346,0.018230088994725755
1592170645.534272,0.060338836421310646,7.917287866772403,5.688644654314757,-0.45666666666666667,-0.29333333333333333,-0.2288888888888889,0.0914817831680515,0.024700856856679894,0.018525642642509922
1592170645.544272,0.09656841304554531,8.007157934772273,5.53,-0.45666666666666667,-0.29333333333333333,-0.2288888888888889,0.12794873577531812,0.02106795951338263,0.013367837191260884
1592170645.554272,0.08497542307422232,8.034975423074222,5.522463134611334,-0.45666666666666667,-0.29333333333333333,-0.2288888888888889,0.14807357640709953,0.01936090592595322,0.003799141251713396
1592170645.564272,0.07024928024717367,8.020249280247173,5.500373920370761,-0.45666666666666667,-0.29333333333333333,-0.2288888888888889,0.1440576439313035,0.018557719430794015,-0.007445469680515449
1592170645.574272,0.03241056416962451,8.02703577433215,5.459446338501775,-0.4488888888888889,-0.2788888888888889,-0.17888888888888888,0.12532474978602298,0.010343380562349987,-0.02385611565605054
1592170645.584272,-0.01342387318111913,8.04671193659056,5.44,-0.4488888888888889,-0.2788888888888889,-0.17888888888888888,0.12035005815279194,0.0007099368823880281,-0.03529488621397057
1592170645.594272,-0.02703183104520897,8.050273873283906,5.456210211193489,-0.4488888888888889,-0.2788888888888889,-0.17888888888888888,0.11571768776720098,-0.008607146496536107,-0.043603356358999354
1592170645.604272,-0.0046904038679296154,8.013583586462246,5.515797221273613,-0.4488888888888889,-0.2788888888888889,-0.17888888888888888,0.10678068163498047,-0.020011510980682327,-0.046838180249146766
1592170645.6142719,-0.019767780433883927,7.960812768481406,5.598722792386361,-0.4488888888888889,-0.2788888888888889,-0.17888888888888888,0.09937959172013532,-0.028234944219399163,-0.05012755354463349
1592170645.6242719,-0.026308683353538236,7.9920803917373835,5.557919608262616,-0.4488888888888889,-0.28555555555555556,-0.20777777777777778,0.11952278701351347,-0.035536180757155755,-0.0545415391248228
1592170645.6342719,-0.03690211883381649,8.058587286997101,5.463531782507247,-0.4488888888888889,-0.28555555555555556,-0.20777777777777778,0.14217564838577804,-0.039607834583531315,-0.05487946553848169
1592170645.6442719,-0.0330025855729772,8.093994828854045,5.356997414427023,-0.4488888888888889,-0.28555555555555556,-0.20777777777777778,0.15042359061044552,-0.04003320767536054,-0.05497730735330259
1592170645.6542718,-0.04226114765417742,8.082261147654178,5.35,-0.4488888888888889,-0.28555555555555556,-0.20777777777777778,0.142120658714093,-0.039023255223377774,-0.05295740244933706
1592170645.6642718,-0.049882436312097975,8.089882436312099,5.35,-0.4488888888888889,-0.28555555555555556,-0.20777777777777778,0.132144415189672,-0.03819190159634269,-0.0512946951952669
1592170645.6742718,-0.04268527074477915,8.125601552393272,5.276111624468675,-0.4444444444444444,-0.28555555555555556,-0.2,0.12305180043592574,-0.03778012079551484,-0.04640072806239961
1592170645.6842718,-0.026726101694915252,8.160178305084745,5.196726101694916,-0.4444444444444444,-0.28555555555555556,-0.2,0.11247227100220475,-0.03673111969988456,-0.04291897748986836
1592170645.6942718,-0.02,8.128371759988545,5.207442360017185,-0.4444444444444444,-0.28555555555555556,-0.2,0.09102071380918766,-0.033777638446001165,-0.04050023657355881
1592170645.7042718,-0.024442385261092336,8.1,5.254442385261092,-0.4444444444444444,-0.28555555555555556,-0.2,0.06751187744891399,-0.025211771461077604,-0.037209899269274344
1592170645.7142718,-0.03968385479123515,8.1,5.269683854791235,-0.4444444444444444,-0.28555555555555556,-0.2,0.05587377255514088,-0.014404959774002583,-0.03388472644248203
1592170645.7242718,-0.07,8.15,5.26,-0.4444444444444444,-0.3111111111111111,-0.19333333333333333,0.05563236990731925,-0.006544984694978735,-0.032724923474893676
1592170645.7342718,-0.09705822876698122,8.175294514155345,5.209414342009748,-0.4444444444444444,-0.3111111111111111,-0.19333333333333333,0.04337695450448898,0.0012189691801810832,-0.02765592004532178
1592170645.7442718,-0.12293427008675971,8.16,5.133474160694078,-0.4444444444444444,-0.3111111111111111,-0.19333333333333333,0.02035962000791775,0.010647121540849272,-0.019576061155571887
1592170645.7542717,-0.12575237250554325,8.155752372505544,5.202742882483371,-0.4444444444444444,-0.3111111111111111,-0.19333333333333333,-0.0035426120410352755,0.014808286672597211,-0.012327423043041234
1592170645.7642717,-0.11087237250554324,8.140872372505545,5.24738288248337,-0.4444444444444444,-0.3111111111111111,-0.19333333333333333,-0.01977417408458254,0.013185130468242483,-0.0058347982256223285
1592170645.7742717,-0.1,8.15,5.3,-0.43666666666666665,-0.29777777777777775,-0.17888888888888888,-0.0370882466048795,0.011999138607461015,0.0032724923474893677
1592170645.7842717,-0.0564949567723343,8.090353540551668,5.385787875668999,-0.43666666666666665,-0.29777777777777775,-0.17888888888888888,-0.0659655103693022,0.010238383238801906,0.010199817947139951
1592170645.7942717,0.0,8.044984589122292,5.422538527194272,-0.43666666666666665,-0.29777777777777775,-0.17888888888888888,-0.08099166400139336,0.013366879750529085,0.016909558194674067
1592170645.8042717,0.003693703346548091,8.033693703346549,5.46923425836637,-0.43666666666666665,-0.29777777777777775,-0.17888888888888888,-0.07491353155910248,0.019064974644673226,0.017939742505666025
1592170645.8142717,0.018673881210043215,8.048673881210044,5.506684703025108,-0.43666666666666665,-0.29777777777777775,-0.17888888888888888,-0.06020677633240725,0.025601310300982217,0.015488616634550156
1592170645.8242717,-0.0031197997201973344,8.055598998600987,5.454401001399013,-0.43666666666666665,-0.29333333333333333,-0.20777777777777778,-0.04132088851233961,0.03326580076591283,0.012479213387446385
1592170645.8342717,-0.025653201305277373,8.08373871947789,5.3980855181726115,-0.43666666666666665,-0.29333333333333333,-0.20777777777777778,-0.03415725413395834,0.03790390866359959,0.007360646753698827
1592170645.8442717,-0.06540774767948475,8.067296126160258,5.368927116878196,-0.43666666666666665,-0.29333333333333333,-0.20777777777777778,-0.035791425684799955,0.0346116381582488,0.003183535603434675
1592170645.8542717,-0.07231778023191607,8.06,5.43920554942021,-0.43666666666666665,-0.29333333333333333,-0.20777777777777778,-0.03796957734235274,0.03276825403227404,0.0
1592170645.8642716,-0.04336761457758145,8.06,5.511580963556046,-0.43666666666666665,-0.29333333333333333,-0.20777777777777778,-0.03718008404599974,0.02882078755050906,0.0
