time,acc_x,acc_y,acc_z,mag_x,mag_y,mag_z,gyr_x,gyr_y,gyr_z
1592170689.62423,-0.12038274476633537,7.6608395009515755,5.987864241911609,-0.4311111111111111,-0.26666666666666666,-0.27666666666666667,0.026587991149176145,-0.013414519804627066,0.0050461015432210765
1592170689.63423,-0.05748551401869159,7.676257242990654,5.941286214953271,-0.4311111111111111,-0.26666666666666666,-0.27666666666666667,0.02304143001708875,-0.029733039700191366,0.0044973067146489975
1592170689.64423,-0.036152202556889,7.675384067518963,5.950768135037926,-0.4311111111111111,-0.26666666666666666,-0.27666666666666667,0.01929901502980892,-0.036836875001534375,0.0007548917273691685
1592170689.6542299,-0.005926415774918842,7.67,5.968147168450162,-0.4436209637556277,-0.2604117403444084,-0.27614542280647847,0.011245162106521819,-0.03933727902618386,-0.004740311380455423
1592170689.6642299,0.001581638323885741,7.667594753806824,6.002405246193176,-0.4577777777777778,-0.25333333333333335,-0.27555555555555555,0.0040111097896332396,-0.03752314824062639,-0.008685302112274494
1592170689.6742299,-0.10228896764073665,7.634141637134724,6.0147138790449075,-0.4577777777777778,-0.25333333333333335,-0.27555555555555555,-0.011734621807011344,-0.030995044437549475,-0.016939088083228238
1592170689.6842299,-0.20530416714763938,7.5843795451921965,6.07530416714764,-0.4577777777777778,-0.25333333333333335,-0.27555555555555555,-0.011829274735178004,-0.032042823700129355,-0.014862899947218247
1592170689.6942298,-0.21077646089945573,7.564358171011172,6.163581710111716,-0.4577777777777778,-0.25333333333333335,-0.27555555555555555,-0.000169397490106242,-0.04189760031781857,-0.008811345005024767
1592170689.7042298,-0.11791469959246258,7.57,6.2242085300407535,-0.454972091083942,-0.25567140557819656,-0.2849078445350083,0.024680690177510296,-0.054655274618587504,-5.8936465228695296e-05
1592170689.7142298,-0.05827923135381609,7.5728679477436405,6.225984873158905,-0.45111111111111113,-0.2588888888888889,-0.29777777777777775,0.044884609572399675,-0.05762632473143095,0.004801305525375329
1592170689.7242298,-0.02535736191839238,7.6153573619183925,6.108930981102316,-0.45111111111111113,-0.2588888888888889,-0.29777777777777775,0.07102061273433602,-0.04947720659341492,0.013012005113742592
1592170689.7342298,-0.030919564161288084,7.620919564161288,6.055459782080644,-0.45111111111111113,-0.2588888888888889,-0.29777777777777775,0.08221354424467962,-0.04125095195614261,0.014776370008382835
1592170689.7442298,-0.023744628159370673,7.634063842960157,6.051872314079685,-0.45111111111111113,-0.2588888888888889,-0.29777777777777775,0.09060859681339115,-0.03794001867102107,0.016601520453801723
1592170689.7542298,-0.006684073107049608,7.650026109660574,6.04,-0.446283724978242,-0.25703220191470844,-0.29777777777777775,0.09963585708635384,-0.03381005801309511,0.01708588476291446
1592170689.7642298,-0.02544271015608595,7.69721355078043,6.01278644921957,-0.43666666666666665,-0.25333333333333335,-0.29777777777777775,0.1059071702753527,-0.030639846283097242,0.013587092594607462
1592170689.7742298,-0.06745970341715023,7.7092972275950995,5.931134751773049,-0.43666666666666665,-0.25333333333333335,-0.29777777777777775,0.09931272284639557,-0.034552821091726874,0.013673715069823402
1592170689.7842298,-0.11059339209124758,7.694703303954377,5.92237356836499,-0.43666666666666665,-0.25333333333333335,-0.29777777777777775,0.08925393705694254,-0.040554926060135714,0.015336359990872662
1592170689.7942297,-0.1045526884364735,7.682276344218237,5.979309139454408,-0.43666666666666665,-0.25333333333333335,-0.29777777777777775,0.08659689189122773,-0.045318271595889054,0.019311282255500765
1592170689.8042297,-0.09564663363016507,7.672607772271694,6.012607772271694,-0.4386949339890954,-0.2515948184855372,-0.2885056985895318,0.08897324556033931,-0.04685869912276217,0.024851668695233448
1592170689.8142297,-0.22345478572777044,7.68,5.999136303568058,-0.4444444444444444,-0.24666666666666667,-0.26222222222222225,0.09438041635231083,-0.04590910753032068,0.027839738620027008
1592170689.8242297,-0.289694692790565,7.674847346395282,5.902710195929237,-0.4444444444444444,-0.24666666666666667,-0.26222222222222225,0.09490227807719166,-0.05193102564434109,0.009813378905136106
1592170689.8342297,-0.32556006950967503,7.695311149727597,5.835062229945519,-0.4444444444444444,-0.24666666666666667,-0.26222222222222225,0.10042431432983963,-0.05728898078311364,-0.013710055355387954
1592170689.8442297,-0.298707819815941,7.750017760077498,5.832495559980625,-0.4444444444444444,-0.24666666666666667,-0.26222222222222225,0.10417337106644979,-0.06095138079944166,-0.012676791033183882
1592170689.8542297,-0.18532017494673098,7.797339912526635,5.8279802624200965,-0.44621783609335475,-0.24489327501775635,-0.2660645707948613,0.09448317005197772,-0.06319833404725878,-0.0005104897224803982
1592170689.8642297,-0.2,7.769678433158734,5.880482350261899,-0.45111111111111113,-0.24,-0.27666666666666667,0.0625210743633233,-0.05833313873787914,0.004415939381348327
1592170689.8742297,-0.1798224382501736,7.760088780874913,5.809112191250868,-0.45111111111111113,-0.24,-0.27666666666666667,0.04577615490035023,-0.055072427779383176,0.010387103661529404
1592170689.8842297,-0.1450139896726644,7.784986010327335,5.705004663224222,-0.45111111111111113,-0.24,-0.27666666666666667,0.03709231603570067,-0.05726505532909541,0.014724689527144216
1592170689.8942297,-0.12638489567282418,7.796384895672824,5.692769791345649,-0.45111111111111113,-0.24,-0.27666666666666667,0.029570149809278055,-0.06463564419361911,0.018728541986658555
1592170689.9042296,-0.1121794772357093,7.803034204607151,5.677393159078569,-0.449373217163491,-0.24492403285159042,-0.27492877271904653,0.020585930428321002,-0.07431634764887067,0.022623084200208823
1592170689.9142296,-0.09,7.84,5.67,-0.4444444444444444,-0.2588888888888889,-0.27,0.01090830782496456,-0.0839939702522271,0.02181661564992912
1592170689.9242296,-0.18,7.817436206711697,5.748303581001394,-0.4444444444444444,-0.2588888888888889,-0.27,-0.04166445541427341,-0.11530526966064339,0.008888042901962117
1592170689.9342296,-0.18967710275787614,7.686775934831681,5.877093924820885,-0.4444444444444444,-0.2588888888888889,-0.27,-0.08357129875067681,-0.12773286942747292,-0.007354034476441659
1592170689.9442296,-0.18117876883743542,7.637528492465026,6.026463693487694,-0.4444444444444444,-0.2588888888888889,-0.27,-0.0880503971828775,-0.11983793797494242,-0.023342926365093223
1592170689.9542296,-0.14120633647483458,7.6646561058752765,6.128793663525165,-0.44835273934451797,-0.2588888888888889,-0.27162845620836396,-0.06413275682070692,-0.10340266499057932,-0.03554607829749771
1592170689.9642296,-0.12,7.6992434031291355,6.15151319374173,-0.4577777777777778,-0.2588888888888889,-0.27555555555555555,-0.041964677107685915,-0.07908875547019081,-0.03642799127953565
1592170689.9742296,-0.12484320093706741,7.656097593440529,6.121567990629326,-0.4577777777777778,-0.2588888888888889,-0.27555555555555555,-0.03279333997269907,-0.034192044995319776,-0.02255017641014217
1592170689.9842296,-0.13,7.62,6.07,-0.4577777777777778,-0.2588888888888889,-0.27555555555555555,-0.030543261909900768,-0.02181661564992912,-0.016362461737446838
1592170689.9942296,-0.19899874414887544,7.663996651063668,6.095002093085208,-0.4577777777777778,-0.2588888888888889,-0.27555555555555555,0.007743208986411458,-0.003927356129271215,0.002508408495351385
1592170690.0042295,-0.21816821300344816,7.730990721979311,6.052672852013792,-0.45533539511570864,-0.2588888888888889,-0.27718381066360165,0.03859503635804317,0.0007829428150220731,0.012906477467780043
1592170690.0142295,-0.2231582599042531,7.7624556534609965,6.041930433173755,-0.4444444444444444,-0.2588888888888889,-0.28444444444444444,0.039652363699894985,-0.010238632228364998,0.02803643746057665
1592170690.0242295,-0.255956831933532,7.656226632348957,6.046064752099702,-0.4444444444444444,-0.2588888888888889,-0.28444444444444444,0.02356900826028207,-0.024195253296345462,0.0390435014286214
1592170690.0342295,-0.28,7.537314569457376,6.024629138914751,-0.4444444444444444,-0.2588888888888889,-0.28444444444444444,0.036390764887044624,-0.03998689458478981,0.03804796103248877
1592170690.0442295,-0.28,7.591517688360788,6.038928616437123,-0.4444444444444444,-0.2588888888888889,-0.28444444444444444,0.08054610444380168,-0.050528825445911044,0.022625022497182408
1592170690.0542295,-0.26730568092270224,7.709520739307973,6.001113976645891,-0.44529073238293093,-0.25853626891451953,-0.2839507764803273,0.11992214930454842,-0.06096500781816947,0.007012684546919511
1592170690.0642295,-0.08740391826021747,7.8129804086989125,5.858894122609674,-0.4577777777777778,-0.25333333333333335,-0.27666666666666667,0.09911332151624827,-0.07728642947958868,-0.002181661564992912
1592170690.0742295,-0.10328379026282526,7.7532837902628255,5.810445887634573,-0.4577777777777778,-0.25333333333333335,-0.27666666666666667,0.050763402991784466,-0.08000506600434736,-0.006480132967335222
1592170690.0842295,-0.11590201331600308,7.733440940077986,5.747048993341998,-0.4577777777777778,-0.25333333333333335,-0.27666666666666667,0.020725784867432664,-0.07821791144955482,-0.015915440735330397
1592170690.0942295,-0.07393891107356781,7.723110505298725,5.704592996467516,-0.4577777777777778,-0.25333333333333335,-0.27666666666666667,0.0303815472097311,-0.07583969183353197,-0.022281173691092514
1592170690.1042295,0.06,7.869701042238069,5.60388096544158,-0.4587727799110136,-0.2569153410129823,-0.2780596696531968,0.05599049509839118,-0.06906430846469126,-0.03557406816543503
1592170690.1142294,0.043755781683626274,7.955938945420907,5.538122109158187,-0.4633333333333333,-0.2733333333333333,-0.28444444444444444,0.046367876462268406,-0.05075945422861861,-0.04230425429657625
1592170690.1242294,0.009326029518950438,7.878840196793003,5.567789950801749,-0.4633333333333333,-0.2733333333333333,-0.28444444444444444,-0.014613341013663853,-0.042856998261712416,-0.04230132154773343
1592170690.1342294,-0.07245698471904705,7.740138370833835,5.646020936108771,-0.4633333333333333,-0.2733333333333333,-0.28444444444444444,-0.07768681318062505,-0.041092990779531394,-0.04545631390951722
1592170690.1442294,-0.13307799310200272,7.71464623944816,5.788183844966558,-0.4633333333333333,-0.2733333333333333,-0.28444444444444444,-0.0921970784318478,-0.044448771720812304,-0.042388043357529874
1592170690.1542294,-0.002428206639167159,7.697240620703202,5.962770379100373,-0.46164704598528994,-0.2733333333333333,-0.2853642375433772,-0.08557482853414793,-0.048709333388998,-0.04156594519581535
1592170690.1642294,-0.33,7.68,6.23,-0.45111111111111113,-0.2733333333333333,-0.2911111111111111,-0.1090830782496456,-0.00545415391248228,-0.07635815477475191
1592170690.1742294,-0.5299386019723437,7.765076747534571,5.753932462169578,-0.45111111111111113,-0.2733333333333333,-0.2911111111111111,-0.10054914769992346,-0.034703823100854264,-0.116597420300039
1592170690.1842294,-0.2754622641509434,7.985815094339623,5.592364150943396,-0.45111111111111113,-0.2733333333333333,-0.2911111111111111,-0.0408765166770738,-0.08230729888193306,-0.06670080345846914
1592170690.1942294,-0.08422652035086431,7.964737585789262,5.637734796491357,-0.45111111111111113,-0.2733333333333333,-0.2911111111111111,-0.07187278526753407,-0.10064872675764865,-0.02407662550432437
1592170690.2042294,-0.07922240348015226,7.717319195214791,5.782305600870038,-0.45111111111111113,-0.27166817714941693,-0.2903425774877651,-0.16118552211746706,-0.09498710069921287,-0.0038193906517099948
1592170690.2142293,-0.15,7.62,5.8,-0.45111111111111113,-0.2588888888888889,-0.28444444444444444,-0.20943951023931953,-0.08726646259971647,0.008726646259971648
1592170690.2242293,-0.22022751865140383,7.786299333675038,5.74100603679025,-0.45111111111111113,-0.2588888888888889,-0.28444444444444444,-0.14591267265548621,-0.08829718866200874,0.028729994133859616
1592170690.2342293,-0.2515935280001901,7.860461878400533,5.709538121599468,-0.45111111111111113,-0.2588888888888889,-0.28444444444444444,-0.14214054585175093,-0.1255311964706428,0.046112163626219546
1592170690.2442293,-0.19373522000387672,7.627951153324288,5.953494863345609,-0.45111111111111113,-0.2588888888888889,-0.28444444444444444,-0.2224379251170031,-0.16148249551800944,0.047115897285223446
1592170690.2542293,-0.22718155197657394,7.521508052708638,6.10829428989751,-0.45203269887750125,-0.2614860907759883,-0.28444444444444444,-0.2961086511514025,-0.18245462458623005,0.026080118979174054
1592170690.2642293,-0.045314458217079086,7.532946988062022,6.245265059689887,-0.4633333333333333,-0.29333333333333333,-0.28444444444444444,-0.28754220594212293,-0.20848049919461548,-0.012963538195572163
1592170690.2742293,0.0,7.496616368223795,6.273254292923107,-0.4633333333333333,-0.29333333333333333,-0.28444444444444444,-0.257429010329047,-0.1839507364649175,-0.013463769253180238
1592170690.2842293,-0.03484533648170012,7.45696906729634,6.23832987012987,-0.4633333333333333,-0.29333333333333333,-0.28444444444444444,-0.24709004340811633,-0.13114936149756146,-0.03659117807027226
1592170690.2942293,-0.17724792099792103,7.4726637214137215,6.3339734927234925,-0.4633333333333333,-0.29333333333333333,-0.28444444444444444,-0.22865066182429936,-0.08298903388945425,-0.0711849294759531
1592170690.3042293,-0.39368591329501773,7.476314086704983,6.409214783237545,-0.4633333333333333,-0.2914903766858245,-0.28638978757237044,-0.19181138087451297,-0.05027873368693243,-0.09468637886244718
1592170690.3142292,-0.43,7.44,6.5,-0.4633333333333333,-0.2733333333333333,-0.3055555555555556,-0.13635384781205698,-0.05126904677733343,-0.0818123086872342
1592170690.3242292,-0.3835950754005655,7.479421536286522,6.454462770970782,-0.4633333333333333,-0.2733333333333333,-0.3055555555555556,-0.08393986566228472,-0.0942892640771318,-0.08653624340719233
1592170690.3342292,-0.3650828858276909,7.573621293485874,6.376378706514125,-0.4633333333333333,-0.2733333333333333,-0.3055555555555556,-0.05402872385969167,-0.13153030258915238,-0.08519711865673639
1592170690.3442292,-0.18768904164981803,7.558457339264051,6.375387181560857,-0.4633333333333333,-0.2733333333333333,-0.3055555555555556,-0.043381806493540814,-0.15976513632345812,-0.05210712946505816
1592170690.3542292,-0.0887535382126971,7.43125454913061,6.453122219975738,-0.4633333333333333,-0.2733333333333333,-0.3055555555555556,-0.052632254433340415,-0.17132819624820764,-0.021272302999059474
1592170690.3642292,0.05,7.24,6.44,-0.4777777777777778,-0.2588888888888889,-0.31222222222222223,-0.05235987755982988,-0.1538071403320003,0.02399827721492203
1592170690.3742292,-0.02716394481011264,7.424652860014872,6.34348599597918,-0.4777777777777778,-0.2588888888888889,-0.31222222222222223,0.013486334715733638,-0.1254503766414391,-0.013734476112649743
1592170690.3842292,-0.1244264912656991,7.626467910678964,6.044128357284145,-0.4777777777777778,-0.2588888888888889,-0.31222222222222223,0.10907314766269788,-0.09147214416098233,-0.016112221344884443
1592170690.3942292,-0.052412847630238936,7.664128476302389,5.980348609479044,-0.4777777777777778,-0.2588888888888889,-0.31222222222222223,0.1574188883165058,-0.07534337878241777,0.019520871899692746
1592170690.4042292,-0.05988053270661966,7.7388053270661965,5.950477869173522,-0.4777777777777778,-0.2588888888888889,-0.31222222222222223,0.15171670178779195,-0.06882659417817337,0.029296048806059342
1592170690.4142292,-0.18,7.64,5.94,-0.47555555555555556,-0.2733333333333333,-0.32,0.10035643198967394,-0.06326818538479445,0.019634954084936207
1592170690.4242291,-0.5408567050251547,7.61,5.972329266177066,-0.47555555555555556,-0.2733333333333333,-0.32,0.048478448939928004,-0.04921442697466908,-0.022010836894323187
1592170690.4342291,-0.4330168653678395,7.619050596103518,5.87,-0.47555555555555556,-0.2733333333333333,-0.32,0.062458071450948574,-0.042645964416892196,-0.02517427463455146
1592170690.4442291,-0.44,7.64,5.87,-0.47555555555555556,-0.2733333333333333,-0.32,0.08835729338221293,-0.04036073895236887,-0.015271630954950384
1592170690.454229,-0.40249408050513025,7.705635359116022,5.879376479873717,-0.47555555555555556,-0.2733333333333333,-0.32,0.07096943349010684,-0.03320103193797224,-0.010157554516095648
1592170690.464229,-0.5,7.56,6.0,-0.48333333333333334,-0.2733333333333333,-0.32666666666666666,-0.014180800172453926,-0.032724923474893676,-0.04036073895236887
1592170690.474229,-0.30114414996767935,7.461144149967679,6.023499245852188,-0.48333333333333334,-0.2733333333333333,-0.32666666666666666,-0.057564416671404765,-0.036503931731945605,-0.07698947808476819
1592170690.484229,-0.3800478480462048,7.587971291172277,5.973977670911771,-0.48333333333333334,-0.2733333333333333,-0.32666666666666666,-0.028370299365188267,-0.03883775138660843,-0.08662344683698875
1592170690.494229,-0.25063064019534986,7.649069080227909,6.0643543192837175,-0.48333333333333334,-0.2733333333333333,-0.32666666666666666,-0.015402652637216477,-0.028361600344907853,-0.05747335193607225
1592170690.504229,-0.20610043529037053,7.597117174505432,6.227631737268641,-0.48333333333333334,-0.2733333333333333,-0.32666666666666666,-0.057500915130279086,-0.028361600344907853,-0.05585418799403138
1592170690.514229,-0.33,7.5,6.33,-0.4688888888888889,-0.2733333333333333,-0.3333333333333333,-0.11890055529211369,-0.03490658503988659,-0.053450708342326333
1592170690.524229,-0.328551381456809,7.5031778966910565,6.292335917877034,-0.4688888888888889,-0.2733333333333333,-0.3333333333333333,-0.07391132019219462,-0.039458543153391375,-0.01805475638592829
1592170690.534229,-0.33423376739407207,7.644744589131357,6.093722945656787,-0.4688888888888889,-0.2733333333333333,-0.3333333333333333,-0.02856465553110708,-0.05448581711728288,-0.008209091872493376
1592170690.544229,-0.38558127875955667,7.641860844031441,6.1881391559685595,-0.4688888888888889,-0.2733333333333333,-0.3333333333333333,-0.03668227341469542,-0.05903167760763577,-0.005631750093486027
1592170690.554229,-0.41562049023294123,7.544233406742941,6.285766593257059,-0.4688888888888889,-0.2733333333333333,-0.3333333333333333,-0.057981276176802994,-0.06558521691905349,-0.0007165956099227403
1592170690.564229,-0.38463400740529763,7.524745086869838,6.275875818855027,-0.4811111111111111,-0.29333333333333333,-0.3477777777777778,-0.03501781187558404,-0.0882000845027076,0.022975176740196647
1592170690.574229,-0.23973230220107078,7.625663295657347,6.241594289113623,-0.4811111111111111,-0.29333333333333333,-0.3477777777777778,0.010406045465861491,-0.09753753316804122,0.02422085601230233
1592170690.584229,-0.41491467655923947,7.643048921864132,6.123219568745653,-0.4811111111111111,-0.29333333333333333,-0.3477777777777778,0.03880825887070924,-0.10449761816712866,-0.018691801506450806
1592170690.594229,-0.382809815470716,7.546817995029646,6.087603271823572,-0.4811111111111111,-0.29333333333333333,-0.3477777777777778,0.06601333150052492,-0.09272061651219875,-0.010426022426852415
1592170690.604229,-0.3335645656810755,7.456535037081972,6.071188188560359,-0.4811111111111111,-0.29333333333333333,-0.3477777777777778,0.08481471352731837,-0.09272061651219875,-0.0220649732053436
1592170690.614229,-0.4162658745936338,7.681392286643123,6.070189910424024,-0.4866666666666667,-0.29444444444444445,-0.38555555555555554,0.11890741810944166,-0.08409755032044836,-0.15646514264915054
1592170690.624229,-0.33079269675663414,7.835771149920617,5.9904842367883875,-0.4866666666666667,-0.29444444444444445,-0.38555555555555554,0.165686161374276,-0.06423889860210559,-0.17880000583125794
1592170690.634229,-0.1785046003247288,7.916572934560087,5.8178817328282,-0.4866666666666667,-0.29444444444444445,-0.38555555555555554,0.1671247372575292,-0.07445514956137868,-0.09663872092268906
1592170690.644229,-0.1509990699116416,7.608666873352969,5.9418888544411725,-0.4866666666666667,-0.29444444444444445,-0.38555555555555554,0.10279879551698494,-0.07646117580315619,-0.04505730572901489
1592170690.654229,-0.5898694000930089,7.511140133312665,5.958143311114556,-0.4866666666666667,-0.29444444444444445,-0.38555555555555554,0.0487196673561343,-0.07734771888776029,-0.0760863136901587
1592170690.664229,-0.24087115357594494,7.6782637815558985,6.003475481242097,-0.5011111111111111,-0.29444444444444445,-0.38333333333333336,0.06810631699574748,-0.08916370399862078,-0.09599310885968812
1592170690.674229,-0.30890823101005843,7.8348304727224285,5.812233274862891,-0.5011111111111111,-0.29444444444444445,-0.38333333333333336,0.09773266872445882,-0.09962830722595949,-0.08824091258620308
1592170690.684229,-0.1325598051855035,7.674641168886979,5.727918636298525,-0.5011111111111111,-0.29444444444444445,-0.38333333333333336,0.07095968047390544,-0.10864378746897545,-0.04391246272921236
1592170690.694229,-0.1552911425236675,7.508430380841222,5.933341762849609,-0.5011111111111111,-0.29444444444444445,-0.38333333333333336,0.010778514381450034,-0.11442953071799083,-0.05007327310345039
1592170690.7042289,-0.10089741927117106,7.490299139757057,6.087457312065015,-0.5011111111111111,-0.29444444444444445,-0.38333333333333336,-0.01592194208283733,-0.10058484958836035,-0.0866627875174738
1592170690.7142289,0.01,7.51,6.17,-0.48444444444444446,-0.31444444444444447,-0.39111111111111113,-0.004363323129985824,-0.07526732399225547,-0.06763150851478027
1592170690.7242289,-0.11127794877012694,7.528498461068858,6.279776409838985,-0.48444444444444446,-0.31444444444444447,-0.39111111111111113,-0.01207230831655071,-0.0666313005119148,-0.059413692791512006
1592170690.7342288,-0.12,7.45,6.21,-0.48444444444444446,-0.31444444444444447,-0.39111111111111113,-0.03490658503988659,-0.05235987755982988,-0.04799655442984406
1592170690.7442288,-0.04591994116828653,7.555100073539641,6.154389919106394,-0.48444444444444446,-0.31444444444444447,-0.39111111111111113,-0.02325321331810628,-0.06262241997910095,-0.03174535903659796
1592170690.7542288,0.020771371216186676,7.6384642140202335,6.062689364577743,-0.48444444444444446,-0.31444444444444447,-0.39111111111111113,0.006755722977447792,-0.069897313626508,-0.033564082448449724
1592170690.7642288,0.02955864226794349,7.729131032521097,5.996524130084384,-0.5111111111111111,-0.32666666666666666,-0.39111111111111113,0.03310408206488438,-0.07398691391476364,-0.05378322194484138
1592170690.7742288,0.13163813537002897,7.7216381353700285,5.949352120094812,-0.5111111111111111,-0.32666666666666666,-0.39111111111111113,0.035926743087989016,-0.07101202097662798,-0.04393861795295114
1592170690.7842288,0.1609538757056853,7.737472182529458,5.836740846588114,-0.5111111111111111,-0.32666666666666666,-0.39111111111111113,0.021344907803765363,-0.05852506844562488,-0.021896392025645438
1592170690.7942288,0.27831928314567,7.706078327339896,5.92176501798031,-0.5111111111111111,-0.32666666666666666,-0.39111111111111113,0.00161325660794014,-0.04077013542537679,-0.010419407109934215
1592170690.8042288,0.25359311442551435,7.648383933659534,6.094848199021399,-0.5111111111111111,-0.32666666666666666,-0.39111111111111113,-0.03884484235178,-0.014697138318001582,-0.0032268561837617456
1592170690.8142288,0.09,7.35,6.35,-0.49777777777777776,-0.3055555555555556,-0.4211111111111111,-0.06763150851478027,0.02945243112740431,0.014180800172453926
1592170690.8242288,-0.1232997158522432,7.485736182815064,6.291827350222116,-0.49777777777777776,-0.3055555555555556,-0.4211111111111111,-0.04965216200960136,0.04002851730692132,-0.020720284219952187
1592170690.8342288,-0.24178984170146645,7.6673671943284445,5.932211323686511,-0.49777777777777776,-0.3055555555555556,-0.4211111111111111,0.029233883598581336,0.05488604545721849,-0.04981103919653332
1592170690.8442287,-0.19,7.84,5.82,-0.49777777777777776,-0.3055555555555556,-0.4211111111111111,0.08290313946973066,0.05017821599483697,-0.01308996938995747
1592170690.8542287,-0.17250169952413325,7.708762746431,5.8724949014276,-0.49777777777777776,-0.3055555555555556,-0.4211111111111111,0.021822548108297563,0.020592304554142817,-0.04363026507067402
1592170690.8642287,-0.06,7.67,6.05,-0.5155555555555555,-0.3244444444444444,-0.44222222222222224,-0.09490227807719166,0.007635815477475192,-0.074176493209759
1592170690.8742287,-0.31262001763038144,7.510838634360184,6.089161365639816,-0.5155555555555555,-0.3244444444444444,-0.44222222222222224,-0.11003889685967239,-0.013583965804645309,-0.05873325775532505
1592170690.8842287,0.12052376635150887,7.558428700945473,6.044364719595907,-0.5155555555555555,-0.3244444444444444,-0.44222222222222224,-0.03802671993162616,-0.04299947288461117,0.015576345866449976
1592170690.8942287,0.1404962690986616,7.473167910300446,6.297127798176004,-0.5155555555555555,-0.3244444444444444,-0.44222222222222224,-0.03169860627414856,-0.06777203442750031,0.031169879142532272
1592170690.9042287,0.0411405898377354,7.506286470054088,6.371644557621698,-0.5155555555555555,-0.3244444444444444,-0.44222222222222224,-0.05518099016744221,-0.05783717970341453,0.014912844139482816
1592170690.9142287,0.1,7.42,6.24,-0.4811111111111111,-0.3322222222222222,-0.45666666666666667,-0.02181661564992912,-0.03599741582238304,0.02617993877991494
1592170690.9242287,0.09058536781887036,7.570634114898074,6.014048827652888,-0.4811111111111111,-0.3322222222222222,-0.45666666666666667,0.0326131684720781,-0.030862530527854065,0.018991099367574364
1592170690.9342287,0.04,7.62,5.85,-0.4811111111111111,-0.3322222222222222,-0.45666666666666667,0.07199483164476608,0.014180800172453926,-0.009817477042468103
1592170690.9442286,-0.020875098814229255,7.62,5.832607114624506,-0.4811111111111111,-0.3322222222222222,-0.45666666666666667,0.112786125387412,0.02935895598367102,-0.0278415370682884
1592170690.9542286,-0.08280092908867331,7.681601083936786,5.838800154848112,-0.4811111111111111,-0.3322222222222222,-0.45666666666666667,0.1390594628701318,0.029714196732585976,-0.06222154524678633
1592170690.9642286,-0.01,7.87,6.06,-0.5077777777777778,-0.3322222222222222,-0.4777777777777778,0.11562806294462433,0.009817477042468103,-0.08072147790473774
1592170690.9742286,0.019030377538071068,7.773232074873096,6.06967679251269,-0.5077777777777778,-0.3322222222222222,-0.4777777777777778,0.058627049941785456,-0.02396090103328826,-0.05538769434792046
1592170690.9842286,0.17530622359632766,7.808826555899081,5.9826402492270665,-0.5077777777777778,-0.3322222222222222,-0.4777777777777778,-0.03010086413391201,-0.06003049993867478,-0.0016000361835253954
1592170690.9942286,0.21286555328607473,7.2857311065721495,6.0528655532860745,-0.5077777777777778,-0.3322222222222222,-0.4777777777777778,-0.14264476841093224,-0.08300733392750846,-0.012468013667461144
1592170691.0042286,0.26325964195602547,7.386519283912051,6.103259641956026,-0.5077777777777778,-0.3322222222222222,-0.4777777777777778,-0.1765438127034391,-0.08483971470007641,-0.020713727144016866
1592170691.0142286,0.01,7.5,5.98,-0.5066666666666667,-0.3244444444444444,-0.4622222222222222,-0.07526732399225547,-0.0545415391248228,-0.02181661564992912
1592170691.0242286,0.5252210043132445,7.666456016778125,5.805617506232441,-0.5066666666666667,-0.3244444444444444,-0.4622222222222222,0.04837684089234233,-0.03638400442149026,0.012769164737370959
1592170691.0342286,-0.007806110227990331,7.803765215687129,5.852285782723254,-0.5066666666666667,-0.3244444444444444,-0.4622222222222222,0.05032957313060919,-0.01256347364068077,-0.03794978510369592
1592170691.0442286,0.03786054918014939,7.465831936066895,6.108019075408837,-0.5066666666666667,-0.3244444444444444,-0.4622222222222222,-0.037344119025867935,-0.0016042621211211291,-0.05588304031752078
1592170691.0542285,-0.0035708524968938726,7.354144124506833,6.320425921485712,-0.5066666666666667,-0.3244444444444444,-0.4622222222222222,-0.10323852499505703,-0.018201064546857243,-0.05197035797749327
1592170691.0642285,0.02,7.54,6.31,-0.5111111111111111,-0.3388888888888889,-0.4988888888888889,0.02617993877991494,-0.05017821599483697,-0.10581058590215622
1592170691.0742285,-0.015147664431109546,7.724525238263325,6.081540181197788,-0.5111111111111111,-0.3388888888888889,-0.4988888888888889,0.02617993877991494,-0.05017821599483697,-0.10581058590215622
1592170691.0842285,0.1,7.947237275199161,5.849787482707628,-0.5111111111111111,-0.3388888888888889,-0.4988888888888889,0.07988819933127464,-0.058835316133508876,-0.11393449911086344
1592170691.0942285,0.09852038945696012,7.815191265735121,5.842774269768199,-0.5111111111111111,-0.3388888888888889,-0.4988888888888889,-0.009089797323423843,-0.055672720025480606,-0.08599405628549392
1592170691.1042285,0.03017313724691409,7.5930626960524705,5.970925367662036,-0.5111111111111111,-0.3388888888888889,-0.4988888888888889,-0.02586473681062145,-0.05753660219072478,-0.07760658654189512
1592170691.1142285,0.21,7.65,6.02,-0.5066666666666667,-0.3388888888888889,-0.5277777777777778,-0.01090830782496456,-0.07199483164476608,-0.10035643198967394
1592170691.1242285,0.08210933511369439,7.665986333110788,6.027993166555394,-0.5066666666666667,-0.3388888888888889,-0.5277777777777778,-0.0021891156967195104,-0.06501947794217006,-0.10471602805379647
1592170691.1342285,0.21385191409435783,7.7246173046981195,5.920765390603762,-0.5066666666666667,-0.3388888888888889,-0.5277777777777778,-0.013901588685062588,-0.0523455085608167,-0.07800740853203106
1592170691.1442285,0.2579323920386887,7.608959634499016,6.012418770808525,-0.5066666666666667,-0.3388888888888889,-0.5277777777777778,-0.02441248487431854,-0.03400298937408246,-0.05190736397609238
1592170691.1542284,0.22260709095081466,7.614957163619674,6.012521418190163,-0.5066666666666667,-0.3388888888888889,-0.5277777777777778,-0.01856281419934782,-0.011514468631164017,-0.04691506909580164
1592170691.1642284,0.2386234696924455,7.62,6.01,-0.510907180695177,-0.3463097884387822,-0.5203568782278846,-0.005954674456655531,0.019574587615834187,-0.08120136961954161
1592170691.1742284,-0.15,7.59,6.12,-0.5111111111111111,-0.3466666666666667,-0.52,-0.006544984694978735,0.015271630954950384,-0.08072147790473774
1592170691.1842284,-0.21938824930527986,7.566870583564906,6.104580389043271,-0.5111111111111111,-0.3466666666666667,-0.52,-0.014114068523552497,-0.0200507602450605,-0.06894734750473411
1592170691.1942284,-0.03945246706618444,7.493150822355395,6.166849177644605,-0.5111111111111111,-0.3466666666666667,-0.52,-0.02469630639565361,-0.07429594636548632,-0.0664915775320632
1592170691.2042284,0.01731284784824018,7.545198322489613,6.201541898565494,-0.5111111111111111,-0.3466666666666667,-0.52,-0.02938996723412112,-0.08409970140081666,-0.052777928174835384
1592170691.2142284,0.1144127653168749,7.466208038536806,6.341308746048472,-0.5048583136802315,-0.3466666666666667,-0.5554325187749846,-0.022358369212718866,-0.09538363610154965,-0.03169448823082899
1592170691.2242284,0.17419350455224894,7.5141935045522485,6.322903247723875,-0.5044444444444445,-0.3466666666666667,-0.5577777777777778,-0.002111301324277462,-0.07530252881775389,-0.011823213300531692
1592170691.2342284,0.16250470241274412,7.537495297587256,6.145047024127441,-0.5044444444444445,-0.3466666666666667,-0.5577777777777778,0.04675680243493099,-0.046367489607301984,-0.0012294929217664934
1592170691.2442284,0.1686988599852441,7.644386319822929,5.972119380250851,-0.5044444444444445,-0.3466666666666667,-0.5577777777777778,0.09615113744271539,-0.01976883833048763,0.006642288971171627
1592170691.2542284,0.009765180407739465,7.630866396437771,5.9572834008905575,-0.5044444444444445,-0.3466666666666667,-0.5577777777777778,0.10492158092247146,-0.0004725459520828375,0.009224807056011591
1592170691.2642283,-0.2449159870295765,7.647845141004225,6.043535423012676,-0.5157887611498696,-0.3507918727413667,-0.5495273656283777,0.07442377105344763,0.0014042423191005272,0.006780043347431789
1592170691.2742283,-0.1746595082228964,7.65,6.084136196710841,-0.5166666666666667,-0.3511111111111111,-0.5488888888888889,0.05027335671253434,-0.012562667746334926,0.006544984694978735
1592170691.2842283,-0.16532285282884804,7.603897622642626,5.99013381887083,-0.5166666666666667,-0.3511111111111111,-0.5488888888888889,0.007665010226191087,-0.039000211990086533,0.0005101976108558785
1592170691.2942283,-0.10204168827640711,7.551458348768862,6.115916623447186,-0.5166666666666667,-0.3511111111111111,-0.5488888888888889,-0.007254020662589422,-0.05624595717120849,0.031770436437679246
1592170691.3042283,0.12256665005606082,7.5758798430297745,6.09929612557618,-0.5166666666666667,-0.3511111111111111,-0.5488888888888889,-0.007071204889014104,-0.045430988920593954,0.03724180818258238
1592170691.3142283,0.09987285867237686,7.688510438972163,6.186212526766595,-0.5107659707351891,-0.34717731382345945,-0.5803592671901023,0.025316486068047265,-0.0030451142768605916,0.02793458213843005
1592170691.3242283,-0.054360121793688876,7.628937073260749,6.1200542074183435,-0.51,-0.3466666666666667,-0.5844444444444444,0.044955956723697364,0.010780534280179613,0.03490067192782978
1592170691.3342283,-0.23912451849656965,7.586175096300686,6.042350192601372,-0.51,-0.3466666666666667,-0.5844444444444444,0.07826838289200899,0.011076707453206268,0.04706658967344001
1592170691.3442283,-0.20377271443366915,7.654505696262122,6.063113642783166,-0.51,-0.3466666666666667,-0.5844444444444444,0.10024859164303793,7.189356442402137e-05,0.05179648877747565
1592170691.3542283,-0.19,7.732455862607964,6.035302298551131,-0.51,-0.3466666666666667,-0.5844444444444444,0.0801623454273386,-0.0014246751485469534,0.037220149230910715
1592170691.3642282,-0.20696250834737812,7.590374916526218,6.036962508347378,-0.5081152768502913,-0.3494937513912297,-0.5966951449175509,0.04113316938657979,-0.007566959971282059,0.0027884225293910436
1592170691.3742282,-0.1261509700176367,7.5914433862433865,6.024278306878307,-0.5077777777777778,-0.35,-0.5988888888888889,0.026279248629989836,-0.016158185877684098,0.016683015926123312
1592170691.3842282,0.012568726632944796,7.635642181658236,5.900504728392347,-0.5077777777777778,-0.35,-0.5988888888888889,0.01830644118285357,-0.019494851780784472,0.07476689007708334
1592170691.3942282,0.16037329449639734,7.6834577648321325,5.939532423731412,-0.5077777777777778,-0.35,-0.5988888888888889,0.01664792059774447,-0.0005301976078345878,0.09281234128365351
1592170691.4042282,0.12886543535620054,7.726524689031286,5.920780248774972,-0.5077777777777778,-0.35,-0.5988888888888889,0.009987700918816966,0.02130594402088253,0.1097483493412699
1592170691.4142282,0.0405759226390844,7.757356019340229,5.953390048350572,-0.4990997681076633,-0.3451788835166031,-0.6191375781191559,0.03035479166698581,0.03877446443176689,0.1165746869525206
1592170691.4242282,0.02015863068426619,7.730475892052799,5.881269045474129,-0.49777777777777776,-0.34444444444444444,-0.6222222222222222,0.027911356532054944,0.047875426966431836,0.11671889372712078
1592170691.4342282,0.3283899324996075,7.745484276071372,5.754515723928628,-0.49777777777777776,-0.34444444444444444,-0.6222222222222222,0.0036242112152484185,0.06555549959896327,0.10100727171535108
1592170691.4442282,0.0035236920741829603,7.6591965090357155,5.871819949722525,-0.49777777777777776,-0.34444444444444444,-0.6222222222222222,0.0012017092327592225,0.09409762028041774,0.09345558076137402
1592170691.4542282,0.10271417933845431,7.661816311334064,5.9418163113340645,-0.49777777777777776,-0.34444444444444444,-0.6222222222222222,-0.011006698914708861,0.0952001446502064,0.09480298921952009
1592170691.4642282,0.23,7.687970006816633,5.9918800272665305,-0.5057477845944104,-0.33293221237597515,-0.6275355600999774,-0.019413516179668692,0.10814825039705217,0.10903400201812223
1592170691.4742281,0.17255210946408212,7.616138426453819,6.008206841505131,-0.5077777777777778,-0.33,-0.6288888888888889,-0.016054043948589575,0.12399352854026152,0.10698420539261501
1592170691.4842281,0.23709011943539632,7.561454940282301,5.9174918566775245,-0.5077777777777778,-0.33,-0.6288888888888889,-0.032931008769306686,0.14251390307781603,0.09319674460618743
1592170691.4942281,0.15606095255874736,7.520303129302499,6.0087874827900025,-0.5077777777777778,-0.33,-0.6288888888888889,-0.02684108614214817,0.16507899902237952,0.08539884157712803
1592170691.504228,0.07073526481488862,7.577739010879528,6.062316183796278,-0.5077777777777778,-0.33,-0.6288888888888889,-0.0182052410896732,0.1705886892315504,0.063169918020038
1592170691.514228,0.032572027926185715,7.6422839162214435,6.055144055852371,-0.5028257963952348,-0.3407292929955095,-0.6272382284280413,-0.020943493367698844,0.16044640936187834,0.03478316087451972
1592170691.524228,-0.07952276064610868,7.6891152716593245,6.143876651982379,-0.5011111111111111,-0.34444444444444444,-0.6266666666666667,-0.03144107491076606,0.13574556148363845,0.026892342583902166
1592170691.534228,0.05527626675308443,7.617361866623458,5.99721117566723,-0.5011111111111111,-0.34444444444444444,-0.6266666666666667,-0.04938611947746668,0.11096052627172243,0.022901967154635668
1592170691.544228,0.19039522080356097,7.6265432821834365,5.976543282183437,-0.5011111111111111,-0.34444444444444444,-0.6266666666666667,-0.04975803467292514,0.09993625066776211,0.030586373811741494
1592170691.554228,0.2538735151488188,7.53160475152378,5.956126484851182,-0.5011111111111111,-0.34444444444444444,-0.6266666666666667,-0.030260423372712113,0.09891377588539486,0.04416183070738377
1592170691.564228,0.4409855812021598,7.6509855812021605,5.948142170533436,-0.4911595693480224,-0.3607287855113168,-0.650188492652149,-0.02181661564992912,0.10814733146138528,0.03487661680560807
1592170691.574228,0.34350932925848476,7.700919253659321,5.982757760977964,-0.4888888888888889,-0.36444444444444446,-0.6555555555555556,-0.027176591755992713,0.11434277933685819,0.03580296299711335
1592170691.584228,0.12916157533602785,7.616364319954883,5.973986276905724,-0.4888888888888889,-0.36444444444444446,-0.6555555555555556,-0.049705136454425404,0.12252390983884198,0.040841303279613994
1592170691.594228,0.17584206515526765,7.622921032577634,6.01007453800724,-0.4888888888888889,-0.36444444444444446,-0.6555555555555556,-0.0629658118301112,0.11811209806430048,0.006336882070703188
1592170691.604228,0.11371812107470354,7.609911912835845,6.078140939462648,-0.4888888888888889,-0.36444444444444446,-0.6555555555555556,-0.04838292088393695,0.10775102014500107,-0.002384453611059683
1592170691.614228,0.023894910948991346,7.6095788167882565,6.11,-0.4852631820762488,-0.34704105174377203,-0.6649823932684198,-0.04278349354820979,0.08189282338509457,0.01960038334831989
1592170691.624228,0.17440117110369716,7.633700097591975,6.123700097591975,-0.48333333333333334,-0.3377777777777778,-0.67,-0.06225382985903596,0.039520575691553185,0.013013494133219505
1592170691.634228,-0.026371594266331122,7.586261078892658,6.030199146514936,-0.48333333333333334,-0.3377777777777778,-0.67,-0.06311373358125463,0.009177946313436915,0.02136531559646385
1592170691.644228,-0.23911366092957514,7.550136359856989,6.024829550178764,-0.48333333333333334,-0.3377777777777778,-0.67,-0.0572946465487264,-0.022721514520550816,0.011554126448625156
1592170691.654228,0.03745023382858087,7.554693953565369,5.945050697347184,-0.48333333333333334,-0.3377777777777778,-0.67,-0.051430438990528175,-0.07307460198188276,-0.061860303549635946
1592170691.664228,-0.21786389289933056,7.700813426958919,5.8876949074681715,-0.46281358008487555,-0.3377777777777778,-0.6751299383121144,-0.04346314244704215,-0.08810584679319083,-0.18547072654601376
1592170691.674228,-0.20804496736239828,7.767763719880731,5.825217986944959,-0.45666666666666667,-0.3377777777777778,-0.6766666666666666,-0.04094681106349014,-0.10097626016659252,-0.2035450330623095
1592170691.684228,0.08807574255088067,7.7527168626339895,5.75,-0.45666666666666667,-0.3377777777777778,-0.6766666666666666,-0.08678085051103605,-0.12373316178820114,-0.18679960760839023
1592170691.694228,0.20622012316042168,7.744715582924538,5.882440246320843,-0.45666666666666667,-0.3377777777777778,-0.6766666666666666,-0.15483187913357208,-0.1316402542612017,-0.16961519224840899
1592170691.704228,0.2678091144956527,7.661778732843477,6.005618228991305,-0.45666666666666667,-0.3377777777777778,-0.6766666666666666,-0.17744693474456222,-0.12758224267112883,-0.12484688040453362
1592170691.714228,0.13222948192436898,7.559800289703208,6.179084969334608,-0.4702126202388168,-0.3465428065597573,-0.6870253370453697,-0.16699692408363162,-0.11574966232023037,-0.06468024426624469
1592170691.724228,0.11572790155232043,7.577413737633717,6.2466283278372075,-0.47555555555555556,-0.35,-0.6911111111111111,-0.1491993387997442,-0.11190210330047824,-0.037027664391792246
1592170691.734228,0.05819502888058335,7.572680013590863,6.241340006795432,-0.47555555555555556,-0.35,-0.6911111111111111,-0.14684054601857044,-0.1112647398146385,-0.04589942576441211
1592170691.744228,0.09811145218417947,7.38111971664699,6.288740968122786,-0.47555555555555556,-0.35,-0.6911111111111111,-0.11587234722186628,-0.1168714297340616,-0.05271842217594206
1592170691.7542279,0.34603712866308656,7.486657213540095,6.297655021219252,-0.47555555555555556,-0.35,-0.6911111111111111,-0.054059475246767894,-0.09062136127917263,-0.06675527207013449
1592170691.7642279,0.48,7.59,6.224296501624928,-0.46825516684721424,-0.34594422849536594,-0.6862441853055502,-0.00807129976042557,-0.033268218791021396,-0.10263766757467108
1592170691.7742279,0.45630133083716573,7.593949778193806,6.22764844735664,-0.46555555555555556,-0.34444444444444444,-0.6844444444444444,-0.0004582457098583053,-0.006911066280281155,-0.10804703095929845
1592170691.7842278,0.6141798996004507,7.468235068128266,6.179845046614076,-0.46555555555555556,-0.34444444444444444,-0.6844444444444444,0.016554985938916543,0.02679461371193278,-0.05984027116344411
1592170691.7942278,0.4487824150563896,7.5679081962502694,6.197421162272825,-0.46555555555555556,-0.34444444444444444,-0.6844444444444444,0.020558567505903503,0.054172704953914755,-0.05711076257834581
1592170691.8042278,0.27979315532154947,7.640801053027454,6.241602106054907,-0.46555555555555556,-0.34444444444444444,-0.6844444444444444,0.04025366605495195,0.0651228848837288,-0.0573771248219328
1592170691.8142278,0.28801377135686473,7.629072685736349,6.249536342868175,-0.4475348127174119,-0.34444444444444444,-0.6989773015719796,0.06751599887466328,0.05850024507727333,-0.015834823809802147
1592170691.8242278,0.45208025591569834,7.5398198240579575,6.233619984005269,-0.4311111111111111,-0.34444444444444444,-0.7122222222222222,0.06104721552703245,0.05157011956281147,0.06338611026310167
1592170691.8342278,0.6282844884178936,7.450196004876676,6.142843008534184,-0.4311111111111111,-0.34444444444444444,-0.7122222222222222,0.05915084393130799,0.06186723047989923,0.10778373336770025
1592170691.8442278,0.6022241138776572,7.481109928826464,6.138887943061171,-0.4311111111111111,-0.34444444444444444,-0.7122222222222222,0.08926581606202359,0.08762968595880269,0.11690073754771145
1592170691.8542278,0.4415674465292256,7.539686510694154,6.17,-0.4311111111111111,-0.34444444444444444,-0.7122222222222222,0.11225298146169517,0.10733569384584114,0.11079626627497012
1592170691.8642278,0.14146773229757992,7.548321631311622,6.263426949507021,-0.42721832154831857,-0.348337234007237,-0.7122222222222222,0.11507881807572616,0.09797637089111524,0.06886712614374343
1592170691.8742278,0.0748246832856559,7.493234572946465,6.314411524315489,-0.42444444444444446,-0.3511111111111111,-0.7122222222222222,0.10555381494558982,0.0746126472095933,0.04764371725602063
1592170691.8842278,0.26598685232154873,7.467960556964646,6.28,-0.42444444444444446,-0.3511111111111111,-0.7122222222222222,0.07069587403043145,0.02853562283425275,-0.011254602415215129
1592170691.8942277,0.1588556671721001,7.3888556671721,6.360762888551934,-0.42444444444444446,-0.3511111111111111,-0.7122222222222222,0.09523515100361685,0.004972651156874539,-0.05349231745812949
1592170691.9042277,0.20079713461347132,7.509194905979505,6.321602228633967,-0.42444444444444446,-0.3511111111111111,-0.7122222222222222,0.1392328770296227,-0.021859658480327896,-0.03730693370335034
1592170691.9142277,0.3600726832222895,7.758670070087393,6.225683135761876,-0.41300548969840306,-0.3555595935123494,-0.7204836895388077,0.2021533042814746,-0.05003314314611351,-0.022283548234597283
1592170691.9242277,0.4387656657511482,7.7086403397419625,6.300083550672791,-0.40444444444444444,-0.35888888888888887,-0.7266666666666667,0.25868432534255836,-0.06641058973511901,-0.011581532722233128
1592170691.9342277,0.2696719505171161,7.436791375554053,6.501686324593694,-0.40444444444444444,-0.35888888888888887,-0.7266666666666667,0.27941873747299545,-0.07722673831195273,0.07814648569999409
1592170691.9442277,1.4669930667679743,7.606516288346472,5.915044163738247,-0.40444444444444444,-0.35888888888888887,-0.7266666666666667,0.30047948690408194,-0.05845812825023794,0.17319044393059554
1592170691.9542277,0.6142586808372548,7.800299164368003,5.871794986208016,-0.40444444444444444,-0.35888888888888887,-0.7266666666666667,0.3280852345044822,-0.002401779110325082,0.0723350857134829
1592170691.9642277,-0.0381508471488432,7.588602052590028,6.1038683427460985,-0.41330128270008026,-0.3704709081462588,-0.7178098284110308,0.3211173441670113,-0.0054000992626664635,-0.02125102913016506
1592170691.9742277,0.38764174950298214,7.507641749502982,6.0123399602385685,-0.41888888888888887,-0.37777777777777777,-0.7122222222222222,0.28329890349477116,-0.023988301426453872,-0.01089633687880277
1592170691.9842277,0.4397721005255216,7.733992403350851,5.707946823455955,-0.41888888888888887,-0.37777777777777777,-0.7122222222222222,0.23215613648907416,-0.016155068237304164,0.008071319124600188
1592170691.9942276,0.6051715511079343,7.806045746962115,5.6102913986180605,-0.41888888888888887,-0.37777777777777777,-0.7122222222222222,0.26311836517704146,-0.03149447051075388,0.021461322421510567
1592170692.0042276,0.680281060681299,7.966106862647731,5.57,-0.41888888888888887,-0.37777777777777777,-0.7122222222222222,0.23471181367354418,-0.024422952621356242,0.01736283232495029
1592170692.0142276,0.4451575198611999,7.821146014062643,5.669541594374943,-0.40414198601852697,-0.3808500492091032,-0.7085354965046318,0.1729638660737016,-0.011883491220146761,0.00714822377988409
1592170692.0242276,0.4130775823368567,7.6964069705750315,5.75,-0.39222222222222225,-0.38333333333333336,-0.7055555555555556,0.1437153418071936,-0.011666008511333153,0.010060457673854696
1592170692.0342276,1.0751053405193531,8.090568348848603,5.744326310632043,-0.39222222222222225,-0.38333333333333336,-0.7055555555555556,0.12372778881857523,-0.005222198714244423,0.031278143010308714
1592170692.0442276,1.0447520161290322,7.980695161290322,5.765772983870968,-0.39222222222222225,-0.38333333333333336,-0.7055555555555556,0.14083940556883948,0.0036391962278794062,0.03563071194199301
1592170692.0542276,0.5908904454416111,7.694657546240561,5.826095873919229,-0.39222222222222225,-0.38333333333333336,-0.7055555555555556,0.1551270969148434,0.006544984694978735,0.04699538260736236
1592170692.0642276,0.8183212590557083,7.8552623032725455,5.650104921309018,-0.38604699253337776,-0.3872630249535071,-0.7016258639353818,0.1877831265404541,0.02363026148378002,0.06379643306700013
1592170692.0742276,0.6423072257184017,7.906539161422398,5.670615664568959,-0.38,-0.39111111111111113,-0.6977777777777778,0.19806956984080856,0.04016774072422758,0.05889638472389605
1592170692.0842276,0.6245786682380672,7.885939893930465,5.7647083087802,-0.38,-0.39111111111111113,-0.6977777777777778,0.16857931606125842,0.04143742814546349,0.04417511129375601
1592170692.0942276,0.7197173340723292,7.73009422197589,5.805047110987945,-0.38,-0.39111111111111113,-0.6977777777777778,0.15117770459586344,0.038230467503220324,0.055529589675630514
1592170692.1042275,0.75,7.827475676211235,5.803980580600416,-0.38,-0.39111111111111113,-0.6977777777777778,0.16069101425729665,0.037067063326035814,0.05568532810442846
1592170692.1142275,0.788630594522378,7.997023744458614,5.774881277706929,-0.37258604751590724,-0.3926719432130254,-0.7005092339561277,0.20851733526372393,0.04248397380028145,0.03965299400306468
1592170692.1242275,0.8311700140121439,7.894680056048575,5.734024988323213,-0.35888888888888887,-0.39555555555555555,-0.7055555555555556,0.2405494589954752,0.045078034378543116,0.047698754059751027
1592170692.1342275,0.7187455110162089,7.726982917596816,5.71220324177424,-0.35888888888888887,-0.39555555555555555,-0.7055555555555556,0.22642684660340853,0.05539203351245689,0.059282042169653194
1592170692.1442275,0.6919739574825566,7.8897580099409605,5.588491587520127,-0.35888888888888887,-0.39555555555555555,-0.7055555555555556,0.22462176806106232,0.06056649996953154,0.06326818538479445
1592170692.1542275,0.6674124436714365,8.092995296070836,5.529289074235117,-0.35888888888888887,-0.39555555555555555,-0.7055555555555556,0.246466743105673,0.05915404839964406,0.06326818538479445
1592170692.1642275,0.6085162341440707,7.961483765855929,5.513634353543582,-0.35654718957290815,-0.40117563391390926,-0.6905686799332791,0.24887127215615845,0.05965319781431247,0.06648672648329498
1592170692.1742275,0.7330166091885678,7.84935148848456,5.446681729892576,-0.35333333333333333,-0.4088888888888889,-0.67,0.23433611105619043,0.06263804002492919,0.07096981306550267
1592170692.1842275,0.8059739902669709,8.130779192213577,5.3351947980533945,-0.35333333333333333,-0.4088888888888889,-0.67,0.20670537022049343,0.08111814909687703,0.08356898682620158
1592170692.1942275,0.7292949380733441,8.023801394724686,5.370564049541325,-0.35333333333333333,-0.4088888888888889,-0.67,0.21424826533764246,0.07900063037314518,0.09600849092475137
1592170692.2042274,0.7370575979437651,8.023684476984188,5.371961601370823,-0.35333333333333333,-0.4088888888888889,-0.67,0.1927351390247747,0.06935125137452063,0.10164821981775804
1592170692.2142274,0.8870449920160305,8.099785841760857,5.3290149973386765,-0.35720675871713786,-0.41100166637096414,-0.6682393520982707,0.15939910388809614,0.06257678057059056,0.11565142398458261
1592170692.2242274,0.9484207305592167,8.017368668800602,5.35578939935982,-0.3655555555555556,-0.41555555555555557,-0.6644444444444444,0.12820126896633458,0.06728706806623073,0.1308422871581498
1592170692.2342274,0.8039503324118709,8.034211921134998,5.286317881702497,-0.3655555555555556,-0.41555555555555557,-0.6644444444444444,0.12013478330845184,0.08491214617965662,0.11832696635674694
1592170692.2442274,0.6722306730845943,8.02304816105098,5.234163497593277,-0.3655555555555556,-0.41555555555555557,-0.6644444444444444,0.1253847078154334,0.10074976695177457,0.09578227041256465
1592170692.2542274,0.5557745059288538,8.09056343873518,5.210704150197628,-0.3655555555555556,-0.41555555555555557,-0.6644444444444444,0.12272613765058586,0.10839171573591712,0.08849556588495863
1592170692.2642274,0.36903182125930944,8.16898636231744,5.16,-0.36892474736076636,-0.4126676768653749,-0.6673323231346251,0.09938113072713432,0.1093394236593763,0.06931039686293824
1592170692.2742274,0.2668721048912617,8.213974248253122,5.159397424825312,-0.37333333333333335,-0.4088888888888889,-0.6711111111111111,0.0716521324710078,0.09925155580807807,0.04430308550142031
1592170692.2842274,0.6424898469228366,8.068442153493699,5.215619077371655,-0.37333333333333335,-0.4088888888888889,-0.6711111111111111,-0.01591649676274299,0.02652276157503879,0.023282188778719005
1592170692.2942274,0.8373260064450965,7.984105382136502,5.336610312154297,-0.37333333333333335,-0.4088888888888889,-0.6711111111111111,-0.059178107731949765,-0.01024686279226133,0.03747859728650971
1592170692.3042274,0.8512279280738702,7.964433824720557,5.4021691236027864,-0.37333333333333335,-0.4088888888888889,-0.6711111111111111,-0.061220469993968435,-0.01407813166692494,0.042676346691528685
1592170692.3142273,0.7224953300124534,7.97,5.457001867995019,-0.3698330911858309,-0.41488930399889307,-0.6711111111111111,-0.04030521254111788,0.009873003453719092,0.03452469238268943
1592170692.3242273,0.6359634888438134,7.980091277890466,5.4778904665314405,-0.3655555555555556,-0.4222222222222222,-0.6711111111111111,-0.020705871120896217,0.029142108577211355,0.03316523853719955
1592170692.3342273,0.6274626489459212,8.07,5.342537351054079,-0.3655555555555556,-0.4222222222222222,-0.6711111111111111,-0.0023747066184580845,0.050950396208697665,0.04307966717270043
1592170692.3442273,0.6298066900407467,8.05903818819293,5.332885435421207,-0.3655555555555556,-0.4222222222222222,-0.6711111111111111,-0.019110883956322825,0.06607935130545906,0.05156271210975761
1592170692.3542273,0.4942203712124344,8.011808730519615,5.40879417965359,-0.3655555555555556,-0.4222222222222222,-0.6711111111111111,-0.05258288213321818,0.07478125022846228,0.04607796205525602
1592170692.3642273,0.37891750867139196,7.973659779822047,5.455257728849344,-0.36380297927244093,-0.42426689455252264,-0.6641008059786525,-0.0706734639510058,0.06051862063365551,0.03393383574369325
1592170692.3742273,0.5390462427745665,8.028143063583814,5.458143063583815,-0.35888888888888887,-0.43,-0.6444444444444445,-0.07437905355015033,0.03673514531112342,0.024226847248826632
1592170692.3842273,0.674836673273141,7.987744990090288,5.406617485135433,-0.35888888888888887,-0.43,-0.6444444444444445,-0.08161805224751192,0.024156901290391858,0.020884408942902492
1592170692.3942273,0.7337554585152838,7.976254245511887,5.417510917030568,-0.35888888888888887,-0.43,-0.6444444444444445,-0.09217546575723934,0.02809008351258341,0.012543760089842797
1592170692.4042273,0.760357029135488,7.99628562330839,5.571500159210317,-0.35888888888888887,-0.43,-0.6444444444444445,-0.09199208621786269,0.051678151738648224,0.008890288244497564
1592170692.4142272,0.6258615176057561,7.928546699572457,5.697487921026104,-0.3604159956125613,-0.4312725889363937,-0.642917337720772,-0.086334162301478,0.08703547295367496,0.01938508183158532
1592170692.4242272,0.41,7.89,5.79,-0.3655555555555556,-0.43555555555555553,-0.6377777777777778,-0.09053895494720585,0.11562806294462433,0.01854412330243975
1592170692.4342272,0.10491215952431004,7.8813982401873925,5.70128111955314,-0.3655555555555556,-0.43555555555555553,-0.6377777777777778,-0.060726375057893786,0.11914411596564327,-0.009177831351635772
1592170692.4442272,-0.06518191527233891,8.024818084727661,5.462590957636169,-0.3655555555555556,-0.43555555555555553,-0.6377777777777778,-0.01730456051933947,0.08208010395516213,-0.02829465152792587
1592170692.4542272,0.025872723393525615,8.086303896658068,5.474353240103187,-0.3655555555555556,-0.43555555555555553,-0.6377777777777778,-0.022387811775286624,0.02869083629359431,-0.04486742708385198
1592170692.4642272,0.14093682628862614,8.01214738355001,5.63327366564317,-0.3573309959858598,-0.43384210564520226,-0.6398339176702017,-0.07212802317364085,-0.020583400343788062,-0.05764064731514133
1592170692.4742272,0.3,7.86,5.82,-0.3388888888888889,-0.43,-0.6444444444444445,-0.11890055529211369,-0.044724062082354694,-0.05235987755982988
1592170692.4842272,0.3567730832944658,7.784302555607379,5.883081203660518,-0.3388888888888889,-0.43,-0.6444444444444445,-0.10513837154214956,-0.03440242426988159,-0.044790676497349614
1592170692.4942272,0.33716505124518853,7.753208737188703,5.915597087603766,-0.3388888888888889,-0.43,-0.6444444444444445,-0.055299297984490486,-0.02211791825812598,-0.03699875629025555
1592170692.5042272,0.2574442466019075,7.835917705339986,5.834665479611445,-0.3388888888888889,-0.43,-0.6444444444444445,0.021444287409534326,-0.018632065921277897,-0.029985683014078925
1592170692.5142272,0.23309083478083173,7.984121113041109,5.6669091652191685,-0.3396902164246601,-0.4312592289847833,-0.6476497545875293,0.07499622313670298,-0.031283634371110855,-0.02422304906309149
1592170692.5242271,0.3369106396958746,7.998025531515464,5.650987234242268,-0.3466666666666667,-0.44222222222222224,-0.6755555555555556,0.07924506529287197,-0.07070594957010802,-0.02617993877991494
1592170692.5342271,0.553644509374239,7.93090625760896,5.63726953981008,-0.3466666666666667,-0.44222222222222224,-0.6755555555555556,0.041549152211001,-0.10164625240505239,-0.02776675626882335
1592170692.5442271,0.7526628120018083,7.861191852856497,5.628901182573108,-0.3466666666666667,-0.44222222222222224,-0.6755555555555556,0.010217658568737653,-0.11180508091036295,-0.02110566921160708
1592170692.554227,0.9045767493349046,7.815961576231542,5.693153891477851,-0.3466666666666667,-0.44222222222222224,-0.6755555555555556,0.017092447948598433,-0.10632664018846019,-0.004841612121107746
1592170692.564227,1.0523053856776485,7.787864273032157,5.646723219569935,-0.3466666666666667,-0.44222222222222224,-0.6736623046404069,0.05026567183030878,-0.09476184087682529,-0.0042733279764565245
1592170692.574227,0.8,7.9,5.6,-0.3466666666666667,-0.44222222222222224,-0.6466666666666666,0.09817477042468103,-0.030543261909900768,-0.01854412330243975
1592170692.584227,0.5971836789657958,8.102530568273632,5.244938863452734,-0.3466666666666667,-0.44222222222222224,-0.6466666666666666,0.1492122837412858,0.026086426407690697,-0.0528051116160845
1592170692.594227,0.5068359735739149,8.14915251829225,5.137231654471834,-0.3466666666666667,-0.44222222222222224,-0.6466666666666666,0.14991216850196534,0.0437256772132999,-0.05830090295106653
1592170692.604227,0.3681366425894748,8.13,5.160848856785967,-0.3466666666666667,-0.44222222222222224,-0.6466666666666666,0.11076337116682079,0.03812261935578311,-0.06493266057433555
1592170692.614227,0.40232856678583034,8.127260318492038,5.203698407539812,-0.34651446213844656,-0.44222222222222224,-0.6470471779872169,0.06246131802666577,0.014614190042977787,-0.0757156033307237
1592170692.624227,0.57,8.09,5.39,-0.34444444444444444,-0.44222222222222224,-0.6522222222222223,0.02181661564992912,-0.02399827721492203,-0.0818123086872342
1592170692.634227,0.9855200885027388,7.9617198672458915,5.588072097353012,-0.34444444444444444,-0.44222222222222224,-0.6522222222222223,-0.03506543703344136,-0.0484852369662513,-0.0738981122286508
1592170692.644227,1.0939987671297833,7.816001232870216,5.758396794537436,-0.34444444444444444,-0.44222222222222224,-0.6522222222222223,-0.05113838915693483,-0.018108597901111093,-0.06641002011188521
1592170692.654227,1.0957672410652481,7.76284655178695,5.912014827498269,-0.34444444444444444,-0.44222222222222224,-0.6522222222222223,-0.021082712138844804,0.05675942394961553,-0.054852049756140366
1592170692.664227,0.8969791666666667,7.803472222222222,5.851319444444445,-0.34357638888888886,-0.4419328703703704,-0.6513541666666667,0.031723101454163426,0.15375032622874524,-0.06146149690128469
1592170692.674227,0.61,7.88,5.66,-0.3244444444444444,-0.43555555555555553,-0.6322222222222222,0.10581058590215622,0.27270769562411395,-0.11780972450961724
1592170692.684227,-0.10886951842884043,7.93936400322841,5.271377993005112,-0.3244444444444444,-0.43555555555555553,-0.6322222222222222,0.14600557257420385,0.3682691090086737,-0.18343688648732615
1592170692.694227,-1.2786269968806125,8.169509641743074,4.843692929388411,-0.3244444444444444,-0.43555555555555553,-0.6322222222222222,0.06126137742594752,0.4137849108411149,-0.20873011964702537
1592170692.704227,-1.5079052537455064,8.225347360353291,4.814652639646709,-0.3244444444444444,-0.43555555555555553,-0.6322222222222222,-0.08507753533214485,0.37581952090405163,-0.17855712912632002
1592170692.714227,-1.3276347689674843,8.092104962920708,4.963156018254421,-0.32497068517462124,-0.43555555555555553,-0.6324268713950688,-0.19766952076799904,0.2526142877006129,-0.09518976456978342
1592170692.724227,-0.5,8.17,5.45,-0.34444444444444444,-0.43555555555555553,-0.64,-0.3272492347489368,0.03381575425739013,0.015271630954950384
1592170692.734227,0.253570738706918,8.060617290764094,5.697483374265294,-0.34444444444444444,-0.43555555555555553,-0.64,-0.35801211368439273,-0.18693918007205762,0.07350003303770562
1592170692.744227,0.6309848286374354,7.799036844737657,5.965952318574797,-0.34444444444444444,-0.43555555555555553,-0.64,-0.3436093322879125,-0.26987673682625973,0.06251382421108433
1592170692.754227,0.6215946415459284,7.657536400594587,6.135724519583789,-0.34444444444444444,-0.43555555555555553,-0.64,-0.34634671482044027,-0.23077411453662344,0.02120805018786011
1592170692.764227,0.4262908107527267,7.5824195425972025,6.188306320181958,-0.34444444444444444,-0.43555555555555553,-0.64,-0.3299587586228477,-0.15620891383757718,-0.017303646876482455
1592170692.774227,0.24,7.58,6.11,-0.3377777777777778,-0.43555555555555553,-0.6377777777777778,-0.17889624832941878,-0.06326818538479445,-0.0545415391248228
1592170692.784227,0.0697729698004482,7.826136218119731,5.923636751680718,-0.3377777777777778,-0.43555555555555553,-0.6377777777777778,-0.05077327809708026,0.003222729231544726,-0.05035180487589533
1592170692.794227,0.007152547163145621,7.830008478767752,5.888559316046068,-0.3377777777777778,-0.43555555555555553,-0.6377777777777778,-0.04908368565199573,0.043940140660128205,-0.03413098762843589
1592170692.8042269,-0.03725203133006369,7.784249322889979,5.987620598784862,-0.3377777777777778,-0.43555555555555553,-0.6377777777777778,-0.0753075284647675,0.07941129918581512,-0.007759383344828478
1592170692.8142269,0.008802064270551205,7.799600688090184,6.087404472586194,-0.3377777777777778,-0.43555555555555553,-0.6377777777777778,-0.09121598309280952,0.10620448592778062,0.011498219625959231
1592170692.8242269,0.0,7.86,6.12,-0.3377777777777778,-0.43555555555555553,-0.6466666666666666,-0.028361600344907853,0.11671889372712078,0.032724923474893676
1592170692.8342268,-0.06436969007225472,8.072415901331286,5.585062858957732,-0.3377777777777778,-0.43555555555555553,-0.6466666666666666,0.08937028810643952,0.08256621558248682,0.03929511250179734
1592170692.8442268,-0.0027354600180120397,8.02735460018012,5.369909939801868,-0.3377777777777778,-0.43555555555555553,-0.6466666666666666,0.1994853238737761,0.0001170612357952322,0.029535521854402072
1592170692.8542268,7.693131515065094e-05,8.09596922747394,5.273876909895759,-0.3377777777777778,-0.43555555555555553,-0.6466666666666666,0.24273165637513866,-0.07793063415546725,0.01373271919291675
1592170692.8642268,0.037509995716121666,8.080996001713551,5.213984006854205,-0.3377777777777778,-0.43555555555555553,-0.6466666666666666,0.20026519188611713,-0.09998052917861304,0.008016079742471547
1592170692.8742268,0.18,8.08,5.22,-0.33,-0.4222222222222222,-0.6466666666666666,0.11344640137963141,-0.09599310885968812,0.0
1592170692.8842268,0.11,8.09360629712925,5.204590554306125,-0.33,-0.4222222222222222,-0.6466666666666666,0.04459952352364395,-0.055400465545965664,-0.0007867719838828784
1592170692.8942268,0.10472018878828743,8.073041321518012,5.243357734540551,-0.33,-0.4222222222222222,-0.6466666666666666,-0.007731376120576765,-0.010995883191677217,-0.004651292159761123
1592170692.9042268,0.09,7.97,5.42,-0.33,-0.4222222222222222,-0.6466666666666666,-0.04145156973486533,0.01308996938995747,-0.00545415391248228
1592170692.9142268,0.026351027353115564,7.954087756838279,5.531385702132048,-0.33,-0.4222222222222222,-0.6466666666666666,-0.07269518612173873,0.03565480344714383,-0.004586275679513574
1592170692.9242268,-0.0706178157662049,7.980735257442129,5.529264742557871,-0.3377777777777778,-0.4222222222222222,-0.6322222222222222,-0.09397185558488208,0.056482588254535414,-0.0009304224923095917
1592170692.9342268,0.08682645746547969,7.99373665179421,5.500814319849443,-0.3377777777777778,-0.4222222222222222,-0.6322222222222222,-0.10742525350498837,0.04245357200150477,0.006793201692937002
1592170692.9442267,-0.038346842283012494,7.8483468422830125,5.561928684003152,-0.3377777777777778,-0.4222222222222222,-0.6322222222222222,-0.1353443412089716,0.03623785786585124,0.0020914957986923354
1592170692.9542267,-0.0029339750084430988,7.812933975008443,5.603243695823483,-0.3377777777777778,-0.4222222222222222,-0.6322222222222222,-0.16045348092668668,0.04138845062845947,0.00016002351271425129
1592170692.9642267,-0.0448416249890322,7.802968324997806,5.714294112485741,-0.3377777777777778,-0.4222222222222222,-0.6322222222222222,-0.174592649548672,0.03411437600358553,0.00032379402800609904
1592170692.9742267,-0.09060778489917148,7.831215569798343,5.834254494294201,-0.32716999287860626,-0.42634747190523337,-0.643419328504681,-0.15955653645439571,0.021997386278743328,0.0034050904429199207
1592170692.9842267,-0.059669617518742855,7.8147109153289,5.925206489050786,-0.31777777777777777,-0.43,-0.6533333333333333,-0.1494618367710421,0.005364056067344065,0.00875367561351311
1592170692.9942267,-0.02,7.735099495099495,5.92006633006633,-0.31777777777777777,-0.43,-0.6533333333333333,-0.1614212493460281,-0.012800981846747836,0.02097859497156336
1592170693.0042267,0.006749680593428806,7.716036307469347,5.887678343281021,-0.31777777777777777,-0.43,-0.6533333333333333,-0.13932611780139584,-0.007331911323620894,0.03510918780912279
1592170693.0142267,-0.049237238038938994,7.820012013500887,5.847687687115044,-0.31777777777777777,-0.43,-0.6533333333333333,-0.09657553981847801,-0.0020971466726513645,0.03859903090976914
1592170693.0242267,-0.03498246261768507,7.8462543843455785,5.871271921727893,-0.33028654646893524,-0.43,-0.6526384017393801,-0.07061885846093773,0.001638159205392038,0.04541013564262152
1592170693.0342267,0.04020216864598643,7.789797831354014,5.941601858839417,-0.3377777777777778,-0.43,-0.6522222222222223,-0.07312976878372209,0.013592123291102721,0.06034516442355508
1592170693.0442266,0.1265403431101273,7.720468622025456,5.941495517432209,-0.3377777777777778,-0.43,-0.6522222222222223,-0.09567661701538971,0.0264039726039327,0.06867122056420434
1592170693.0542266,0.22249761358498152,7.668751193207509,6.0224976135849815,-0.3377777777777778,-0.43,-0.6522222222222223,-0.08962371516635653,0.04635978762110697,0.07045596248249458
1592170693.0642266,0.16478814887024335,7.676382689830449,6.061808655084775,-0.3377777777777778,-0.43,-0.6522222222222223,-0.05313762095692437,0.08933183673456616,0.06362798522580589
1592170693.0742266,-0.08628296518876066,7.797934980660423,5.903097529009366,-0.3339691951965391,-0.4169420025786103,-0.6527663054481134,0.011053052209395169,0.13685900606241747,0.05783655733893278
1592170693.0842266,-0.27,7.9,5.75,-0.33,-0.4033333333333333,-0.6533333333333333,0.05781403147231216,0.16580627893946132,0.056723200689815706
1592170693.0942266,-0.23142404240943817,7.869115430590925,5.640614832908892,-0.33,-0.4033333333333333,-0.6533333333333333,0.03567029698162609,0.09986575372853852,0.07334571340170831
1592170693.1042266,-0.033869112472538265,7.855095289978031,5.77084501759337,-0.33,-0.4033333333333333,-0.6533333333333333,0.008881190525011065,0.060685258169462804,0.0876677282500552
1592170693.1142266,0.003588690231660925,7.825129047814672,5.898201546787647,-0.33,-0.4033333333333333,-0.6533333333333333,0.00316077313219234,0.058233650715397635,0.09011933570412038
1592170693.1242266,0.25,7.7,5.98,-0.3244444444444444,-0.43,-0.6755555555555556,0.0370882466048795,0.06872233929727672,0.07635815477475191
1592170693.1342266,0.17175803327931705,7.748901229200427,5.891977787439231,-0.3244444444444444,-0.43,-0.6755555555555556,0.08723063475179527,0.07832407319774995,0.06248898358517947
1592170693.1442266,0.11252727989833035,7.818064332354616,5.775967833822691,-0.3244444444444444,-0.43,-0.6755555555555556,0.10914761313532728,0.08827521456834965,0.04812562420120741
1592170693.1542265,-0.0056434383556361115,7.869059426940727,5.749529713470364,-0.3244444444444444,-0.43,-0.6755555555555556,0.10202509053154611,0.08108058002092228,0.03439358201676584
1592170693.1642265,-0.10269253017623693,7.85288457830396,5.741442289151981,-0.3244444444444444,-0.43,-0.6755555555555556,0.09320307913394307,0.08725598799924439,0.0255715706191628
1592170693.1742265,-0.28,7.83,5.77,-0.3377777777777778,-0.4222222222222222,-0.6611111111111111,0.08835729338221293,0.05781403147231216,0.03490658503988659
1592170693.1842265,0.16818471090415205,7.864475746992627,5.6838106325184325,-0.3377777777777778,-0.4222222222222222,-0.6611111111111111,0.09117783383739672,0.025847906313562513,0.0320860445847028
1592170693.1942265,0.14681297800579543,7.892126739822336,5.88468006270486,-0.3377777777777778,-0.4222222222222222,-0.6611111111111111,0.07385143589663372,0.011882806124125091,0.01782454600629529
1592170693.2042265,0.6320541257628018,7.765386928451401,5.760625099495888,-0.3377777777777778,-0.4222222222222222,-0.6611111111111111,0.05964180734911603,-0.019135026154017604,0.004145812996244203
1592170693.2142265,-0.23596232422393204,7.728292208366498,5.604827275139295,-0.3377777777777778,-0.4222222222222222,-0.6611111111111111,0.08311096362040314,0.037514661397365076,-0.006374843263298294
1592170693.2242265,0.01,7.9,5.24,-0.33,-0.4222222222222222,-0.6522222222222223,0.14180800172453928,0.05999569303730508,0.019634954084936207
1592170693.2342265,0.06426848691695108,8.18943193022374,5.393760712931361,-0.33,-0.4222222222222222,-0.6522222222222223,0.06879746059803568,0.07874164278600194,0.026541356623929792
1592170693.2442265,0.0861560881609057,8.018893412019752,5.544071058653499,-0.33,-0.4222222222222222,-0.6522222222222223,-0.07198403238060601,0.1170670451872696,0.023518616467373608
1592170693.2542264,0.15,7.8,5.69,-0.33,-0.4222222222222222,-0.6522222222222223,-0.10581058590215622,0.13199052468207118,0.01854412330243975
1592170693.2642264,-0.02109639358860199,7.787778829029386,5.6838894145146925,-0.33,-0.4222222222222222,-0.6522222222222223,-0.07381563511920028,0.13132396320742626,0.006546016758831276
1592170693.2742264,-0.10036988888616351,7.9214795555446536,5.614068777747799,-0.34444444444444444,-0.43,-0.6611111111111111,-0.0026658449847494882,0.07656131595436132,-0.0173725952833172
1592170693.2842264,-0.11845646373999515,7.956747513946156,5.721300994421537,-0.34444444444444444,-0.43,-0.6611111111111111,-0.018251876956976356,0.051038128245448164,-0.015413547431237335
1592170693.2942264,-0.24,7.91,5.74,-0.34444444444444444,-0.43,-0.6611111111111111,-0.061086523819801536,0.016362461737446838,-0.017453292519943295
1592170693.3042264,-0.10889470553242117,7.732622248661511,6.025346817370613,-0.34444444444444444,-0.43,-0.6611111111111111,-0.07034035088149843,-0.029906673571037577,-0.00904072246385522
1592170693.3142264,0.18941326031683942,7.624972944781277,6.1571660473303345,-0.34444444444444444,-0.43,-0.6611111111111111,-0.04307305957590462,-0.06678581064233435,-0.0005424641247071494
1592170693.3242264,0.38,7.63,6.07,-0.3244444444444444,-0.4088888888888889,-0.6677777777777778,0.042542400517361786,-0.007635815477475192,-0.01090830782496456
1592170693.3342264,0.1658074424099232,7.852125615278598,5.784409923213231,-0.3244444444444444,-0.4088888888888889,-0.6677777777777778,0.1195596498983994,0.04515128803087644,-0.020427293703519773
1592170693.3442264,-0.03146363636363636,8.01181004784689,5.4651732057416265,-0.3244444444444444,-0.4088888888888889,-0.6677777777777778,0.15487970361335449,0.09800535239980145,-0.028925909551623247
1592170693.3542264,-0.21428770625145246,8.038570764582849,5.390476411805716,-0.3244444444444444,-0.4088888888888889,-0.6677777777777778,0.10014703709626423,0.11251147599598119,-0.019530510142944914
1592170693.3642263,-0.2817696061781583,8.016076797940613,5.397974400686462,-0.3244444444444444,-0.4088888888888889,-0.6677777777777778,0.04534748867411379,0.11496518711936106,-0.000718724863699241
1592170693.3742263,-0.22,7.91,5.64,-0.33,-0.41555555555555557,-0.6677777777777778,-0.02945243112740431,0.09926560120717749,0.0272707695624114
1592170693.3842263,-0.1048173207036536,7.814014433919711,5.72638700947226,-0.33,-0.41555555555555557,-0.6677777777777778,-0.04934619305699235,0.08041887937914671,0.03878821067954132
1592170693.3942263,0.05146828123889192,7.772569492168061,5.754771914026398,-0.33,-0.41555555555555557,-0.6677777777777778,-0.028861533218518167,0.07118428897750008,0.04533439895302755
1592170693.4042263,0.09,7.840706673225119,5.881413346450238,-0.33,-0.41555555555555557,-0.6677777777777778,0.016042491862076097,0.07805160443189854,0.03226240693061825
1592170693.4142263,0.09,7.863630103295622,5.927260206591245,-0.33,-0.41555555555555557,-0.6677777777777778,0.04104807502338606,0.06221473509640223,0.017259057033832265
1592170693.4242263,0.06,7.83,6.01,-0.31777777777777777,-0.43,-0.6677777777777778,0.05126904677733343,0.04145156973486533,-0.006544984694978735
1592170693.4342263,-0.006454508529650696,7.793080828594639,6.1355251827782284,-0.31777777777777777,-0.43,-0.6677777777777778,0.05932356050397968,0.022120736790914322,-0.014599498421624987
1592170693.4442263,-0.09825245118233501,7.555741946115185,6.072746148142045,-0.31777777777777777,-0.43,-0.6677777777777778,0.11216647049279513,-0.041099074198163416,-0.0291528728347405
1592170693.4542263,-0.3217512043071692,7.661970104845565,5.839270331538679,-0.31777777777777777,-0.43,-0.6677777777777778,0.21774391936443993,-0.036212320923411846,-0.05761504526765586
1592170693.4642262,-0.5000297534712383,7.862533472655143,5.764987602720318,-0.31777777777777777,-0.43,-0.6677777777777778,0.285809024614881,-0.05809039046819647,-0.03735757346692936
1592170693.4742262,-0.305208604724853,8.106394042882794,5.622403971411471,-0.31124466507841503,-0.41584492248471405,-0.6612446650784151,0.2883945281982443,-0.08896736439513256,0.01969870717788217
1592170693.4842262,-0.06268756022576055,8.024567521681274,5.439642545771577,-0.3111111111111111,-0.41555555555555557,-0.6611111111111111,0.2165318374115432,-0.08116435730470693,0.04039973115993849
1592170693.4942262,-0.02058633368704193,7.951368111936431,5.28293166843521,-0.3111111111111111,-0.41555555555555557,-0.6611111111111111,0.16351449253841988,-0.07002636702465317,0.05214668061494989
1592170693.5042262,0.05852120402614129,7.969630301006535,5.260369698993465,-0.3111111111111111,-0.41555555555555557,-0.6611111111111111,0.153968451948932,-0.05696516811521324,0.057713211711729856
1592170693.5142262,0.18153658536585368,8.063914634146341,5.1826585365853655,-0.3111111111111111,-0.41555555555555557,-0.6611111111111111,0.15440975782525748,-0.0410551458651288,0.058416648965569355
1592170693.5242262,0.61,8.21,5.05,-0.33,-0.4088888888888889,-0.6533333333333333,0.12762720155208535,0.009817477042468103,0.04581489286485115
1592170693.5342262,0.4518893549031356,8.196251248252446,5.118743758737767,-0.33,-0.4088888888888889,-0.6533333333333333,0.07963500434525905,0.056309918086581076,0.02256867234279466
1592170693.5442262,0.016533781889543075,8.142175497617046,5.216954303336137,-0.33,-0.4088888888888889,-0.6533333333333333,-0.011048308478798827,0.11083678674566583,-0.015128449858128168
1592170693.5542262,-0.1151014010923771,7.928980764663975,5.6228549038233195,-0.33,-0.4088888888888889,-0.6533333333333333,-0.06126435695496749,0.08829064157496136,-0.01426985921377957
1592170693.5642262,-0.18451208211561765,7.869823936132297,5.740352127735405,-0.33,-0.4088888888888889,-0.6533333333333333,-0.0671777278856086,0.06459111609499436,-0.012616983172128265
1592170693.5742261,-0.1340440265325461,7.840505503316568,5.874944966834318,-0.32472527962031567,-0.4215482178001312,-0.6470036688777121,-0.024187715536905983,0.01316912399626808,-0.01510620538144037
1592170693.5842261,0.011594126688779238,7.860227732384112,5.859772267615888,-0.3244444444444444,-0.4222222222222222,-0.6466666666666666,0.017164942905688204,-0.01483423084383933,-0.013800628745304445
1592170693.5942261,0.08,7.8793035385840176,5.803482307079913,-0.3244444444444444,-0.4222222222222222,-0.6466666666666666,0.0765917609167415,-0.04249364897279582,-0.024253414290906043
1592170693.604226,0.12695214946144315,7.851828710323134,5.8375617195691545,-0.3244444444444444,-0.4222222222222222,-0.6466666666666666,0.10011738709700792,-0.05387660128724155,-0.03635681498354013
1592170693.614226,0.1366145474698957,7.863229094939792,5.820156357590313,-0.3244444444444444,-0.4222222222222222,-0.6466666666666666,0.12237178355026462,-0.05382000392557816,-0.04791127459354892
1592170693.624226,0.039129149451488834,7.932074369568315,5.678091964667331,-0.3287551645533552,-0.42825723037469726,-0.6466666666666666,0.1686304878573865,-0.05091148459998213,-0.0720716824528505
1592170693.634226,-0.08221219253549905,8.01454853477485,5.520124149703851,-0.33,-0.43,-0.6466666666666666,0.20303734388282973,-0.04917233701344485,-0.08046662250142475
1592170693.644226,-0.12723946625854896,8.047929599693912,5.342422401836529,-0.33,-0.43,-0.6466666666666666,0.21015393162415413,-0.05213403192123276,-0.07970592900177366
1592170693.654226,-0.05536938400171973,8.01268469200086,5.4512747509972055,-0.33,-0.43,-0.6466666666666666,0.19526608353789163,-0.07780030669970382,-0.06640162396950683
1592170693.664226,-0.17367752673920414,8.000838701723023,5.41419350861511,-0.33,-0.43,-0.6466666666666666,0.17917774003213,-0.07963064712224129,-0.06395083302456343
1592170693.674226,-0.012594269596199525,8.035206725059382,5.170131754750594,-0.3370321572314595,-0.4229678427685405,-0.6466666666666666,0.17031927551818857,-0.07075432741352819,-0.04343845743945925
1592170693.684226,0.013797892720306513,8.157840038314177,5.137595785440613,-0.3377777777777778,-0.4222222222222222,-0.6466666666666666,0.17058388789824008,-0.05086991137607515,-0.036039210105237314
1592170693.694226,0.09138853254503877,8.211913659434437,5.139043170282782,-0.3377777777777778,-0.4222222222222222,-0.6466666666666666,0.11690093208404137,-0.00868974577084319,-0.017928070701169863
1592170693.704226,0.0882428064014048,8.133578241609131,5.234057548788761,-0.3377777777777778,-0.4222222222222222,-0.6466666666666666,0.06701811482338164,0.011218487388571029,-0.018286228041414526
1592170693.714226,0.0741321455085375,8.021321455085376,5.329339272457312,-0.3377777777777778,-0.4222222222222222,-0.6466666666666666,0.027676328623936434,0.031868617261521924,-0.02475562313013412
1592170693.724226,0.015792145443097753,8.018719896112072,5.373231937667244,-0.32228981933294854,-0.44889592843276144,-0.6466666666666666,0.042935042936986176,0.04747118539368106,-0.03174054871083698
1592170693.734226,-0.06957942017149858,8.151763985300123,5.301723152307064,-0.31777777777777777,-0.45666666666666667,-0.6466666666666666,0.06047229121503934,0.0615631219975358,-0.02513498613976113
1592170693.744226,-0.08834723777742223,8.17,5.231569335558044,-0.31777777777777777,-0.45666666666666667,-0.6466666666666666,0.0430559643777961,0.07328415169286687,-0.01216122612356372
1592170693.754226,-0.19322208751744174,8.122359036530412,5.283521284626118,-0.31777777777777777,-0.45666666666666667,-0.6466666666666666,0.007222833335949037,0.08219642125364429,-0.007219065569447289
1592170693.764226,-0.16619634462856417,8.038261792838085,5.395650942882552,-0.31777777777777777,-0.45666666666666667,-0.6466666666666666,-0.015437442302272519,0.07942913931411653,0.000628321064909297
1592170693.774226,-0.05089880452600855,8.005820239094799,5.428359521810403,-0.3388714299041755,-0.42942069933673627,-0.6510611775263329,-0.01818622648099455,0.07290671401653993,0.014945615997565193
1592170693.784226,-0.004603833519835395,8.04555463307223,5.379366133631737,-0.34444444444444444,-0.4222222222222222,-0.6522222222222223,-0.003619118466621456,0.06700830601705181,0.01800735092302266
1592170693.794226,0.02,8.169928529832177,5.235083381862459,-0.34444444444444444,-0.4222222222222222,-0.6522222222222223,0.013631486688251149,0.06054240779287149,0.010369389255307249
1592170693.804226,0.027735143503632247,8.13811885197094,5.3314974395617485,-0.34444444444444444,-0.4222222222222222,-0.6522222222222223,-0.006666473911102432,0.06758965241401567,0.008479588741554146
1592170693.814226,0.01198878255557818,8.089981304259297,5.3820074782962815,-0.34444444444444444,-0.4222222222222222,-0.6522222222222223,-0.03339206615585703,0.0730877018162086,0.0015226764398137416
1592170693.824226,-0.043426498826541496,8.07,5.433426498826542,-0.3251437782993149,-0.4366977218310694,-0.6482012501086535,-0.046116207619080314,0.06895119576611711,-0.012746684686696904
1592170693.834226,-0.18370294401544401,8.020518822393822,5.47474058880309,-0.31777777777777777,-0.44222222222222224,-0.6466666666666666,-0.040417333696151865,0.0593439321740181,-0.01456327534788041
1592170693.844226,-0.2570976504142333,7.962902349585767,5.495699216804745,-0.31777777777777777,-0.44222222222222224,-0.6466666666666666,-0.03584487037953224,0.04753891810129163,-0.007330724591773571
1592170693.8542259,-0.26231427082346254,7.9576857291765375,5.546114375059225,-0.31777777777777777,-0.44222222222222224,-0.6466666666666666,-0.02233084008233926,0.02544125314744879,0.0029296760592159394
1592170693.8642259,-0.18029092196071492,7.9827740222969386,5.5656935055742345,-0.31777777777777777,-0.44222222222222224,-0.6466666666666666,-0.0011543001085068672,0.0065925866894865435,0.009180544596896469
1592170693.8742259,-0.01779076999626819,8.065705933573827,5.496993407140192,-0.3267008057939766,-0.452767618968639,-0.6417995604760127,0.028723084758960668,-0.005661627511989318,0.014388273771960966
1592170693.8842258,0.02,8.09418338429413,5.4365329256469535,-0.33,-0.45666666666666667,-0.64,0.038557276530326666,-0.0033506296408436706,0.012533612337120328
1592170693.8942258,0.005396895787139689,8.11460310421286,5.295079822616407,-0.33,-0.45666666666666667,-0.64,0.03248257038308404,0.009055588580192307,0.0007618884622757963
1592170693.9042258,0.015174087161366314,8.09723886925795,5.244825912838634,-0.33,-0.45666666666666667,-0.64,0.020913037727551664,0.015309610881841542,-0.005492133839373439
1592170693.9142258,-0.01297732158956932,8.133969762119426,5.278473541854497,-0.33,-0.45666666666666667,-0.64,0.012548677050075223,0.015762917112210385,-0.010142252446397451
1592170693.9242258,-0.016023725504917787,8.140029656881147,5.3459644117426235,-0.3186778703773223,-0.44068248366994517,-0.64,-0.004787362200214475,0.015271630954950384,-0.015051523760118996
1592170693.9342258,-0.0074827718223583455,8.082586140888209,5.362517228177642,-0.3111111111111111,-0.43,-0.64,-0.030231088858631197,0.01608787473917294,-0.017178705521669398
1592170693.9442258,0.00452314376169898,8.084523143761698,5.323692140595752,-0.3111111111111111,-0.43,-0.64,-0.03282895736760652,0.018738805578529232,-0.02062175097471982
1592170693.9542258,0.01735878123930161,8.104717562478603,5.361511468675111,-0.3111111111111111,-0.43,-0.64,-0.03564768524114103,0.03328116875066515,-0.02181661564992912
1592170693.9642258,0.003607460565332586,8.071750741319109,5.412785078869335,-0.3111111111111111,-0.43,-0.64,-0.04483689080628248,0.04711982069668709,-0.02181661564992912
1592170693.9742258,-0.06845047401111475,8.004929715593331,5.404929715593331,-0.32215175620209946,-0.4371439468235807,-0.64,-0.062108174748815054,0.05709192217693612,-0.01225267920450416
1592170693.9842257,-0.14607123430220184,8.066570962325285,5.38,-0.33,-0.44222222222222224,-0.64,-0.06509145655103513,0.05339619647128089,0.013432700202469956
1592170693.9942257,-0.14614232553865944,8.10692883723067,5.352284651077318,-0.33,-0.44222222222222224,-0.64,-0.06704727985385577,0.05126904677733343,0.020725784867432664
1592170694.0042257,-0.11960479668800114,8.096403197792,5.380790406623998,-0.33,-0.44222222222222224,-0.64,-0.08577892124807829,0.047561094179333095,0.016276241749832256
1592170694.0142257,-0.08971372618835677,8.02914117856507,5.481145095246573,-0.33,-0.44222222222222224,-0.64,-0.10100333717386017,0.04138911447767272,0.010861466382070105
1592170694.0242257,-0.07,7.975757428940569,5.606059431524548,-0.3114482845248349,-0.43518536462819407,-0.643838285960379,-0.10296794289402271,0.03206394203175306,0.008891891620756803
1592170694.0342257,-0.09220038136490973,7.994800254243273,5.654800254243273,-0.29777777777777775,-0.43,-0.6466666666666666,-0.08877162881090901,0.028361600344907853,0.004166876521400455
1592170694.0442257,-0.13510372406898274,8.0,5.582771807048238,-0.29777777777777775,-0.43,-0.6466666666666666,-0.07895804538757026,0.026829911433119528,0.0037133504767812376
1592170694.0542257,-0.15,7.959327079071736,5.624567021701817,-0.29777777777777775,-0.43,-0.6466666666666666,-0.06526633623410322,0.021743211363655462,0.005102777699362404
1592170694.0642257,-0.1849770889726306,7.94999345399218,5.64001309201564,-0.29777777777777775,-0.43,-0.6466666666666666,-0.04146370873248029,0.015819545551589927,0.004364037188669056
1592170694.0742257,-0.22,7.990326279964487,5.625054379994081,-0.3005857666633784,-0.4361775755483213,-0.6494746555522672,-0.007469721237287437,0.005382970666687526,0.004375187004284949
1592170694.0842257,-0.13882386363636365,8.006470643939394,5.548823863636364,-0.30333333333333334,-0.44222222222222224,-0.6522222222222223,0.010587463089128007,-0.006256214102888884,0.008405801524135096
1592170694.0942256,-0.1066101734536444,8.0,5.503389826546355,-0.30333333333333334,-0.44222222222222224,-0.6522222222222223,0.016325487015986746,-0.00944770432805927,0.01270170931481859
1592170694.1042256,-0.06333333333333332,8.013333333333334,5.5,-0.30333333333333334,-0.44222222222222224,-0.6522222222222223,0.02945243112740431,-0.006181374434146583,0.015635241215782535
1592170694.1142256,-0.054938334774247054,8.034938334774248,5.470123330451506,-0.30333333333333334,-0.44222222222222224,-0.6522222222222223,0.04142466320428096,-0.0021906304085210337,0.015276115376714442
1592170694.1242256,-0.2974444935158791,7.963354478660618,5.472492070502269,-0.31115549845424983,-0.43560346711990827,-0.6570358622966324,0.04563366438378276,0.004725780092122599,0.015362245195484577
1592170694.1342256,-0.34599969706149647,7.920461602544683,5.463999924265374,-0.31777777777777777,-0.43,-0.6611111111111111,0.03487300258660843,0.009632876816514731,0.028143458972506925
1592170694.1442256,-0.11864161548870616,8.047565316956385,5.3759456646195485,-0.31777777777777777,-0.43,-0.6611111111111111,0.01653913840004333,0.0022705676233560554,0.06409343344633127
1592170694.1542256,-0.07748679263827801,8.092955746123792,5.392955746123793,-0.31777777777777777,-0.43,-0.6611111111111111,0.03376748076697865,-0.00930970746870068,0.06127187150786117
1592170694.1642256,0.024457850536834275,8.090216859785267,5.4440241309663016,-0.31777777777777777,-0.43,-0.6611111111111111,0.030246231714369284,-0.0055960883100347044,0.05407891879881348
1592170694.1742256,0.026256022023399862,8.08,5.45200963523744,-0.31461191404756444,-0.43,-0.6611111111111111,0.017508096819408014,0.000572817540980589,0.0465521233042259
1592170694.1842256,-0.06681272669733927,8.106725090678935,5.3565498186421285,-0.3111111111111111,-0.43,-0.6611111111111111,0.027294668579043904,0.0,0.03525426262296374
1592170694.1942255,-0.05558319885242962,8.132690514613591,5.253856912318451,-0.3111111111111111,-0.43,-0.6611111111111111,0.025111161282468958,-0.004845121395179368,0.026096811097906517
1592170694.2042255,-0.011633194029850746,8.109388656716417,5.295711761194029,-0.3111111111111111,-0.43,-0.6611111111111111,-0.005987651570405324,-0.014314174586934687,0.020903938699587725
1592170694.2142255,0.004653415159579283,8.062079509042524,5.401187566755372,-0.3111111111111111,-0.43,-0.6611111111111111,-0.03813571193183979,-0.016513687902517855,0.017604518685014312
1592170694.2242255,0.028937809996184664,8.025265547500954,5.502610072491415,-0.3142674127771419,-0.43,-0.6611111111111111,-0.0540830239500512,-0.013147902867608561,0.010623593083146237
1592170694.2342255,0.009532174955062908,8.02674463750749,5.529766087477531,-0.31777777777777777,-0.43,-0.6611111111111111,-0.04132399024490528,-0.005377606218506255,0.0010397989865124392
1592170694.2442255,-0.012754203362690153,8.02724579663731,5.4952121697357885,-0.31777777777777777,-0.43,-0.6611111111111111,-0.03329348299403314,-0.0009799136412818443,-0.0025930156871352902
1592170694.2542255,-0.07253948044952624,8.008324559900105,5.4650263202996845,-0.31777777777777777,-0.43,-0.6611111111111111,-0.02363275288788321,0.0034552545110087774,-0.009092170587010466
1592170694.2642255,-0.10117171323906772,7.986757569858601,5.542969720565594,-0.31777777777777777,-0.43,-0.6611111111111111,-0.022779632345482203,0.0009927646955500248,-0.008982274433858389
1592170694.2742255,-0.09371434706366531,7.981143041190996,5.613714347063666,-0.3153015464020009,-0.4320635261464807,-0.6578094692767419,-0.021972415157961302,-0.0044880095816658035,-0.005734639872194445
1592170694.2842255,-0.11167716441144773,7.982484253382828,5.637515746617172,-0.3111111111111111,-0.43555555555555553,-0.6522222222222223,-0.009627656027844243,-0.00845565625382063,-0.003726432610371859
1592170694.2942255,-0.13753700090420215,7.964154333031932,5.579851996383192,-0.3111111111111111,-0.43555555555555553,-0.6522222222222223,0.006292457861996581,-0.015556447168159673,-0.001359502305592178
1592170694.3042254,-0.218918861861087,7.96,5.518513523023152,-0.3111111111111111,-0.43555555555555553,-0.6522222222222223,0.019354870724348695,-0.026526345552766555,0.0043854309340738565
1592170694.3142254,-0.24484965386038154,7.976766897426412,5.501616551286793,-0.3111111111111111,-0.43555555555555553,-0.6522222222222223,0.032685954938775325,-0.035292062260335454,0.0117510312414057
1592170694.3242254,-0.17927848390288453,8.027308014308547,5.476345992845727,-0.3133867789701567,-0.43365916567301754,-0.655256446034283,0.050681746605678056,-0.04743548932381537,0.02229391119514353
1592170694.3342254,-0.07622001066287543,8.117525705146107,5.399965726471858,-0.31777777777777777,-0.43,-0.6611111111111111,0.058766171743276405,-0.06790888953784469,0.03640974869502743
1592170694.3442254,-0.02832205065794478,8.14361299155701,5.341096067543926,-0.31777777777777777,-0.43,-0.6611111111111111,0.051599689560344636,-0.07219188976513036,0.03946696629023669
1592170694.3542254,0.059804068575998404,8.149804068576,5.230391862848003,-0.31777777777777777,-0.43,-0.6611111111111111,0.012234648357298244,-0.0691929498785292,0.03535582281828313
1592170694.3642254,0.05404632029140465,8.127861039125786,5.266185281165619,-0.31777777777777777,-0.43,-0.6611111111111111,-0.016072659463631612,-0.06147738129305355,0.02745356639910781
1592170694.3742254,0.0370900842514582,8.077271548930653,5.36200259235256,-0.31995967451573415,-0.43400014401958664,-0.6585655649168287,-0.04311786147455693,-0.052419261737230854,0.022193422394628154
1592170694.3842254,-0.04973568604480891,8.00432347342217,5.544059159466979,-0.3244444444444444,-0.44222222222222224,-0.6533333333333333,-0.06556860997318553,-0.04395725388622434,0.020725784867432664
1592170694.3942254,-0.07401127150484478,7.98802254300969,5.55802254300969,-0.3244444444444444,-0.44222222222222224,-0.6533333333333333,-0.06785336326261447,-0.04319566945641468,0.021379053806485564
1592170694.4042253,-0.06469283837056505,7.976019628777924,5.557960742444152,-0.3244444444444444,-0.44222222222222224,-0.6533333333333333,-0.06350133971392116,-0.04464634397264578,0.02196134603175591
1592170694.4142253,0.010425573223057066,7.962127671966917,5.61,-0.3244444444444444,-0.44222222222222224,-0.6533333333333333,-0.037900561542527474,-0.05215099597076893,0.025553294012732083
1592170694.4242253,0.08526198061411239,7.98,5.613815495153529,-0.3244444444444444,-0.437558839256799,-0.6427347356846441,-0.02279313582510913,-0.050537266647572195,0.028203813258223964
1592170694.4342253,0.12154361435217889,7.991543614352179,5.596912771295642,-0.3244444444444444,-0.43,-0.6255555555555555,-0.004443860681486244,-0.03511158246972022,0.021143086829265096
1592170694.4442253,0.12221881472040784,8.004446391588338,5.561102835749562,-0.3244444444444444,-0.43,-0.6255555555555555,0.0023033959863946593,-0.024603126113835354,0.01636198383643491
1592170694.4542253,0.05005145102014954,8.04994854897985,5.429897097959701,-0.3244444444444444,-0.43,-0.6255555555555555,0.012541747780880744,0.003781426906967121,0.004380160436956812
1592170694.4642253,0.016924521739130435,8.06,5.4692295652173915,-0.3244444444444444,-0.43,-0.6255555555555555,0.010992349222642112,0.013005927992279918,0.0006713067490333842
