time,acc_x,acc_y,acc_z,mag_x,mag_y,mag_z,gyr_x,gyr_y,gyr_z
1592170792.324132,0.09061213732959582,8.540612137329594,4.5642849613071705,-0.28,-0.3422222222222222,-0.6666666666666666,0.000600964418014471,-0.004563644602657314,-0.017319744871495634
1592170792.334132,0.06272991622625834,8.530909972075419,4.614540167547483,-0.28,-0.3422222222222222,-0.6666666666666666,-0.001983136454776968,-0.0063464595847627925,-0.02241113365688572
1592170792.344132,0.09019227713332274,8.53,4.650192277133323,-0.28,-0.3422222222222222,-0.6666666666666666,-0.003828394829527527,-0.012308551120849887,-0.022907446432425576
1592170792.354132,0.09008176121703582,8.520081761217035,4.719509432697785,-0.28,-0.33561006303357943,-0.6523403217579407,-0.0021994990954643215,-0.014180800172453926,-0.02723509450146858
1592170792.364132,0.09,8.492727493621674,4.760908759567489,-0.28,-0.33555555555555555,-0.6522222222222223,-0.004412888275491069,-0.018643253593450242,-0.030989480746574993
1592170792.374132,0.10815644392361573,8.470921778038193,4.643826670572882,-0.28,-0.33555555555555555,-0.6522222222222223,0.007419491243675723,-0.0345897104202182,-0.03668604506140383
1592170792.384132,0.13635933968080008,8.513932232801332,4.700291572482134,-0.28,-0.33555555555555555,-0.6522222222222223,0.027895699013369656,-0.04558194219908205,-0.048589678256918296
1592170792.394132,0.18948965410747376,8.527069950586782,4.702930049413218,-0.28,-0.33555555555555555,-0.6522222222222223,0.03594174572145422,-0.054617843378138256,-0.058661547698706684
1592170792.404132,0.21888427831629265,8.521115721683707,4.717768556632585,-0.28690999424600544,-0.3246969931689756,-0.658145074433084,0.035271704107072616,-0.06265965360615108,-0.08155984313765362
1592170792.4141319,0.19183898651409892,8.491838986514098,4.765057621577442,-0.2877777777777778,-0.3233333333333333,-0.6588888888888889,0.03982160910016159,-0.06511131940739757,-0.09505277438784586
1592170792.4241319,0.13680649957519117,8.453403249787595,4.708717873831776,-0.2877777777777778,-0.3233333333333333,-0.6588888888888889,0.05811662811673451,-0.06654067773228381,-0.11630189655193005
1592170792.4341319,0.10480156009927905,8.466798959933815,4.731997399834535,-0.2877777777777778,-0.3233333333333333,-0.6588888888888889,0.08948999886488133,-0.07112188338471603,-0.12531424320551882
1592170792.4441319,0.044921113416591635,8.511309164937556,4.664266530947813,-0.2877777777777778,-0.3233333333333333,-0.6588888888888889,0.1174329324337465,-0.08250913701115835,-0.11977717446262244
1592170792.4541318,0.01192799106865968,8.578432053588042,4.557351919617937,-0.28149954860895754,-0.34934313988987437,-0.6535075496013287,0.14259603444420235,-0.10487685423750116,-0.10791369790822844
1592170792.4641318,0.018530563514804206,8.632652817574021,4.4717554918815665,-0.28,-0.35555555555555557,-0.6522222222222223,0.14244916434492927,-0.12676334067022582,-0.10022734513776248
1592170792.4741318,0.0375832760145426,8.657583276014543,4.336917067898202,-0.28,-0.35555555555555557,-0.6522222222222223,0.11879154724398568,-0.14131709035735504,-0.09351148758703909
1592170792.4841318,0.1374478979733448,8.633423300552725,4.346576699447276,-0.28,-0.35555555555555557,-0.6522222222222223,0.09340187352303646,-0.14096612038341938,-0.08692248014134973
1592170792.4941318,0.19506953223767382,8.625493046776233,4.377041719342604,-0.28,-0.35555555555555557,-0.6522222222222223,0.08070630832369165,-0.12793473033147434,-0.08224257316781433
1592170792.5041318,0.20735497237569062,8.628529005524863,4.4526450276243095,-0.28,-0.3508172191528545,-0.6455885512584408,0.06220974805785555,-0.07979261440002908,-0.07372750484900771
1592170792.5141318,0.153035901573215,8.640436466317064,4.42869060104881,-0.28,-0.35,-0.6444444444444445,0.061086523819801536,-0.057669086067005854,-0.06853189493960651
1592170792.5241318,0.10186189922375788,8.65,4.391861899223757,-0.28,-0.35,-0.6444444444444445,0.05664787840090992,-0.022124631590460398,-0.05636945441328601
1592170792.5341318,0.09160001916764501,8.59960011500587,4.45719984665884,-0.28,-0.35,-0.6444444444444445,0.04463682071014363,-0.00645774332276767,-0.04721117299337238
1592170792.5441318,0.09668936606092796,8.576621267878144,4.5101361963655675,-0.28,-0.35,-0.6444444444444445,0.03524543410271451,-0.004363323129985824,-0.04070701637459805
1592170792.5541317,0.08426648678166458,8.585733513218335,4.522133243390832,-0.2747554955938882,-0.35437042033842653,-0.6505630329182416,0.04278978304039108,-0.009512103290598373,-0.0373209473606072
1592170792.5641317,0.07558883749146887,8.612055812542655,4.480299537423219,-0.2733333333333333,-0.35555555555555557,-0.6522222222222223,0.056400922936831244,-0.008983575084604543,-0.03901297934523952
1592170792.5741317,0.05445409606537704,8.702183615738493,4.3211786724576395,-0.2733333333333333,-0.35555555555555557,-0.6522222222222223,0.07998794041194489,-0.0023054970565738594,-0.043995262317908256
1592170792.5841317,0.03363963014420543,8.638198150721026,4.371801849278973,-0.2733333333333333,-0.35555555555555557,-0.6522222222222223,0.06416442466541644,0.008724686495953843,-0.041154783072009135
1592170792.5941317,0.0233790843373494,8.62662091566265,4.4032418313253014,-0.2733333333333333,-0.35555555555555557,-0.6522222222222223,0.0390510270592217,0.018130606438096757,-0.03674958964580277
1592170792.6041317,-0.024873177306702608,8.62252113711555,4.40252113711555,-0.2799812114528448,-0.35140063173086084,-0.6572081308118558,0.020203426492479082,0.028343154731872135,-0.03164331549891508
1592170792.6141317,-0.01617792538157151,8.643822074618429,4.471466223855286,-0.2822222222222222,-0.35,-0.6588888888888889,0.017453292519943295,0.037472822522356584,-0.01755033576154611
1592170792.6241317,0.052382562946260806,8.603213077790304,4.42761743705374,-0.2822222222222222,-0.35,-0.6588888888888889,0.006395359277612631,0.048626620913382976,0.0019807945663370442
1592170792.6341317,0.016955580892105075,8.57484445168346,4.485777741582707,-0.2822222222222222,-0.35,-0.6588888888888889,-0.008300004693017626,0.06118832995491085,0.011504626283767447
1592170792.6441317,0.024731279778827865,8.576182819944707,4.540914099723534,-0.2822222222222222,-0.35,-0.6588888888888889,-0.014022461702956835,0.07245230854927417,0.018485497644612985
1592170792.6541317,0.002692141695162846,8.609846286643869,4.619692573287739,-0.2863675398116486,-0.35414531758942636,-0.6646923335140857,-0.025038805419254163,0.08477436640547621,0.02588627167672236
1592170792.6641316,-0.002334627499816863,8.54717896124826,4.693657607501282,-0.2877777777777778,-0.35555555555555557,-0.6666666666666666,-0.04257636162516055,0.08601221895734124,0.02685268834828632
1592170792.6741316,0.03772042179649975,8.402279578203501,4.76613978910175,-0.2877777777777778,-0.35555555555555557,-0.6666666666666666,-0.06771771865474292,0.08021418407730115,0.021644195370003796
1592170792.6841316,0.014289190128606188,8.418568647897114,4.767142161974278,-0.2877777777777778,-0.35555555555555557,-0.6666666666666666,-0.02898879960817015,0.07620254929920915,0.011064974936305377
1592170792.6941316,-0.05901227678571429,8.441802455357143,4.787703683035714,-0.2877777777777778,-0.35555555555555557,-0.6666666666666666,0.024246027286616255,0.07655477215351662,0.005704643235583447
1592170792.7041316,0.0007240458614732187,8.490289618344589,4.766425318046176,-0.26464855243180985,-0.35182503533846393,-0.6614439383627384,0.0787451673332897,0.07012412623969638,0.003630837198230625
1592170792.7141316,0.07138055140567703,8.545634252342795,4.692985196251528,-0.25333333333333335,-0.35,-0.6588888888888889,0.12070769285627121,0.05487939592225362,0.011046680220842828
1592170792.7241316,0.0868862416423392,8.601317449854035,4.573592617007251,-0.25333333333333335,-0.35,-0.6588888888888889,0.13950224904124373,0.040412974327912646,0.017936662352040205
1592170792.7341316,0.07632719135361615,8.57898157406085,4.571018425939151,-0.25333333333333335,-0.35,-0.6588888888888889,0.13618720825743907,0.0255571114341216,0.006957441613475885
1592170792.7441316,0.08715329049766533,8.565717763499222,4.6014355269984435,-0.25333333333333335,-0.35,-0.6588888888888889,0.13245764422136905,0.010122693733056867,-0.010759682838276493
1592170792.7541316,0.11225352955252453,8.588380294328786,4.6038732352237375,-0.27443663422934783,-0.3574882680598761,-0.6588888888888889,0.14268374646617019,-0.011184865665130867,-0.02698654406150429
1592170792.7641315,0.1267196625567813,8.613439325113562,4.492485399091499,-0.2877777777777778,-0.3622222222222222,-0.6588888888888889,0.1611718408258959,-0.040158995426728704,-0.04482811926926383
1592170792.7741315,0.20879678638941399,8.613433601134215,4.367769612476371,-0.2877777777777778,-0.3622222222222222,-0.6588888888888889,0.1726273737323158,-0.0688015740285006,-0.06559470680322853
1592170792.7841315,0.34064600703876047,8.635898859153931,4.317050570423034,-0.2877777777777778,-0.3622222222222222,-0.6588888888888889,0.18127401054125913,-0.09831570729739889,-0.08297360790608958
1592170792.7941315,0.4072941025859862,8.684588205171973,4.344588205171973,-0.2877777777777778,-0.3622222222222222,-0.6588888888888889,0.18560806487233072,-0.12354619849958698,-0.09401677521914652
1592170792.8041315,0.590181790171006,8.723614543213682,4.199818209828994,-0.277945052123453,-0.3539022235916397,-0.6588888888888889,0.18430438938282734,-0.1527361397809527,-0.09074918901112558
1592170792.8141315,0.67,8.761619772478847,4.088380227521153,-0.2733333333333333,-0.35,-0.6588888888888889,0.18800219686828043,-0.1661855812183513,-0.08511072377750019
1592170792.8241315,0.704870357936057,8.851844429523268,3.9493370693662517,-0.2733333333333333,-0.35,-0.6588888888888889,0.19221569728019997,-0.16583456245027237,-0.08713758106389909
1592170792.8341315,0.625718261871056,8.87,3.953514648367205,-0.2733333333333333,-0.35,-0.6588888888888889,0.1434282690084235,-0.1601604306955491,-0.0918214800611322
1592170792.8441315,0.6302189699474918,8.838718578929727,3.992343872193051,-0.2733333333333333,-0.35,-0.6588888888888889,0.11130897750585135,-0.15853009273683216,-0.09101447966101449
1592170792.8541315,0.7824311101942177,8.761077775485544,4.07,-0.26573654377020034,-0.36519357912626604,-0.6457671614616591,0.05946530707020636,-0.14378458800258087,-0.08101672973658612
1592170792.8641315,0.7438011112371017,8.80639936500737,4.102999206259213,-0.2611111111111111,-0.37444444444444447,-0.6377777777777778,0.05997382447144212,-0.11043633182249747,-0.08357933333771474
1592170792.8741314,0.6750801247708169,8.781497249803557,4.100748624901779,-0.2611111111111111,-0.37444444444444447,-0.6377777777777778,0.042886530265612746,-0.08098394534424834,-0.07567563553595726
1592170792.8841314,0.6308868675383741,8.753628955846125,4.109113132461626,-0.2611111111111111,-0.37444444444444447,-0.6377777777777778,0.020215407531449382,-0.06504510056507481,-0.052438842380545
1592170792.8941314,0.62,8.76998536173407,4.124996340433518,-0.2611111111111111,-0.37444444444444447,-0.6377777777777778,0.016360066556785263,-0.061086523819801536,-0.02837197946110802
1592170792.9041314,0.5835248584873491,8.831685876014458,4.145632203505421,-0.2686377276137216,-0.3622860639402275,-0.6453043942803883,0.025887386638322685,-0.06563374749499169,-0.013612397213055157
1592170792.9141314,0.582474274805606,8.889484564883363,4.069072030544303,-0.27555555555555555,-0.3511111111111111,-0.6522222222222223,0.025966262516844564,-0.06627077622005276,-0.030801938688559544
1592170792.9241314,0.5809230878387966,8.84276926351639,4.013641029279599,-0.27555555555555555,-0.3511111111111111,-0.6522222222222223,0.01111529272085333,-0.05950342346252586,-0.050765580462579674
1592170792.9341314,0.5826437110063342,8.784712577987332,4.05425298852217,-0.27555555555555555,-0.3511111111111111,-0.6522222222222223,-0.003222358913898422,-0.042241444060582146,-0.02844929488988352
1592170792.9441314,0.5442918751078144,8.734449236194965,4.156180208153643,-0.27555555555555555,-0.3511111111111111,-0.6522222222222223,-0.0026498325132163353,-0.020519799686033183,-0.0020271726789433016
1592170792.9541314,0.39184502402611143,8.714748405814621,4.234916135271541,-0.27774050456512905,-0.36258209341137204,-0.6522222222222223,0.01773340945182012,0.0046983293982843215,-0.0036257950612617555
1592170792.9641314,0.32754950905004143,8.73,4.2281126227374894,-0.28,-0.37444444444444447,-0.6522222222222223,0.03576082181355435,0.020695071780216984,-0.014623275102895645
1592170792.9741313,0.3180723619061421,8.783906963263531,4.22,-0.28,-0.37444444444444447,-0.6522222222222223,0.025980942453557053,0.02094733393513338,0.000846728973452917
1592170792.9841313,0.36538607652874405,8.727217136580007,4.260592502746246,-0.28,-0.37444444444444447,-0.6522222222222223,0.015381298192855612,0.017737259019185724,0.014703697956465525
1592170792.9941313,0.4436930927793627,8.67895447422349,4.25209105155302,-0.28,-0.37444444444444447,-0.6522222222222223,0.024461837561917752,0.017396267934897774,0.03399419167915825
1592170793.0041313,0.47,8.755442815249266,4.223860703812317,-0.28,-0.36879749103942655,-0.648628706419029,0.05724782311893424,0.023080028018102064,0.062439665816857254
1592170793.0141313,0.475478860486174,8.82,4.135901650762694,-0.28,-0.3622222222222222,-0.6444444444444445,0.08669798757605983,0.043302874523213075,0.07059058740696575
1592170793.0241313,0.3737483991724953,8.802291399862083,4.058854300068958,-0.28,-0.3622222222222222,-0.6444444444444445,0.0742444081988771,0.06577384013363395,0.025616846148619365
1592170793.0341313,0.1958876034999119,8.755938692818134,4.162235010863821,-0.28,-0.3622222222222222,-0.6444444444444445,0.030487532108927604,0.0907883297922501,-0.02989545101651967
1592170793.0441313,0.18921535045987947,8.647119568664765,4.304555026958452,-0.28,-0.3622222222222222,-0.6444444444444445,-0.023547345136930947,0.11057370733605987,-0.02189072156607588
1592170793.0541313,0.17633098637038952,8.565229313351852,4.377981073574059,-0.2730275821975325,-0.3686136052078175,-0.6444444444444445,-0.04623523722458131,0.11121471140203128,0.008906642851528215
1592170793.0641313,0.1,8.57,4.44,-0.26666666666666666,-0.37444444444444447,-0.6444444444444445,-0.04363323129985824,0.11017390903214205,0.02399827721492203
1592170793.0741313,0.0832439916219958,8.64959103979552,4.310140935070468,-0.26666666666666666,-0.37444444444444447,-0.6444444444444445,-0.02809695702893708,0.09143899005838418,0.03679285602626887
1592170793.0841312,0.12159441233140655,8.782397968120511,4.107602031879488,-0.26666666666666666,-0.37444444444444447,-0.6444444444444445,-0.03342061709532976,0.04956879144048902,0.06003882757034914
1592170793.0941312,0.22196962788208005,8.752361174441427,4.11598481394104,-0.26666666666666666,-0.37444444444444447,-0.6444444444444445,-0.0734382290743758,0.03425374311244655,0.06388659891855207
1592170793.1041312,0.31328506629448705,8.710374433007676,4.155821266573622,-0.272811336938823,-0.37282742595177176,-0.6528529406063426,-0.10896979893644235,0.03308326861855049,0.06072817867614473
1592170793.1141312,0.4140033316674996,8.76942928535732,4.166856904880893,-0.2877777777777778,-0.3688888888888889,-0.6733333333333333,-0.14760592269921158,0.047841370440463424,0.04905580327164455
1592170793.1241312,0.34118048009483354,8.710865850044453,4.260236589943693,-0.2877777777777778,-0.3688888888888889,-0.6733333333333333,-0.2096371916648347,0.08466829074310601,0.023564471819028016
1592170793.1341312,0.00971352365899436,8.555490714215154,4.457045095327472,-0.2877777777777778,-0.3688888888888889,-0.6733333333333333,-0.27856230393701636,0.1202607667525113,-0.002988645203861641
1592170793.1441312,-0.11468027073441762,8.474680270734417,4.579831296090514,-0.2877777777777778,-0.3688888888888889,-0.6733333333333333,-0.30995385318073787,0.13526301702956053,-0.0028171622340157493
1592170793.1541312,-0.08819842913425599,8.448198429134255,4.6486840842509345,-0.2877777777777778,-0.3688888888888889,-0.6733333333333333,-0.31399806229998906,0.13526301702956053,0.016826139202347278
1592170793.1641312,-0.2312690569448629,8.486345284724315,4.731269056944863,-0.28,-0.3688888888888889,-0.68,-0.2681227882478012,0.13687431772081307,0.03928653849153385
1592170793.1741312,-0.2230295493962499,8.500301711443438,4.731514774698125,-0.28,-0.3688888888888889,-0.68,-0.2193557221207675,0.11156162255353777,0.051996493372984315
1592170793.1841311,-0.19904856608726781,8.459762141521818,4.72083250467364,-0.28,-0.3688888888888889,-0.68,-0.2058426887044804,0.09244817999482492,0.059190271939676437
1592170793.1941311,-0.07019575211666076,8.457787231386906,4.822017016496432,-0.28,-0.3688888888888889,-0.68,-0.16453813227557218,0.061663969076238626,0.0902762260919762
1592170793.2041311,0.02,8.518701651136178,4.887175412784044,-0.2752163914773037,-0.3593216718434963,-0.6776081957386518,-0.11661945817957788,0.04220942696217503,0.10675978879394504
1592170793.214131,0.062313595452392234,8.580578398863098,4.868264803410706,-0.26666666666666666,-0.3422222222222222,-0.6733333333333333,-0.04513910485094832,0.034969678568329415,0.10600898688696887
1592170793.224131,0.08530549694614104,8.560610993892281,4.805712826207662,-0.26666666666666666,-0.3422222222222222,-0.6733333333333333,-0.005142010352200561,0.03813464465766805,0.09447905269264018
1592170793.234131,0.13790912995752397,8.484727246694984,4.788109101322006,-0.26666666666666666,-0.3422222222222222,-0.6733333333333333,0.013458872502865881,0.04431153198544724,0.0913203881570217
1592170793.244131,0.22,8.463209938852762,4.791550033970688,-0.26666666666666666,-0.3422222222222222,-0.6733333333333333,0.039929827442637664,0.05271002757088223,0.09248718317149719
1592170793.254131,0.22634590814336628,8.558075448860198,4.7346163674265345,-0.27336512526244217,-0.3506834330800439,-0.6800317919291089,0.09409374588029387,0.062712133824932,0.08281944382566983
1592170793.264131,0.22930003708740265,8.634650018543702,4.663950055631104,-0.2877777777777778,-0.3688888888888889,-0.6944444444444444,0.16266462155614278,0.07732351776641704,0.0627337066206275
1592170793.274131,0.20924750313371882,8.630672031054143,4.6311831304840085,-0.2877777777777778,-0.3688888888888889,-0.6944444444444444,0.17940939884187537,0.08348959719825247,0.054899297746666985
1592170793.284131,0.05035466067048242,8.68340402698283,4.341063982011447,-0.2877777777777778,-0.3688888888888889,-0.6944444444444444,0.19389706694067702,0.09426014399176767,0.03525477233891934
1592170793.294131,0.035711403422015627,8.734288596577985,4.318577193155969,-0.2877777777777778,-0.3688888888888889,-0.6944444444444444,0.21069214776769554,0.09755175295828201,0.014797215043274988
1592170793.304131,0.018090580480544332,8.720150967467573,4.282362321922177,-0.3005693765208968,-0.36359581354690856,-0.6917979067734543,0.22729290548088868,0.10033996399359543,-0.0023734789277665815
1592170793.314131,0.0,8.69,4.21,-0.32,-0.35555555555555557,-0.6877777777777778,0.234528618236738,0.10362892433716332,-0.007635815477475192
1592170793.324131,0.10213436979455857,8.766972792892837,4.015433647973348,-0.32,-0.35555555555555557,-0.6877777777777778,0.237173140925542,0.10101686612917096,0.009519724453531258
1592170793.334131,0.1052033878367251,8.79,3.86,-0.32,-0.35555555555555557,-0.6877777777777778,0.22147367964358347,0.09381611806760226,0.003281833893303477
1592170793.344131,0.08980286045612679,8.815200903301934,3.9314025593554818,-0.32,-0.35555555555555557,-0.6877777777777778,0.18079342349885452,0.08658996686715001,0.016777617912007117
1592170793.354131,0.18285531982772374,8.862858510129207,4.060003190301483,-0.31142765991386184,-0.36222293117810744,-0.6844440899665019,0.11874168968285875,0.07355251503364921,0.04238666697926411
1592170793.364131,0.16,8.879784541857642,4.099978454185764,-0.3,-0.3711111111111111,-0.68,0.08059926315024486,0.06547334978718983,0.043529818815287336
1592170793.374131,0.14054407144038367,8.725523400033074,4.101673557135769,-0.3,-0.3711111111111111,-0.68,0.001926226409045339,0.07381137968176614,-0.020068436203398085
1592170793.384131,0.18280708023632553,8.67448756432247,4.116168048408615,-0.3,-0.3711111111111111,-0.68,-0.044010952507776716,0.06187114964922586,-0.035110037350639514
1592170793.394131,0.27382950539036865,8.736542623652408,4.096914752695184,-0.3,-0.3711111111111111,-0.68,-0.05611099361571251,0.04551893757317259,-0.01749388550143545
1592170793.404131,0.21169133389183656,8.76107822147755,4.061691333891837,-0.30553911073877565,-0.36926474086485256,-0.6836927404925172,-0.03879944529864772,0.04089808201305688,-0.012787857764881814
1592170793.414131,0.11342817607887228,8.82224076796679,3.967458272074721,-0.32,-0.36444444444444446,-0.6933333333333334,-0.04200608874719034,0.0475569391529753,-0.0018879872394795098
1592170793.424131,-0.030544291994138807,8.862363927001464,3.871454109497802,-0.32,-0.36444444444444446,-0.6933333333333334,-0.08877290470552403,0.048155173169976355,0.014339418912586221
1592170793.434131,-0.14750360230547552,8.79599711815562,3.935002401536984,-0.32,-0.36444444444444446,-0.6933333333333334,-0.1550085736016173,0.048214615799524664,0.010471661151509925
1592170793.444131,-0.17389510901591043,8.681375761147123,4.117171086230603,-0.32,-0.36444444444444446,-0.6933333333333334,-0.21591695813157918,0.04295884889859535,0.007352555156426219
1592170793.454131,0.008701842800327875,8.612234736937976,4.372821579282917,-0.3186405847846693,-0.3620654678176157,-0.69163406431417,-0.26829264421815563,0.025834001794761842,0.03319888959891351
1592170793.4641309,0.21,8.64,4.47,-0.31555555555555553,-0.3566666666666667,-0.6877777777777778,-0.28797932657906433,-0.002181661564992912,0.07635815477475191
1592170793.4741309,0.24402449740380774,8.597784582612169,4.635101584342964,-0.31555555555555553,-0.3566666666666667,-0.6877777777777778,-0.28099533731887055,0.00014633485507168547,0.06394217386774073
1592170793.4841309,0.3217029541530788,8.595958181469404,4.666594091693842,-0.31555555555555553,-0.3566666666666667,-0.6877777777777778,-0.24327901460102838,0.013182615722002418,0.037738183380332024
1592170793.4941308,0.23088594080547264,8.525109235058029,4.7557767057474445,-0.31555555555555553,-0.3566666666666667,-0.6877777777777778,-0.20013038591980412,0.021986066557580012,0.021088518075499406
1592170793.5041308,0.1663026258131931,8.457940809653824,4.758361816159369,-0.31555555555555553,-0.3528150620030487,-0.6923296741984173,-0.17019688478898778,0.020831275598378912,0.012718931758037436
1592170793.5141308,0.18,8.41,4.82,-0.31555555555555553,-0.34444444444444444,-0.7022222222222222,-0.14180800172453928,0.030543261909900768,0.04036073895236887
1592170793.5241308,0.11041343804995929,8.505538336266449,4.800163641616979,-0.31555555555555553,-0.34444444444444444,-0.7022222222222222,-0.06969572332561771,0.04091977862553974,0.021500921983843492
1592170793.5341308,0.08089508356176497,8.587336192413122,4.657554602528959,-0.31555555555555553,-0.34444444444444444,-0.7022222222222222,-0.05308631838843334,0.04605781950077981,0.00984130189022446
1592170793.5441308,0.016623950508174987,8.541688024745913,4.67,-0.31555555555555553,-0.34444444444444444,-0.7022222222222222,-0.0644771131808621,0.028994021903297317,0.01617832680200113
1592170793.5541308,0.021812507292031262,8.516528409753821,4.645698868276747,-0.3143983588068292,-0.34560164119317077,-0.6997149625999818,-0.05721748537672745,-0.0031200229416521543,0.014757205797693273
1592170793.5641308,-0.16686230020672616,8.54460495134372,4.481963898552917,-0.3088888888888889,-0.3511111111111111,-0.6877777777777778,0.013323887774365144,-0.043707097368576676,-0.013378063558198101
1592170793.5741308,-0.13421173984052262,8.687235325199348,4.313686233067537,-0.3088888888888889,-0.3511111111111111,-0.6877777777777778,0.048039756945943986,-0.0893185166164096,-0.04063323705422173
1592170793.5841308,-0.01782213382582753,8.795337405881517,4.19383435147038,-0.3088888888888889,-0.3511111111111111,-0.6877777777777778,0.007900193558870124,-0.12399332017422494,-0.06056117698748685
1592170793.5941308,0.0690908545247194,8.753182009163481,4.2477271363117985,-0.3088888888888889,-0.3511111111111111,-0.6877777777777778,-0.06302021076742534,-0.14126257542083648,-0.07650689153037331
1592170793.6041307,0.12266750418760469,8.592265494137353,4.385469011725293,-0.31564489112227806,-0.3443551088777219,-0.6914372789875303,-0.11021776152591074,-0.15358924825358705,-0.08479382146669583
1592170793.6141307,0.16,8.54,4.49,-0.33555555555555555,-0.3244444444444444,-0.7022222222222222,-0.11999138607461016,-0.16580627893946132,-0.08072147790473774
1592170793.6241307,0.18650840326089557,8.61842501613713,4.525066580601975,-0.33555555555555555,-0.3244444444444444,-0.7022222222222222,-0.10789497526798798,-0.17658004862086757,-0.08183504899760109
1592170793.6341307,0.2349032840644456,8.625907276270139,4.418455634237917,-0.33555555555555555,-0.3244444444444444,-0.7022222222222222,-0.09742086798472745,-0.17128990565741142,-0.11497530640347073
1592170793.6441307,0.09739073409713382,8.594521853180574,4.46034833931258,-0.33555555555555555,-0.3244444444444444,-0.7022222222222222,-0.09420038950518839,-0.1645731347786366,-0.15067696136283917
1592170793.6541307,0.02240473278910665,8.608196450408169,4.53,-0.3367579219501089,-0.3252460220408133,-0.7016878371579762,-0.099593495775932,-0.16061444068198263,-0.1536519717532296
1592170793.6641307,0.015941090112553298,8.554823480064316,4.558323584927645,-0.35555555555555557,-0.3377777777777778,-0.6933333333333334,-0.10471975511965977,-0.16608861430406383,-0.12558989782769545
1592170793.6741307,0.0055028307678315624,8.531351037948205,4.5686983015393015,-0.35555555555555557,-0.3377777777777778,-0.6933333333333334,-0.10596334338355491,-0.17032235955084582,-0.10254885776101967
1592170793.6841307,0.21007938758151404,8.622400765523107,4.45488091862773,-0.35555555555555557,-0.3377777777777778,-0.6933333333333334,-0.1139528474829311,-0.16613744056700824,-0.1013693241962733
1592170793.6941307,0.1538594259362328,8.595653971535341,4.558313588296096,-0.35555555555555557,-0.3377777777777778,-0.6933333333333334,-0.1372725151928475,-0.14004144043187106,-0.1304610024709457
1592170793.7041306,0.05194916512059369,8.336751391465677,4.79714693877551,-0.3558443207586065,-0.33727243867243867,-0.6939108637394352,-0.1714730537833148,-0.12477995106733837,-0.12425299277578655
1592170793.7141306,0.08,8.29,4.9,-0.36,-0.33,-0.7022222222222222,-0.17453292519943295,-0.1308996938995747,-0.05999569303730508
1592170793.7241306,0.28269085780228237,8.4057445826388,4.746182843954353,-0.36,-0.33,-0.7022222222222222,-0.06986508909329578,-0.13484662989794213,-0.018040346624353363
1592170793.7341306,0.27520788853916756,8.57141791209033,4.585207888539167,-0.36,-0.33,-0.7022222222222222,-0.03383436174217949,-0.11438256194662719,-0.013503391687490244
1592170793.7441306,0.24,8.67,4.553882332286444,-0.36,-0.33,-0.7022222222222222,-0.08478312715681059,-0.10066444704100994,-0.002508891648546947
1592170793.7541306,0.23676868391722142,8.66676868391722,4.570950387083171,-0.36014783799071537,-0.33,-0.7023067010740596,-0.1569425764637535,-0.0878596718691206,-0.018365598627279246
1592170793.7641306,0.04123987220447285,8.480826581469648,4.634380063897764,-0.36777777777777776,-0.33,-0.7066666666666667,-0.2140101260688034,-0.05851723745304381,-0.06414266225362515
1592170793.7741306,-0.07667971218824446,8.408142350138558,4.697786474792163,-0.36777777777777776,-0.33,-0.7066666666666667,-0.23889194136672384,-0.046258989173501325,-0.06161252922192079
1592170793.7841306,-0.19896676852559209,8.361378915202446,4.802070282658518,-0.36777777777777776,-0.33,-0.7066666666666667,-0.23347528736655046,-0.044385521207343855,-0.05935611119959229
1592170793.7941306,-0.33,8.32,4.94,-0.36777777777777776,-0.33,-0.7066666666666667,-0.22143864884678055,-0.04363323129985824,-0.04581489286485115
1592170793.8041306,-0.06365298659081674,8.36136529865908,4.955461194636327,-0.36974987584089575,-0.3283313016389002,-0.7037843694974942,-0.20254436044146712,-0.04864059227095229,-0.02905794132796431
1592170793.8141305,-0.15,8.37,4.99,-0.38222222222222224,-0.31777777777777777,-0.6855555555555556,-0.18653206380689397,-0.04581489286485115,-0.04036073895236887
1592170793.8241305,-0.03685682982138762,8.429257268071446,4.996114097892832,-0.38222222222222224,-0.31777777777777777,-0.6855555555555556,-0.185098366345852,-0.04085625023196596,-0.04089382770840837
1592170793.8341305,0.006558125313940032,8.421413221516085,4.986014326584987,-0.38222222222222224,-0.31777777777777777,-0.6855555555555556,-0.1750309209337208,-0.027144317143850367,-0.08368565314578083
1592170793.8441305,-0.11033100049285362,8.283413307047807,5.119714539181863,-0.38222222222222224,-0.31777777777777777,-0.6855555555555556,-0.16607526092916,-0.014521995267477855,-0.10475089406442183
1592170793.8541305,-0.21782414982750123,8.142845342533269,5.276819911286348,-0.38222222222222224,-0.31777777777777777,-0.6855555555555556,-0.1444278450149959,-0.016325946593658193,-0.0876133564657086
1592170793.8641305,-0.32,8.07,5.26,-0.38666666666666666,-0.3244444444444444,-0.6588888888888889,-0.06763150851478027,-0.02945243112740431,-0.053450708342326333
1592170793.8741305,-0.22623293194280183,8.32540103214708,5.162965003763036,-0.38666666666666666,-0.3244444444444444,-0.6588888888888889,0.012766537652463696,-0.0494983085919956,0.0017344397091328314
1592170793.8841305,-0.17,8.47,4.93,-0.38666666666666666,-0.3244444444444444,-0.6588888888888889,0.038179077387375956,-0.05563236990731925,0.004363323129985824
1592170793.8941305,-0.08371224314889525,8.417484897259557,4.9912575513702215,-0.38666666666666666,-0.3244444444444444,-0.6588888888888889,0.007073925552052886,-0.05262764289520177,0.009686889281616973
1592170793.9041305,-0.03977327119284545,8.399811059327371,4.9999622118654745,-0.3866960574379645,-0.3243856629018488,-0.6588888888888889,-0.011854866996222662,-0.04681503863456922,0.01629238695484535
1592170793.9141304,0.02,8.35,4.99,-0.39444444444444443,-0.3088888888888889,-0.6588888888888889,0.02617993877991494,-0.022907446432425576,-0.002181661564992912
1592170793.9241304,-0.09085716538744612,8.438025969929555,4.844077909788665,-0.39444444444444443,-0.3088888888888889,-0.6588888888888889,0.0579216981106329,0.009143148413965537,-0.019527287446615468
1592170793.9341304,-0.21184464633972316,8.42,4.79,-0.39444444444444443,-0.3088888888888889,-0.6588888888888889,0.05672055442763109,0.022907446432425576,-0.01993413737428
1592170793.9441304,-0.3143107516650809,8.42,4.785689248334919,-0.39444444444444443,-0.3088888888888889,-0.6588888888888889,0.04674898029361534,0.021026526187638346,-0.027277142256040825
1592170793.9541304,-0.33825537583254045,8.42,4.761744624167459,-0.39444444444444443,-0.3088888888888889,-0.6588888888888889,0.045878329189709556,0.01057871294076896,-0.0333716999833813
1592170793.9641304,-0.24723830429414187,8.435631773905886,4.827815886952943,-0.38666666666666666,-0.3,-0.6588888888888889,0.038555158846617775,-0.01097131231933018,-0.03268750987966469
1592170793.9741304,-0.14238871659217367,8.405841466751802,4.804071650095777,-0.38666666666666666,-0.3,-0.6588888888888889,0.037155758115043125,-0.0246449598714157,-0.038044054367048705
1592170793.9841304,-0.17275182368461897,8.368761963888458,4.733027575146154,-0.38666666666666666,-0.3,-0.6588888888888889,0.044854201033383556,-0.03685313868207541,-0.023968197396666013
1592170793.9941304,0.021386452542721843,8.531881202388305,4.75,-0.38666666666666666,-0.3,-0.6588888888888889,0.05945569025092779,-0.05917486364799726,-0.012225996374271736
1592170794.0041304,0.2075131704980843,8.53474078065134,4.759015804597701,-0.38633274797786293,-0.3,-0.6568018970838655,0.06375417453010926,-0.0517804390101956,-0.03891093446229441
1592170794.0141304,0.3,8.47,4.87,-0.38222222222222224,-0.3,-0.6311111111111111,0.02945243112740431,-0.004363323129985824,-0.007635815477475192
1592170794.0241303,0.3198185473478014,8.381862467137482,5.002874890458271,-0.38222222222222224,-0.3,-0.6311111111111111,0.0018128405380124358,0.04235903028272489,0.021741603109909
1592170794.0341303,-0.024072156338733924,8.354072156338734,4.819969934858861,-0.38222222222222224,-0.3,-0.6311111111111111,0.03646129675978675,0.08859251344905825,-0.010702604141410443
1592170794.0441303,-0.1421561976295758,8.453408645789166,4.781704322894583,-0.38222222222222224,-0.3,-0.6311111111111111,0.0710406217628658,0.1118224781776558,-0.023180688233617876
1592170794.0541303,-0.24574768963592383,8.469734230602246,4.787873844817962,-0.3823403419545577,-0.2998228204014968,-0.631140641044195,0.059897895115324146,0.11395741328189501,-0.0031855195154544364
1592170794.0641303,-0.09,8.46,4.71,-0.38666666666666666,-0.29333333333333333,-0.6322222222222222,0.016362461737446838,0.09272061651219875,0.0
1592170794.0741303,-0.2462883108090514,8.376232585995885,4.798753482800823,-0.38666666666666666,-0.29333333333333333,-0.6322222222222222,0.0016438444664384267,0.07881480352317706,-0.02086783743476503
1592170794.0841303,-0.15,8.42,4.79,-0.38666666666666666,-0.29333333333333333,-0.6322222222222222,-0.017453292519943295,0.07308566242726255,-0.006544984694978735
1592170794.0941303,-0.004303781539042345,8.371793242307934,4.826455672308564,-0.38666666666666666,-0.29333333333333333,-0.6322222222222222,-0.012307519825969577,0.06245121194969375,-0.021968506955640104
1592170794.1041303,-0.10986723714843012,8.415778015478512,4.9848008557226455,-0.38666666666666666,-0.29333333333333333,-0.6322222222222222,0.006884457988266817,0.06916840418467649,0.0010618664214435726
1592170794.1141303,-0.06628280517103306,8.41634412538611,4.880030660107539,-0.39444444444444443,-0.31222222222222223,-0.5955555555555555,0.036392865380050904,0.06634295295344989,0.02101902753677372
1592170794.1241302,-0.3227423900073625,8.482233110766966,4.766043057706466,-0.39444444444444443,-0.31222222222222223,-0.5955555555555555,0.039508157864503325,0.06295834723722607,0.03393220665375454
1592170794.1341302,-0.22097220179438154,8.52233024464382,4.536990733931461,-0.39444444444444443,-0.31222222222222223,-0.5955555555555555,0.02114915898566736,0.039524098428695066,0.013640438637603499
1592170794.1441302,-0.3941707517157206,8.528191040236898,4.6183415034314415,-0.39444444444444443,-0.31222222222222223,-0.5955555555555555,-0.015682697742151773,0.0400345962847916,-0.015529262491327425
1592170794.1541302,-0.4948762480241702,8.444269793313191,4.81975249604834,-0.39444444444444443,-0.31222222222222223,-0.5955555555555555,-0.06511639264507976,0.029964769545306268,-0.017360140080324757
1592170794.1641302,-0.26,8.42,4.92,-0.39444444444444443,-0.3055555555555556,-0.6111111111111112,-0.0916297857297023,0.008726646259971648,-0.015271630954950384
1592170794.1741302,-0.19049787612367874,8.193319174157859,4.9186723303368565,-0.39444444444444443,-0.3055555555555556,-0.6111111111111112,-0.044982141675763664,0.006508778121540149,-0.05210643154575978
1592170794.1841302,-0.211303792588309,8.388976916775096,4.838976916775095,-0.39444444444444443,-0.3055555555555556,-0.6111111111111112,0.005814137007202329,0.00335891352268209,-0.036083836997575766
1592170794.1941302,-0.06299570188954667,8.376757764982564,4.816881031546509,-0.39444444444444443,-0.3055555555555556,-0.6111111111111112,0.0319877656685079,-0.016065493207981216,-0.01677283916020258
1592170794.2041302,-0.2755849079555592,8.487304152136891,4.765859622090666,-0.39444444444444443,-0.3055555555555556,-0.6111111111111112,0.01992902546833689,-0.029051828808165384,-0.005641694360044722
1592170794.2141302,-0.25,8.51,4.64,-0.38666666666666666,-0.28444444444444444,-0.6044444444444445,0.006544984694978735,-0.04581489286485115,-0.006544984694978735
1592170794.2241302,-0.2872477366255144,8.444816460905349,4.528256790123456,-0.38666666666666666,-0.28444444444444444,-0.6044444444444445,-0.00869163193855818,-0.04276756953814377,-0.010608082463921913
1592170794.2341301,-0.22,8.49,4.32,-0.38666666666666666,-0.28444444444444444,-0.6044444444444445,-0.02617993877991494,-0.044724062082354694,0.01308996938995747
1592170794.2441301,-0.14932822284603756,8.658880371410064,4.340447851435975,-0.38666666666666666,-0.28444444444444444,-0.6044444444444445,-0.053507923370844666,-0.04244469449089244,0.03716152612473151
1592170794.2541301,-0.12215720146836537,8.613595335780609,4.358561865687757,-0.38666666666666666,-0.28444444444444444,-0.6044444444444445,-0.09994233557083812,-0.03849282962280789,0.04012542477579492
1592170794.26413,-0.09394169450349227,8.638269055572426,4.425192833282721,-0.39444444444444443,-0.30333333333333334,-0.59,-0.18958493246510452,-0.028036305529113285,0.03831555545673172
1592170794.27413,-0.030256604919526267,8.620073315691293,4.479780052926121,-0.39444444444444443,-0.30333333333333334,-0.59,-0.25607731759344327,-0.013149950649634458,0.05121706301894671
1592170794.28413,0.06990377304694925,8.53986100551226,4.520096226953051,-0.39444444444444443,-0.30333333333333334,-0.59,-0.3021892843410999,0.017494113145357475,0.025051786282754094
1592170794.29413,-0.01978616232655389,8.410308876639423,4.609786162326555,-0.39444444444444443,-0.30333333333333334,-0.59,-0.32936610167041513,0.05554165740639885,-0.009734539898769452
1592170794.30413,-0.02,8.32041577459964,4.65479211270018,-0.39444444444444443,-0.30333333333333334,-0.59,-0.3704738132049113,0.07908546527359443,-0.003954203200899309
1592170794.31413,-0.05,8.34,4.92,-0.4088888888888889,-0.2966666666666667,-0.56,-0.3981532356112064,0.11780972450961724,0.015271630954950384
1592170794.32413,-0.2845403764420158,8.261819874519327,5.0763602509613435,-0.4088888888888889,-0.2966666666666667,-0.56,-0.38749307467948735,0.15085622339794633,0.008875534395918948
1592170794.33413,-0.4230153749607782,8.228503294634454,5.066984625039222,-0.4088888888888889,-0.2966666666666667,-0.56,-0.42171374295765873,0.1403386146679791,0.029284374047327196
1592170794.34413,-0.2921072413440915,8.196312327647838,5.207902155040343,-0.4088888888888889,-0.2966666666666667,-0.56,-0.43173707552309104,0.11109131654877863,0.06820616944585133
1592170794.35413,-0.32637789806965584,8.136338678378102,5.336417117761209,-0.4088888888888889,-0.2966666666666667,-0.56,-0.39248441386584554,0.09053039853784053,0.077552041269005
1592170794.36413,-0.3,8.17,5.4,-0.41333333333333333,-0.2966666666666667,-0.5822222222222222,-0.32615840396644036,0.06326818538479445,0.08726646259971647
1592170794.37413,-0.2829978838466965,8.212505290383259,5.45100634845991,-0.41333333333333333,-0.2966666666666667,-0.5822222222222222,-0.29370214854813376,0.05677693430113313,0.09653967843351835
1592170794.38413,-0.24879018876998918,8.159193459179994,5.4160490561500545,-0.41333333333333333,-0.2966666666666667,-0.5822222222222222,-0.26428006054821535,0.04965925492231299,0.09092594608665926
1592170794.39413,-0.22,8.14,5.56,-0.41333333333333333,-0.2966666666666667,-0.5822222222222222,-0.2454369260617026,0.06326818538479445,0.074176493209759
1592170794.40413,-0.30507394727832937,8.14773399520712,5.614137966449846,-0.41333333333333333,-0.2966666666666667,-0.5822222222222222,-0.20916006187419045,0.07761020145892716,0.062365421148708536
1592170794.41413,-0.4294090167163843,8.0207682782687,5.689645410029831,-0.4011833424013308,-0.2624257831310232,-0.5822222222222222,-0.15515583621758028,0.07422161960279862,0.029626490071985694
1592170794.42413,-0.37088531092119553,8.0397048963596,5.522508380943387,-0.4011111111111111,-0.26222222222222225,-0.5822222222222222,-0.11835696833907211,0.04838284419181221,0.04449872638787328
1592170794.43413,-0.33197321798352586,8.154080346049422,5.348879480925866,-0.4011111111111111,-0.26222222222222225,-0.5822222222222222,-0.04625537144919639,0.02414510340970378,0.0509461797397826
1592170794.44413,-0.3487846320857129,8.178784632085712,5.330607683957144,-0.4011111111111111,-0.26222222222222225,-0.5822222222222222,0.012782907758447155,0.02700561741581883,0.022581849893580645
1592170794.45413,-0.3342439766269111,8.203634035059634,5.345756023373089,-0.4011111111111111,-0.26222222222222225,-0.5822222222222222,0.017221819502701793,0.037583062745470824,0.010413491684373236
1592170794.46413,-0.41,8.14,5.36,-0.39444444444444443,-0.25555555555555554,-0.5688888888888889,0.0032724923474893677,0.05781403147231216,0.002181661564992912
1592170794.47413,-0.39677352285185047,8.133386761425927,5.280641137111103,-0.39444444444444443,-0.25555555555555554,-0.5688888888888889,0.016978948343817458,0.0621423859974684,-0.028116820111100765
1592170794.48413,-0.44396155419222905,8.273897477845944,5.087108929788685,-0.39444444444444443,-0.25555555555555554,-0.5688888888888889,0.052448690667301845,0.07220740608518879,-0.045595328779332714
1592170794.49413,-0.6345560031843293,8.20694979856705,5.162278001592164,-0.39444444444444443,-0.25555555555555554,-0.5688888888888889,0.053619176213639444,0.06503288765254334,-0.06594682980164918
1592170794.50413,-0.5704906807962835,8.163859400361947,5.213368719565664,-0.39444444444444443,-0.25555555555555554,-0.5688888888888889,0.024277482190855702,0.0541089637356931,-0.04161214464995511
1592170794.5141299,-0.5225364281108962,8.123804642166343,5.308586073500967,-0.4070570241421305,-0.2536151586789885,-0.5562763091912027,-0.005959832399016743,0.025413473669170496,-0.01448927108232043
1592170794.5241299,-0.37886350133676605,8.12,5.23531810080206,-0.4088888888888889,-0.25333333333333335,-0.5544444444444444,0.017959066867803443,0.008473759086041572,-0.011999138607461015
1592170794.5341299,-0.3339597284861738,8.210100678784567,5.0948489818231515,-0.4088888888888889,-0.25333333333333335,-0.5544444444444444,0.04912033226754507,0.005670123598634601,-0.006102062970939242
1592170794.5441298,-0.35756378299120234,8.275127565982404,5.162691348973607,-0.4088888888888889,-0.25333333333333335,-0.5544444444444444,0.041335155804582774,-0.0005593306812888719,0.01659528959801194
1592170794.5541298,-0.2532716754486164,8.287115221636759,5.148654335089723,-0.4088888888888889,-0.25333333333333335,-0.5544444444444444,0.010090878088289276,-0.00885233356815789,0.02708177636666733
1592170794.5641298,-0.36272604022079474,8.17121307982827,5.216363020110398,-0.41265990222767396,-0.25333333333333335,-0.5365321310852155,-0.01699039631713822,-0.006445863075406524,0.011106797547710053
1592170794.5741298,-0.33700543001446426,8.247156711640148,5.203502715007232,-0.41333333333333333,-0.25333333333333335,-0.5333333333333333,-0.023488827967961885,0.001290125382812658,0.007635815477475192
1592170794.5841298,-0.3387958276902607,8.233612516929218,5.1208375507876545,-0.41333333333333333,-0.25333333333333335,-0.5333333333333333,-0.017281945493472315,0.006979041366028423,-0.008675275846045539
1592170794.5941298,-0.31336134656135617,8.203361346561355,5.181036409169717,-0.41333333333333333,-0.25333333333333335,-0.5333333333333333,-0.022174114372472388,0.009573033022483707,-0.02931187450254546
1592170794.6041298,-0.34556577140241107,8.100415840073248,5.360715702731573,-0.41333333333333333,-0.25333333333333335,-0.5333333333333333,-0.040753716026957376,0.009817477042468103,-0.026202619337539715
1592170794.6141298,-0.3,8.12,5.5,-0.38222222222222224,-0.24666666666666667,-0.5311111111111111,-0.0545415391248228,0.0,0.0
1592170794.6241298,-0.28066677475578616,8.100666774755785,5.519333225244214,-0.38222222222222224,-0.24666666666666667,-0.5311111111111111,-0.02501655101496635,0.0007029759073775345,-0.014059518147550689
1592170794.6341298,-0.2309546230357248,8.021670590312517,5.471431934553587,-0.38222222222222224,-0.24666666666666667,-0.5311111111111111,0.02002288563712471,0.01386840051453928,-0.020751818172258886
1592170794.6441298,-0.13591277065499477,8.012762520819615,5.55684975016462,-0.38222222222222224,-0.24666666666666667,-0.5311111111111111,0.028620649945073864,0.029181043819972205,-0.002567595188857911
1592170794.6541297,-0.2460747327405335,8.037823758617245,5.59,-0.38222222222222224,-0.24666666666666667,-0.5311111111111111,0.06350265569606059,0.0561522937089955,0.0028457725107637584
1592170794.6641297,-0.37132950631458095,8.111329506314581,5.493625061505659,-0.3909835802671624,-0.24471969821223552,-0.5204027846117398,0.12332334900633797,0.09220989229508962,0.008871672901318479
1592170794.6741297,-0.43571824817518245,8.166431873479318,5.238554257907542,-0.39222222222222225,-0.24444444444444444,-0.5188888888888888,0.15006858986916694,0.10612297223573244,0.010830463380072538
1592170794.6841297,-0.45838043860677846,8.151619561393222,5.14035143270396,-0.39222222222222225,-0.24444444444444444,-0.5188888888888888,0.15162547876700738,0.10556475346944866,0.023606608369402704
1592170794.6941297,-0.44306247722622416,8.184895871289626,5.107958348515851,-0.39222222222222225,-0.24444444444444444,-0.5188888888888888,0.13791281521228485,0.09198656753313171,0.060038895770036745
1592170794.7041297,-0.39462952360269293,8.242932222463525,5.11,-0.39222222222222225,-0.24444444444444444,-0.5188888888888888,0.11655724290377241,0.07651635980383759,0.08966365859584055
1592170794.7141297,-0.21238925654325402,8.198248673463304,5.0923567638466585,-0.4049645594440801,-0.24150390508555417,-0.5326114058970436,0.10343788424752025,0.06525880686014428,0.1097222414840327
1592170794.7241297,-0.1627865329512894,8.34420964660936,5.008359598853868,-0.4066666666666667,-0.2411111111111111,-0.5344444444444445,0.15003455364296525,0.07227509284867398,0.10730670147394696
1592170794.7341297,-0.23485672444318156,8.518030862713383,4.858603964940657,-0.4066666666666667,-0.2411111111111111,-0.5344444444444445,0.17395104228437477,0.08669499897717545,0.08966292372142969
1592170794.7441297,-0.3954929544220738,8.428755871314939,4.8946635352987,-0.4066666666666667,-0.2411111111111111,-0.5344444444444445,0.09492447214650297,0.09650182164559615,0.07294994904055736
1592170794.7541296,-0.4706128167153664,8.278161549853902,4.9641504222871555,-0.4066666666666667,-0.2411111111111111,-0.5344444444444445,0.004384586973042129,0.08119244801382784,0.037325248945967074
1592170794.7641296,-0.5409791522576821,8.21150347462372,4.98150347462372,-0.37645679866211434,-0.23544676086025756,-0.510842985065888,-0.021110986845166317,0.061036909575141005,-0.009695507194081066
1592170794.7741296,-0.5150621141975309,8.24992901234568,4.940070987654321,-0.3711111111111111,-0.23444444444444446,-0.5066666666666667,0.011398550409274025,0.051282597993072776,-0.029427264583888384
1592170794.7841296,-0.30236445582313254,8.405849267941434,4.730087740352562,-0.3711111111111111,-0.23444444444444446,-0.5066666666666667,0.0518096766747096,0.02762611793716656,-0.04700314990253017
1592170794.7941296,-0.178840132069443,8.359945148578124,4.751159867930557,-0.3711111111111111,-0.23444444444444446,-0.5066666666666667,0.0002051770328990038,0.0122342324500834,-0.04120450916835359
1592170794.8041296,-0.13056987697361805,8.335213703865106,4.82407394991787,-0.3711111111111111,-0.23444444444444446,-0.5066666666666667,-0.04041661335938355,0.007144793528919581,-0.027457261365928944
1592170794.8141296,-0.06372452312516332,8.258690553958715,4.951309446041286,-0.3769501059721859,-0.23931027349534012,-0.5066666666666667,-0.09915240649212684,0.007094105547468786,0.003971862527448307
1592170794.8241296,-0.05387156797882898,8.237743135957658,4.984513728084684,-0.37777777777777777,-0.24,-0.5066666666666667,-0.09785853594667564,0.011646864855753385,0.0011969188572744762
1592170794.8341296,-0.09145354607221926,8.221709290785556,5.0,-0.37777777777777777,-0.24,-0.5066666666666667,-0.08676289333933354,0.02051143274634358,-0.00760791805689833
1592170794.8441296,-0.09213617591249024,8.20427235182498,5.070774416787588,-0.37777777777777777,-0.24,-0.5066666666666667,-0.11768158628933606,0.016669754820253464,0.01614984775012735
1592170794.8541296,-0.11468188922349712,8.2,5.201068501505737,-0.37777777777777777,-0.24,-0.5066666666666667,-0.14942157062447337,0.008540689821160831,0.04444645806055214
1592170794.8641295,-0.16657438403856453,8.309723152115692,5.2480553695768615,-0.3859054186752366,-0.22537024638457417,-0.4839092721537821,-0.15085774890723216,0.0035653938507835587,0.06020781930991896
1592170794.8741295,-0.25282872137404583,8.317631679389313,5.199539599236641,-0.3888888888888889,-0.22,-0.47555555555555556,-0.13293068966708063,0.013865000497444933,0.024895454307453345
1592170794.8841295,-0.36116979197187227,8.26855918546733,5.165135511280399,-0.3888888888888889,-0.22,-0.47555555555555556,-0.13884984634587066,0.028115739934876975,-0.02432196279211901
1592170794.8941295,-0.5301375358166189,8.026452722063038,5.326819484240688,-0.3888888888888889,-0.22,-0.47555555555555556,-0.1552749172244368,0.036912275908448124,-0.054561542898484625
1592170794.9041295,-0.518571907740268,8.042142138389599,5.387618728173155,-0.3888888888888889,-0.22,-0.47555555555555556,-0.16043001537683707,0.029140869727972175,-0.04233481487923503
1592170794.9141295,-0.44706653225806453,8.167044690860214,5.391177755376344,-0.3830073924731183,-0.23078274342891278,-0.469674059139785,-0.14508287659893934,-0.0028192624205549376,-0.008922929823152712
1592170794.9241295,-0.31918871113556857,8.087953303722337,5.338223733343815,-0.38222222222222224,-0.23222222222222222,-0.4688888888888889,-0.12469999674405763,-0.020350998032410396,-0.00859188421644402
1592170794.9341295,-0.08930629385498617,8.069656602168829,5.208962896023815,-0.38222222222222224,-0.23222222222222222,-0.4688888888888889,-0.06793117965468787,-0.03505717442656229,-0.011811090328296863
1592170794.9441295,-0.06,8.161468881646927,5.169632779588269,-0.38222222222222224,-0.23222222222222222,-0.4688888888888889,-0.0272453651097231,-0.03210940740105675,-0.0031122622158580616
1592170794.9541295,-0.05354132565093084,8.304586743490692,5.143541325650931,-0.38222222222222224,-0.23222222222222222,-0.4688888888888889,0.006090620665123329,-0.018498151233188986,0.00615868599189077
1592170794.9641294,-0.2143909046633386,8.293031170096189,5.233937659807622,-0.38222222222222224,-0.21134718670941732,-0.46367013001068763,-0.034206138328673794,0.005696213951578809,-0.0037020244004046894
1592170794.9741294,-0.3174727389352149,8.189685695958948,5.276420782552918,-0.38222222222222224,-0.20555555555555555,-0.4622222222222222,-0.06910087647067673,0.019416647988631592,-0.018635783874926624
1592170794.9841294,-0.45305904942119324,7.984201357969724,5.246940950578807,-0.38222222222222224,-0.20555555555555555,-0.4622222222222222,-0.1273431411540833,0.031634092692397225,-0.040131590422285784
1592170794.9941294,-0.4385095903386218,8.022980819322756,5.245745204830689,-0.38222222222222224,-0.20555555555555555,-0.4622222222222222,-0.14900330031438258,0.012741203175766918,0.000628047824902174
1592170795.0041294,-0.40980742132456555,8.134232033818694,5.290385157350869,-0.38222222222222224,-0.20555555555555555,-0.4622222222222222,-0.12848695451264386,-0.01071975652014601,0.032557379244796764
1592170795.0141294,-0.32202558285729904,8.215442916883045,5.359620083636264,-0.38064698147186465,-0.2181574815584163,-0.44804505546900386,-0.09661453685322609,-0.03355335499763253,0.05259457895430913
1592170795.0241294,-0.29,8.201089758396082,5.38,-0.38,-0.22333333333333333,-0.44222222222222224,-0.09387612513963142,-0.03769309909632427,0.0464739417117528
1592170795.0341294,-0.352708866651152,8.071549918547824,5.386967651850128,-0.38,-0.22333333333333333,-0.44222222222222224,-0.10511374380349373,-0.020367082541235898,0.02886144810165338
1592170795.0441294,-0.3516351507124813,7.998726363034361,5.4609121232187965,-0.38,-0.22333333333333333,-0.44222222222222224,-0.07582123370017017,0.0008335934447066592,0.01517213374650106
1592170795.0541294,-0.24737279655145872,7.99,5.507367600646601,-0.38,-0.22333333333333333,-0.44222222222222224,-0.025550135355689348,0.014754533836459985,0.018314176408600436
1592170795.0641294,-0.1927519466073415,8.047383759733037,5.52637597330367,-0.3842506488691138,-0.2020800889877642,-0.44647287109133604,0.028911262574575144,0.029767425199858238,0.034731129944059025
1592170795.0741293,-0.24376612209802237,8.218592719977071,5.449762109486959,-0.38666666666666666,-0.19,-0.4488888888888889,0.04711113374310575,0.04286349057572345,0.05020416582428587
1592170795.0841293,-0.2327278800970982,8.167729550364118,5.324547580339844,-0.38666666666666666,-0.19,-0.4488888888888889,0.01750355483847402,0.051764746443655064,0.045269659671470966
1592170795.0941293,-0.2709648799494524,8.06175442291491,5.236315817186184,-0.38666666666666666,-0.19,-0.4488888888888889,-0.030878144432928644,0.056924141690898475,0.03986316802414821
1592170795.1041293,-0.333437224553115,8.086778549518739,5.189928075309382,-0.38666666666666666,-0.19,-0.4488888888888889,-0.03998841117303142,0.05781403147231216,0.04182128225865119
1592170795.1141293,-0.39841024008389825,8.231815423798645,5.108410240083899,-0.37515212804474574,-0.19815613152386066,-0.4431316195779284,-0.003050947348871926,0.060640124436695184,0.04313759969483691
1592170795.1241293,-0.40288681919416885,8.314094351083215,5.098792468110954,-0.36,-0.2088888888888889,-0.43555555555555553,0.03958481129392251,0.07050883697564428,0.03612913711792483
1592170795.1341293,-0.4923356009070295,8.264580498866213,5.126541950113379,-0.36,-0.2088888888888889,-0.43555555555555553,0.0029571161008492344,0.09814385118481436,0.03738383453800496
1592170795.1441293,-0.4692697296526821,8.141222026892194,5.244143108281465,-0.36,-0.2088888888888889,-0.43555555555555553,-0.04137110625836864,0.1160003458120483,0.03650300114491134
1592170795.1541293,-0.4604381473068186,8.171752589227275,5.31,-0.36,-0.2088888888888889,-0.43555555555555553,-0.055098903130309664,0.11720456604717581,0.03211976501245224
1592170795.1641293,-0.48,8.174346586910627,5.3332779732582685,-0.3684059347877082,-0.19983634373289547,-0.4310292829775588,-0.07594623373471843,0.10184106727000339,0.03326128059504165
1592170795.1741292,-0.5426132234847608,8.001730577862117,5.33608595033672,-0.37444444444444447,-0.19333333333333333,-0.42777777777777776,-0.1277247454678375,0.0813372112507809,0.05421086424065161
1592170795.1841292,-0.5571271459227468,8.00792784334764,5.265635729613734,-0.37444444444444447,-0.19333333333333333,-0.42777777777777776,-0.12573492615766352,0.06723078620881758,0.06147524932799535
1592170795.1941292,-0.5192528735632184,8.107643678160919,5.223850574712643,-0.37444444444444447,-0.19333333333333333,-0.42777777777777776,-0.07470937031615095,0.05278617924494344,0.0604157255799905
1592170795.2041292,-0.4553341842654908,8.145037131585054,5.244814342074727,-0.37444444444444447,-0.19333333333333333,-0.42777777777777776,-0.039342815866637085,0.039867979119895126,0.06378524778285641
1592170795.2141292,-0.3987748905521819,8.196125547239092,5.281225109447818,-0.36945550691208084,-0.1864735442263334,-0.4159290511384142,-0.034350309096433024,0.0315004539826365,0.06518256953026591
1592170795.2241292,-0.3876030670074453,8.242396932992555,5.306778530947883,-0.3655555555555556,-0.1811111111111111,-0.4066666666666667,-0.040532260850049996,0.031327656397458783,0.056208634996772325
1592170795.2341292,-0.38,8.210854613817954,5.337631207895974,-0.3655555555555556,-0.1811111111111111,-0.4066666666666667,-0.06934705054988768,0.04235595270540758,0.013685286487063283
1592170795.2441292,-0.3977183390677287,8.126844982796813,5.402685582316067,-0.3655555555555556,-0.1811111111111111,-0.4066666666666667,-0.11774422427787382,0.054885698113276926,-0.017643829300823338
1592170795.2541292,-0.5566633505769996,7.9922244329486665,5.5039990051731,-0.3655555555555556,-0.1811111111111111,-0.4066666666666667,-0.15562482990689241,0.06157127721269963,-0.03262786427753347
1592170795.2641292,-0.6637684090765438,7.915684217179698,5.508905252512483,-0.3655555555555556,-0.179969590347569,-0.4078081874302088,-0.1684288647730886,0.0509107914998003,-0.028122763493219103
1592170795.2741292,-0.5814072907835776,8.023617536635582,5.405678817972629,-0.3655555555555556,-0.17888888888888888,-0.4088888888888889,-0.12612550922985727,0.022041466563312788,-0.01612677781883552
1592170795.2841291,-0.5043509577151166,8.076183226920543,5.363816773079457,-0.3655555555555556,-0.17888888888888888,-0.4088888888888889,-0.0716699692452255,0.0029726879998245304,-0.01755322730249824
1592170795.2941291,-0.4232316562819678,8.015693527387706,5.465228773365572,-0.3655555555555556,-0.17888888888888888,-0.4088888888888889,-0.06529854274518461,-0.003910196709664421,-0.009431684290135358
1592170795.3041291,-0.3948283330659394,7.955515000802182,5.61725332905503,-0.3655555555555556,-0.17888888888888888,-0.4088888888888889,-0.08896124926708303,-0.0017298759617497546,0.008352127107951366
1592170795.314129,-0.431026535642265,7.965855446368554,5.694828910726289,-0.3695775138795529,-0.17141953771575102,-0.39739757939175374,-0.08670657426076028,0.011244240828338279,0.020199032420816308
1592170795.324129,-0.4729954459203036,8.000632637571158,5.67818595825427,-0.37333333333333335,-0.16444444444444445,-0.38666666666666666,-0.06600689510953203,0.023303208947820876,0.01917933041919974
1592170795.334129,-0.5905447556287754,8.044046677649643,5.533501922020868,-0.37333333333333335,-0.16444444444444445,-0.38666666666666666,-0.02889215983093592,0.05094646996438761,0.002033102512791308
1592170795.344129,-0.6379561083675636,7.954087783264873,5.491182443347026,-0.37333333333333335,-0.16444444444444445,-0.38666666666666666,-0.03019132335887656,0.05524541622687121,-0.00998147673204129
1592170795.354129,-0.6556650975628274,7.9620188292460705,5.513004707311518,-0.37333333333333335,-0.16444444444444445,-0.38666666666666666,-0.023122531660741064,0.041011129517621675,-0.014325901951433032
1592170795.364129,-0.6459549923092356,8.05022503845382,5.554270046144587,-0.3724344427353857,-0.16669167093931356,-0.3898127837594834,-0.0044980264697758125,0.007647779380927974,-0.004265131580916055
1592170795.374129,-0.6124075640820433,8.052407564082044,5.634147897468731,-0.3711111111111111,-0.17,-0.39444444444444443,0.007146958264246096,-0.039500081870759096,0.012940461244843169
1592170795.384129,-0.5418632707774799,7.992560321715818,5.648605898123324,-0.3711111111111111,-0.17,-0.39444444444444443,0.007052381855201618,-0.06613417510824358,0.008777824647890382
1592170795.394129,-0.4242855083605612,7.987040889871228,5.640816355948491,-0.3711111111111111,-0.17,-0.39444444444444443,0.018933739419184293,-0.07762708679686604,-0.006077508251144125
1592170795.404129,-0.322224658214234,8.000556164553558,5.654721917723221,-0.3711111111111111,-0.17,-0.39444444444444443,0.0433596267806472,-0.07499491523782699,-0.01772570127437177
1592170795.414129,-0.2553777884384745,7.9752266730630845,5.635377788438475,-0.3711111111111111,-0.16398123717384933,-0.3906143226459849,0.09382112845059648,-0.055309490275368994,-0.024518966410692705
1592170795.424129,-0.2057241981658499,7.98427580183415,5.5917931486243875,-0.3711111111111111,-0.15777777777777777,-0.38666666666666666,0.12980886311707826,-0.04036073895236887,-0.02617993877991494
1592170795.434129,-0.19,8.012742732679904,5.558155315405881,-0.3711111111111111,-0.15777777777777777,-0.38666666666666666,0.13248960923586228,-0.03887143555304442,-0.023797053340995817
1592170795.444129,-0.18503750919342976,8.110225055160578,5.394587398872273,-0.3711111111111111,-0.15777777777777777,-0.38666666666666666,0.1462695236932926,-0.010465182890765826,0.015698389416021197
1592170795.454129,-0.2481885183857217,8.037382176008924,5.484094259192861,-0.3711111111111111,-0.15777777777777777,-0.38666666666666666,0.11959959351974792,0.027446686179579866,0.017222554061727888
1592170795.464129,-0.4172579643849044,7.984292109132495,5.542876327397484,-0.3682497050227813,-0.15157806458639655,-0.3828514585488936,0.11221578172835696,0.0665504437062882,-0.004522643946772596
1592170795.474129,-0.5321486187982428,7.983925690600879,5.547851381201757,-0.36444444444444446,-0.14333333333333334,-0.37777777777777777,0.1225607445646074,0.06930388468478321,0.011579711179935389
1592170795.484129,-0.5383088145896657,7.981691185410335,5.51294103343465,-0.36444444444444446,-0.14333333333333334,-0.37777777777777777,0.12128274404776128,0.06139129331988382,0.030824026501577968
1592170795.494129,-0.46537974683544303,8.000770042194093,5.3530748945147675,-0.36444444444444446,-0.14333333333333334,-0.37777777777777777,0.1522986180156998,0.03733966699092958,0.060247113423355154
1592170795.504129,-0.4910820794176761,8.086814601553588,5.30439513281547,-0.36444444444444446,-0.14333333333333334,-0.37777777777777777,0.18228677723069883,0.028229638796066547,0.05486116220270784
1592170795.514129,-0.5697993278298039,8.19,5.249866218553202,-0.3577331839621787,-0.14743465918360688,-0.37367645192750426,0.18648098728479123,0.018163487534240023,0.04833341032195573
1592170795.524129,-0.4722009808827945,8.179200280252227,5.188400560504454,-0.34444444444444444,-0.15555555555555556,-0.3655555555555556,0.1641920328060202,0.003076402658232674,0.03388137224360577
1592170795.534129,-0.30305892610622687,8.249882293104701,5.055882438421856,-0.34444444444444444,-0.15555555555555556,-0.3655555555555556,0.15568080448212862,-0.018524863556734116,0.016535720190584764
1592170795.544129,-0.19415822235089752,8.321683555298206,5.0459431094383325,-0.34444444444444444,-0.15555555555555556,-0.3655555555555556,0.12640585953019495,-0.03537123031746271,-0.0006482926719078158
1592170795.554129,-0.1875559437102462,8.324500873348054,5.105499126651946,-0.34444444444444444,-0.15555555555555556,-0.3655555555555556,0.10490187780838951,-0.04042739024824431,-0.007811359316612067
1592170795.5641289,-0.15414389995995934,8.227568300120122,5.227295099639634,-0.34950921106217253,-0.15555555555555556,-0.3655555555555556,0.06875214084666763,-0.03738330546254679,-0.037215415561412266
1592170795.5741289,-0.16780596598829106,8.207189852244216,5.2812489545581265,-0.3566666666666667,-0.15555555555555556,-0.3655555555555556,0.061086523819801536,-0.03160003274044863,-0.051848065960459516
1592170795.5841289,-0.4273418313359746,8.111329084332013,5.267974505992076,-0.3566666666666667,-0.15555555555555556,-0.3655555555555556,0.0719638008013336,-0.034326662599129316,-0.07879874671669099
1592170795.5941288,-0.4893976405274115,8.135020124913254,5.1606023594725885,-0.3566666666666667,-0.15555555555555556,-0.3655555555555556,0.10241106967867594,-0.04929767861371284,-0.095314083729987
1592170795.6041288,-0.49419784654108156,8.20466269801634,5.078290816836134,-0.3566666666666667,-0.15555555555555556,-0.3655555555555556,0.12095792154990191,-0.07101685594572214,-0.10183158891753667
1592170795.6141288,-0.3701785599382279,8.253063187697059,5.013873624605881,-0.35904914598660176,-0.15725732649836632,-0.3590888259728746,0.10836534514582875,-0.09495172729450514,-0.09786010634914333
1592170795.6241288,-0.16088878725512618,8.28589374190106,4.984463754859364,-0.36444444444444446,-0.16111111111111112,-0.34444444444444444,0.06798139920254193,-0.12139419163383705,-0.0804874968221899
1592170795.6341288,-0.0422182559918409,8.308888322284549,4.96610912799592,-0.36444444444444446,-0.16111111111111112,-0.34444444444444444,0.045025556362881504,-0.12944506743540937,-0.07314573877836382
1592170795.6441288,0.17363177740215838,8.280707580288649,5.011509036536212,-0.36444444444444446,-0.16111111111111112,-0.34444444444444444,-0.02623389171577005,-0.10755236935132095,-0.04701638106205359
1592170795.6541288,0.2742535604023504,8.261492879195298,5.174028483218803,-0.36444444444444446,-0.16111111111111112,-0.34444444444444444,-0.05806607085239301,-0.07088846567634224,-0.03662425514267032
1592170795.6641288,0.225877770358358,8.204204267226302,5.294938471811505,-0.35750569705449037,-0.16203627742977167,-0.34814510971908663,-0.07598857857240844,-0.026741014767630376,-0.03372671604890438
1592170795.6741288,0.14881101178704215,8.138811011787043,5.402510086227355,-0.3477777777777778,-0.16333333333333333,-0.35333333333333333,-0.08610357709818002,0.0004611502018559498,-0.030312686808972793
1592170795.6841288,-0.15425987337955985,8.031368706662647,5.603973470003015,-0.3477777777777778,-0.16333333333333333,-0.35333333333333333,-0.07310013229594806,0.04252793064867627,-0.008517162024683663
1592170795.6941288,-0.4,8.01,5.62,-0.3477777777777778,-0.16333333333333333,-0.35333333333333333,-0.0643590161672909,0.05126904677733343,-0.0032724923474893677
1592170795.7041287,-0.5254050246027789,7.846370710771032,5.687336396939284,-0.3477777777777778,-0.16333333333333333,-0.35333333333333333,0.027889308188542898,0.038785651468042324,0.009606797002755893
1592170795.7141287,-0.49574501867995013,7.953336550435866,5.551836861768368,-0.3486462570914626,-0.16333333333333333,-0.3559387712743877,0.13095083932791965,0.02367214869673045,0.030957315736183356
1592170795.7241287,-0.38,8.13,5.43,-0.35,-0.16333333333333333,-0.36,0.1854412330243975,0.016362461737446838,0.04690572364734761
1592170795.7341287,-0.22495441785857506,8.14809651116161,5.222386044646438,-0.35,-0.16333333333333333,-0.36,0.22104326096416896,0.016777738581257813,0.07139180534024901
1592170795.7441287,-0.18,8.12,5.11,-0.35,-0.16333333333333333,-0.36,0.234528618236738,0.022907446432425576,0.0818123086872342
1592170795.7541287,-0.17150291839588094,8.234828336181451,5.055763332519586,-0.35,-0.16333333333333333,-0.36,0.27968255852777,0.05711821801993832,0.11228843919697379
1592170795.7641287,-0.3164291762049609,8.4630364702562,4.99339270594876,-0.34596220919090875,-0.15929554252424208,-0.3530256340570242,0.24716985865417243,0.07596863832330199,0.11352411995148479
1592170795.7741287,-0.37,8.53,4.98,-0.3377777777777778,-0.1511111111111111,-0.3388888888888889,0.18435040224190105,0.0818123086872342,0.09599310885968812
1592170795.7841287,-0.4717217981340119,8.402383375742154,5.01676844783715,-0.3377777777777778,-0.1511111111111111,-0.3388888888888889,-0.03717799264890169,0.07556061776498775,0.06505107844490528
1592170795.7941287,-0.42687604963612613,7.898132347452883,5.2506169527896995,-0.3377777777777778,-0.1511111111111111,-0.3388888888888889,-0.10956211051177614,0.0655868877828375,0.05672381134336068
1592170795.8041286,-0.4314280562567616,7.808570741675682,5.38,-0.3377777777777778,-0.1511111111111111,-0.3388888888888889,-0.0035860127707312284,0.048697943281337454,0.039114262522700484
1592170795.8141286,-0.4666742035637149,7.9764028752699785,5.340090442764579,-0.344059837712983,-0.15517597342212622,-0.340736553575714,0.18278825981968058,0.030923315129342363,0.02073565064259833
1592170795.8241286,-0.46,8.21,5.26,-0.3566666666666667,-0.16333333333333333,-0.34444444444444444,0.2781618495365963,0.016362461737446838,0.011999138607461015
1592170795.8341286,-0.4965257588853094,8.428309106623713,5.009154553311856,-0.3566666666666667,-0.16333333333333333,-0.34444444444444444,0.19511460303805778,-0.014032379075178604,-0.0017003715159649843
1592170795.8441286,-0.49,8.305565229769163,5.002316196531518,-0.3566666666666667,-0.16333333333333333,-0.34444444444444444,0.10433775343095891,-0.024879564763666647,-0.013971256938702088
1592170795.8541286,-0.5073017179302541,8.267682748688406,5.060381030758152,-0.3566666666666667,-0.16333333333333333,-0.34444444444444444,0.07812078740156993,-0.027312333570418464,-0.015271630954950384
1592170795.8641286,-0.5314902114111766,8.331346384785098,5.060143826626079,-0.353199715760109,-0.16333333333333333,-0.34034713882760353,0.0625809135537804,-0.032546677575812866,-0.01681875417915466
1592170795.8741286,-0.51,8.30267821803949,5.0207478341175955,-0.34444444444444444,-0.16333333333333333,-0.33,0.016865182225822388,-0.042705552612496596,-0.01838097120730494
1592170795.8841286,-0.5069194736206688,8.178436315344682,5.021516841724013,-0.34444444444444444,-0.16333333333333333,-0.33,0.00614154982607862,-0.048249856847694325,-0.01552493337280064
1592170795.8941286,-0.4968380218001809,8.196401542196202,4.98316197819982,-0.34444444444444444,-0.16333333333333333,-0.33,0.05916301879013025,-0.05230380172351706,-0.014405103517705232
1592170795.9041286,-0.4822623533316413,8.34257921555612,5.000316862224478,-0.34444444444444444,-0.16333333333333333,-0.33,0.11027760195262339,-0.054260190352491904,-0.002640666189173348
1592170795.9141285,-0.45627062393324486,8.341298122510905,5.038701877489095,-0.3426488189308216,-0.16291895821480498,-0.33179562551362285,0.11795732696804911,-0.05317950046145153,0.0051829460316074735
1592170795.9241285,-0.4169160080867488,8.286541995956625,5.096729002021687,-0.33,-0.16,-0.34444444444444444,0.10327211380874059,-0.05162585730575616,0.0022020607622211816
1592170795.9341285,-0.3596053232121838,8.33647361214538,5.0444079848182755,-0.33,-0.16,-0.34444444444444444,0.09491234026990537,-0.05202832306918808,-0.0016577724532090199
1592170795.9441285,-0.2744161619075089,8.398182626670513,4.958700605710989,-0.33,-0.16,-0.34444444444444444,0.06146961507456203,-0.05126904677733343,-0.007494073548569897
1592170795.9541285,-0.25569473932531256,8.331689470787135,5.0209263191004165,-0.33,-0.16,-0.34444444444444444,0.016763771151295206,-0.04870100106043714,-0.011713800194472539
1592170795.9641285,-0.2956309420916162,8.262523768366464,5.0901944684528955,-0.332103620474407,-0.16064726783827907,-0.34234082397003746,-0.007275662185414996,-0.04065725259203623,-0.00884308325360891
1592170795.9741285,-0.27,8.16,5.15,-0.34444444444444444,-0.16444444444444445,-0.33,0.007635815477475192,-0.03599741582238304,0.0032724923474893677
1592170795.9841285,-0.16538352793339964,8.2246164720666,5.044502853552542,-0.34444444444444444,-0.16444444444444445,-0.33,0.06778800238063923,-0.03085470754877993,0.026096265964775024
1592170795.9941285,-0.09331648992954239,8.310586435129173,4.9072194149882575,-0.34444444444444444,-0.16444444444444445,-0.33,0.10387378095149638,-0.01690512113319449,0.03999896602187043
1592170796.0041285,-0.043326311720939224,8.396673688279062,4.895550874480627,-0.34444444444444444,-0.16444444444444445,-0.33,0.10386469303890146,-0.008118841967364867,0.044724062082354694
1592170796.0141284,-0.021159666146434147,8.420579833073218,4.878260500780349,-0.34444444444444444,-0.16444444444444445,-0.3296778705148794,0.07947205955682779,-0.0019286616590030302,0.04415481229387746
1592170796.0241284,-0.05968938780233769,8.413592176831385,4.8762525170697835,-0.34444444444444444,-0.16444444444444445,-0.3244444444444444,0.028922858724606877,0.002539624736714582,0.03025306380750488
1592170796.0341284,-0.11794345782490913,8.368037694783395,4.8971036606543334,-0.34444444444444444,-0.16444444444444445,-0.3244444444444444,-0.0022732692254646687,0.002620049809494775,0.018768457253448886
1592170796.0441284,-0.16,8.342698702680202,4.825397405360405,-0.34444444444444444,-0.16444444444444445,-0.3244444444444444,-0.016154779341861582,-0.0027361455607854005,0.012120120602994465
1592170796.0541284,-0.1661387584356131,8.354092505623742,4.848185011247484,-0.34444444444444444,-0.16444444444444445,-0.3244444444444444,-0.017874488635652094,-0.016661354279491628,0.00721461936176639
1592170796.0641284,-0.18522116134060795,8.370530982073266,4.8847788386593916,-0.34473943448514766,-0.16444444444444445,-0.32397246037931926,-0.015792921386375277,-0.031122473500372873,0.009991240519609736
1592170796.0741284,-0.07689085692338975,8.368445428461696,4.9671113571154235,-0.35,-0.16444444444444445,-0.31555555555555553,-0.028870332691180684,-0.04491769237081401,0.01308996938995747
1592170796.0841284,-0.015001910219675263,8.337500955109837,4.957500955109838,-0.35,-0.16444444444444445,-0.31555555555555553,-0.03954209493389075,-0.053178104833023376,0.012544762371351553
1592170796.0941284,-0.007414440636589831,8.33,4.97224332190977,-0.35,-0.16444444444444445,-0.31555555555555553,-0.0449812146467557,-0.05101189421293242,0.009021131139308105
1592170796.1041284,-0.035850391211570375,8.320249347980717,5.047800521615427,-0.35,-0.16444444444444445,-0.31555555555555553,-0.04972556389466329,-0.04648027119246576,0.003059766120048444
1592170796.1141284,-0.06110315054652338,8.28,5.081838584244205,-0.35,-0.16452615929974249,-0.31608670211499273,-0.05191864901607554,-0.044724062082354694,0.001981103136013664
1592170796.1241283,-0.09961831360675291,8.284809156803377,5.13,-0.35,-0.16666666666666666,-0.33,-0.03616395792918864,-0.04446176326840593,-0.0030101935335406027
1592170796.1341283,-0.12782966695342263,8.297829666953422,5.099615337347917,-0.35,-0.16666666666666666,-0.33,-0.021250220165592446,-0.04434347112850101,-0.0019449149554453217
1592170796.1441283,-0.09360606997597697,8.294798896368004,4.9971983445520065,-0.35,-0.16666666666666666,-0.33,-0.015795109342973325,-0.04795268042339349,-0.0005673523944735153
1592170796.1541283,-0.01,8.31,5.029734892787524,-0.35,-0.16666666666666666,-0.33,-0.01766567493428198,-0.04978236987696263,0.0008784483681577698
1592170796.1641283,-0.009601062148321427,8.309601062148323,5.071595751406715,-0.3498891839300893,-0.1664228713128631,-0.32968971500425004,-0.018652916724668248,-0.04339388577095554,-8.703473778279873e-05
