time,acc_x,acc_y,acc_z,mag_x,mag_y,mag_z,gyr_x,gyr_y,gyr_z
1592296223.4866757,-0.39022414716913734,9.760224147169136,0.2684309698160386,-0.3055555555555556,-0.56,0.17888888888888888,-0.036422526157694216,0.030411559532874947,0.03944661535324878
1592296223.4966757,-0.4,9.75,0.33,-0.3,-0.5544444444444444,0.17222222222222222,-0.030543261909900768,-0.02945243112740431,0.09599310885968812
1592296223.5066757,-0.4041392309625534,9.72704923068331,0.313565384937589,-0.3,-0.5544444444444444,0.17222222222222222,-0.006956144224233355,0.02562546130836199,-0.0601027626583845
1592296223.5166757,-0.34469518388171105,9.748243852894632,0.21057325743439545,-0.3,-0.5544444444444444,0.17222222222222222,0.029683675813445026,-0.03421475762318695,0.03212340387151691
1592296223.5266757,-0.42557520848718455,9.733021488139196,0.2708512401159963,-0.3,-0.5544444444444444,0.17222222222222222,-0.07308061292148792,-0.003625525498300735,-0.06437235707943476
1592296223.5366757,-0.5842241394837803,9.778349754138222,0.3086247951151858,-0.3,-0.5544444444444444,0.17222222222222222,0.014273046980282256,-0.0580155401541199,0.06088949485517907
1592296223.5466757,-0.5231450214908219,9.806854978509179,0.27,-0.3,-0.56,0.18666666666666668,0.05318130984459503,-0.04298841045331733,-0.112320626503535
1592296223.5566757,-0.5628948451722088,9.829904404702008,0.1982294287151809,-0.3,-0.56,0.18666666666666668,-0.1123451427677638,-0.190618824935902,-0.10166125779692121
1592296223.5666757,-0.6652673736966931,9.912633686848347,0.03,-0.3,-0.56,0.18666666666666668,-0.0979414428576549,-0.2557633549614088,-0.06888859739210748
1592296223.5766757,-0.7433104677750649,9.946689532224934,0.04324187110025966,-0.3,-0.56,0.18666666666666668,-0.046447332058206454,-0.3068087661994155,0.042143870819784206
1592296223.5866756,-0.7595655543929001,9.9304344456071,0.1082622175716002,-0.3,-0.56,0.18666666666666668,-0.11382721770675339,-0.23322283845166034,0.06696803921661729
1592296223.5966756,-0.85,9.96,0.18,-0.3055555555555556,-0.5811111111111111,0.16666666666666666,-0.1112647398146385,-0.2498002491916884,0.11562806294462433
1592296223.6066756,-0.8661732038834952,9.9212755987055,0.2812755987055016,-0.3055555555555556,-0.5811111111111111,0.16666666666666666,-0.11196558270650729,-0.36930206758695683,0.2759029472676518
1592296223.6166756,-0.84,9.919233762502937,0.3158389699929487,-0.3055555555555556,-0.5811111111111111,0.16666666666666666,-0.07481342603039716,-0.38645669564498425,0.33265578535417845
1592296223.6266756,-0.8441532553674288,9.88415325536743,0.42661302146971547,-0.3055555555555556,-0.5811111111111111,0.16666666666666666,-0.09233359911849964,-0.37960911230876665,0.27020255484522976
1592296223.6366756,-0.8587956013265841,9.898795601326585,0.48518240530633616,-0.3055555555555556,-0.5811111111111111,0.16666666666666666,-0.11788931383883414,-0.37960911230876665,0.17676447289900676
1592296223.6466756,-0.86,9.9,0.47,-0.32,-0.5866666666666667,0.16666666666666666,-0.061086523819801536,-0.3239767424014474,0.35997415822383044
1592296223.6566756,-0.85,9.934214658333763,0.39524869583182687,-0.32,-0.5866666666666667,0.16666666666666666,-0.13771382268049867,-0.32351699449662996,0.518999155567234
1592296223.6666756,-0.8208426517571885,9.966569723736141,0.2631394474722797,-0.32,-0.5866666666666667,0.16666666666666666,-0.01753301377920721,-0.3407548770885953,0.4909820434305772
1592296223.6766756,-0.6697452045851655,9.948718150573145,0.23128184942685434,-0.32,-0.5866666666666667,0.16666666666666666,-0.18821000078289973,-0.4530847476309295,0.6190907360903904
1592296223.6866755,-0.6053178702405868,9.940664733780073,0.23933526621992665,-0.32,-0.5866666666666667,0.16666666666666666,-0.19875189871348833,-0.5172146267086769,0.5268491291977401
1592296223.6966755,-0.47,9.9,0.34,-0.32,-0.5666666666666667,0.17888888888888888,-0.12326387842209952,-0.4232423436086249,0.8530296719122284
1592296223.7066755,-0.3492260365339068,9.825755315383986,0.43530585577001607,-0.32,-0.5666666666666667,0.17888888888888888,-0.014184868552853079,-0.33698635385446984,0.6126178489600379
1592296223.7166755,-0.08350372078647678,9.772676588763938,0.5038196904495851,-0.32,-0.5666666666666667,0.17888888888888888,-0.05255656476780053,-0.32534942927258115,0.8893879921631611
1592296223.7266755,-0.06326096813392096,9.713260968133921,0.6128267769374467,-0.32,-0.5666666666666667,0.17888888888888888,0.06083811583051983,-0.15662919041284692,0.9233769112553546
1592296223.7366755,-0.07847507118631772,9.728475071186319,0.719325498304224,-0.32,-0.5666666666666667,0.17888888888888888,0.15128638089059065,-0.17488480354423738,1.002207967959086
1592296223.7466755,-0.34178680697200076,9.798094752456889,0.7616683664008901,-0.32,-0.5666666666666667,0.17888888888888888,0.01667365090096822,-0.231671786422909,1.148799852313805
1592296223.7566755,-0.22586597636026182,9.818966494090066,0.6132216469668849,-0.32,-0.5666666666666667,0.17888888888888888,0.033152539371167807,-0.23935456145485595,1.2116362158273797
1592296223.7666755,-0.009852527591993003,9.7720147472408,0.4520147472408007,-0.32,-0.5666666666666667,0.17888888888888888,-0.006791493426154288,-0.3195062516500961,1.2366214650778367
1592296223.7766755,0.1068304579532111,9.768214253454971,0.46441965495438536,-0.32,-0.5666666666666667,0.17888888888888888,0.09406467059078552,-0.37302028155668276,1.191713268640926
1592296223.7866755,0.2962577906241532,9.707597507000271,0.48715093487489836,-0.32,-0.5666666666666667,0.17888888888888888,0.08414627864564984,-0.33913244241080254,1.4132240220822898
1592296223.7966754,0.5,9.68,0.56,-0.3511111111111111,-0.5333333333333333,0.16666666666666666,0.1090830782496456,-0.358883327441334,1.4104442017679175
1592296223.8066754,0.7214593461860854,9.576303436714166,0.5448248113998324,-0.3511111111111111,-0.5333333333333333,0.16666666666666666,0.09445661929815666,-0.2690319707744612,1.342358622367481
1592296223.8166754,1.0428376727136008,9.481756744054893,0.40648651189021523,-0.3511111111111111,-0.5333333333333333,0.16666666666666666,0.13924287299848453,-0.23878889738360431,1.459782276073519
1592296223.8266754,1.1524416536217446,9.49976661448698,0.3729084246477871,-0.3511111111111111,-0.5333333333333333,0.16666666666666666,0.2557439923932195,-0.14697035413376303,1.4097901030265063
1592296223.8366754,1.1673637398605379,9.559454959442151,0.26845382097623455,-0.3511111111111111,-0.5333333333333333,0.16666666666666666,0.1654040282969191,-0.15185359543626573,1.4724583664086246
1592296223.8466754,1.08,9.62,0.33,-0.38555555555555554,-0.5133333333333333,0.15777777777777777,0.13635384781205698,-0.22907446432425577,1.7627825445142729
1592296223.8566754,1.08,9.600187517604924,0.26065631161723873,-0.38555555555555554,-0.5133333333333333,0.15777777777777777,0.10933876571928633,-0.20530119208261757,1.688220917938226
1592296223.8666754,1.2456666050295857,9.517921597633135,0.17905880177514794,-0.38555555555555554,-0.5133333333333333,0.15777777777777777,0.2517530743064701,-0.2593076019131343,1.6134242510274541
1592296223.8766754,1.4317592691526873,9.437936211133668,0.23371193503579443,-0.38555555555555554,-0.5133333333333333,0.15777777777777777,0.2000163943414798,-0.22588052950934492,1.6914630861966973
1592296223.8866754,1.7678769099262743,9.340835559354632,0.2635890586601133,-0.38555555555555554,-0.5133333333333333,0.15777777777777777,0.23831068555816418,-0.21773280797388017,1.7232392001850099
1592296223.8966753,2.1,9.28,0.24,-0.42444444444444446,-0.52,0.17222222222222222,0.22143864884678055,-0.16144295580947549,1.7169676516494214
1592296223.9066753,2.2446207941565,9.2317930686145,0.19179306861449996,-0.42444444444444446,-0.52,0.17222222222222222,0.30242048006167743,-0.057323458533179494,1.786380649833619
1592296223.9166753,2.437549542682927,9.17532012195122,0.024150152439024387,-0.42444444444444446,-0.52,0.17222222222222222,0.39742365938282176,-0.18385445669177977,1.8840717864208014
1592296223.9266753,2.57,9.14,-0.02,-0.42444444444444446,-0.52,0.17222222222222222,0.3425208657038872,-0.07308566242726255,1.9514962698861595
1592296223.9366753,2.641240334771654,9.125751933045668,-0.06986823434015811,-0.42444444444444446,-0.52,0.17222222222222222,0.2850146146119249,-0.06686877041732069,2.0035627404694227
1592296223.9466753,2.92,9.04,-0.12,-0.4688888888888889,-0.4622222222222222,0.17222222222222222,0.3097959422289935,0.011999138607461015,2.03767190170338
1592296223.9566753,3.3854752880533656,8.881540327471196,-0.15961491813220136,-0.4688888888888889,-0.4622222222222222,0.17222222222222222,0.3357238455158028,0.005517162785758683,1.9577275332357176
1592296223.9666753,3.6849317272877866,8.768919232316538,-0.1726128215443595,-0.4688888888888889,-0.4622222222222222,0.17222222222222222,0.384930477960247,0.17997218431669787,1.8550727350031537
1592296223.9766753,3.941981861642295,8.654324381327335,-0.10063062429696289,-0.4688888888888889,-0.4622222222222222,0.17222222222222222,0.4248638654073527,0.2339881109704954,2.025908583164548
1592296223.9866753,4.082047419853769,8.587977537964004,-0.10800249578177729,-0.4688888888888889,-0.4622222222222222,0.17222222222222222,0.4055643509907686,0.24042128244269012,2.066920051299789
1592296223.9966753,4.28,8.52,-0.12,-0.4955555555555556,-0.4222222222222222,0.17888888888888888,0.4483314516060434,0.4516039439535327,1.8838647613713795
1592296224.0066752,4.224114509246088,8.527983641536272,-0.13596728307254624,-0.4955555555555556,-0.4222222222222222,0.17888888888888888,0.45007321199488015,0.3375186384847222,1.8080981844569786
1592296224.0166752,4.149391775250077,8.59635065150046,-0.3475671010003074,-0.4955555555555556,-0.4222222222222222,0.17888888888888888,0.39939824842569804,0.26036124115940296,1.7966275771063314
1592296224.0266752,4.174865725335012,8.537595467218274,-0.3059924453637917,-0.4955555555555556,-0.4222222222222222,0.17888888888888888,0.3534770095833122,0.19457368128533314,1.7777003299375829
1592296224.0366752,4.831227088766975,8.492329166291933,-0.23054861048655453,-0.4955555555555556,-0.4222222222222222,0.17888888888888888,0.3954482028744839,0.3254250486048684,1.729968384626054
1592296224.0466752,4.58,8.45,-0.35,-0.5333333333333333,-0.38222222222222224,0.16666666666666666,0.4134248665661568,0.26070855701665296,1.738784267299351
1592296224.0566752,4.693401975365138,8.360898447927392,-0.17989703695229378,-0.5333333333333333,-0.38222222222222224,0.16666666666666666,0.37984851020958915,0.14849283971970306,1.6080131951737715
1592296224.0666752,5.21559961959106,8.281217308606752,-0.49365192582025674,-0.5333333333333333,-0.38222222222222224,0.16666666666666666,0.37638973506927903,0.07814342409819286,1.4161393447348687
1592296224.0766752,5.443452544953597,8.327533896461716,-0.6411508483178654,-0.5333333333333333,-0.38222222222222224,0.16666666666666666,0.37887696174658786,0.020893478745520548,1.380952758729009
1592296224.0866752,5.60311086136891,8.21349224187935,-0.6943702871229698,-0.5333333333333333,-0.38222222222222224,0.16666666666666666,0.3954636480539577,0.1295362740587927,1.328704696860794
1592296224.0966752,5.67,8.33,-0.81,-0.5788888888888889,-0.31555555555555553,0.15777777777777777,0.29888763440402893,0.26070855701665296,1.2828170002158321
1592296224.1066751,5.471373989107113,8.26888430434065,-0.9093130054464433,-0.5788888888888889,-0.31555555555555553,0.15777777777777777,0.31055433877483707,0.13237480893776332,1.178649996905045
1592296224.1166751,5.578939977778303,8.628549443275574,-1.1599442093567527,-0.5788888888888889,-0.31555555555555553,0.15777777777777777,0.13843205052030005,0.19788002019834117,1.108352488861603
1592296224.1266751,5.390547977589182,8.370749864069406,-1.1500288409257464,-0.5788888888888889,-0.31555555555555553,0.15777777777777777,0.12004486904292999,0.0821489367819532,0.9266438719087695
1592296224.1366751,5.751187520241822,8.347425779984885,-1.0371288999244306,-0.5788888888888889,-0.31555555555555553,0.15777777777777777,-0.001490240736503487,0.09987038834834568,0.9573065628450473
1592296224.146675,5.76,8.24,-0.47,-0.5966666666666667,-0.27666666666666667,0.16666666666666666,-0.06326818538479445,-0.04036073895236887,0.8377580409572781
1592296224.156675,5.853206636724694,8.19698155228091,-0.6062250844437846,-0.5966666666666667,-0.27666666666666667,0.16666666666666666,-0.008521363899730489,0.022207057030561375,0.7626766857777619
1592296224.166675,6.155520245293292,7.993152419978795,-0.49282058629681635,-0.5966666666666667,-0.27666666666666667,0.16666666666666666,-0.014801064241487858,-0.1536951720865092,0.6354196681275597
1592296224.176675,6.179611227005499,7.833110183956002,-0.36252702446425183,-0.5966666666666667,-0.27666666666666667,0.16666666666666666,-0.036664161055075264,-0.08541465684407129,0.6444689496805033
1592296224.186675,6.282439814238181,7.917805555061298,-0.34536574082311705,-0.5966666666666667,-0.27666666666666667,0.16666666666666666,-0.04347364676054958,-0.10474652075815485,0.543312764984143
1592296224.196675,6.42,7.97,-0.12,-0.6288888888888889,-0.25,0.16666666666666666,-0.05890486225480862,-0.07090400086226964,0.40469822030618513
1592296224.206675,6.495423963509,8.107134479107273,-0.12,-0.6288888888888889,-0.25,0.16666666666666666,-0.07087210314695512,-0.042481803743421684,0.3381304428436202
1592296224.216675,6.54905676661377,8.17,-0.424908265820318,-0.6288888888888889,-0.25,0.16666666666666666,-0.10961848699419338,-0.16769068691445796,0.2889053437905647
1592296224.226675,6.521443133174088,8.084329399522266,-0.16395028734952577,-0.6288888888888889,-0.25,0.16666666666666666,-0.2161387947453361,-0.04473830276045079,0.14780113434496364
1592296224.236675,6.47033899811569,8.207699719131083,-0.2847941479716998,-0.6288888888888889,-0.25,0.16666666666666666,-0.3468075549366848,-0.028892491751086755,0.006835561352206837
1592296224.246675,6.376329623944743,8.145401637247376,-0.4136703760552571,-0.6288888888888889,-0.23453831613655096,0.13756232057076262,-0.25707343110511804,0.046343704410727535,-0.20604165188286716
1592296224.256675,6.142646823811426,8.165281911705952,-0.3756617059528566,-0.6288888888888889,-0.2311111111111111,0.13111111111111112,-0.27420897709232356,-0.03661245175598198,-0.2134124571513984
1592296224.266675,6.129160385963228,8.151679228073544,-0.6356511929336086,-0.6288888888888889,-0.2311111111111111,0.13111111111111112,-0.31122845948145245,-0.014929944484987856,-0.462339601925399
1592296224.276675,6.039509238554785,8.14095092385548,-0.8862269036130399,-0.6288888888888889,-0.2311111111111111,0.13111111111111112,-0.3516691064430536,-0.16697400834955756,-0.43211623982829095
1592296224.286675,6.172922322775264,8.031106801695037,-0.5084563312504489,-0.6288888888888889,-0.2311111111111111,0.13111111111111112,-0.31403641664340404,-0.05333951380177773,-0.5059516712096347
1592296224.296675,5.965805985552116,7.963382180942553,-0.08735053319573444,-0.6122710698314414,-0.24403608148912587,0.13111111111111112,-0.2818352512779691,0.16806178828498233,-0.5885518010977852
1592296224.306675,6.2642337427278605,8.046164964447318,-0.36551208791208795,-0.6088888888888889,-0.24666666666666667,0.13111111111111112,-0.3565344944723887,0.28948251537164743,-0.54138043145295
1592296224.316675,6.07056543913899,8.083779767880808,-0.2854166499337376,-0.6088888888888889,-0.24666666666666667,0.13111111111111112,-0.3481827948222399,0.2293179419953981,-0.592668502073006
1592296224.326675,6.084736773520979,8.17943315089914,-0.5136030753192599,-0.6088888888888889,-0.24666666666666667,0.13111111111111112,-0.2866809621840523,0.2534083489769513,-0.633905164991307
1592296224.336675,5.70727003074697,8.05457587267137,-0.33332139627419066,-0.6088888888888889,-0.24666666666666667,0.13111111111111112,-0.24010560652165336,0.1513921999973883,-0.7740770405373425
1592296224.346675,5.583330704521556,8.216181087576986,-0.3023779480246357,-0.6460831121793267,-0.257724408725986,0.13111111111111112,-0.17604119498123988,0.3568468068355714,-0.8498087142321712
1592296224.356675,5.3218702770780855,8.087534079122833,-0.2626829900726034,-0.65,-0.2588888888888889,0.13111111111111112,-0.15290848584234548,0.22511339413691894,-0.8026741494470405
1592296224.366675,5.4328991286368336,8.25125535371437,-0.3232875498449269,-0.65,-0.2588888888888889,0.13111111111111112,-0.240572893720079,0.32874572376660177,-0.7779964310874472
1592296224.376675,5.445633416756048,8.388733166487905,-0.3843665832439519,-0.65,-0.2588888888888889,0.13111111111111112,0.013583969744323632,0.17317920822835772,-0.9959150104095846
1592296224.386675,5.233014460511679,8.33990742401952,-0.28984570669919985,-0.65,-0.2588888888888889,0.13111111111111112,-0.049601350514466944,0.18040005968481415,-0.8615072225067725
1592296224.3966749,5.36640284013783,8.399670042810902,-0.21554453377884514,-0.6490942419918091,-0.26885222697898903,0.11480746696367454,-0.05193502647716185,0.1376606350698185,-0.9873352363410096
1592296224.4066749,5.119524265208476,8.453386192754614,-0.29346548188653454,-0.6488888888888888,-0.27111111111111114,0.1111111111111111,-0.025063160689673528,0.40477859731121124,-0.8702234913547222
1592296224.4166749,5.025660825660825,8.331228096228097,-0.3014152064152064,-0.6488888888888888,-0.27111111111111114,0.1111111111111111,-0.034926995595068434,0.18688552278631293,-1.112139564094837
1592296224.4266748,5.1146541403392085,8.662801795809777,-0.2741852344529431,-0.6488888888888888,-0.27111111111111114,0.1111111111111111,-0.21918661110227175,0.21314550534207435,-1.144230341141299
1592296224.4366748,5.114931610463284,8.663493539237315,-0.3076709738417901,-0.6488888888888888,-0.27111111111111114,0.1111111111111111,-0.2228210439490486,0.1667704935929967,-1.2781165268342252
1592296224.4466748,4.866613047017326,8.64732625295554,-0.32704097058025505,-0.6192948908441757,-0.3140701405308561,0.08533569345926413,-0.25215306789484737,-0.08280018303904038,-1.332590662975004
1592296224.4566748,4.732075871819038,8.604043355325164,-0.380619698397738,-0.6144444444444445,-0.3211111111111111,0.0811111111111111,-0.3087431517282617,-0.019485363247185764,-1.3992444231353776
1592296224.4666748,4.920752009825815,8.737863164359087,-0.7824101161232693,-0.6144444444444445,-0.3211111111111111,0.0811111111111111,-0.3375272942617053,-0.18927674070150835,-1.45486434519127
1592296224.4766748,4.794162606286424,8.79,-0.672396102034967,-0.6144444444444445,-0.3211111111111111,0.0811111111111111,-0.415139118552522,0.06711074025069935,-1.6601324185633908
1592296224.4866748,4.491088450372984,8.571543380002204,-0.5774085914820123,-0.6144444444444445,-0.3211111111111111,0.0811111111111111,-0.41540802763378004,0.07257433925592809,-1.711121828035849
1592296224.4966748,4.523549555793586,8.574352592779283,-0.21619148131812743,-0.6207513004151527,-0.34183363787200977,0.0811111111111111,-0.4442677272020926,-0.02113837746949468,-1.8629158410912208
1592296224.5066748,4.308372826558372,8.39550447502267,-0.004573985727240465,-0.6222222222222222,-0.3466666666666667,0.0811111111111111,-0.4009692331463543,-0.07058255350713111,-1.8731594548196626
1592296224.5166748,4.435840563276285,8.316920967274068,-0.2544563698214709,-0.6222222222222222,-0.3466666666666667,0.0811111111111111,-0.3439306237532157,0.11008694978909765,-1.9957820550823004
1592296224.5266747,4.103530655899248,8.424940995505564,-0.25447088230345855,-0.6222222222222222,-0.3466666666666667,0.0811111111111111,-0.45497878935158736,-0.09861034767419186,-2.0213223127497004
1592296224.5366747,4.015743907365019,8.274688972667295,0.03371044836407702,-0.6222222222222222,-0.3466666666666667,0.0811111111111111,-0.4084964836909227,-0.08974176135898784,-2.0828685665527167
1592296224.5466747,3.8202289105553198,8.442636710470538,0.11034336583298004,-0.6156478733926806,-0.40771419151241106,0.051056945033206166,-0.1869819910435913,0.03547858914245044,-1.8462040482515654
1592296224.5566747,3.931716467593499,8.633787350695124,0.4130358331701586,-0.6144444444444445,-0.41888888888888887,0.04555555555555556,-0.2715148517651107,0.001533314637796955,-1.8123790125711408
1592296224.5666747,3.729934265627776,8.937250577396513,0.696972158067054,-0.6144444444444445,-0.41888888888888887,0.04555555555555556,-0.31140983247631837,0.2619335233576681,-1.9288102786307395
1592296224.5766747,3.293917707638028,8.554495565938781,0.36173357490225994,-0.6144444444444445,-0.41888888888888887,0.04555555555555556,-0.1679665649227051,0.4123949379885952,-1.846115171950145
1592296224.5866747,3.322353733946409,8.484737196765499,0.4438710956080546,-0.6144444444444445,-0.41888888888888887,0.04555555555555556,-0.1688696247634476,0.42978732830360367,-1.823923160188716
1592296224.5966747,2.944038347028701,8.87361140883649,0.40328033821602954,-0.5906164238550805,-0.4607933388908737,0.0365173408492451,-0.05292965055161619,0.17730313134702685,-1.7448074797140034
1592296224.6066747,2.5660104158123516,9.187838923972771,0.32384933978512265,-0.5822222222222222,-0.47555555555555556,0.03333333333333333,-0.01176850121245766,0.22560644908042043,-1.7616350384836246
1592296224.6166747,1.8279435527307981,9.161476893245718,0.4947538511257137,-0.5822222222222222,-0.47555555555555556,0.03333333333333333,0.015481971049819354,0.37608656201609225,-1.6544910030685587
1592296224.6266747,2.3266326017758416,9.326907354665773,0.3615463226671134,-0.5822222222222222,-0.47555555555555556,0.03333333333333333,-0.13332830203067428,0.25113951464202194,-1.606684510728857
1592296224.6366746,2.368493080844865,9.444637654770576,0.4183186453022578,-0.5822222222222222,-0.47555555555555556,0.03333333333333333,-0.1560868813289664,0.16254653810985908,-1.6056207221447254
1592296224.6466746,1.8483447593935398,9.29441990771259,0.49441990771259064,-0.5335589980224127,-0.5151459752435362,0.022610928001171905,-0.08171178255447678,-0.1268955467589475,-1.6230016759861314
1592296224.6566746,1.7288560446962793,9.14862146847882,0.6741355945635377,-0.5166666666666667,-0.5288888888888889,0.01888888888888889,-0.12804958132807123,-0.10965548669964363,-1.6224236097146134
1592296224.6666746,2.046222577325172,9.452474405503494,0.3970424137370674,-0.5166666666666667,-0.5288888888888889,0.01888888888888889,-0.27524072630497903,0.044123546766688615,-1.5834231318335947
1592296224.6766746,2.3400248221872166,9.794342450713637,0.32014893312329945,-0.5166666666666667,-0.5288888888888889,0.01888888888888889,-0.3344330237801447,0.18083161510223983,-1.6317529340171357
1592296224.6866746,2.108017238346526,9.682164643799473,0.6255257695690414,-0.5166666666666667,-0.5288888888888889,0.01888888888888889,-0.2867751338218451,0.19870139887945162,-1.6574415243273188
1592296224.6966746,1.7587307414729048,9.692826885060718,0.6536154256487495,-0.508463675951203,-0.5460405967484947,0.010685898173425239,-0.1400584760479965,0.07724340867439439,-1.6539553933963453
1592296224.7066746,1.4316710266833017,9.762832132651829,0.584753491367167,-0.5044444444444445,-0.5544444444444444,0.006666666666666667,-0.10863290805430134,0.06294467220267119,-1.6802092840037597
1592296224.7166746,0.9799786758204607,9.704834087481146,0.8565631663806106,-0.5044444444444445,-0.5544444444444444,0.006666666666666667,-0.02239706448415813,0.08634498376426074,-1.6332177524444873
1592296224.7266746,0.8079147615550448,9.542960839591576,0.697165904622018,-0.5044444444444445,-0.5544444444444444,0.006666666666666667,-0.03279278544534773,0.030397485300863725,-1.5908899823175933
1592296224.7366745,0.8063194046937607,9.705287290527604,0.8020545565797526,-0.5044444444444445,-0.5544444444444444,0.006666666666666667,-0.17282925434504584,-0.05896753932501463,-1.5377038887506636
1592296224.7466745,0.9099862218285603,9.696519699504641,1.0834389659810386,-0.47331190062220474,-0.5840944861799109,-0.01631211567831979,-0.19993704757792666,-0.14656449343397226,-1.5941360189059552
1592296224.7566745,0.7671874874189782,9.615432183260195,0.9226329562381738,-0.4577777777777778,-0.5988888888888889,-0.027777777777777776,-0.21804213757220997,-0.18278378496648753,-1.5890140660087855
1592296224.7666745,0.4938343477110347,9.711917173855518,0.7221563905795183,-0.4577777777777778,-0.5988888888888889,-0.027777777777777776,-0.45509258186596874,-0.12355868272963158,-1.4302170179279319
1592296224.7766745,0.24043177975183977,9.548178094262784,0.48534401867155685,-0.4577777777777778,-0.5988888888888889,-0.027777777777777776,-0.6654833633131403,0.06864435044283737,-1.3655464183432457
1592296224.7866745,0.09330478386589071,9.500171296804657,0.46587789612386077,-0.4577777777777778,-0.5988888888888889,-0.027777777777777776,-0.7034316986525581,0.12814225287137104,-1.3245683378038136
1592296224.7966745,-0.18965626161278334,9.84266072092159,0.9134129196085718,-0.4465498506682082,-0.6418191984254786,-0.01919171587045983,-0.6253993456649735,0.036957246921536215,-1.2695444149702393
1592296224.8066745,-0.28907669486429055,9.889340496331636,0.8695505753117108,-0.4388888888888889,-0.6711111111111111,-0.013333333333333334,-0.6976222557516146,-0.012143019987985145,-1.3250916239268264
1592296224.8166745,0.8828030539108758,14.015087773969046,1.972664381427236,-0.4388888888888889,-0.6711111111111111,-0.013333333333333334,-0.7645553864470274,0.4559636411787674,-0.9153389754546135
1592296224.8266745,-1.7654084628051836,11.78153791078972,1.2027440872532875,-0.4388888888888889,-0.6711111111111111,-0.013333333333333334,-0.4657575911581304,0.3997609360234417,-0.4265440716060688
1592296224.8366745,-3.323252674660731,8.778908594815825,1.1201191929345875,-0.4388888888888889,-0.6711111111111111,-0.013333333333333334,-0.31065062345959604,0.19512861241986867,-0.3310074197568886
1592296224.8466744,-0.14196006063402078,9.047363738219206,2.0994786792328477,-0.40061000168427835,-0.6757309768082193,-0.02191308391367707,-0.17937325763818202,0.11822857247236845,-0.32264773048256323
1592296224.8566744,0.7401972363292784,9.970012991614503,1.188541396008031,-0.37444444444444447,-0.6788888888888889,-0.027777777777777776,0.04967653947812017,0.061867639567324384,-0.3789038793214765
1592296224.8666744,-0.08806111522938798,9.774085330697636,1.6413845646981302,-0.37444444444444447,-0.6788888888888889,-0.027777777777777776,0.0896250326410075,0.1973627439408877,-0.4405035435321612
1592296224.8766744,-0.5039462006810911,9.37297960166489,1.9144477314161878,-0.37444444444444447,-0.6788888888888889,-0.027777777777777776,0.19022470105038322,0.09491496084711645,-0.5162816428574252
1592296224.8866744,-1.0131473807755875,9.827281611535605,1.3529251000023952,-0.37444444444444447,-0.6788888888888889,-0.027777777777777776,0.3291777652540043,0.1486061174794434,-0.5802317813646151
1592296224.8966744,-1.492935825857851,9.781605608180165,1.4785320870710745,-0.3820200531125191,-0.6864644975569635,-0.05050460378200169,0.2762470620730861,0.1809411198100876,-0.6769389546819612
1592296224.9066744,-1.5155954479884597,9.87043476518673,1.4035538547844206,-0.3888888888888889,-0.6933333333333334,-0.07111111111111111,0.2729901943958432,0.15407726912811456,-0.7635568077962893
1592296224.9166744,-1.3112416412978432,10.034362136705436,1.1080201909817085,-0.3888888888888889,-0.6933333333333334,-0.07111111111111111,0.18282034979158962,0.06292049779637872,-0.9306981973467338
1592296224.9266744,-1.2443061121643348,10.302153056082167,0.8298876916800653,-0.3888888888888889,-0.6933333333333334,-0.07111111111111111,0.06437791611749516,0.07701601439882906,-1.0426672697807353
1592296224.9366744,-1.2109156264530205,10.298258521406344,0.683303408562538,-0.3888888888888889,-0.6933333333333334,-0.07111111111111111,-0.0068387314298911355,0.11655635568785326,-1.0625005114951707
1592296224.9466743,-1.0881558572146808,10.324467571644043,0.7636882855706385,-0.3743261270320094,-0.7066825317021396,-0.06200938495056142,-0.23198356578361937,-0.0006729257768341608,-1.259461814089676
1592296224.9566743,-1.1550126582278482,10.179502654144548,0.7972576561861985,-0.3622222222222222,-0.7177777777777777,-0.05444444444444444,-0.28606616350149033,0.034522544900781466,-1.3714219464829238
1592296224.9666743,-1.5339208887630909,9.768976790263233,0.812803094631569,-0.3622222222222222,-0.7177777777777777,-0.05444444444444444,-0.4024340182857189,0.05602068055382922,-1.495291698993155
1592296224.9766743,-1.701232298017378,9.714002208247324,1.0178517593970524,-0.3622222222222222,-0.7177777777777777,-0.05444444444444444,-0.5087994312751634,0.036601716491098384,-1.4708228978460356
1592296224.9866743,-1.74,9.77,1.16,-0.3622222222222222,-0.7177777777777777,-0.05444444444444444,-0.56941366846315,0.04036073895236887,-1.395172570812967
1592296224.9966743,-2.040635716338325,9.271662569047542,0.9085085730706599,-0.3400950789545572,-0.7202363492519628,-0.06378701604634744,-0.4720470162994442,0.0056195252383641064,-1.462457349852357
1592296225.0066743,-2.2027061447982157,9.098153315757452,1.063437842222673,-0.31222222222222223,-0.7233333333333334,-0.07555555555555556,-0.44143933009015746,0.09538878285449165,-1.3879535761345956
1592296225.0166743,-2.345755738197855,9.078953593264508,1.4550581337075272,-0.31222222222222223,-0.7233333333333334,-0.07555555555555556,-0.3521036561396971,0.04166717746294822,-1.3909360757583242
1592296225.0266743,-2.554682917354569,8.86362289987375,1.6454474604253666,-0.31222222222222223,-0.7233333333333334,-0.07555555555555556,-0.3008664800485509,-0.01512284278033484,-1.3902728369160422
1592296225.0366743,-2.795466414124332,8.60473415409592,1.8283115741053915,-0.31222222222222223,-0.7233333333333334,-0.07555555555555556,-0.27484305425221883,-0.04776861853813524,-1.4013491981199853
1592296225.0466743,-2.723902395740905,8.812372670807454,1.9601774622892636,-0.2918231292517007,-0.7339763383614316,-0.07865976535541752,-0.11072542223521789,0.03632147096522227,-1.447532448372797
1592296225.0566742,-2.79,8.56,1.84,-0.2611111111111111,-0.75,-0.08333333333333333,-0.032724923474893676,0.11235557059713495,-1.447532448372797
1592296225.0666742,-2.9052321879459875,8.977383906027006,1.6948528927434405,-0.2611111111111111,-0.75,-0.08333333333333333,-0.04750856063923334,-0.02206061254523448,-1.1940730241465318
1592296225.0766742,-3.162323649459784,9.148599759903961,1.5517378151260504,-0.2611111111111111,-0.75,-0.08333333333333333,0.007810191260184951,-0.0810215152983579,-1.217394234155099
1592296225.0866742,-3.45,9.29,1.62,-0.2611111111111111,-0.75,-0.08333333333333333,0.10035643198967394,-0.15707963267948966,-1.2184579840485412
1592296225.0966742,-2.935200374592308,8.91188878483547,1.613156263118804,-0.2494394391161918,-0.75,-0.09862724836115865,0.0963926374783814,0.1354182209701321,-1.0850804518403683
1592296225.1066742,-3.05,8.88,1.83,-0.2288888888888889,-0.75,-0.12555555555555556,-0.039269908169872414,0.15489797111449674,-0.9501136115544131
1592296225.1166742,-3.4378395955731658,9.161350730974178,1.910811586282279,-0.2288888888888889,-0.75,-0.12555555555555556,0.18181503667185,0.21170824153284565,-1.1232622741303087
1592296225.1266742,-3.862990128971828,8.939724043518986,2.213294905973053,-0.2288888888888889,-0.75,-0.12555555555555556,0.18772263262981034,0.0016290546601919476,-1.1908071253108181
1592296225.1366742,-4.1,8.78,2.44,-0.2288888888888889,-0.75,-0.12555555555555556,0.18435040224190105,-0.053450708342326333,-1.0930124440614488
1592296225.1466742,-4.002643533877283,8.363451089392989,1.8497665799934246,-0.213767264081081,-0.7589912363722101,-0.12555555555555556,0.2874025969534819,-0.015284704362517283,-1.3086714078871298
1592296225.1566741,-3.99,8.61,1.54,-0.18777777777777777,-0.7744444444444445,-0.12555555555555556,0.2901609881440573,-0.062177354602297986,-1.349357677948116
1592296225.1666741,-3.7614396425714993,8.86812984362503,1.7717995532143744,-0.18777777777777777,-0.7744444444444445,-0.12555555555555556,0.3357603261795809,-0.04236995665389976,-0.962795576115991
1592296225.1766741,-3.6690794979079495,8.875444560669456,1.3563807531380752,-0.18777777777777777,-0.7744444444444445,-0.12555555555555556,0.2715175946762648,0.13872035727115495,-0.8835792095222378
1592296225.186674,-3.9179477400127722,8.969780387426383,1.1330405165685091,-0.18777777777777777,-0.7744444444444445,-0.12555555555555556,0.22675732936274934,0.2636576431541824,-0.7895219263719082
1592296225.196674,-4.179388434756283,8.883324250681198,1.0696276112624887,-0.18220742086318834,-0.7742523631715276,-0.12440306791805429,0.16596017756030396,0.1907444606069976,-0.7327394054688144
1592296225.206674,-4.32,8.66,1.02,-0.15555555555555556,-0.7733333333333333,-0.11888888888888889,0.3076142806640006,0.12217304763960307,-0.6686792696703274
1592296225.216674,-4.369299078239877,8.8817022385603,1.4508010534401405,-0.15555555555555556,-0.7733333333333333,-0.11888888888888889,0.243681248700288,0.17619125611797853,-0.7012180289210932
1592296225.226674,-4.51,8.54,1.29,-0.15555555555555556,-0.7733333333333333,-0.11888888888888889,0.15817046346198613,0.13526301702956053,-0.8115781021773633
1592296225.236674,-4.539195192364343,8.84600600954457,1.1805365384237712,-0.15555555555555556,-0.7733333333333333,-0.11888888888888889,-0.13144914750057768,0.058469185481430694,-0.678178124465146
1592296225.246674,-4.700892704778157,8.618726180318543,1.0650952787258248,-0.14819570850714195,-0.7741825464543042,-0.11888888888888889,-0.2437629460159667,0.050628967067965394,-0.6255602738716035
1592296225.256674,-4.57,8.61,1.1,-0.09777777777777778,-0.78,-0.11888888888888889,-0.17998707911191522,0.16580627893946132,-0.6141377305455047
1592296225.266674,-4.694435218820273,8.245564781179727,0.9898339387649197,-0.09777777777777778,-0.78,-0.11888888888888889,-0.19231963719570755,0.03546832232400559,-0.5139281012454662
1592296225.276674,-4.68,8.26,0.73,-0.09777777777777778,-0.78,-0.11888888888888889,-0.14508049407202864,-0.03381575425739013,-0.3643374813538163
1592296225.286674,-4.605669606740465,8.722609956786835,1.5627370311174256,-0.09777777777777778,-0.78,-0.11888888888888889,-0.08080040756947884,0.11598954229822732,-0.2635779850330974
1592296225.296674,-4.7180300098716685,8.517453109575518,1.3440525172754196,-0.09722013820335637,-0.7803345837446529,-0.11743902599539323,-0.3889477006389032,0.1353013953208618,-0.2635292537440987
1592296225.306674,-4.87,8.28,1.61,-0.08666666666666667,-0.7866666666666666,-0.09,-0.17344209441693648,0.053450708342326333,-0.46142142099600086
1592296225.316674,-4.732537762634867,8.167764338444066,1.3149244747302669,-0.08666666666666667,-0.7866666666666666,-0.09,-0.1139011929528903,-0.03114634700350585,-0.25706037536218795
1592296225.326674,-4.87449011235419,8.208792490637151,1.1804532334629423,-0.08666666666666667,-0.7866666666666666,-0.09,-0.1078110885275308,-0.03031690430924867,-0.20329392349955508
1592296225.336674,-5.045134600920079,8.181770190138012,1.1665423568717312,-0.08666666666666667,-0.7866666666666666,-0.09,-0.12942266753839526,0.04673970152629421,-0.16222437218960417
1592296225.346674,-4.901190414170357,8.148946154132402,1.6491162132995942,-0.08642102564738668,-0.7865532938885375,-0.0906046548166892,-0.13229857792541452,0.1918046493760537,-0.19788952292156653
1592296225.356674,-4.97,7.51,1.02,-0.07222222222222222,-0.78,-0.12555555555555556,-0.02399827721492203,-0.07090400086226964,0.028361600344907853
1592296225.366674,-5.086378730087502,8.23235247924613,1.371577294144043,-0.07222222222222222,-0.78,-0.12555555555555556,0.03635792597329561,-0.01070932971723074,0.12977521060808267
1592296225.376674,-4.749689016587392,8.589656662723037,1.9034369944708693,-0.07222222222222222,-0.78,-0.12555555555555556,0.34023214116642286,0.06470177570572702,0.08563109874075107
1592296225.386674,-4.73,8.99,1.91,-0.07222222222222222,-0.78,-0.12555555555555556,0.4025165587411922,0.04036073895236887,0.074176493209759
1592296225.396674,-4.360296075281157,8.100789534083084,1.1102960752811568,-0.0721290133374136,-0.7800328972534619,-0.125451380919593,0.441689576501878,0.0885995194051795,0.13520731130334857
1592296225.406674,-4.42,8.26,1.17,-0.05333333333333334,-0.7866666666666666,-0.10444444444444445,0.42215151282612845,0.13744467859455345,-0.09599310885968812
1592296225.416674,-4.328144522014853,8.845205128918309,1.348144522014853,-0.05333333333333334,-0.7866666666666666,-0.10444444444444445,0.1296458741324714,0.12151863412341066,-0.09500491987445991
1592296225.426674,-4.4564189476669975,9.041908476339053,1.1390563986195812,-0.05333333333333334,-0.7866666666666666,-0.10444444444444445,0.07210085670451236,0.18471452818882148,-0.13425402562927094
1592296225.4366739,-4.829445500861079,8.855742501435133,0.7617293340987371,-0.05333333333333334,-0.7866666666666666,-0.10444444444444445,-0.019257671911311572,0.16960367880901017,0.015218326149921673
1592296225.4466739,-4.7617275401836965,8.742879233639496,0.7015355912743972,-0.05333333333333334,-0.7866666666666666,-0.10444444444444445,-0.03238990942860458,0.1893020350849497,-0.020895327022634105
1592296225.4566739,-4.69,8.58,0.84,-0.07222222222222222,-0.78,-0.13333333333333333,-0.2552544031041707,0.17889624832941878,0.12544553998709243
1592296225.4666739,-4.93350900408492,8.621677118692824,1.1116771186928256,-0.07222222222222222,-0.78,-0.13333333333333333,-0.41631822602387797,0.14286142757369658,0.20993769876422932
1592296225.4766738,-4.792140855682969,8.71019943959123,1.2752259295015187,-0.07222222222222222,-0.78,-0.13333333333333333,-0.5348364722469874,0.06138532140139708,0.3456250933769991
1592296225.4866738,-4.85162987258736,8.673336156715745,1.4782937158716143,-0.07222222222222222,-0.78,-0.13333333333333333,-0.29213151736563053,0.10838209527928645,0.3443654625425977
1592296225.4966738,-4.4283373281190865,8.363425543801474,1.3649117843176126,-0.07222222222222222,-0.78,-0.13333333333333333,-0.10413715566625342,0.14878439231117013,0.3509617559355583
1592296225.5066738,-4.348320230666997,8.065914220710473,1.345328092266799,-0.06,-0.7733333333333333,-0.14,-0.253208256862888,0.17165076121407177,0.4511181774196384
1592296225.5166738,-4.549699354317998,7.892607193301049,1.3384228712671509,-0.06,-0.7733333333333333,-0.14,-0.25972417357822125,0.10283432476519803,0.42474875648781246
1592296225.5266738,-4.652578170270959,8.211123009526458,1.2637109148645203,-0.06,-0.7733333333333333,-0.14,-0.33783370416066594,-0.032197624122299665,0.30995786143561116
1592296225.5366738,-4.166996678452802,8.617969213186184,1.5671331118968534,-0.06,-0.7733333333333333,-0.14,-0.2884400242469461,0.04450253760543498,0.3139377408820596
1592296225.5466738,-4.616402014357655,8.273425122325797,1.5970934676238437,-0.06,-0.7733333333333333,-0.14,-0.18957794744527262,0.006918607581658291,0.27635381085828287
1592296225.5566738,-4.33,8.71,1.3,-0.07222222222222222,-0.7733333333333333,-0.15444444444444444,-0.4483314516060434,0.11671889372712078,0.16907877128695067
1592296225.5666738,-4.447781916979442,8.539740350680633,1.5114985154893283,-0.07222222222222222,-0.7733333333333333,-0.15444444444444444,-0.17627760671145226,0.10233983012551388,0.40942003084782946
1592296225.5766737,-4.0416391597899475,8.599383908477119,1.5320902100525131,-0.07222222222222222,-0.7733333333333333,-0.15444444444444444,-0.1820703367747362,0.21582850122243527,0.36521830879830963
1592296225.5866737,-4.04460165792466,8.409114917653962,1.4993806624362689,-0.07222222222222222,-0.7733333333333333,-0.15444444444444444,-0.15686731218844618,0.2858170105256929,0.3803041703338606
1592296225.5966737,-4.221524410373033,8.609114550856473,1.291688735649048,-0.07222222222222222,-0.7733333333333333,-0.15444444444444444,-0.07211830682338856,0.22456277892520574,0.35597029750626985
1592296225.6066737,-3.81,8.47,1.59,-0.09222222222222222,-0.7533333333333333,-0.14666666666666667,-0.07853981633974483,0.2181661564992912,0.3294308963139297
1592296225.6166737,-4.34565743190209,8.118290357277827,1.5694746940318034,-0.09222222222222222,-0.7533333333333333,-0.14666666666666667,0.1579982086635757,0.11392739563263023,0.36465351436577476
1592296225.6266737,-4.093169024045261,8.483476661951908,1.9837842998585573,-0.09222222222222222,-0.7533333333333333,-0.14666666666666667,0.171223634670667,0.16343985501774427,0.46987273662918827
1592296225.6366737,-3.902245329000812,8.338941240184132,1.7667798537774166,-0.09222222222222222,-0.7533333333333333,-0.14666666666666667,0.28269643280405604,0.06440084168551496,0.40259063953194507
1592296225.6466737,-3.697811535337124,8.603948009748173,1.8576393176279449,-0.09222222222222222,-0.7533333333333333,-0.14666666666666667,0.395849642026984,0.1709465642384909,0.46205801956151304
1592296225.6566737,-3.75,8.79,1.47,-0.10444444444444445,-0.7411111111111112,-0.17555555555555555,0.3981532356112064,0.2454369260617026,0.35124751196385884
1592296225.6666737,-3.696552045396799,8.80520284576946,1.4074074701448294,-0.10444444444444445,-0.7411111111111112,-0.17555555555555555,0.35628804265170855,0.16583224010232075,0.7688019588057864
1592296225.6766737,-3.5167572686807462,8.558466000568236,0.6150679515105597,-0.10444444444444445,-0.7411111111111112,-0.17555555555555555,0.2570717484692892,0.28629542951996817,0.6553563145693913
1592296225.6866736,-3.7222059349302823,8.914501251340722,0.782749374329639,-0.10444444444444445,-0.7411111111111112,-0.17555555555555555,0.26369088915599886,0.18590221335507712,0.5296624999480503
1592296225.6966736,-3.5497552735073294,9.004475509474437,0.7377622452627816,-0.10444444444444445,-0.7411111111111112,-0.17555555555555555,0.3160357907050858,0.324125469008135,0.5672853979364566
1592296225.7066736,-3.45,8.83,1.06,-0.12555555555555556,-0.7411111111111112,-0.14,-0.0545415391248228,0.28034351110158917,0.459239759431008
1592296225.7166736,-3.24,8.920617912029677,0.927068097509274,-0.12555555555555556,-0.7411111111111112,-0.14,0.10783819001959466,0.2358821848913302,0.606814856903803
1592296225.7266736,-3.274587601078167,8.834663775928746,0.8634581038321809,-0.12555555555555556,-0.7411111111111112,-0.14,-0.08595414190584613,0.23099452081327296,0.6309507656072204
1592296225.7366736,-3.447312275872062,9.198968739812365,0.8153754482558772,-0.12555555555555556,-0.7411111111111112,-0.14,-0.0742650809814965,0.3680905287770735,0.5548887115146776
1592296225.7466736,-3.280190531386967,9.191372296881225,1.149618937226066,-0.12555555555555556,-0.7411111111111112,-0.14,-0.042776632591786344,0.29931312834691703,0.6568118470918973
1592296225.7566736,-3.11,9.28,0.76,-0.15222222222222223,-0.7066666666666667,-0.14,-0.18871372537188688,0.29343348049154666,0.8584838258247107
1592296225.7666736,-3.225382869249395,9.270384760895883,0.798460956416465,-0.15222222222222223,-0.7066666666666667,-0.14,-0.37331306417855864,0.4287364049578004,0.8511418066676272
1592296225.7766736,-3.11,9.14,0.66,-0.15222222222222223,-0.7066666666666667,-0.14,-0.16907877128695067,0.07308566242726255,0.8028514559173915
1592296225.7866735,-2.931137589566058,9.229431205216972,1.3158288382577892,-0.15222222222222223,-0.7066666666666667,-0.14,-0.2633812724678329,0.18473115233106563,0.9188326930019249
1592296225.7966735,-2.740363456985004,8.924932517758485,1.369470402525651,-0.15222222222222223,-0.7066666666666667,-0.14,-0.3620153548778808,0.10719366807306502,0.9573450361727419
1592296225.8066735,-2.65,9.11,1.87,-0.17222222222222222,-0.7211111111111111,-0.15444444444444444,0.006544984694978735,-0.007635815477475192,0.9610219193793778
1592296225.8166735,-2.6598969109586554,9.100103089041344,1.5730926712403355,-0.17222222222222222,-0.7211111111111111,-0.15444444444444444,0.04541006314615923,-0.052978407003852424,0.9966482412929597
1592296225.8266735,-2.317913658746474,9.186007075584454,1.396438781852082,-0.17222222222222222,-0.7211111111111111,-0.15444444444444444,0.18311443678102396,0.01985466389450056,0.9439296122147166
1592296225.8366735,-2.3,8.98,1.28,-0.17222222222222222,-0.7211111111111111,-0.15444444444444444,0.26616271092913524,-0.025089107997418484,0.928296995904484
1592296225.8466735,-2.1842565728137235,9.492578034682081,1.4205455901547641,-0.17222222222222222,-0.7211111111111111,-0.15444444444444444,0.12186957579036112,-0.12699613468917773,0.8687760776597396
1592296225.8566735,-1.89,9.69,1.18,-0.23777777777777778,-0.7,-0.16111111111111112,0.02181661564992912,0.062177354602297986,1.0471975511965976
1592296225.8666735,-1.7385713283032111,9.00857097736445,1.440793823477803,-0.23777777777777778,-0.7,-0.16111111111111112,0.13102096962931498,0.0052809684953910654,1.0380207147277416
1592296225.8766735,-1.577016718295538,9.805560784128259,1.078711248788101,-0.23777777777777778,-0.7,-0.16111111111111112,0.13573598809125165,-0.02851345356481271,1.1631701019536613
1592296225.8866735,-1.6355371115469377,9.302672921005277,1.2868735720495765,-0.23777777777777778,-0.7,-0.16111111111111112,0.24969094335537848,0.06487707201658141,0.950600437164758
1592296225.8966734,-1.2878424553670718,9.624926504781739,1.100305707757941,-0.23777777777777778,-0.7,-0.16111111111111112,0.1396083871832033,0.13425683430996915,0.9885280405518099
1592296225.9066734,-1.24,9.8,1.41,-0.2822222222222222,-0.7022222222222222,-0.14555555555555555,0.04799655442984406,0.07526732399225547,1.0035643198967394
1592296225.9166734,-1.05400407885792,10.093677770224337,1.0282188987083618,-0.2822222222222222,-0.7022222222222222,-0.14555555555555555,0.005282854177093642,0.0026540335625797468,0.9021192817964572
1592296225.9266734,-1.3629190260475652,9.484378539071349,1.1536221215553037,-0.2822222222222222,-0.7022222222222222,-0.14555555555555555,0.059977883134948354,0.2479130172263501,0.8362073955569995
1592296225.9366734,-1.4080753220655255,9.580470448918076,1.4057485556392866,-0.2822222222222222,-0.7022222222222222,-0.14555555555555555,-0.0045536812630923755,0.03801298864405474,0.8866084277495295
1592296225.9466734,-1.0995270391502494,9.85139089245344,1.0369957297161516,-0.2822222222222222,-0.7022222222222222,-0.14555555555555555,-0.009479153920025182,-0.02273450745811656,0.7675761718736533
1592296225.9566734,-1.18,9.24,1.47,-0.3088888888888889,-0.6644444444444444,-0.17333333333333334,0.18653206380689397,0.10799224746714915,0.743946593662583
1592296225.9666734,-0.9566468261587496,9.413719135209861,1.4369106409124073,-0.3088888888888889,-0.6644444444444444,-0.17333333333333334,0.034031147363783765,0.09896852460069291,0.6067860060924484
1592296225.9766734,-0.69,9.66,1.02,-0.3088888888888889,-0.6644444444444444,-0.17333333333333334,-0.05017821599483697,0.062177354602297986,0.7526732399225546
1592296225.9866734,-0.8078405396618985,9.525325097529258,1.0620859070221067,-0.3088888888888889,-0.6644444444444444,-0.17333333333333334,-0.0024332689902794025,0.08054079575789705,0.6379017327000605
1592296225.9966733,-0.8465487245286302,9.425530739621164,0.9707076528282191,-0.3088888888888889,-0.6644444444444444,-0.17333333333333334,0.12478465542606838,-0.0008497629441272941,0.7273383195908337
1592296226.0066733,-1.02,9.23,0.91,-0.3511111111111111,-0.6755555555555556,-0.16666666666666666,0.2127120025868089,-0.03381575425739013,0.9741118887693352
1592296226.0166733,-0.7893975449327579,9.322240982026896,0.9007759017973104,-0.3511111111111111,-0.6755555555555556,-0.16666666666666666,0.18655098391012215,0.09698933912604366,0.9791428538994672
1592296226.0266733,-0.9186687268232386,9.5579587144623,0.7315087762669963,-0.3511111111111111,-0.6755555555555556,-0.16666666666666666,0.053531313860469276,-0.006609598552948112,0.98389064064484
1592296226.0366733,-0.16673848793974644,9.698758699590046,0.8984927066450568,-0.3511111111111111,-0.6755555555555556,-0.16666666666666666,0.16588157319883087,-0.035745949635704,0.9860916838239746
1592296226.0466733,-0.14346189803671952,9.74961430588984,0.9413452549082012,-0.3511111111111111,-0.6755555555555556,-0.16666666666666666,0.14885683901634633,0.010907288012206674,0.843592888802466
1592296226.0566733,0.11,9.71,0.7,-0.39111111111111113,-0.6588888888888889,-0.18666666666666668,0.05017821599483697,0.016362461737446838,0.9992009967667536
1592296226.0666733,-0.011864440868865636,9.71,0.7731186645213194,-0.39111111111111113,-0.6588888888888889,-0.18666666666666668,0.00586705486434437,0.08017053376535617,0.930961808625795
1592296226.0766733,-0.3019953668757646,9.612964678934901,0.6056328899763138,-0.39111111111111113,-0.6588888888888889,-0.18666666666666668,0.15335185852879538,0.027158844344560826,0.9257919380352502
1592296226.0866733,-0.3874636924537257,9.764927384907452,0.5903170384432843,-0.39111111111111113,-0.6588888888888889,-0.18666666666666668,0.1750704195128586,0.001851668427468832,0.9725902134793905
1592296226.0966733,-0.42724729407448175,9.658258117776555,0.7464386351128234,-0.39111111111111113,-0.6588888888888889,-0.18666666666666668,0.18537507476780363,-0.02166224638454336,0.8384060356659191
1592296226.1066732,-0.35046968294006836,9.709530317059933,0.9342954755898975,-0.4020537054184361,-0.6459567319802322,-0.17174494715667807,0.13988251246406636,0.003752793649913648,0.9257406714598553
1592296226.1166732,-0.21326543513380627,9.792419751352112,0.9137901243239447,-0.4033333333333333,-0.6444444444444445,-0.17,0.14997172505418843,-0.004213838627868062,0.9394120229435509
1592296226.1266732,-0.005576077396657858,9.790741717971269,0.8359337437701554,-0.4033333333333333,-0.6444444444444445,-0.17,0.0011471152204089174,-0.10846618801820741,0.804885690630807
1592296226.1366732,0.0945171489947141,10.203194950640825,0.9051263546619681,-0.4033333333333333,-0.6444444444444445,-0.17,0.23903961991319925,-0.038866260497200905,0.5544206494495088
1592296226.1466732,2.5632275226103927,10.996075545309452,0.951250221670509,-0.4033333333333333,-0.6444444444444445,-0.17,0.01805587061667613,0.04460760878725576,0.03233261901897899
1592296226.1566732,0.13047155519742137,8.496146655922644,2.1054617244157936,-0.441392425463336,-0.6346578207538723,-0.15151415525114156,0.25734120370377517,0.29142550801810996,0.19065461307069004
1592296226.1666732,-0.9430063600782778,8.911607142857143,1.1337989236790609,-0.44222222222222224,-0.6344444444444445,-0.1511111111111111,0.103519521054183,0.1516831156185287,0.052834047398503114
1592296226.1766732,-0.04358879407502814,10.521333923683788,-0.12828288520367093,-0.44222222222222224,-0.6344444444444445,-0.1511111111111111,0.1622328465588359,0.11481946772282209,-0.11742448262885632
1592296226.1866732,0.01866265750286368,9.683556701030927,0.9865191867124858,-0.44222222222222224,-0.6344444444444445,-0.1511111111111111,0.25651594952888773,-0.018593791714357544,-0.12762720155208535
1592296226.1966732,-0.06037493579866462,9.617067282999487,1.121653826399589,-0.44222222222222224,-0.6344444444444445,-0.1511111111111111,0.22205437716211882,-0.08537109509217383,-0.0585367698952297
1592296226.2066731,0.06368371015181676,9.841177396832942,0.790126266377492,-0.4480534511159307,-0.6276413440684513,-0.174436026685945,0.24091762181058554,-0.23108361653795395,0.03434877347601574
1592296226.2166731,0.16190336644986064,9.501495246944465,0.7759516832249304,-0.4488888888888889,-0.6266666666666667,-0.17777777777777778,0.3055743623884493,-0.3160278910014704,0.04907420885595127
1592296226.2266731,0.14293063002680967,9.640462466487936,0.7348843833780161,-0.4488888888888889,-0.6266666666666667,-0.17777777777777778,0.3838293187325369,-0.23440816624517213,0.01868157382999292
1592296226.236673,0.14,9.80070738783134,0.6749405873703453,-0.4488888888888889,-0.6266666666666667,-0.17777777777777778,0.3068562089756679,-0.23405388597511903,0.13739465201890666
1592296226.246673,0.09536436966129577,9.749716590364072,0.6973886675783341,-0.4488888888888889,-0.6266666666666667,-0.17777777777777778,0.2642018660122272,-0.22607136655790852,0.12794737920610308
1592296226.256673,0.12273598573498273,9.784261302425797,0.49268806419257777,-0.4664675508005498,-0.615924151053985,-0.15726933888084005,0.31846439787996533,-0.18940313820678462,-0.025007049513278826
1592296226.266673,0.11811687834960723,9.788116878349607,0.3887012700976434,-0.4688888888888889,-0.6144444444444445,-0.15444444444444444,0.25960707499753133,-0.278122928476447,-0.060009867991310056
1592296226.276673,-0.015983684568320847,9.847191298436437,0.22241522773623384,-0.4688888888888889,-0.6144444444444445,-0.15444444444444444,0.29826597209160033,-0.3102799418449825,0.10997552762430149
1592296226.286673,-0.16934993183611968,9.834130013632777,0.16550668484370143,-0.4688888888888889,-0.6144444444444445,-0.15444444444444444,0.25395707341843204,-0.281765966338806,0.08958159837683663
1592296226.296673,-0.34013572783309626,9.529728544333807,0.23149320373004584,-0.4688888888888889,-0.6144444444444445,-0.15444444444444444,0.11956691549036702,-0.19939499229489158,0.1009980946204241
1592296226.306673,-0.3835299751578821,9.681755409894945,0.1858848882104696,-0.4633988806081829,-0.6162744472046798,-0.1370594182222089,0.08598257915741034,-0.08085279158607624,-0.12896655539334578
1592296226.316673,0.05117478510028656,10.176497930595351,0.36695638331741487,-0.4622222222222222,-0.6166666666666667,-0.13333333333333333,0.10861007235160033,0.04872967884304052,-0.12714655532382202
1592296226.326673,-0.7432356570828411,10.020945779178154,0.5954908756728371,-0.4622222222222222,-0.6166666666666667,-0.13333333333333333,0.12112188603483426,0.10034059296058848,-0.13865844086499726
1592296226.336673,-1.745851809605285,9.321700292293434,0.2944392956441149,-0.4622222222222222,-0.6166666666666667,-0.13333333333333333,0.08998217268496775,0.02657361875647856,-0.03465291069665545
1592296226.346673,-1.270263562767867,9.059568299205099,0.10820139931865637,-0.4622222222222222,-0.6166666666666667,-0.13333333333333333,0.09509847497605455,-0.10792166053805724,-0.0092550592519396
1592296226.356673,-0.487394172415093,9.893409476422029,0.06403709148479023,-0.4675637981077312,-0.610434828133573,-0.14579701039952084,0.07631769424137423,-0.059590059742822526,0.010068011625669544
1592296226.366673,-0.4753865258012378,10.223362636496235,0.07898805534749873,-0.4688888888888889,-0.6088888888888889,-0.14888888888888888,-0.029701971515736655,-0.07602355650461334,0.019193409934083777
1592296226.376673,-0.24238163397041906,10.287187280738681,0.08214841009233532,-0.4688888888888889,-0.6088888888888889,-0.14888888888888888,-0.1267876864748319,0.0561997513137352,-0.03424206333224806
1592296226.386673,-0.31252547755605065,9.766171019576243,0.2669042991894582,-0.4688888888888889,-0.6088888888888889,-0.14888888888888888,-0.06680504791718708,0.022894106415272245,-0.06613411744206389
1592296226.396673,-0.3841843677888882,9.585049701201113,0.37495029879888764,-0.4688888888888889,-0.6088888888888889,-0.14888888888888888,-0.03142213551295705,-0.05750916553531897,-0.007912831377035856
1592296226.406673,-0.492015145589647,9.656070679418352,0.5700252426494116,-0.4688888888888889,-0.6182255879088104,-0.14888888888888888,-0.06482343464847962,-0.09585566425865824,0.10362617079126231
1592296226.416673,-0.51,9.83832745914771,0.6,-0.4688888888888889,-0.6222222222222222,-0.14888888888888888,-0.08744890850438265,-0.0306701352114215,0.09700460013958069
1592296226.426673,-0.35901636475015314,9.750843032583647,0.7078454537498906,-0.4688888888888889,-0.6222222222222222,-0.14888888888888888,-0.10405044749505633,-0.12512113230273225,0.04709731351174512
1592296226.436673,-0.41542776163483064,9.468401133711238,0.8192566569808983,-0.4688888888888889,-0.6222222222222222,-0.14888888888888888,0.061322117911538715,-0.039549383869565524,-0.050040517639498724
1592296226.446673,-0.43829521339306765,9.490228719641593,0.7990332468757368,-0.4688888888888889,-0.6222222222222222,-0.14888888888888888,0.03135964882422375,-0.02646569992100279,0.07967720226763902
1592296226.456673,-0.3942289228922892,9.668775877587759,0.6984578457845785,-0.4688888888888889,-0.626991699169917,-0.13776010934426774,0.02782747618138124,-0.010067193180195312,0.006879630502090228
1592296226.466673,-0.39918291273716777,9.764760129720058,0.6731971521228614,-0.4688888888888889,-0.6288888888888889,-0.13333333333333333,0.022277800379309026,-0.03604771431561554,-0.034061879382318416
1592296226.476673,-0.4714005884379887,9.728117528560448,0.6737198823124023,-0.4688888888888889,-0.6288888888888889,-0.13333333333333333,-0.056269774540609316,-0.057904415998674824,-0.035780533438427096
1592296226.4866729,-0.5164596714939205,9.484627053162997,0.7493790144817616,-0.4688888888888889,-0.6288888888888889,-0.13333333333333333,0.02473016879821964,-0.04452084504672098,0.011674068914201127
1592296226.4966729,-0.5101745238223225,9.523909226110485,0.7602617857334839,-0.4688888888888889,-0.6288888888888889,-0.13333333333333333,0.03739284813714893,-0.015642864072403756,0.01347072130529426
1592296226.5066729,-0.44975053794813813,9.74056128961669,0.6595634414092417,-0.46553476705123376,-0.6288888888888889,-0.14115961762119536,0.008767464392756993,-0.02102511784119186,-0.032738529519155464
1592296226.5166728,-0.43733824061783516,9.761654398455413,0.59,-0.4622222222222222,-0.6288888888888889,-0.14888888888888888,0.1054813490307697,-0.009079550486817675,0.04412011013397165
1592296226.5266728,-0.4888591327791508,9.64580521231184,0.5576173893507077,-0.4622222222222222,-0.6288888888888889,-0.14888888888888888,0.08721144316348406,-0.04786489990358994,-0.03372811528012194
1592296226.5366728,-0.49134059687351966,9.687077214590241,0.5337801989578399,-0.4622222222222222,-0.6288888888888889,-0.14888888888888888,0.07218189026308144,-0.14844909941124912,0.07430412712888576
1592296226.5466728,-0.44711369471666723,9.810470654178571,0.5159058691642859,-0.4622222222222222,-0.6288888888888889,-0.14888888888888888,0.09007781829485768,-0.08563995986079902,0.11374578517971663
1592296226.5566728,-0.40060312732688014,9.87590469099032,0.5,-0.46848680400430215,-0.625756597997849,-0.15149913129808884,0.09714973062757715,0.05302834646079384,0.011725415618852444
1592296226.5666728,-0.437225239266493,9.799281835228795,0.5337323137617807,-0.47555555555555556,-0.6222222222222222,-0.15444444444444444,0.13058158030289657,0.03253145196553192,0.028226279204074573
1592296226.5766728,-0.47277709483471536,9.661394693904919,0.5052801680784962,-0.47555555555555556,-0.6222222222222222,-0.15444444444444444,0.0977835039711484,-0.019451584506358255,0.016121991832711527
1592296226.5866728,-0.48608509935337707,9.68519139094728,0.48,-0.47555555555555556,-0.6222222222222222,-0.15444444444444444,0.09503686209878254,-0.010773723803373686,0.03015330805392171
1592296226.5966728,-0.4809190544412607,9.785404727793697,0.45275716332378224,-0.47555555555555556,-0.6222222222222222,-0.15444444444444444,0.07263221751101419,0.03219974627652988,0.06424680749940659
1592296226.6066728,-0.44477357798165135,9.827386788990825,0.4284088073394495,-0.4699496839959225,-0.6166163506625892,-0.14556848114169216,0.025262680190919574,0.020330603895513215,0.049187541491893035
1592296226.6166728,-0.4037408746020728,9.741149620622801,0.4274817492041456,-0.4622222222222222,-0.6088888888888889,-0.13333333333333333,0.02263274788380916,-0.022608857647901544,-0.06774299628234914
1592296226.6266727,-0.4181163511187608,9.687922432587492,0.3596121629374641,-0.4622222222222222,-0.6088888888888889,-0.13333333333333333,-0.04010392121289369,0.06309598056660068,-0.0897321532194014
1592296226.6366727,-0.435807392767229,9.726459142137832,0.32580739276722903,-0.4622222222222222,-0.6088888888888889,-0.13333333333333333,-0.008503814024174036,0.08828301597028039,0.009443959704577912
1592296226.6466727,-0.4314972508106584,9.785508247568025,0.38526786973072047,-0.4622222222222222,-0.6088888888888889,-0.13333333333333333,-0.030103500085207603,0.051426373703950354,0.06146561558335063
1592296226.6566727,-0.41630845377153036,9.80523381508612,0.4821492773708177,-0.4622222222222222,-0.6088888888888889,-0.13128247431751688,-0.0754463575932631,0.05005559201576322,0.029238584237515575
1592296226.6666727,-0.4285197579209683,9.742960484158063,0.5261732526403228,-0.4622222222222222,-0.6088888888888889,-0.12777777777777777,0.018800087321581616,0.06039754127287906,0.004229373718127829
1592296226.6766727,-0.4749424820679388,9.690881264943384,0.53,-0.4622222222222222,-0.6088888888888889,-0.12777777777777777,0.017093865081167,-0.02570757514563049,-0.05261891726926558
