time,acc_x,acc_y,acc_z,mag_x,mag_y,mag_z,gyr_x,gyr_y,gyr_z
1592296343.836561,-0.47892823996733114,9.746784719901994,0.47464119983665587,-0.45111111111111113,-0.5844444444444444,-0.13333333333333333,0.05266894020719273,0.16638678379401403,0.035994378650140886
1592296343.846561,-0.47,9.75,0.52,-0.4444444444444444,-0.5911111111111111,-0.13333333333333333,-0.0545415391248228,0.053450708342326333,-0.06544984694978735
1592296343.856561,-0.45974410449958514,9.72948820899917,0.507696940496266,-0.4444444444444444,-0.5911111111111111,-0.13333333333333333,-0.020927751636418128,0.019557782164966772,0.015555149435049974
1592296343.866561,-0.45131049817854946,9.71131049817855,0.42655249089274727,-0.4444444444444444,-0.5911111111111111,-0.13333333333333333,0.07283469445189801,-0.10370365220644728,-0.036423849789160176
1592296343.876561,-0.46,9.721955000093828,0.47782000037531197,-0.4444444444444444,-0.5911111111111111,-0.13333333333333333,-0.08157450761759016,-0.06119233373019063,0.0843130375908293
1592296343.886561,-0.46,9.737696710390512,0.5407868415620485,-0.4444444444444444,-0.5911111111111111,-0.13333333333333333,-0.08844312448189594,0.05213984453085477,-0.027301986454139643
1592296343.896561,-0.46,9.75,0.54,-0.45111111111111113,-0.5844444444444444,-0.15444444444444444,0.05017821599483697,0.15707963267948966,-0.09817477042468103
1592296343.906561,-0.45,9.759187017836961,0.5610571962065746,-0.45111111111111113,-0.5844444444444444,-0.15444444444444444,-0.03056078938598923,0.02232207161174631,-0.02316473048510028
1592296343.916561,-0.44673679177623715,9.752175472149176,0.46217547214917526,-0.45111111111111113,-0.5844444444444444,-0.15444444444444444,-0.09024401600027696,0.02398654224355881,-0.010330686456752834
1592296343.9265609,-0.4208600940699068,9.767419717790279,0.4886009406990685,-0.45111111111111113,-0.5844444444444444,-0.15444444444444444,0.031363895024258424,-0.10060409474171211,-0.1815357509800099
1592296343.9365609,-0.42859651387992254,9.744210458360232,0.5659651387992253,-0.45111111111111113,-0.5844444444444444,-0.15444444444444444,0.05836909462451598,-0.014525021015891149,-0.15621837635476843
1592296343.9465609,-0.444383652412618,9.71875192275836,0.6562403862082022,-0.4711111111111111,-0.5844444444444444,-0.14666666666666667,0.008723290413562188,0.010644409226165276,-0.007099628663852976
1592296343.9565609,-0.35945159234165114,9.7,0.7450643310748601,-0.4711111111111111,-0.5844444444444444,-0.14666666666666667,0.043246229600116586,-0.0710797843066692,0.07692093991889314
1592296343.9665608,-0.353589984939759,9.69910250376506,0.6644874811746988,-0.4711111111111111,-0.5844444444444444,-0.14666666666666667,0.07716249359651223,0.0020698473027434164,-0.025005118955618588
1592296343.9765608,-0.4256476194077828,9.68,0.760512044775555,-0.4711111111111111,-0.5844444444444444,-0.14666666666666667,0.14099644804363873,0.022404747649552914,-0.002122505972129019
1592296343.9865608,-0.29082346934916614,9.68,0.7763737094883334,-0.4711111111111111,-0.5844444444444444,-0.14666666666666667,0.149647644108807,0.006832594732250046,-0.0678715960674078
1592296343.9965608,-0.23408122503328893,9.798308921438084,0.6732356857523303,-0.45666666666666667,-0.5911111111111111,-0.14666666666666667,0.00043647756343566553,0.04951296899299493,0.028418248015370386
1592296344.0065608,-0.16501195219123507,9.783325365205842,0.5775537848605578,-0.45666666666666667,-0.5911111111111111,-0.14666666666666667,0.12262908154442362,-0.04453226129138188,-0.06544984694978735
1592296344.0165608,-0.09848568321855745,9.837271475172164,0.3108094720309291,-0.45666666666666667,-0.5911111111111111,-0.14666666666666667,0.1057892621833441,-0.08823625689669345,-0.07476530724504203
1592296344.0265608,0.01,10.0,0.13,-0.45666666666666667,-0.5911111111111111,-0.14666666666666667,0.01308996938995747,-0.06654067773228381,-0.16253378659197193
1592296344.0365608,0.04072347951396849,10.076808698784921,0.10695739036452363,-0.45666666666666667,-0.5911111111111111,-0.14666666666666667,-0.013721324369431397,-0.0983790890715581,-0.12147899302290774
1592296344.0465608,0.11,10.06,0.21,-0.43666666666666665,-0.5844444444444444,-0.14,-0.04363323129985824,-0.15271630954950383,-0.2748893571891069
1592296344.0565608,0.258199070969024,9.99855925677522,0.3796398141938048,-0.43666666666666665,-0.5844444444444444,-0.14,-0.043494658911908644,-0.03676463103403828,-0.31221545839340403
1592296344.0665607,0.21,9.96,0.37,-0.43666666666666665,-0.5844444444444444,-0.14,-0.09817477042468103,0.001090830782496456,-0.20180369476184434
1592296344.0765607,0.2012038734358811,10.056757392205308,0.37879612656411893,-0.43666666666666665,-0.5844444444444444,-0.14,-0.07322754780520423,0.12294841819301781,-0.4378428010845865
1592296344.0865607,0.2077253781112302,9.98502084077647,0.49588067166845307,-0.43666666666666665,-0.5844444444444444,-0.14,-0.07655483427989657,0.14636800435966973,-0.349640819678767
1592296344.0965607,0.15028990238647122,10.139130292840587,0.3608213900950018,-0.45657003253784295,-0.5910788997348365,-0.1333655447096079,-0.08288205717325853,0.20914435808870968,-0.4693943751570938
1592296344.1065607,0.21791360059425707,10.188509714710182,0.29208639940574294,-0.45666666666666667,-0.5911111111111111,-0.13333333333333333,-0.1432272541335586,0.1395905353654135,-0.5474052667377171
1592296344.1165607,0.24905251875669882,10.1803158270811,0.1544215791354055,-0.45666666666666667,-0.5911111111111111,-0.13333333333333333,-0.15775704677957375,0.26526658506229983,-0.7737311455448439
1592296344.1265607,0.336722237607311,10.283742453613957,0.11821212960398782,-0.45666666666666667,-0.5911111111111111,-0.13333333333333333,-0.0786295961538013,0.2985769092467661,-0.7322036235689843
1592296344.1365607,0.2515430628634727,10.121127665466629,0.07175076156189421,-0.45666666666666667,-0.5911111111111111,-0.13333333333333333,-0.19435233269777052,0.3188495054296513,-0.7955554866405004
1592296344.1465607,0.27,10.25,0.0,-0.4311111111111111,-0.5911111111111111,-0.14,-0.3359758810089084,0.35452000431134817,-0.8737554567796613
1592296344.1565607,0.1396092815564947,10.265340084522766,0.09204050713659198,-0.4311111111111111,-0.5911111111111111,-0.14,-0.34768928649137937,0.4273104526667031,-0.983359465222782
1592296344.1665606,-0.16704713869101687,10.277044748290864,0.19250059760003824,-0.4311111111111111,-0.5911111111111111,-0.14,-0.3295807245320352,0.4045750148884078,-1.2253007999142824
1592296344.1765606,-0.47,10.15,0.3,-0.4311111111111111,-0.5911111111111111,-0.14,-0.5235987755982988,0.5399612373357456,-1.2849986617808251
1592296344.1865606,-0.5207347812786786,10.020344447843378,0.3225487916794127,-0.4311111111111111,-0.5911111111111111,-0.14,-0.510070471758697,0.504910631933141,-1.4165921627660427
1592296344.1965606,-0.79,9.88,0.33,-0.39111111111111113,-0.6111111111111112,-0.14666666666666667,-0.49305551368839806,0.5857761302005968,-1.5249814339300454
1592296344.2065606,-0.9927105470656704,9.738983967258665,0.18898396725866407,-0.39111111111111113,-0.6111111111111112,-0.14666666666666667,-0.6055397738931102,0.5242462784646859,-1.5038305473958262
1592296344.2165606,-1.2172434837889383,9.769310870947233,0.07137825810553083,-0.39111111111111113,-0.6111111111111112,-0.14666666666666667,-0.7745215888316108,0.6590438705237603,-1.7161424204789382
1592296344.2265606,-1.1464038328799384,9.608088432335865,0.18775386739209876,-0.39111111111111113,-0.6111111111111112,-0.14666666666666667,-0.7421507023731004,0.5911990150184165,-1.64448801616588
1592296344.2365606,-1.5683103427504368,9.528651888440455,0.2086518884404554,-0.39111111111111113,-0.6111111111111112,-0.14666666666666667,-0.7080310947352972,0.5979669850066641,-1.7178369125627189
1592296344.2465606,-1.56,9.37,0.57,-0.3466666666666667,-0.6377777777777778,-0.1688888888888889,-0.8715737952146684,0.5835944686356039,-1.7409659288643438
1592296344.2565606,-1.7434124192096867,9.299456761842428,0.6405432381575717,-0.3466666666666667,-0.6377777777777778,-0.1688888888888889,-0.8761908393554237,0.6213003291184404,-1.8009875026941649
1592296344.2665606,-2.129376374008627,8.931619590928065,0.8343561986920829,-0.3466666666666667,-0.6377777777777778,-0.1688888888888889,-0.8369887373668842,0.5157642823005527,-1.7501183436662744
1592296344.2765605,-2.6401862935510723,8.897264259384043,1.0749359863648975,-0.3466666666666667,-0.6377777777777778,-0.1688888888888889,-0.7942416365143824,0.5231733649966507,-1.8525011604691959
1592296344.2865605,-3.001517607818802,8.81356228668942,1.3445687247905678,-0.3466666666666667,-0.6377777777777778,-0.1688888888888889,-0.7166043684225561,0.505647112514525,-1.7943277512512705
1592296344.2965605,-2.8448181196704208,8.47823768574821,1.797772820494369,-0.30265966250494725,-0.6566379224185147,-0.20241803491686555,-0.6841995784879734,0.1578984328012628,-1.6604477184234474
1592296344.3065605,-2.8498098640239684,8.63168548820773,1.8001901359760313,-0.3,-0.6577777777777778,-0.20444444444444446,-0.5780657742006486,0.23036427933453418,-1.7217788464178074
1592296344.3165605,-3.4274657822995422,8.571156516118153,1.8644217419409237,-0.3,-0.6577777777777778,-0.20444444444444446,-0.40892986871621306,0.2903390785860213,-1.858729237651955
1592296344.3265605,-2.9213517271136467,8.588378358942398,1.6429731284608193,-0.3,-0.6577777777777778,-0.20444444444444446,-0.39620743217738585,0.4037252401442202,-1.6971854039000849
1592296344.3365605,-3.0835195003046922,8.623039914686167,1.5450402193784276,-0.3,-0.6577777777777778,-0.20444444444444446,-0.402150023644624,0.3267433046401263,-1.6689798717267859
1592296344.3465605,-3.465724583151808,8.533269436413322,1.5279880391302627,-0.2360931346015904,-0.6577777777777778,-0.24560479842986083,-0.4367098634048653,0.1887751167355816,-1.5344618417117493
1592296344.3565605,-3.640010259416679,8.331654697347208,1.6433401729444526,-0.23444444444444446,-0.6577777777777778,-0.24666666666666667,-0.2952429518086058,0.22007706884397665,-1.4148459349954403
1592296344.3665605,-3.5920755925688663,8.295355541319667,1.544862267777066,-0.23444444444444446,-0.6577777777777778,-0.24666666666666667,-0.3524822960719121,0.1898995933013529,-1.270829042449191
1592296344.3765604,-4.283663902682411,8.820894057829836,1.3929226163605692,-0.23444444444444446,-0.6577777777777778,-0.24666666666666667,-0.2138123968314627,0.20737204004089935,-1.1523432043477804
1592296344.3865604,-4.459285892545188,8.88366073656815,1.5985717850903776,-0.23444444444444446,-0.6577777777777778,-0.24666666666666667,-0.25103238745923606,0.11332450009660046,-1.0459848191310703
1592296344.3965604,-3.6460320686540197,8.044220867208672,1.9000767841011743,-0.16775218307738632,-0.6749560875238382,-0.24060373381511593,-0.1568359940968589,-0.07016397022301504,-1.1908632663201446
1592296344.4065604,-4.674459598070129,8.42735402499715,1.9319834365383883,-0.16111111111111112,-0.6766666666666666,-0.24,-0.08691053259208581,-0.16569335435327043,-1.293391507108038
1592296344.4165604,-4.534531712126191,8.095241537955964,2.1979033848176144,-0.16111111111111112,-0.6766666666666666,-0.24,0.1573735798505863,-0.07124347399767025,-1.399996889140551
1592296344.4265604,-4.660344759730804,7.76206226140344,2.6958754771931206,-0.16111111111111112,-0.6766666666666666,-0.24,0.31116848545962805,-0.2967036975022863,-1.3382959780815182
1592296344.4365604,-4.538348213373649,7.909392404028848,2.6218840786973665,-0.16111111111111112,-0.6766666666666666,-0.24,0.3622906052623466,-0.43723850461968006,-1.2842957626679083
1592296344.4465604,-4.590277144429594,8.148082396414813,2.3742471892444375,-0.09079068060906255,-0.6766666666666666,-0.23497711210699654,0.5008277794980497,-0.2559701884419107,-1.3169767533936243
1592296344.4565604,-4.595796899351981,8.204456976458044,1.9382934131736527,-0.08333333333333333,-0.6766666666666666,-0.23444444444444446,0.4657724408504069,-0.23028376446578963,-1.335086101971475
1592296344.4665604,-5.02136691970266,8.418244332956844,1.200145254918442,-0.08333333333333333,-0.6766666666666666,-0.23444444444444446,0.5040225305641713,-0.3965945661846868,-1.040380453346163
1592296344.4765604,-5.105816120703566,8.298780861707277,1.2305062933677586,-0.08333333333333333,-0.6766666666666666,-0.23444444444444446,0.4631263611689176,-0.28929767047861366,-0.8217909767743226
1592296344.4865603,-5.800398709184323,8.458116003566728,1.2295651989299818,-0.08333333333333333,-0.6766666666666666,-0.23444444444444446,0.3621834715223867,-0.31702865379155776,-0.7021235087603614
1592296344.4965603,-5.106777500867535,7.890075081232847,1.4316407457648506,-0.04907774868467635,-0.6785183198909184,-0.21037295252917196,0.5188517569818676,-0.15510385901542978,-0.635961366274289
1592296344.5065603,-5.623221130221131,8.179029484029483,1.3880651105651105,-0.042222222222222223,-0.6788888888888889,-0.20555555555555555,0.43865548774616947,0.027551383771078186,-0.5780702281753027
1592296344.5165603,-5.564895689156202,8.261946045247504,1.4362913657296725,-0.042222222222222223,-0.6788888888888889,-0.20555555555555555,0.3429320856027672,-0.3537057998920703,-0.472184154780661
1592296344.5265603,-5.804082829002017,8.137655156046042,1.3035447964874807,-0.042222222222222223,-0.6788888888888889,-0.20555555555555555,0.3839679307619718,-0.322514249895597,-0.2572629970583653
1592296344.5365603,-5.774973518131456,7.972962925384038,1.5220635564845066,-0.042222222222222223,-0.6788888888888889,-0.20555555555555555,0.33192420800548295,-0.272047804870304,-0.2042008263411805
1592296344.5465603,-5.772114400868083,8.162686405208495,1.8574177646876453,-0.034735217623452004,-0.6919911469367368,-0.2195936891782497,0.3109453812814036,-0.21603174003128006,-0.1251997437345057
1592296344.5565603,-5.808750859593059,8.100746733546378,1.6354920917438616,-0.03333333333333333,-0.6944444444444444,-0.2222222222222222,0.347730651634756,-0.259319304302114,-0.12820039405500305
1592296344.5665603,-5.546947246912156,7.97645342260187,1.4980621031975065,-0.03333333333333333,-0.6944444444444444,-0.2222222222222222,0.3195277192333031,-0.3357983613001282,-0.09559032119871044
1592296344.5765603,-5.356251537872281,7.953020961489357,1.4851048074467839,-0.03333333333333333,-0.6944444444444444,-0.2222222222222222,0.3065005844436668,-0.22606559553526523,-0.28332817240600333
1592296344.5865602,-5.742266775426094,8.179762804275963,1.7246020263598505,-0.03333333333333333,-0.6944444444444444,-0.2222222222222222,0.2115751605028999,-0.2272194244607406,-0.2717203610005201
1592296344.5965602,-5.608141609719059,7.543966717286763,1.6418115666919768,-0.008575395821029837,-0.6893221125453471,-0.19831800669310162,0.11223291770543056,-0.2330499503138437,-0.10576289138996278
1592296344.6065602,-5.7903090879897245,7.709144990366088,1.6574317597944765,-0.0011111111111111111,-0.6877777777777778,-0.19111111111111112,0.0572311340984926,-0.378137681768665,-0.06422450138871716
1592296344.6165602,-4.998803525056633,7.7010989557434115,1.8951745952815073,-0.0011111111111111111,-0.6877777777777778,-0.19111111111111112,0.023646118296632247,-0.5827977264106626,-0.18775340975926147
1592296344.6265602,-5.175479934400927,7.981050067528459,2.0855373335905845,-0.0011111111111111111,-0.6877777777777778,-0.19111111111111112,0.052358088622602175,-0.4499207118696603,-0.18459916974815435
1592296344.6365602,-5.13246160494648,8.137460275247657,2.018095871285154,-0.0011111111111111111,-0.6877777777777778,-0.19111111111111112,0.0575369904784197,-0.43378694447433014,-0.18047182832740663
1592296344.6465602,-5.182536474367554,7.810149912996922,1.7759329407040556,-0.0054021475631701845,-0.7040837162956023,-0.19111111111111112,-0.005128408567046647,-0.18531559256283436,-0.19456677497407338
1592296344.6565602,-5.479257247095213,7.966055835349169,1.7469802117619067,-0.006666666666666667,-0.7088888888888889,-0.19111111111111112,0.010087448685152024,-0.17937498189288345,-0.14620917538927086
1592296344.6665602,-5.8748913644623535,8.270851439256274,1.6279800373969608,-0.006666666666666667,-0.7088888888888889,-0.19111111111111112,-0.07105324280783518,-0.38547384675753815,-0.14788219200105257
1592296344.6765602,-5.155175769139042,7.905319818745529,1.9371337944192701,-0.006666666666666667,-0.7088888888888889,-0.19111111111111112,-0.15485296426370448,-0.5851215276690163,-0.15808950316160145
1592296344.6865602,-5.162598510734955,7.79,1.8124108712398033,-0.006666666666666667,-0.7088888888888889,-0.19111111111111112,-0.058455119977579545,-0.35877893914329934,-0.14835093959014478
1592296344.6965601,-5.476483958875264,7.6833063916759565,1.7980323299888519,-0.016940865986759708,-0.7049372737657762,-0.17135303549554756,0.09422143779411177,-0.13069029033148677,-0.17146101978327222
1592296344.7065601,-5.618970899040806,7.7110738091367255,1.901331084376524,-0.021111111111111112,-0.7033333333333334,-0.16333333333333333,0.07424605561821848,-0.21650548146190013,-0.1683857186616871
1592296344.7165601,-5.6484991024273485,7.742576163592372,1.5858422873793478,-0.021111111111111112,-0.7033333333333334,-0.16333333333333333,0.08122584205039236,-0.25255957968447784,-0.1687601239412715
1592296344.72656,-5.8577503040129715,7.556977753403753,1.6531767567180906,-0.021111111111111112,-0.7033333333333334,-0.16333333333333333,0.016659105078355593,-0.18204199424988066,-0.029165905652309948
1592296344.73656,-5.987362780652785,7.5311356505439875,1.8458612118495579,-0.021111111111111112,-0.7033333333333334,-0.16333333333333333,0.04339373835922457,-0.20252701855971586,-0.08318325908960322
1592296344.74656,-5.911221466321826,7.615852355785449,2.0351194759923534,0.004498138361008035,-0.7128453402801205,-0.18674750427927084,0.17556871152970346,-0.23756127623277387,0.07467756638489653
1592296344.75656,-5.817014666987257,7.671492666506372,1.9352228901178168,0.017777777777777778,-0.7177777777777777,-0.1988888888888889,0.17204161352099562,-0.28669335799849693,0.1213422956750733
1592296344.76656,-5.85694950714142,7.742126735063367,1.9088292094146049,0.017777777777777778,-0.7177777777777777,-0.1988888888888889,0.14597799918174711,-0.30950185021235666,0.13786178805972532
1592296344.77656,-5.708045578802068,7.8245037486128775,1.9181373318537365,0.017777777777777778,-0.7177777777777777,-0.1988888888888889,0.12703098976704913,-0.27288085508332155,0.3605121482776549
1592296344.78656,-5.577384883793383,7.787769331422518,1.865923110474173,0.017777777777777778,-0.7177777777777777,-0.1988888888888889,0.18101109659394476,-0.24967443899925268,0.2799231922306964
1592296344.79656,-5.370329589394219,7.73152273982692,1.726197753636531,0.022342928455983145,-0.7132126270995724,-0.1829108615151701,0.2737858726891924,-0.1883708698856557,0.15067745422394288
1592296344.80656,-5.34705079442979,7.7267848598245505,1.700177289736826,0.024444444444444446,-0.7111111111111111,-0.17555555555555555,0.25116531005495724,-0.18361908856749382,0.14439839860757944
1592296344.81656,-5.590345919133244,7.841692393042457,1.6013836765329765,0.024444444444444446,-0.7111111111111111,-0.17555555555555555,0.03066052185825907,-0.26769823244475005,0.2208052884942636
1592296344.82656,-6.072329106683192,7.946503479836019,1.6661645533415959,0.024444444444444446,-0.7111111111111111,-0.17555555555555555,0.06892711056343512,-0.1532825764587128,0.2654163201839758
1592296344.83656,-5.957733261174719,7.86729709617954,1.7386485480897698,0.024444444444444446,-0.7111111111111111,-0.17555555555555555,0.056695897174483215,-0.16464525229491073,0.3034732598041205
1592296344.84656,-5.604349726017896,7.674237705486578,1.703457376708053,0.024444444444444446,-0.7115241651445439,-0.169772799087497,0.06254662696367512,-0.27794708064042395,0.3216855210824797
1592296344.85656,-5.7672041219943795,7.691612365983137,1.8778130529822004,0.024444444444444446,-0.7122222222222222,-0.16,0.07348886218875364,-0.40463929023684864,0.43761401362029784
1592296344.86656,-5.542569713999953,7.974873669421094,1.709081037315743,0.024444444444444446,-0.7122222222222222,-0.16,0.11531876086744042,-0.3206591288892593,0.48463531209161104
1592296344.87656,-5.47510890049858,8.22021780099716,1.6320871203988645,0.024444444444444446,-0.7122222222222222,-0.16,0.1485331391308714,-0.2677088807472032,0.5793192571740629
1592296344.88656,-5.447936066712995,8.244126658005257,1.6770900685862766,0.024444444444444446,-0.7122222222222222,-0.16,0.1317423134658588,-0.2601601588721094,0.6262117840506487
1592296344.89656,-5.045583972719522,7.8711935208866155,1.6436146632566069,0.016978308231505163,-0.7122222222222222,-0.15893340911243725,0.02539878118631135,-0.13473852550242668,0.5807934606928253
1592296344.90656,-5.324992018244013,7.926259977194983,1.4924834663625997,0.008888888888888889,-0.7122222222222222,-0.15777777777777777,-0.030545252023072938,-0.12804089632775045,0.7016788287629808
1592296344.91656,-5.678390271846683,7.74317076346214,1.9704390167690866,0.008888888888888889,-0.7122222222222222,-0.15777777777777777,0.12244444874695526,-0.06912144520616273,0.784381864954637
1592296344.92656,-5.297653506187389,7.859411903358868,1.7441202121390689,0.008888888888888889,-0.7122222222222222,-0.15777777777777777,0.16856607439118215,-0.13468578306215817,0.9587757207427509
1592296344.93656,-5.192222647430255,7.946723049251847,1.6036427997397726,0.008888888888888889,-0.7122222222222222,-0.15777777777777777,0.18462203501147376,-0.02221999469593819,0.92154174315044
1592296344.94656,-5.235763314056771,8.062372906981139,1.7733896511320255,0.0035028326886814244,-0.7156497125314452,-0.15141243863207804,0.21665015857656328,-0.0011276494652182056,0.8802818878271318
1592296344.95656,-4.717670461402309,8.014431795325637,1.908267026026791,-0.0033333333333333335,-0.72,-0.14333333333333334,0.1595944366597331,-0.13300232629045458,0.9447632794220261
1592296344.96656,-5.145702050997783,7.821140521064302,1.2949997228381376,-0.0033333333333333335,-0.72,-0.14333333333333334,0.30193053226808486,0.014812381520745252,1.107221996453253
1592296344.9765599,-5.224183525496256,8.223315107571615,1.504128848211102,-0.0033333333333333335,-0.72,-0.14333333333333334,0.283712522459478,-0.011629762792273103,1.1441003815511332
1592296344.9865599,-4.857083340903723,8.11498264866731,1.6681336870219299,-0.0033333333333333335,-0.72,-0.14333333333333334,0.3165397732918348,-0.06145581559418436,1.113059301272398
1592296344.9965599,-4.676104156580676,8.07527837333149,1.189515180856214,-0.02116298191822087,-0.7252184337321622,-0.13159185743596838,0.3815929622469731,-0.08471075448796256,1.1461439529404138
1592296345.0065598,-4.799597094801223,8.496094036697249,0.9229434250764527,-0.04888888888888889,-0.7333333333333333,-0.11333333333333333,0.31893523609690033,-0.13520197053622818,1.2479983154545964
1592296345.0165598,-4.443687339995045,8.467496627852562,1.5019371266551051,-0.04888888888888889,-0.7333333333333333,-0.11333333333333333,0.31301789728447027,-0.22145549461078476,1.2938488436434943
1592296345.0265598,-3.887456062743598,8.721664953014036,1.1554601755099114,-0.04888888888888889,-0.7333333333333333,-0.11333333333333333,0.247831792734563,-0.2390329478278361,1.2977975934177135
1592296345.0365598,-3.6677636131852123,8.54531718569781,1.3429575669276999,-0.04888888888888889,-0.7333333333333333,-0.11333333333333333,0.2067719313379605,-0.24828124431584997,1.2823868395430282
1592296345.0465598,-4.274345292599683,8.193482061100475,1.5447769083492884,-0.06236933137249461,-0.7333333333333333,-0.12463951090022846,0.28343085369751686,-0.07231804917330154,1.2496180788482696
1592296345.0565598,-4.269088707667106,8.309825504789716,1.3980271357857625,-0.08333333333333333,-0.7333333333333333,-0.14222222222222222,0.3253562756651772,-0.020749053541579434,1.2916472872481304
1592296345.0665598,-4.2558560537879195,8.427160516702843,1.4162496691195934,-0.08333333333333333,-0.7333333333333333,-0.14222222222222222,0.33040611254687047,-0.18104233618685608,1.5278537220675341
1592296345.0765598,-3.763396423815865,8.388695073235686,1.5042866653985163,-0.08333333333333333,-0.7333333333333333,-0.14222222222222222,0.31144017717677774,-0.15455476508173105,1.601694103521593
1592296345.0865598,-3.738132602545969,8.547769448373408,1.3269798444130128,-0.08333333333333333,-0.7333333333333333,-0.14222222222222222,0.31745565338078824,-0.11245742132843559,1.597015243103302
1592296345.0965598,-4.124697653429602,8.65054527677497,1.4808423586040915,-0.09084352854659714,-0.7312850982751704,-0.1272018317956946,0.3357715143212431,-0.17985097139018225,1.6031212953912801
1592296345.1065598,-3.966105701597109,8.988071056188453,1.391218381927013,-0.10777777777777778,-0.7266666666666667,-0.09333333333333334,0.27477233953779173,-0.3815850827798047,1.6969078955070755
1592296345.1165597,-2.899313703621087,9.031906089672095,1.906240612684958,-0.10777777777777778,-0.7266666666666667,-0.09333333333333334,0.5744801633879796,-0.19701876865710824,1.5067540400651587
1592296345.1265597,-3.1294294566253575,9.271585795996186,0.9099370829361296,-0.10777777777777778,-0.7266666666666667,-0.09333333333333334,0.3147404525127803,-0.12992647318523876,1.3744766824040635
1592296345.1365597,-2.8845574404500307,9.073104333304034,0.9072391667399139,-0.10777777777777778,-0.7266666666666667,-0.09333333333333334,0.39601914987765197,-0.1505721180266837,1.3812741958099712
1592296345.1465597,-2.8554579123223705,9.153643170564793,1.0672654079948474,-0.1277783145248223,-0.7266666666666667,-0.09090902584884308,0.5072351721354648,-0.18068129205988376,1.3044348678233484
1592296345.1565597,-3.19,9.83,0.34,-0.1811111111111111,-0.7266666666666667,-0.08444444444444445,0.3937899124812206,-0.1854412330243975,1.263182046130896
1592296345.1665597,-2.7868228531142387,8.939617126277827,0.9278285745275089,-0.1811111111111111,-0.7266666666666667,-0.08444444444444445,0.3066580918653411,-0.19747527443083207,1.4276344514139017
1592296345.1765597,-2.5449021617370167,9.295358819744024,0.7810904020783183,-0.1811111111111111,-0.7266666666666667,-0.08444444444444445,0.19297742117964933,-0.2205440308515544,1.4308548294328471
1592296345.1865597,-2.0692457604306864,8.985498788694482,0.9058880215343204,-0.1811111111111111,-0.7266666666666667,-0.08444444444444445,0.20307498977016109,-0.14550778261972416,1.524309963719167
1592296345.1965597,-2.077962920576791,9.18531471732662,1.1726527809567406,-0.1906352839449658,-0.7266666666666667,-0.08662139823503981,0.2892267036880944,-0.22506667862486618,1.398776881450669
1592296345.2065597,-2.38,9.88,1.15,-0.22,-0.7266666666666667,-0.09333333333333334,0.34688418883387295,-0.17235126363444003,1.2282754610910094
1592296345.2165596,-1.8096397918312852,9.68100678455628,1.2839562954687884,-0.22,-0.7266666666666667,-0.09333333333333334,0.26280004173103977,-0.19755019479039163,1.3997165745872622
1592296345.2265596,-1.53,9.45,0.98,-0.22,-0.7266666666666667,-0.09333333333333334,0.30325095753401476,-0.17235126363444003,1.5031648182801163
1592296345.2365596,-1.6914162950952574,9.275825699229834,1.0222821240372921,-0.22,-0.7266666666666667,-0.09333333333333334,0.32776462686895214,-0.09387149383716097,1.4683830133159574
1592296345.2465596,-1.3965268958102344,8.822567953499311,0.753296710681047,-0.23217563193674473,-0.720459481757738,-0.0914234302844322,0.38909032041230374,-0.108567001636121,1.579539062653145
1592296345.2565596,-1.3483064149226571,8.869444949954504,1.130277525022748,-0.27666666666666667,-0.6977777777777778,-0.08444444444444445,0.5206787684934246,-0.21867248957747226,1.7325009479956692
1592296345.2665596,-1.2661157232073437,9.299731383712473,1.054256226329914,-0.27666666666666667,-0.6977777777777778,-0.08444444444444445,0.4937519370930894,-0.21864171067805152,1.7435893288811986
1592296345.2765596,-1.1055595204110762,9.348074507564945,1.1616999714530403,-0.27666666666666667,-0.6977777777777778,-0.08444444444444445,0.5260775118325757,-0.2448286080675242,1.7162240307791385
1592296345.2865596,-0.5051029535248804,9.797978168011392,0.8221731590668468,-0.27666666666666667,-0.6977777777777778,-0.08444444444444445,0.4412476822863195,-0.19493911906874453,1.7559945511874517
1592296345.2965596,-0.2777287424936929,9.974049319546602,0.676073979319902,-0.27959117522810095,-0.6964280045955774,-0.0772456541393755,0.3063217025829612,-0.18790320899151577,1.7691505497346796
1592296345.3065596,-0.19,9.99,0.7,-0.2911111111111111,-0.6911111111111111,-0.04888888888888889,0.24107360293171679,-0.13744467859455345,1.5707963267948966
1592296345.3165596,1.1148339483394833,13.079188191881919,0.8584870848708487,-0.2911111111111111,-0.6911111111111111,-0.04888888888888889,-0.4114525157048164,-0.07014726216444922,0.4607049343565751
1592296345.3265595,-1.180985935706085,9.96926521239954,1.0076083524684272,-0.2911111111111111,-0.6911111111111111,-0.04888888888888889,-0.269855927692233,-0.06323781495256076,0.9368703027913995
1592296345.3365595,-2.68,10.62,0.2,-0.2911111111111111,-0.6911111111111111,-0.04888888888888889,-0.7166758241001715,-0.05563236990731925,1.0122909661567112
1592296345.3465595,-0.2388925908297636,9.99510074567666,0.1260233222275107,-0.2996084756817741,-0.6892337863803832,-0.047703210111587076,-0.3865146786212817,-0.3936691128800493,0.6882684479751637
1592296345.3565595,-0.33,9.74,0.7,-0.38666666666666666,-0.67,-0.035555555555555556,-0.31197760379398637,-0.4036073895236887,0.7548549014875475
1592296345.3665595,-0.0941075080338884,9.583538629060103,0.9863113164953655,-0.38666666666666666,-0.67,-0.035555555555555556,-0.3137405240068904,-0.3280686397857766,0.9032310933742734
1592296345.3765595,0.21,9.86,0.62,-0.38666666666666666,-0.67,-0.035555555555555556,-0.26398104936414235,-0.3665191429188092,1.1181015520588673
1592296345.3865595,0.4923908093562409,9.967794245497826,0.7746632167253157,-0.38666666666666666,-0.67,-0.035555555555555556,-0.26781268562939115,-0.3832534264425398,0.8061223225183203
1592296345.3965595,0.8010144210646474,9.482601879684944,0.6654244511243864,-0.3879725530484634,-0.6681918496252045,-0.034852385965357315,-0.21494413598436207,-0.3003345074395696,1.1022081131075476
1592296345.4065595,0.61,9.71,0.72,-0.4011111111111111,-0.65,-0.027777777777777776,-0.30325095753401476,-0.19416787928436915,1.150826475533761
1592296345.4165595,0.992865552154462,9.9423585275881,0.7974332208356225,-0.4011111111111111,-0.65,-0.027777777777777776,-0.27293880118036695,-0.06009346626967388,0.9330084613758788
1592296345.4265594,0.93,10.11,1.0,-0.4011111111111111,-0.65,-0.027777777777777776,-0.22798363354175932,-0.10581058590215622,0.789761486527434
1592296345.4365594,0.9891995017892093,9.511397758051443,0.97,-0.4011111111111111,-0.65,-0.027777777777777776,-0.17285120707564983,-0.06274290187182976,1.1953306504913388
1592296345.4465594,0.9432052161976664,9.294807824296498,0.9755200945626478,-0.4019025225179423,-0.6495251531559013,-0.02803498648499792,0.009464764275154372,0.09894770218824131,1.0269154440519168
1592296345.4565594,1.12,9.56,1.28,-0.44555555555555554,-0.6233333333333333,-0.042222222222222223,0.05017821599483697,-0.15926129424448257,1.1115565673638887
1592296345.4665594,1.25,9.562622337831247,0.7458039343196228,-0.44555555555555554,-0.6233333333333333,-0.042222222222222223,0.20724649878486479,-0.09388007865753477,1.1348302250734814
1592296345.4765594,1.243252227634549,9.51,0.4641038374717833,-0.44555555555555554,-0.6233333333333333,-0.042222222222222223,0.3125013373520504,-0.07613610066251128,1.133521780682252
1592296345.4865594,1.2024161121715398,9.570183027989367,0.657705906488039,-0.44555555555555554,-0.6233333333333333,-0.042222222222222223,0.23876882228505958,-0.1392023800785886,0.9401763429730284
1592296345.4965594,1.1201118504379473,9.749755962680842,0.8597254580159481,-0.44555555555555554,-0.6233333333333333,-0.042222222222222223,0.11797388328516961,-0.2583649550379395,0.8226461320542167
1592296345.5065594,1.6481819425444597,9.470908344733243,0.23151573187414504,-0.46555555555555556,-0.6133333333333333,-0.03,-0.07363674834788628,-0.24415881858535754,0.9326382338147968
1592296345.5165594,1.8082991216695619,9.334183201624544,0.5142176987253199,-0.46555555555555556,-0.6133333333333333,-0.03,-0.1550686427768182,-0.19603058900629658,0.8736553489758508
1592296345.5265594,2.0831502268369113,9.735207894859922,0.5452048547776063,-0.46555555555555556,-0.6133333333333333,-0.03,-0.12102295863934928,-0.06943907547649666,0.8142076824016764
1592296345.5365593,2.1794001964812004,9.381733857283201,0.7038894346700009,-0.46555555555555556,-0.6133333333333333,-0.03,-0.031144392771766994,-0.08512770555170235,0.8914561614506474
1592296345.5465593,2.2468266499955347,9.561537733321426,0.8911851388764848,-0.46555555555555556,-0.6133333333333333,-0.03,-0.018068685918788845,0.16494518801150476,0.9453934522191824
1592296345.5565593,2.27,10.03,0.48,-0.48444444444444446,-0.5844444444444444,-0.024444444444444446,-0.05235987755982988,0.025089107997418484,0.8759371183446542
1592296345.5665593,2.103544942567191,9.538069588491133,0.14648405263744843,-0.48444444444444446,-0.5844444444444444,-0.024444444444444446,-0.055956139967274006,0.03284760696370239,0.8153694599196383
1592296345.5765593,1.9132565579014715,9.311784791829579,0.29426411696405297,-0.48444444444444446,-0.5844444444444444,-0.024444444444444446,-0.11512954958069394,-0.0019190670786209951,0.6746071999722881
1592296345.5865593,2.0721090144509184,9.764103276848239,0.4519655743839205,-0.48444444444444446,-0.5844444444444444,-0.024444444444444446,-0.19859066057375446,0.08278886862333987,0.7478435424621894
1592296345.5965593,1.9301092282746208,9.629577163628587,0.4968076121238039,-0.48444444444444446,-0.5844444444444444,-0.024444444444444446,-0.12114179163924434,-0.052542839199067215,0.7869756025554155
1592296345.6065593,2.19,9.27,0.67,-0.5244444444444445,-0.5633333333333334,-0.022222222222222223,0.1090830782496456,0.17016960206944715,0.7166758241001715
1592296345.6165593,2.4223847252162716,9.39486743749825,0.8339351605588062,-0.5244444444444445,-0.5633333333333334,-0.022222222222222223,-0.36228958161942715,-0.08052343099344432,0.6908512703482784
1592296345.6265593,2.712352058676446,9.091552163455814,0.4055040125735242,-0.5244444444444445,-0.5633333333333334,-0.022222222222222223,-0.08774035172326283,-0.05325349482338954,0.6038638725343589
1592296345.6365592,2.8608927058325095,9.618519453467025,0.491947111989832,-0.5244444444444445,-0.5633333333333334,-0.022222222222222223,-0.17455736144189496,-0.04738820945595922,0.6785432314167383
1592296345.6465592,2.6313642140940545,9.418607541307725,0.6548382996751871,-0.5244444444444445,-0.5633333333333334,-0.022222222222222223,-0.06875299532406912,0.09476116792371522,0.6575438915765592
1592296345.6565592,2.572325886396527,9.678217257597685,0.7867060871924747,-0.5366666666666666,-0.5455555555555556,-0.024444444444444446,-0.28256244304719785,-0.05553967494348465,0.5788923821651965
1592296345.6665592,2.6302593486127868,9.704870325693607,0.9053890229191798,-0.5366666666666666,-0.5455555555555556,-0.024444444444444446,-0.17769850560352324,-0.0946193726269664,0.49387495261457376
1592296345.6765592,2.727754463250638,9.630169255738465,0.9114827266403895,-0.5366666666666666,-0.5455555555555556,-0.024444444444444446,-0.22873226769807495,-0.009558490091094031,0.5582284165837376
1592296345.6865592,2.97384540921627,9.418718196927909,0.7478962941316141,-0.5366666666666666,-0.5455555555555556,-0.024444444444444446,-0.12513387689544858,0.10551599723802238,0.8221886136569465
1592296345.6965592,3.3185760990666835,9.303807966977772,1.2764833519022485,-0.5366666666666666,-0.5455555555555556,-0.024444444444444446,-0.247138889854049,0.09214558485899768,0.567315127681788
1592296345.7065592,2.85,8.53,1.73,-0.5344444444444445,-0.5044444444444445,-0.013333333333333334,0.06544984694978735,-0.10799224746714915,0.4570580978660151
1592296345.7165592,3.54079864432722,9.507882034602455,0.21023423620411621,-0.5344444444444445,-0.5044444444444445,-0.013333333333333334,0.05925333658136774,0.043677714846677734,0.5502266207615041
1592296345.7265592,3.2970127622755783,8.876557430240105,1.1077557862859615,-0.5344444444444445,-0.5044444444444445,-0.013333333333333334,-0.04377787314923534,0.2087424922571663,0.36719787420711786
1592296345.7365592,3.353482856808519,9.247906541326989,0.2111713539025627,-0.5344444444444445,-0.5044444444444445,-0.013333333333333334,0.004463909156815079,0.22785926257880587,0.3239284917439075
1592296345.7465591,3.0426364239185553,9.223366033467254,0.6938013418106642,-0.5344444444444445,-0.5044444444444445,-0.013333333333333334,-0.04550590144064047,0.36706087781457486,0.46402242502605967
1592296345.7565591,3.02,9.26,0.8,-0.5577777777777778,-0.4922222222222222,-0.008888888888888889,-0.0545415391248228,0.23125612588924865,0.3741549583962844
1592296345.7665591,2.9405761749553148,9.4013305646094,1.0970507833035434,-0.5577777777777778,-0.4922222222222222,-0.008888888888888889,0.018575548771307803,0.04743688862068761,0.18038961757673144
1592296345.776559,2.8428031067414414,9.490703005842738,0.9303515029213694,-0.5577777777777778,-0.4922222222222222,-0.008888888888888889,-0.004171608026602234,0.20974625440473327,0.10395289470612543
1592296345.786559,3.4349256061884166,9.271897087064989,0.9024116517400433,-0.5577777777777778,-0.4922222222222222,-0.008888888888888889,-0.0416260494077409,0.15524963223256127,0.2920308886777586
1592296345.796559,3.2015618213471653,9.151451262630795,1.3841949494768202,-0.5577777777777778,-0.4922222222222222,-0.008888888888888889,0.07333671189374408,0.3753212038668326,0.08674024349653536
1592296345.806559,3.26,8.91,0.9,-0.5577777777777778,-0.4722222222222222,-0.0011111111111111111,0.05890486225480862,0.41233403578366035,0.11344640137963141
1592296345.816559,2.851259077278803,8.890536146537086,1.0167831207774847,-0.5577777777777778,-0.4722222222222222,-0.0011111111111111111,0.15975577214570671,0.19152362254885186,-0.07551635610015658
1592296345.826559,3.358928009025313,9.587356805415187,1.0143808024067502,-0.5577777777777778,-0.4722222222222222,-0.0011111111111111111,0.13041379771441777,0.3979375153441153,0.10261280342610773
1592296345.836559,3.2060915223466173,9.534864816759518,0.992432408379759,-0.5577777777777778,-0.4722222222222222,-0.0011111111111111111,0.07467089391896801,0.35145844384042363,-0.028951254348154695
1592296345.846559,3.0194558852321878,9.728965879358524,1.0894829396792625,-0.5577777777777778,-0.4722222222222222,-0.0011111111111111111,0.027438501565508186,0.25943671391040707,0.034568169851325756
1592296345.856559,2.71,9.6,1.26,-0.5722222222222222,-0.4777777777777778,0.01,-0.2617993877991494,0.00545415391248228,-0.5017821599483697
1592296345.866559,2.467955569864778,9.776878622021892,0.7200547327752737,-0.5722222222222222,-0.4777777777777778,0.01,-0.05260677197067826,0.37611097322021037,-0.11183087607393799
1592296345.876559,2.4000648582114286,9.285901387113572,1.035227003739999,-0.5722222222222222,-0.4777777777777778,0.01,-0.009015272555638583,0.18714043061242347,-0.2712984928407611
1592296345.886559,2.4877806158649074,8.990012771392083,1.2355484603377325,-0.5722222222222222,-0.4777777777777778,0.01,-0.04809701550233451,0.12176315408035082,0.07791050279550765
1592296345.896559,2.636577976443877,9.659600893997446,0.8635550588903079,-0.5722222222222222,-0.4777777777777778,0.01,-0.23151041314168883,0.2370052003847239,0.12741588888400596
1592296345.906559,2.65,9.54,1.18,-0.56,-0.46555555555555556,-0.008888888888888889,-0.1712604328519436,0.18980455615438332,-0.074176493209759
1592296345.916559,2.818012515934639,9.689344458608566,1.011987484065361,-0.56,-0.46555555555555556,-0.008888888888888889,-0.2740970753344115,-0.004668698441174873,0.07855119364539143
1592296345.926559,2.805556621880998,9.350019193857966,1.0935547024952017,-0.56,-0.46555555555555556,-0.008888888888888889,-0.2598157926295964,0.023735095968550043,0.38545207097424244
1592296345.936559,2.76,8.53,1.13,-0.56,-0.46555555555555556,-0.008888888888888889,-0.08290313946973066,-0.12435470920459597,0.34470252726888007
1592296345.946559,3.1915967651486086,9.057507157403855,1.0614925769605383,-0.56,-0.46555555555555556,-0.008888888888888889,-0.07991393923449258,-0.14527911085126244,0.18029651433078636
1592296345.956559,3.21,9.23,1.39,-0.5644444444444444,-0.4722222222222222,-0.02666666666666667,-0.12980886311707826,0.10799224746714915,0.28579766501407144
1592296345.966559,3.058383442265795,9.248952069716776,1.6648050108932462,-0.5644444444444444,-0.4722222222222222,-0.02666666666666667,-0.07709143546743008,0.16691172542852062,-0.0015639994291087866
1592296345.976559,2.81,8.77,1.32,-0.5644444444444444,-0.4722222222222222,-0.02666666666666667,-0.06763150851478027,0.07744898555724837,0.1908953869368798
1592296345.986559,3.1009130296525957,9.220445981397567,1.4513800779076238,-0.5644444444444444,-0.4722222222222222,-0.02666666666666667,0.2619893878185826,0.04673896415973009,0.217510738814729
1592296345.996559,2.7689648912749605,9.554230427561702,1.561410142520567,-0.5644444444444444,-0.4722222222222222,-0.02666666666666667,0.1687400327487995,-0.019946854756320916,-0.09729013198120345
1592296346.006559,2.78,9.25,1.24,-0.5722222222222222,-0.4533333333333333,0.008888888888888889,0.21707532571679475,0.10799224746714915,0.23234695667174513
1592296346.016559,2.953818420190102,9.134121053206599,1.124121053206599,-0.5722222222222222,-0.4533333333333333,0.008888888888888889,0.07532190724347182,0.02853810208082802,-0.032199231944074064
1592296346.0265589,3.16,9.17,0.77,-0.5722222222222222,-0.4533333333333333,0.008888888888888889,0.14726215563702155,0.06872233929727672,0.006544984694978735
1592296346.0365589,3.0502043443950657,9.178445819661917,0.9726996718860323,-0.5722222222222222,-0.4533333333333333,0.008888888888888889,0.2117528761314594,0.1212362116998904,-0.0026679753756552434
1592296346.0465589,3.0074687401698648,9.240083359547027,1.0325312598301353,-0.5722222222222222,-0.4533333333333333,0.008888888888888889,0.15316397394384623,-0.005916680404423558,-0.07645817905065556
1592296346.0565588,2.88,8.83,1.2,-0.56,-0.44555555555555554,0.03,0.11344640137963141,0.03381575425739013,0.06326818538479445
1592296346.0665588,2.691403684021257,9.056315579174491,0.8039477364446399,-0.56,-0.44555555555555554,0.03,0.21322383484312635,0.00295675421713398,0.0138937853203846
1592296346.0765588,2.7823084339562003,9.553639869611128,1.0404214682521464,-0.56,-0.44555555555555554,0.03,0.047796978622110325,-0.14196160247794437,-0.23664342065409616
1592296346.0865588,2.839740409207161,9.480571099744246,0.9207268542199489,-0.56,-0.44555555555555554,0.03,-0.1246130212817094,-0.08869143354287687,-0.09464962939263186
1592296346.0965588,2.7306867583956165,9.387504180180905,0.9115912891073551,-0.56,-0.44555555555555554,0.03,0.020396902869591393,-0.15531640236672817,-0.05161803615376781
1592296346.1065588,2.94,9.77,0.81,-0.5522222222222222,-0.4533333333333333,0.03888888888888889,-0.0370882466048795,-0.08835729338221293,-0.3403392041388943
1592296346.1165588,2.786322728575523,8.974494124390944,0.9003983949555747,-0.5522222222222222,-0.4533333333333333,0.03888888888888889,0.06349329233904995,0.016168619637949036,-0.15199534199879108
1592296346.1265588,2.9887281640544083,9.609980206679095,0.9282273470045341,-0.5522222222222222,-0.4533333333333333,0.03888888888888889,0.01055104938323001,-0.0681673961773821,-0.2741536257319719
1592296346.1365588,2.6995011411803067,9.059002282360613,0.8856430201686152,-0.5522222222222222,-0.4533333333333333,0.03888888888888889,-0.1746647252390154,-0.09099705408247008,-0.19411056608288535
1592296346.1465588,2.754784001572327,9.410173545597484,0.8872910770440252,-0.5522222222222222,-0.4533333333333333,0.03888888888888889,-0.039169079216057945,-0.029093966294791468,-0.19489407072038958
1592296346.1565588,2.462926932282134,9.242926932282135,1.1278713219766294,-0.5456146855006492,-0.42690318644704117,0.0510027062117728,0.030446510763487596,-0.06167424864094949,-0.3747692513893839
1592296346.1665587,2.5538033246545164,9.513593030242339,0.8642239134788704,-0.5455555555555556,-0.4266666666666667,0.051111111111111114,0.06465111325445247,-0.14829967924729107,-0.3985067233352359
1592296346.1765587,2.6380236379054485,9.60934121263515,0.5095524167903328,-0.5455555555555556,-0.4266666666666667,0.051111111111111114,-0.22436006689245153,0.005926752822357051,-0.21692610829843437
1592296346.1865587,2.383283651824511,9.48639583235995,1.365229173480353,-0.5455555555555556,-0.4266666666666667,0.051111111111111114,-0.23245429160740544,-0.0025211477978672216,-0.44907790339506565
1592296346.1965587,2.2258255589512626,9.303786794273766,0.7131568682644363,-0.5455555555555556,-0.4266666666666667,0.051111111111111114,0.020158634449132545,0.05439314437907785,-0.28492962374196185
1592296346.2065587,1.8,9.73,1.26,-0.5377777777777778,-0.4388888888888889,0.06555555555555556,-0.06763150851478027,-0.17016960206944715,-0.32070425005395803
1592296346.2165587,1.840682412553122,9.41132110166721,1.32780402092187,-0.5377777777777778,-0.4388888888888889,0.06555555555555556,0.15573588534502014,-0.024463057068186606,-0.4582748966033715
1592296346.2265587,1.9800932906655095,9.527900417638445,0.9997201280034713,-0.5377777777777778,-0.4388888888888889,0.06555555555555556,0.12072089432151481,-0.023799777606782112,-0.3321351058786519
1592296346.2365587,2.027345103185017,9.148540140761064,0.652566622927353,-0.5377777777777778,-0.4388888888888889,0.06555555555555556,0.14880183667612584,0.009247897595832832,-0.25523514472938724
1592296346.2465587,2.30060373931413,9.715328226491087,0.8774091330872046,-0.5377777777777778,-0.4388888888888889,0.06555555555555556,0.0698176496123147,0.05079460397978951,-0.16908325081949216
1592296346.2565587,2.0122404281597364,9.798060107039934,1.2007451626183614,-0.5117745757284663,-0.4342454599515118,0.08134321394263758,0.16707566646099464,0.10047023047476436,-0.1241105858561542
1592296346.2665586,1.7318599318804122,9.403746799937668,0.9538006722913559,-0.5066666666666667,-0.43333333333333335,0.08444444444444445,0.1908953869368798,-0.03522112681601973,-0.19771083919169571
1592296346.2765586,2.086685408497941,9.293732583660082,0.7498606692806589,-0.5066666666666667,-0.43333333333333335,0.08444444444444445,0.10483214423483007,-0.010571005978358479,-0.2800700703749961
1592296346.2865586,1.8945746346555326,9.608045407098121,1.0054253653444678,-0.5066666666666667,-0.43333333333333335,0.08444444444444445,0.03171038252791628,0.061984352704977375,-0.31409493139320577
1592296346.2965586,1.8827487118127255,9.660219233070228,0.8853795086554606,-0.5066666666666667,-0.43333333333333335,0.08444444444444445,0.16923874239906042,0.0723903280631377,-0.3940437316283067
1592296346.3065586,1.834779631859625,9.257182521933597,0.8902938241871667,-0.4899510293021389,-0.43797656593459106,0.10858925397098457,-0.02333443359266857,-0.16157862941273454,-0.4923200989564863
1592296346.3165586,1.562192864424057,9.473780224260958,1.3236905198776758,-0.4866666666666667,-0.4388888888888889,0.11333333333333333,0.009971060679245275,-0.2706967418488549,-0.5804828988475874
1592296346.3265586,1.3986208099621587,9.782070529508065,1.1517178819677412,-0.4866666666666667,-0.4388888888888889,0.11333333333333333,0.03565843593374543,-0.2641684412172531,-0.7923967704582997
1592296346.3365586,1.4595286473715299,9.648472533963378,1.2207040756054341,-0.4866666666666667,-0.4388888888888889,0.11333333333333333,0.06005948054319235,-0.27641626255730545,-0.7921488144750454
1592296346.3465586,1.8004348116930897,9.310616763663122,1.1778968492875779,-0.4866666666666667,-0.4388888888888889,0.11333333333333333,0.061507853469820566,-0.3008012766055788,-0.7745472101109172
1592296346.3565586,1.8499348855564326,9.354104183109706,1.3611888318863457,-0.49267100762957117,-0.44489322985179336,0.10732899237042884,0.12189764945763698,-0.19725386711863174,-0.8523207825708411
1592296346.3665586,1.6329370442484634,9.399580422250219,1.3663356621998244,-0.49333333333333335,-0.44555555555555554,0.10666666666666667,0.14271575717699128,-0.2686906997108365,-0.8658282450136691
1592296346.3765585,1.5127928804162818,9.457988134027136,1.2588284783348733,-0.49333333333333335,-0.44555555555555554,0.10666666666666667,0.19140655969475248,-0.30461031846391173,-0.9597283382564299
1592296346.3865585,1.5450120914267884,9.520024182853577,1.1299516342928466,-0.49333333333333335,-0.44555555555555554,0.10666666666666667,0.2540059483089241,-0.2723317749761065,-1.1729141466211277
1592296346.3965585,1.2692354776290329,9.27731192986613,0.9976941910516132,-0.49333333333333335,-0.44555555555555554,0.10666666666666667,0.3367193629774942,-0.1279022461576313,-1.1944180086068115
1592296346.4065585,1.2558628325294992,9.373582370249038,0.966286589619923,-0.48247560692005137,-0.4573180925032777,0.12928693002767078,0.32230689478809266,-0.2046315760369157,-1.0537820767289316
1592296346.4165585,1.2905676510173383,9.493973557121368,0.8590396643179479,-0.48,-0.46,0.13444444444444445,0.3269633785308968,-0.18720386909998554,-1.1252178173829503
1592296346.4265585,0.7906913447301117,9.543831471261273,0.7114944137838202,-0.48,-0.46,0.13444444444444445,0.40647843734845024,-0.02670275639791965,-1.1933480549709023
1592296346.4365585,0.5458454737742711,9.71381633671602,0.7082769684150486,-0.48,-0.46,0.13444444444444445,0.34540695139659816,-0.05127604642824186,-1.1716629326594459
1592296346.4465585,0.2449043512736644,9.736245217563683,0.7168773912181584,-0.48,-0.46,0.13444444444444445,0.4157047018203664,-0.05167445654064483,-1.132269831842322
1592296346.4565585,0.14537641701385523,9.746917611342571,0.6269531376158641,-0.43018703326909896,-0.46469933648404727,0.15888099416149024,0.4382676102041141,-0.017378921697288833,-1.2008094461002934
1592296346.4665585,0.06818505478855967,9.619096087661696,0.6427259780845761,-0.4211111111111111,-0.46555555555555556,0.16333333333333333,0.44476108335794196,0.05106821895733507,-1.2055667711989604
1592296346.4765584,0.023215674315773423,9.71894106884196,0.3759347920002033,-0.4211111111111111,-0.46555555555555556,0.16333333333333333,0.46957768952273454,0.025967516318318784,-1.2135242831853175
1592296346.4865584,-0.13944813440125023,9.602482906817738,0.29,-0.4211111111111111,-0.46555555555555556,0.16333333333333333,0.5229216678015842,0.031438471934762575,-1.128678924114108
1592296346.4965584,-0.2574927817110311,9.662290471858562,0.1877095281414389,-0.4211111111111111,-0.46555555555555556,0.16333333333333333,0.5263920582989431,0.08517859789906511,-1.1092220005149829
1592296346.5065584,-0.535789197692711,10.026014682747771,-0.16845831148400628,-0.40599836858358096,-0.47647031404766066,0.18600244712462854,0.5231640449246243,0.06369090376353848,-1.0585119889930212
1592296346.5165584,-0.704165967812787,10.016333612874885,-0.19466674653568147,-0.4011111111111111,-0.48,0.19333333333333333,0.46733040355750055,-0.013053421048177413,-1.010127644105293
1592296346.5265584,-1.0008921386352916,9.84910786136471,-0.140584676859894,-0.4011111111111111,-0.48,0.19333333333333333,0.3064195338486404,-0.022773290924807725,-0.9241217084273237
1592296346.5365584,-0.8907302321805488,9.851833089787304,-0.18968704335119338,-0.4011111111111111,-0.48,0.19333333333333333,0.2749348748885876,-0.019343959609267807,-0.9564196283271182
1592296346.5465584,-0.68,9.941448072512832,-0.32736922572895055,-0.4011111111111111,-0.48,0.19333333333333333,0.23660938063467027,0.003560299180569132,-0.9091193640183033
1592296346.5565584,-0.7631134924500731,10.000223088163663,-0.4128904042864101,-0.3666903718136061,-0.49007436272122096,0.21096346809547006,0.15496885120528342,0.020628444292979012,-0.8240861534606524
1592296346.5665584,-0.766927897168106,10.029226752359913,-0.4684535047198233,-0.35555555555555557,-0.49333333333333335,0.21666666666666667,0.08761183027304997,-0.06543275821690231,-0.8531071846519046
1592296346.5765584,-0.6802225130890053,10.095555347793567,-0.5442221391174271,-0.35555555555555557,-0.49333333333333335,0.21666666666666667,0.05963181081666676,-0.15911606770799464,-0.7516317698448757
1592296346.5865583,-0.66,10.049913135797702,-0.43733712962069304,-0.35555555555555557,-0.49333333333333335,0.21666666666666667,0.04740613081935857,0.001027766634372207,-0.7199909558132541
1592296346.5965583,-0.6543009280115326,10.007203712046131,-0.2860185602306514,-0.35555555555555557,-0.49333333333333335,0.21666666666666667,0.07065855165097072,0.016760424797586014,-0.7415775674878279
1592296346.6065583,-0.5621323657071426,9.939789923261225,-0.16861870203826523,-0.34160831201700675,-0.5114647499334468,0.2173640288435941,0.0357453418317058,-0.06925284993791166,-0.65738139295068
1592296346.6165583,-0.4874141283214517,9.896448476992871,-0.13870706416072587,-0.3333333333333333,-0.5222222222222223,0.21777777777777776,-0.007883956504472116,-0.06934728706897268,-0.6036168337826323
1592296346.6265583,-0.3967203722553439,9.830080558383015,-0.1265592554893122,-0.3333333333333333,-0.5222222222222223,0.21777777777777776,-0.08270981322897061,0.06866961395888763,-0.526838655642621
1592296346.6365583,-0.6077746458686668,10.618507034851778,0.06325633614408907,-0.3333333333333333,-0.5222222222222223,0.21777777777777776,0.08868576990907795,0.2700626596281167,-0.45691306372762613
1592296346.6465583,-1.6238040845834085,10.902285559371046,-0.05485884691848905,-0.3333333333333333,-0.5222222222222223,0.21777777777777776,0.07143748868034941,0.2574842875517587,-0.31502633092583626
1592296346.6565583,-1.5239893272962486,9.301560478654592,0.030667529107373803,-0.32033408796895213,-0.5237515452062671,0.22924770015811413,-0.16440936640182452,-0.08606136270646625,0.09601738090297264
1592296346.6665583,-0.8904133290611982,9.18784043575777,0.2683130406920859,-0.31444444444444447,-0.5244444444444445,0.23444444444444446,-0.13321504427402128,-0.04222591629001461,0.05781927417072211
1592296346.6765583,-1.5811663922617822,9.911909343486315,-0.040928689030664794,-0.31444444444444447,-0.5244444444444445,0.23444444444444446,-0.12298468837643536,0.07950908201239937,-0.08680938676658975
1592296346.6865582,-1.1391318574775795,9.762738547305485,-0.10713743233416823,-0.31444444444444447,-0.5244444444444445,0.23444444444444446,-0.09405192009020637,0.010678322939538,-0.10069160444389015
1592296346.6965582,-0.5852117943811429,9.801270766286857,-0.07732973819257198,-0.31444444444444447,-0.5244444444444445,0.23444444444444446,-0.048032798437751656,-0.07320207969873538,0.0014505193531187122
1592296346.7065582,-0.3706508043305401,9.884837298917365,-0.19093033213040556,-0.2981963558763363,-0.5325684887284985,0.22564339647005255,-0.14669398819385385,0.03367377077796311,0.07352709226743605
1592296346.7165582,-0.23281415143813788,9.911557545685586,-0.22718584856186214,-0.2877777777777778,-0.5377777777777778,0.22,-0.17105193891320186,0.08983804919450894,0.052205509316455914
1592296346.7265582,-0.30965021386024294,9.833013461387075,-0.18834081188170773,-0.2877777777777778,-0.5377777777777778,0.22,-0.14137460623061976,0.0685609287437986,0.04288969511664356
1592296346.7365582,-0.39008792469059106,9.786637358436469,-0.08982415061881781,-0.2877777777777778,-0.5377777777777778,0.22,-0.19102007118362951,-0.013523914354084343,0.01585178800608937
1592296346.7465582,-0.40254337597412143,9.782982649610352,-0.017190854286134392,-0.2877777777777778,-0.5377777777777778,0.22,-0.23080714661150964,-0.015136740690565803,-0.01615186611659434
1592296346.7565582,-0.3908921175465124,9.762929458944186,0.27503319965814216,-0.29532918428914745,-0.5425832182850131,0.22961088101447052,-0.2913142811980384,0.08406367556552581,0.023623503586013582
1592296346.7665582,-0.38415179289274803,9.727075896446374,0.3710178485287024,-0.3,-0.5455555555555556,0.23555555555555555,-0.2891071673784617,0.10702656667071334,0.04024970890166615
1592296346.7765582,-0.39514948360210184,9.69,0.5329852716589444,-0.3,-0.5455555555555556,0.23555555555555555,-0.2545257237366899,0.08143361113708686,0.12541730426161174
1592296346.7865582,-0.3861099194432528,9.619720911387578,0.6502790886124219,-0.3,-0.5455555555555556,0.23555555555555555,-0.22458983378135394,0.06345038048760523,0.09105228860944886
1592296346.7965581,-0.3616952537593985,9.582126409774435,0.6953160244360902,-0.3,-0.5455555555555556,0.23555555555555555,-0.22143864884678055,0.06575715571581492,0.04195930840500759
1592296346.8065581,-0.45439434803001877,9.588788696060037,0.8633243433395872,-0.3,-0.5424413044611216,0.21188724723785698,-0.09363895839809616,0.007832543636888834,-0.02716357957698315
1592296346.8165581,-0.44461011928588584,9.570298214714594,0.9761696421423425,-0.3,-0.54,0.19333333333333333,0.01289478831567362,0.024853930085540897,-0.0953377021650571
1592296346.826558,-0.3286586251186687,9.550365778745741,0.994756240576311,-0.3,-0.54,0.19333333333333333,0.07502786144654744,0.073192022540416,0.007848718453117402
1592296346.836558,-0.2761446615824595,9.569276692087703,0.9061446615824595,-0.3,-0.54,0.19333333333333333,0.11842790528123266,-0.01951848788127597,0.0016301109005161518
1592296346.846558,-0.2843797867272528,9.55656968009088,0.9019703910000367,-0.3,-0.54,0.19333333333333333,0.14358373465175683,-0.08913685224916468,0.01990557317678644
1592296346.856558,-0.3833870915192389,9.66169354575962,0.6915322712019027,-0.3114493713731325,-0.5478337804131959,0.21261648511966175,0.21311666160643894,0.07478788870551656,-0.01974491500244326
1592296346.866558,-0.42363938008335694,9.687278760166715,0.5745243394165014,-0.3211111111111111,-0.5544444444444444,0.2288888888888889,0.24206608988774936,0.026848438444096095,-0.04622274607693658
1592296346.876558,-0.4510227791588453,9.753068337476536,0.3222152605144336,-0.3211111111111111,-0.5544444444444444,0.2288888888888889,0.2669685344299181,-0.05223563652149066,-0.1044966193216269
1592296346.886558,-0.41935343279293086,9.803226609832612,0.09386695083694532,-0.3211111111111111,-0.5544444444444444,0.2288888888888889,0.23864406921233536,0.011929288239578752,-0.030329635766093294
1592296346.896558,-0.38926985546118315,9.820730144538818,0.006714349575324095,-0.3211111111111111,-0.5544444444444444,0.2288888888888889,0.20819800144529363,0.018845479325498675,0.02285201903012617
1592296346.906558,-0.3664487051608851,9.857756474195574,-0.1190642432302634,-0.31598146301016744,-0.5493147963435008,0.221391710895202,0.24979041644164485,-0.021726871656703672,0.05637639476000062
1592296346.916558,-0.3610285440330432,9.892057088066087,-0.19411417613217288,-0.30666666666666664,-0.54,0.20777777777777778,0.20902238292025682,0.07929457984251805,0.05304593111362449
1592296346.926558,-0.3749663105071749,9.8901347579713,-0.24986524202869953,-0.30666666666666664,-0.54,0.20777777777777778,0.10701686250680292,-0.05698044744055808,-0.039505105199122585
1592296346.936558,-0.3820041031417193,9.86599179371656,-0.25396717486624565,-0.30666666666666664,-0.54,0.20777777777777778,0.1536620267957472,-0.008269277530498997,0.00022756540641323542
1592296346.946558,-0.396201020824034,9.822402041648068,-0.06821122906437402,-0.30666666666666664,-0.54,0.20777777777777778,-0.01430902735528198,0.013545231989712664,0.04145156973486533
1592296346.956558,-0.4060762701637234,9.777847459672554,0.09243855344140955,-0.2990750946449084,-0.5426793783606205,0.21894185428036347,-0.023528665764973235,-0.07338887819246029,-0.007650603279627376
1592296346.966558,-0.43,9.73,0.23855699690047066,-0.2877777777777778,-0.5466666666666666,0.23555555555555555,0.004956219484578852,-0.039101481192205356,-0.0729429482174376
1592296346.976558,-0.44510553851704854,9.71489446148295,0.29,-0.2877777777777778,-0.5466666666666666,0.23555555555555555,0.0640136421778842,-0.10321782105290658,0.034237878022220544
1592296346.986558,-0.4162582573894595,9.710935435652635,0.31187087130527025,-0.2877777777777778,-0.5466666666666666,0.23555555555555555,0.016464501937940745,-0.07863325676045485,-0.013546941174437402
1592296346.996558,-0.3784128135725647,9.719867734464382,0.33013226553561964,-0.2877777777777778,-0.5466666666666666,0.23555555555555555,0.01966076608101727,-0.04388419817213224,-0.10034504792536461
1592296347.006558,-0.27778447044287424,9.715081277269393,0.32983744546121474,-0.2877777777777778,-0.5449729075768691,0.23555555555555555,0.16938480536029787,-0.14509822602150277,0.0543996835290296
1592296347.016558,-0.33,9.73,0.3,-0.2877777777777778,-0.54,0.23555555555555555,0.12544553998709243,-0.148352986419518,0.028361600344907853
1592296347.026558,-0.37318804231889074,9.76206837902505,0.157589725849693,-0.2877777777777778,-0.54,0.23555555555555555,0.05446694917941988,-0.0889782263762795,0.02417450067783852
1592296347.036558,-0.4407491516575307,9.794625424171235,0.0038762725137039926,-0.2877777777777778,-0.54,0.23555555555555555,0.04619871951450012,-0.02783910635224772,0.13567161587395687
1592296347.046558,-0.411136259231775,9.8,0.01245450369270999,-0.2877777777777778,-0.54,0.23555555555555555,0.12343770440229909,-0.006475754966530255,0.05367341143592942
1592296347.056558,-0.3720958225159311,9.8,0.002634725828022972,-0.2909979982342503,-0.54,0.2337990716702069,0.1494308587055817,-0.098102855060372,-0.030033847109735633
1592296347.066558,-0.35,9.8,0.01,-0.3,-0.54,0.2288888888888889,-0.015271630954950384,-0.19853120241435498,0.08726646259971647
1592296347.0765579,-0.3670560269911052,9.773177589203558,0.07658879460177896,-0.3,-0.54,0.2288888888888889,-0.033581439210459856,0.0655723019338566,0.05172797415387702
1592296347.0865579,-0.3961455005007392,9.752291001001478,0.09312699699556488,-0.3,-0.54,0.2288888888888889,0.06256231086108352,-0.028135360511197277,-0.006085534198006601
1592296347.0965579,-0.37861548209948254,9.731461611574613,0.1499229063259056,-0.3,-0.54,0.2288888888888889,0.045160325275227654,-0.03262435369211626,0.055901131995772554
1592296347.1065578,-0.34640876777251184,9.711026066350712,0.20153909952606636,-0.299714981569247,-0.54,0.2299719589257504,0.0703186486568281,0.0051752424398961005,-0.02310557955915153
1592296347.1165578,-0.2714760647784833,9.73426196761076,0.20869016194620818,-0.29444444444444445,-0.54,0.25,0.14315050881085206,-0.003340664407521253,-0.0011720769362330852
1592296347.1265578,-0.2680254088390323,9.756050817678064,0.1318475469658062,-0.29444444444444445,-0.54,0.25,0.05695997244771399,-0.04291775599407971,0.14587970932705138
1592296347.1365578,-0.290969914790308,9.76903008520969,0.070969914790308,-0.29444444444444445,-0.54,0.25,0.010777036333644963,0.03448223748171259,0.08892760777666042
1592296347.1465578,-0.3072270477088509,9.758318856873448,0.07058933396195623,-0.29444444444444445,-0.54,0.25,0.07142776658460674,0.11829559094859779,0.021744891849589436
1592296347.1565578,-0.3122977854562588,9.777540442908748,0.022459557091251768,-0.29608414917194564,-0.5405465682425005,0.25,0.01308996938995747,0.11081638043694207,-0.05235987755982988
1592296347.1665578,-0.45,9.75,0.05,-0.31444444444444447,-0.5466666666666666,0.25,0.01308996938995747,0.044724062082354694,-0.05235987755982988
1592296347.1765578,-0.515539902408311,9.78,0.01878456372317541,-0.31444444444444447,-0.5466666666666666,0.25,-0.08343347359169992,0.08156079203506564,-0.025796410941439224
