time,acc_x,acc_y,acc_z,mag_x,mag_y,mag_z,gyr_x,gyr_y,gyr_z
1592296477.2864337,-0.41324346451895433,9.786621732259476,0.1429738580758173,-0.48444444444444446,-0.5966666666666667,-0.027777777777777776,0.04661252172513549,0.057490526964245586,0.07784601381714826
1592296477.2964337,-0.38465734418927305,9.745821680236592,0.2495209755741356,-0.47855400180932334,-0.5966666666666667,-0.027777777777777776,-0.07556710431646776,0.027838309036308753,0.09425998270206587
1592296477.3064337,-0.36226213070725155,9.757737869292749,0.29547573858549686,-0.4777777777777778,-0.5966666666666667,-0.027777777777777776,-0.025938452087080816,0.043944601475947025,0.07584768112513102
1592296477.3164337,-0.4540388497129525,9.745991034681627,0.23196712716596324,-0.4777777777777778,-0.5966666666666667,-0.027777777777777776,0.0711397703802313,0.03904391829716763,0.05017495611308468
1592296477.3264337,-0.4307532281205165,9.723584409373506,0.275662362505978,-0.4777777777777778,-0.5966666666666667,-0.027777777777777776,-0.02274598678288821,-0.0037881720359148816,-0.11763978757638043
1592296477.3364336,-0.433378123847065,9.699932814229403,0.3234453096176625,-0.4777777777777778,-0.5966666666666667,-0.027777777777777776,-0.05603018137795103,-0.03972635028587497,-0.10637901509260798
1592296477.3464336,-0.3600179937022042,9.729991003148898,0.34,-0.4733343329834558,-0.5922232218723447,-0.056215824461438496,-0.0418922202264001,-0.07090007524541855,-0.13961358190478032
1592296477.3564336,-0.3747292927819512,9.705270707218048,0.38341161597743906,-0.4722222222222222,-0.5911111111111111,-0.06333333333333334,0.04625607296106614,-0.026018407885105767,-0.06762153714448832
1592296477.3664336,-0.3635578264979967,9.741105433755008,0.2009150047269617,-0.4722222222222222,-0.5911111111111111,-0.06333333333333334,0.05711129935609534,-0.01675056040372647,-0.0204638440492705
1592296477.3764336,-0.34403377110694183,9.773949343339586,0.21588180112570357,-0.4722222222222222,-0.5911111111111111,-0.06333333333333334,0.0776229454381343,-0.011137525550367192,-0.03747300492966249
1592296477.3864336,-0.3527531076687703,9.786376553834385,0.2746358768406961,-0.4722222222222222,-0.5911111111111111,-0.06333333333333334,0.0453421369422477,-0.07102799967984774,-0.004681080530616652
1592296477.3964336,-0.337237693018345,9.782412564339447,0.25447538603668995,-0.47643746425586203,-0.5860528206707434,-0.06333333333333334,0.0753132491631168,-0.01807853708750065,0.06876826446813807
1592296477.4064336,-0.33,9.755827594229874,0.23194253140995813,-0.4777777777777778,-0.5844444444444444,-0.06333333333333334,0.0318623093139935,-0.009519059444967094,0.03938026024624037
1592296477.4164336,-0.3938760279507534,9.742015496506156,0.142170461567714,-0.4777777777777778,-0.5844444444444444,-0.06333333333333334,0.09584097226626488,0.09817487413060705,-0.13973642399998176
1592296477.4264336,-0.4487868882861581,9.747757377657232,0.13551475531446322,-0.4777777777777778,-0.5844444444444444,-0.06333333333333334,0.042854980420981376,0.08338024043580064,-0.057777541479518454
1592296477.4364336,-0.41138746610424826,9.786459400421814,0.15215313347393794,-0.4777777777777778,-0.5844444444444444,-0.06333333333333334,0.03374792653737275,0.12592060106548192,0.0835766305224896
1592296477.4464335,-0.4079974798554233,9.782002520144577,0.17399873992771164,-0.4777777777777778,-0.5929992299558238,-0.04855688563185993,0.04297859537779633,0.04767954541111545,-0.026273008634454947
1592296477.4564335,-0.3821316080309449,9.762426321606188,0.18,-0.4777777777777778,-0.5966666666666667,-0.042222222222222223,0.005629864267850324,-0.015961713534151725,-0.03314064071360895
1592296477.4664335,-0.39285773205880925,9.775238488039205,0.058092095686350625,-0.4777777777777778,-0.5966666666666667,-0.042222222222222223,0.008415365953704401,0.044102401276860936,-0.062438404503762035
1592296477.4764335,-0.3703918722786647,9.809608127721335,0.005195936139332365,-0.4777777777777778,-0.5966666666666667,-0.042222222222222223,0.05992128222921025,0.02883181332371982,-0.04139774063964779
1592296477.4864335,-0.36583048140543006,9.825830481405431,0.011660962810860142,-0.4777777777777778,-0.5966666666666667,-0.042222222222222223,0.04582982552443357,0.007458365706103989,-0.10786245776761187
1592296477.4964335,-0.33199341647148195,9.823665569411913,0.032668861176172695,-0.4608859628762142,-0.5931475385621743,-0.03659161725503436,0.04749156959016586,0.08193539572083551,-0.05484975734332459
1592296477.5064335,-0.33899904489016236,9.81275023877746,0.0037511938872970413,-0.45111111111111113,-0.5911111111111111,-0.03333333333333333,0.045269998405208706,0.13029968487604107,0.024543171674564483
1592296477.5164335,-0.32113856807456065,9.82443071596272,-0.038861431925439324,-0.45111111111111113,-0.5911111111111111,-0.03333333333333333,-0.037863290839555766,0.14034457541093326,0.08091596330381304
1592296477.5264335,-0.36767952635599693,9.8372099407945,-0.013950296027501911,-0.45111111111111113,-0.5911111111111111,-0.03333333333333333,-0.08493412430373798,0.14084373314608534,0.06103230519658826
1592296477.5364335,-0.39,9.822986954565902,0.017013045434098064,-0.45111111111111113,-0.5911111111111111,-0.03333333333333333,-0.07307143206617735,0.149524128780093,0.021070421313484553
1592296477.5464334,-0.4503548211483652,9.803964517885165,0.04207096422967304,-0.4638526844646549,-0.5991584205975599,-0.03869820632429913,-0.09774863135542448,0.0721500358323804,0.024566206470432558
1592296477.5564334,-0.4557280315325759,9.793145606306515,0.03629121261303037,-0.4722222222222222,-0.6044444444444445,-0.042222222222222223,-0.16663038351207582,0.041784206100536396,0.05422387544227804
1592296477.5664334,-0.42621286106454825,9.79,-0.011361416806355225,-0.4722222222222222,-0.6044444444444445,-0.042222222222222223,-0.08952770448781114,0.10684070455670526,-0.09156374704666215
1592296477.5764334,-0.2825689370728258,9.817486212585434,0.018100872024510967,-0.4722222222222222,-0.6044444444444445,-0.042222222222222223,-0.11402577829488808,0.20435757051653752,-0.09513952027518546
1592296477.5864334,-0.18250457755689248,9.83,0.07213893352266358,-0.4722222222222222,-0.6044444444444445,-0.042222222222222223,-0.18013863207515735,0.10049007007197336,0.050826310760589466
1592296477.5964334,-0.156107715950109,9.848323147850326,0.087784568099782,-0.4722222222222222,-0.6044444444444445,-0.055116289228007896,-0.22785280090153706,0.0654031822685162,0.09099686918798364
1592296477.6064334,-0.14537008244994112,9.87462991755006,0.12388975265017668,-0.4722222222222222,-0.6044444444444445,-0.06333333333333334,-0.1894197716988568,0.25135829988672553,-0.006687550753430811
1592296477.6164334,-0.2933456849151327,9.828884771694957,0.22032393019364094,-0.4722222222222222,-0.6044444444444445,-0.06333333333333334,-0.1983429213182607,0.09924943302441039,-0.06659570170912024
1592296477.6264334,-0.24783342457927685,9.437821760967367,0.6148806265025827,-0.4722222222222222,-0.6044444444444445,-0.06333333333333334,-0.11043501670272318,0.06329931785267698,-0.17545095650423276
1592296477.6364334,-0.09198530120946741,9.595036746976332,0.6437867710885207,-0.4722222222222222,-0.6044444444444445,-0.06333333333333334,-0.1301758120188347,0.034966743702087494,-0.07214121982697375
1592296477.6464334,-0.7301976958685741,9.828807907834744,0.6492217465455432,-0.4722222222222222,-0.6044444444444445,-0.05693157603672379,-0.05987845084398255,0.024308885499757352,-0.08991572612486484
1592296477.6564333,-0.879622149052361,9.767230966912946,0.5951027947317701,-0.4722222222222222,-0.6044444444444445,-0.05444444444444444,-0.028037119360458218,0.012450906543963924,-0.152032394040433
1592296477.6664333,-0.5322603727534946,9.67501941424451,0.30452074550698915,-0.4722222222222222,-0.6044444444444445,-0.05444444444444444,0.04435242448161734,0.030856933242076362,-0.11198750294404387
1592296477.6764333,-0.49428983648605324,9.71,0.2882782943251042,-0.4722222222222222,-0.6044444444444445,-0.05444444444444444,0.07505293499909409,0.05382632625204138,-0.08103134519338534
1592296477.6864333,-0.38033345453767675,9.725933309092465,0.3606222060616431,-0.4722222222222222,-0.6044444444444445,-0.05444444444444444,0.04363323129985824,0.10698615771521816,-0.08440607950962738
1592296477.6964333,-0.36863179781532784,9.78104225847073,0.35827364043693444,-0.4722222222222222,-0.6083532309654663,-0.050535657923422586,-0.010090959407798937,0.09737189315708847,-0.06394331402734811
1592296477.7064333,-0.46077253023043574,9.87981222906685,0.27384120465434636,-0.4722222222222222,-0.6111111111111112,-0.04777777777777778,-0.006458375269400643,-0.05060424477272368,-0.031800293193549656
1592296477.7164333,-0.4776155223880597,9.864269850746268,0.17426985074626866,-0.4722222222222222,-0.6111111111111112,-0.04777777777777778,0.04717390520927718,0.00953926634976214,-0.09243029271349015
1592296477.7264333,-0.4392600562820725,9.836147988743585,0.164591954974342,-0.4722222222222222,-0.6111111111111112,-0.04777777777777778,0.023870071643729757,0.030843551860453913,-0.1975519646501639
1592296477.7364333,-0.42479406488264315,9.84,0.213558454178502,-0.4722222222222222,-0.6111111111111112,-0.04777777777777778,0.012460976367369815,-0.001090830782496456,-0.21256466133819393
1592296477.7464333,-0.44837333681189667,9.81703332898513,0.2959333420297417,-0.4722222222222222,-0.6111111111111112,-0.05747481665072325,0.04439536144218162,-0.03315835297704398,-0.1606546434516578
1592296477.7564332,-0.44539565902752515,9.820755426215593,0.21467612465138836,-0.4722222222222222,-0.6111111111111112,-0.06888888888888889,0.04716468187530584,-0.023935448959594548,-0.0893813807170499
1592296477.7664332,-0.4239660718831725,9.864135712467311,0.10586428753268995,-0.4722222222222222,-0.6111111111111112,-0.06888888888888889,-0.031364496498866246,-0.027455818733549332,-0.03122347539791448
1592296477.7764332,-0.36771201723774505,9.862570672412582,0.10742932758741831,-0.4722222222222222,-0.6111111111111112,-0.06888888888888889,-0.08649812653505623,0.09984345001712916,-0.15575623678438422
1592296477.7864332,-0.3663996821913662,9.85454996027392,0.12454996027392078,-0.4722222222222222,-0.6111111111111112,-0.06888888888888889,-0.11713865990656051,0.1541512157068886,-0.21266334421245442
1592296477.7964332,-0.4146095258151697,9.87382857744551,0.17609525815169702,-0.4691492050121091,-0.6018920594807717,-0.07196190609900202,-0.16217641708848585,0.16897907231683307,-0.14676764261934144
1592296477.8064332,-0.4895876166000381,9.883673853036361,0.24265229392727966,-0.46555555555555556,-0.5911111111111111,-0.07555555555555556,-0.18630919418242903,0.1696185798951935,-0.2689597948009578
1592296477.8164332,-0.53,9.808919879316125,0.2203832830483853,-0.46555555555555556,-0.5911111111111111,-0.07555555555555556,-0.12733075497000562,0.0611511521001546,-0.17412248320470483
1592296477.8264332,-0.6205993578308955,9.687520513735285,0.32079914377452734,-0.46555555555555556,-0.5911111111111111,-0.07555555555555556,-0.12132194278005268,0.09472287280044145,-0.1858591967277158
1592296477.8364332,-0.7304451662208636,9.645044516622086,0.41513354986625906,-0.46555555555555556,-0.5911111111111111,-0.07555555555555556,-0.11591610979683839,0.10714090343516218,-0.18468369543780633
1592296477.8464332,-0.8478340102419213,9.627388663252693,0.4639170051209606,-0.45048133105735083,-0.5986482233602135,-0.05985323836992564,-0.030536635637798015,0.10576697578575905,-0.14783683064258396
1592296477.8564332,-0.9117277633419948,9.606649210473716,0.4883246052368579,-0.4388888888888889,-0.6044444444444445,-0.04777777777777778,0.01162791164558245,0.12304113352355896,-0.18106077231705725
1592296477.8664331,-0.9983636412474146,9.584327271750517,0.42894544575465365,-0.4388888888888889,-0.6044444444444445,-0.04777777777777778,0.0006505311728218941,0.10008273539993746,-0.12820632724485287
1592296477.8764331,-0.9519647089807743,9.58,0.43329518519405275,-0.4388888888888889,-0.6044444444444445,-0.04777777777777778,0.018058790182246022,0.09751257264915975,-0.0706704360937235
1592296477.8864331,-0.91,9.582644370513044,0.46352582735072667,-0.4388888888888889,-0.6044444444444445,-0.04777777777777778,0.032081694313076996,0.08066513136633177,-0.053513701862212056
1592296477.896433,-0.9051706443189409,9.624488067043178,0.46136515455152727,-0.44479143472129445,-0.6076640148984839,-0.06226584482095504,0.055371768200976806,-0.013659596759769037,-0.058074633178654606
1592296477.906433,-0.7835716670004673,9.673265237999866,0.3867347620001335,-0.45111111111111113,-0.6111111111111112,-0.07777777777777778,0.012466741548539183,-0.033081105687136826,-0.0755789379129646
1592296477.916433,-0.7261596832728472,9.730994014233868,0.33417165480510913,-0.45111111111111113,-0.6111111111111112,-0.07777777777777778,-0.053155031864495494,0.014716421376773488,-0.041898349180587824
1592296477.926433,-0.7822737312579581,9.810115895330405,0.2654525374840839,-0.45111111111111113,-0.6111111111111112,-0.07777777777777778,0.007466052580705929,-0.02407653992288327,-0.08177920081222562
1592296477.936433,-0.5758735845803077,9.77847029295116,0.29199241277565957,-0.45111111111111113,-0.6111111111111112,-0.07777777777777778,0.022158622335208218,-0.01989559728782765,-0.12623766876848838
1592296477.946433,-0.6637019110667,9.77771140394704,0.42399762677991504,-0.4419685929996947,-0.6141586171482499,-0.07777777777777778,0.026925644109992763,0.06697675116713017,-0.1583239850188407
1592296477.956433,-1.0354368498049416,9.873126219115735,0.4937475617685306,-0.4311111111111111,-0.6177777777777778,-0.07777777777777778,0.09100280626824139,0.07672882801122931,-0.23078801905150637
1592296477.966433,-0.5191878286440551,9.917030428389863,0.3140608567797244,-0.4311111111111111,-0.6177777777777778,-0.07777777777777778,-0.058971246703455577,0.10298106431253014,-0.19042471521539192
1592296477.976433,-0.4381851807660184,9.885167641092949,0.34698246032693,-0.4311111111111111,-0.6177777777777778,-0.07777777777777778,0.0010542571695765772,0.07178176757234672,-0.18954854086394418
1592296477.986433,-0.5127373350361857,9.8349380865123,0.49257223240231734,-0.4311111111111111,-0.6177777777777778,-0.07777777777777778,-0.037142276315467924,0.07462663984562179,-0.2150542188074816
1592296477.996433,-0.6351605611567579,9.715846578881274,0.58,-0.42980286159648223,-0.6158154035058344,-0.07843190253509223,-0.044099214985280466,0.11825394715614355,-0.27388662730329155
1592296478.006433,-0.549090567013946,9.756687048752381,0.3652082500411561,-0.4266666666666667,-0.6111111111111112,-0.08,0.08456376970449843,0.07276970861815114,-0.3852766812698035
1592296478.016433,-0.8457444852941176,9.931985294117649,0.023051470588235284,-0.4266666666666667,-0.6111111111111112,-0.08,0.046697182468340925,0.05388383232949405,-0.3734902333882006
1592296478.026433,-0.8388694086429113,9.954152056482183,-0.051890873768006066,-0.4266666666666667,-0.6111111111111112,-0.08,-0.02543567833463602,0.037974960122398774,-0.2937035520816975
1592296478.036433,-0.8114773122896599,9.94,0.0681815016827202,-0.4266666666666667,-0.6111111111111112,-0.08,-0.07971736165003634,0.029377995883107234,-0.29526790417370474
1592296478.046433,-0.7493688118811882,9.927342202970296,0.15578073432343234,-0.4266666666666667,-0.6162679913824716,-0.08890733865053171,-0.07482158641384673,0.08418601317154656,-0.2846488950965724
1592296478.056433,-0.6806583707708822,9.910146304615752,0.15109728461813698,-0.4266666666666667,-0.6233333333333333,-0.10111111111111111,-0.04713153988733723,0.13351546734516992,-0.21035955854571092
1592296478.066433,-0.7658624219968799,9.934137578003119,0.2834496879875195,-0.4266666666666667,-0.6233333333333333,-0.10111111111111111,-0.1842787154295568,-0.01516633430180378,-0.4543522929609146
1592296478.076433,-0.7898750149075731,9.884517829457364,0.2984107334525939,-0.4266666666666667,-0.6233333333333333,-0.10111111111111111,-0.07470045624608371,0.02544358572146696,-0.4623077453992386
1592296478.086433,-0.8557939551043185,9.81967273316412,0.34355151122392036,-0.4266666666666667,-0.6233333333333333,-0.10111111111111111,-0.012172352741003187,-0.023642560852931732,-0.5578574914727896
1592296478.096433,-0.9254328957750521,9.830740262534968,0.3284567104224948,-0.4225512277933195,-0.6245336696713929,-0.0978530553363779,-0.025681744992370654,0.11067210281968633,-0.6274165863502779
1592296478.106433,-1.0342205222896335,9.79453231337378,0.30546768662622,-0.4,-0.6311111111111111,-0.08,-0.03384976538861965,0.07925405009556459,-0.6505772910738714
1592296478.116433,-1.06,9.81,0.29,-0.4,-0.6311111111111111,-0.08,-0.032724923474893676,0.05563236990731925,-0.6359543461954338
1592296478.126433,-1.1470179264854512,9.76970849513272,0.19625565189637748,-0.4,-0.6311111111111111,-0.08,-0.2240409989150502,0.030548194119939177,-0.6849976896734313
1592296478.136433,-1.144003804089396,9.754506657156444,0.266499048977651,-0.4,-0.6311111111111111,-0.08,-0.24691172616742443,0.05365767053073151,-0.6940509407056752
1592296478.1464329,-1.1687148903424394,9.805140438630243,0.2651404386302424,-0.4,-0.6319678508828181,-0.08057115984780472,-0.2549303856497316,-0.009730177002930104,-0.7834087298041305
1592296478.1564329,-1.1395311936530832,9.831812477461233,0.29181247746123334,-0.4,-0.6377777777777778,-0.08444444444444445,-0.1976312375156188,0.0564095229162987,-0.9210497569314985
1592296478.1664329,-1.1500774979241628,9.828015499584833,0.24393025186825354,-0.4,-0.6377777777777778,-0.08444444444444445,-0.17779696383479668,0.025530512537692448,-0.92266018142643
1592296478.1764328,-1.259739302035729,9.806840465309513,0.21486965101786457,-0.4,-0.6377777777777778,-0.08444444444444445,-0.23591688394982743,0.06969315943308027,-0.9356450350849566
1592296478.1864328,-1.4363211134100837,9.735992006649335,0.31516455338037386,-0.4,-0.6377777777777778,-0.08444444444444445,-0.3620427377500416,0.10595956791947315,-0.8923854815353073
1592296478.1964328,-1.6525849191157151,9.679212926472244,0.4561806102916338,-0.3952057450987752,-0.6413734689536964,-0.08444444444444445,-0.42006745815921276,0.09183945222511064,-0.8467052034727213
1592296478.2064328,-1.71,9.63,0.53,-0.37333333333333335,-0.6577777777777778,-0.08444444444444445,-0.38069994309126315,0.20725784867432664,-0.8377580409572781
1592296478.2164328,-1.8354913897578986,9.488312054338941,0.6407051661452609,-0.37333333333333335,-0.6577777777777778,-0.08444444444444445,-0.35290707752399403,0.04130922463402379,-0.9060769871512845
1592296478.2264328,-1.9383588300085668,9.427182719373393,0.6755415493819605,-0.37333333333333335,-0.6577777777777778,-0.08444444444444445,-0.3105323297698392,0.13276389180029438,-1.0299399700861684
1592296478.2364328,-2.03,9.41,0.75,-0.37333333333333335,-0.6577777777777778,-0.08444444444444445,-0.2617993877991494,0.13526301702956053,-1.0799224746714913
1592296478.2464328,-2.087478047067088,9.432913007844514,0.714369511766772,-0.37333333333333335,-0.6595579492383146,-0.08444444444444445,-0.3322054201306904,0.19089321574810772,-1.01282942097219
1592296478.2564328,-2.258965675372022,9.39942517139385,0.7491954233829363,-0.37333333333333335,-0.67,-0.08444444444444445,-0.2907878287895283,0.12549576327398518,-0.9738110492799199
1592296478.2664328,-2.34,9.34,0.76,-0.37333333333333335,-0.67,-0.08444444444444445,-0.2530727415391778,0.16144295580947549,-1.014472627721704
1592296478.2764328,-2.441264111899835,9.25417607459989,0.7954401864997249,-0.37333333333333335,-0.67,-0.08444444444444445,-0.3002099349240376,0.20366771047176713,-1.1065136358267027
1592296478.2864327,-2.521050882734194,9.261053438738065,0.9105241633651616,-0.37333333333333335,-0.67,-0.08444444444444445,-0.3817330388868416,0.1919867753529167,-1.1582907589511036
1592296478.2964327,-2.625898896404414,9.210460662157352,1.03112922748309,-0.3616741426367628,-0.671059926426961,-0.08797753253431431,-0.3920831836492263,0.16882751905616564,-1.1163948232268732
1592296478.3064327,-2.71,9.16,1.09,-0.3,-0.6766666666666666,-0.10666666666666667,-0.35997415822383044,0.19634954084936207,-1.0842857978014773
1592296478.3164327,-2.7731045118323006,9.127111936020963,1.0882312962305867,-0.3,-0.6766666666666666,-0.10666666666666667,-0.2926738856851201,0.09053895494720585,-1.191017889632565
1592296478.3264327,-2.8829856826357294,9.108645925149487,1.0402775329347023,-0.3,-0.6766666666666666,-0.10666666666666667,-0.18683480527522386,0.11572254946641382,-1.2246579993879767
1592296478.3364327,-2.998418542951384,9.070107019934031,1.104209271475692,-0.3,-0.6766666666666666,-0.10666666666666667,-0.23549363507160467,0.173819536259826,-1.2942986082143453
1592296478.3464327,-3.0812093299658296,9.012527113356112,1.145978309315109,-0.2975920698591921,-0.678161243995444,-0.10716485910959243,-0.21573249049709994,0.21288686611590024,-1.3068818843913257
1592296478.3564327,-3.22,8.92,1.22,-0.2677777777777778,-0.6966666666666667,-0.11333333333333333,-0.14508049407202864,0.17453292519943295,-1.1726430911836903
1592296478.3664327,-3.3151730418943535,8.829920134510298,1.25,-0.2677777777777778,-0.6966666666666667,-0.11333333333333333,-0.19565166592251904,0.15492120304373025,-1.220773229206627
1592296478.3764327,-3.5421976185993973,8.73642248682229,1.2678875658885542,-0.2677777777777778,-0.6966666666666667,-0.11333333333333333,-0.05365698460757816,0.17249249459653754,-1.3380033708562586
1592296478.3864326,-3.6,8.73,1.3,-0.2677777777777778,-0.6966666666666667,-0.11333333333333333,-0.10690141668465267,0.15707963267948966,-1.2784536770858463
1592296478.3964326,-3.6296759462545007,8.700324053745499,1.329675946254501,-0.2677777777777778,-0.6966666666666667,-0.11333333333333333,-0.07452998101053285,0.026514842127206367,-1.4370737118890335
1592296478.4064326,-3.67,8.69,1.18,-0.2288888888888889,-0.7088888888888889,-0.10111111111111111,-0.08726646259971647,0.044724062082354694,-1.421352509592882
1592296478.4164326,-3.7036072861637943,8.730821858491383,1.0819635691810283,-0.2288888888888889,-0.7088888888888889,-0.10111111111111111,-0.029721383689781326,0.2955928474289593,-1.420565521835134
1592296478.4264326,-3.732968989280245,8.760546516079632,1.012968989280245,-0.2288888888888889,-0.7088888888888889,-0.10111111111111111,-0.04298549831989958,0.21721632561837986,-1.445636806230531
1592296478.4364326,-3.76,8.72,1.04,-0.2288888888888889,-0.7088888888888889,-0.10111111111111111,-0.0370882466048795,0.26070855701665296,-1.5053464798451093
1592296478.4464326,-4.036978325153187,8.591402920464592,0.9806475017528884,-0.2288888888888889,-0.7088888888888889,-0.10111111111111111,-0.10830613192149734,0.2056765547265392,-1.3985196518701823
1592296478.4564326,-4.36,8.48,1.01,-0.17555555555555555,-0.7233333333333334,-0.10111111111111111,0.02399827721492203,0.17889624832941878,-1.395172570812967
1592296478.4664326,-4.6218930620197,8.41905346899015,0.9732427751921203,-0.17555555555555555,-0.7233333333333334,-0.10111111111111111,-0.1286444169007809,0.2711226024362462,-1.301234938281905
1592296478.4764326,-4.848864737708775,8.319041166784286,0.9010176429075512,-0.17555555555555555,-0.7233333333333334,-0.10111111111111111,-0.17011186578949847,0.13617478836250957,-1.1366244797314238
1592296478.4864326,-5.003289372033992,8.252104992090645,0.8934212559320164,-0.17555555555555555,-0.7233333333333334,-0.10111111111111111,-0.19423896807998378,-0.014496175190650582,-0.9980091809692054
1592296478.4964325,-4.980144575653902,8.19038553507707,0.9397108486921972,-0.17555555555555555,-0.7233333333333334,-0.10111111111111111,-0.04023192436929071,0.07471009056527,-0.881031153232668
1592296478.5064325,-5.19,8.29,0.95,-0.12222222222222222,-0.7355555555555555,-0.09222222222222222,-0.32070425005395803,-0.15489797111449674,-0.9501136115544131
1592296478.5164325,-5.014975251519879,8.005935331145423,1.0386407166299028,-0.12222222222222222,-0.7355555555555555,-0.09222222222222222,-0.1554108147575185,0.0034193293097644004,-0.8501883297419388
1592296478.5264325,-5.386238202462511,8.26467685526757,0.7938561778373976,-0.12222222222222222,-0.7355555555555555,-0.09222222222222222,-0.27014500367368627,-0.10853251521157728,-0.805072730845731
1592296478.5364325,-5.2592512132709786,8.019375275743403,1.144749669107915,-0.12222222222222222,-0.7355555555555555,-0.09222222222222222,-0.20243755667264046,-0.07877180437044921,-0.7592182246175333
1592296478.5464325,-4.933566575487514,7.945356039883526,1.2335727521397688,-0.12222222222222222,-0.7355555555555555,-0.09222222222222222,-0.2516904578660611,-0.028711478567300386,-0.7592182246175333
1592296478.5564325,-5.16,7.92,1.25,-0.07777777777777778,-0.7233333333333334,-0.11555555555555555,-0.05235987755982988,-0.1810779098944117,-0.6904958853202566
1592296478.5664325,-5.785508585090198,8.162736361660508,1.074842425559661,-0.07777777777777778,-0.7233333333333334,-0.11555555555555555,-0.1701352246594358,-0.10204815619060928,-0.4606232130983764
1592296478.5764325,-5.73749434470809,7.874441930981374,1.350273379217404,-0.07777777777777778,-0.7233333333333334,-0.11555555555555555,-0.2222412445137211,-0.11817873370992413,-0.31239627973733813
1592296478.5864325,-5.909687085219731,7.949086347024491,1.5309661993854435,-0.07777777777777778,-0.7233333333333334,-0.11555555555555555,-0.22848494881764397,-0.20912058518645416,-0.22626615866440702
1592296478.5964324,-5.413988072510409,7.720302187312496,1.3555650102729142,-0.07777777777777778,-0.7233333333333334,-0.11555555555555555,-0.17191692658638663,-0.12925984791879674,-0.2969761864534787
1592296478.6064324,-6.0122031767797965,7.693641869500628,1.524305793623586,-0.051111111111111114,-0.7233333333333334,-0.13666666666666666,-0.06699279100483718,-0.2650609107592705,-0.2548231067371912
1592296478.6164324,-5.66335122457264,7.848324387713681,1.2633259663524423,-0.051111111111111114,-0.7233333333333334,-0.13666666666666666,0.056004475505083036,-0.27653231927110156,-0.14272603932187822
1592296478.6264324,-5.461798379163349,7.9958427413688105,1.409213706844053,-0.051111111111111114,-0.7233333333333334,-0.13666666666666666,-0.06936205965920454,-0.1914568988145892,-0.002039501484564508
1592296478.6364324,-6.0283574923158065,8.020730407580524,1.619979811941873,-0.051111111111111114,-0.7233333333333334,-0.13666666666666666,-0.0158910176204568,-0.3518338659964995,-0.006270724564807028
1592296478.6464324,-5.5172575159594786,7.83002146117891,1.5208111598130332,-0.051111111111111114,-0.7233333333333334,-0.13666666666666666,-0.1731625966801122,-0.34684111745492313,0.10440186810680234
1592296478.6564324,-5.578240965593518,7.61,1.7185734894568536,-0.03666666666666667,-0.7322222222222222,-0.13666666666666666,-0.004204567660618632,-0.15091840976012313,0.006783655564174423
1592296478.6664324,-5.668159037754761,7.648527230203809,1.6132106025169841,-0.03666666666666667,-0.7322222222222222,-0.13666666666666666,-0.169377580440824,-0.17350312943031507,0.09583886910454195
1592296478.6764324,-5.885489026717557,7.810413883587786,1.6188346851145037,-0.03666666666666667,-0.7322222222222222,-0.13666666666666666,-0.22045450714367906,-0.32496517768945143,0.258079972295902
1592296478.6864324,-5.612231280426552,7.491404837338691,1.5282644308786029,-0.03666666666666667,-0.7322222222222222,-0.13666666666666666,-0.15561015945243914,-0.19176988071270928,0.21420840730563034
1592296478.6964324,-5.928237964608608,7.7993087860289005,1.6092917857970792,-0.03666666666666667,-0.7322222222222222,-0.13666666666666666,-0.17328758604630703,-0.12547953098570475,0.4855569055215023
1592296478.7064323,-6.01,7.54,1.56,-0.044444444444444446,-0.7177777777777777,-0.14222222222222222,-0.1341721862470641,-0.21380283336930533,0.5846852994181004
1592296478.7164323,-5.942190849529867,7.428033114942844,1.8417234573316155,-0.044444444444444446,-0.7177777777777777,-0.14222222222222222,0.003934215376790173,-0.2390268337064218,0.5565053297695627
1592296478.7264323,-5.9390227752993665,7.711222822258746,1.5636914768725052,-0.044444444444444446,-0.7177777777777777,-0.14222222222222222,0.06734352304123271,-0.17940050464418256,0.6683084025716999
1592296478.7364323,-5.4785900821596245,7.53080380721831,1.877323760269953,-0.044444444444444446,-0.7177777777777777,-0.14222222222222222,0.022198670489353218,-0.07618869270831766,0.7820835605966661
1592296478.7464323,-5.909342723004695,7.8307922535211265,1.9311678403755868,-0.044444444444444446,-0.7177777777777777,-0.14222222222222222,-0.02311101696577878,-0.2112786867875075,0.9020703255241452
1592296478.7564323,-5.18,7.58,2.0,-0.022222222222222223,-0.7377777777777778,-0.14222222222222222,-0.032724923474893676,-0.11890055529211369,0.8933904108645974
1592296478.7664323,-5.645975474119493,7.568722372736347,1.9605110509054613,-0.022222222222222223,-0.7377777777777778,-0.14222222222222222,0.15521531218999213,-0.039761458638836525,0.8081136995176759
1592296478.7764323,-5.02,7.37,2.04,-0.022222222222222223,-0.7377777777777778,-0.14222222222222222,0.03490658503988659,0.053450708342326333,0.9479319499894202
1592296478.7864323,-5.74909934569452,8.11228256997694,1.56363355143516,-0.022222222222222223,-0.7377777777777778,-0.14222222222222222,0.04939609161219398,-0.2693006772283811,1.1063385600429338
1592296478.7964323,-5.182929001293613,7.451750501509215,1.7523569995687958,-0.022222222222222223,-0.7377777777777778,-0.14222222222222222,0.12916891342087325,-0.14663924154406782,1.0643077184448126
1592296478.8064322,-5.2273799441824655,8.089144451929554,1.9583423154653066,-0.056666666666666664,-0.72,-0.14888888888888888,0.22249446932555625,-0.026850750896184057,1.1256148577179255
1592296478.8164322,-4.333317837758902,7.870784919804318,1.701866770511354,-0.056666666666666664,-0.72,-0.14888888888888888,0.25735044320072953,-0.08643756713739696,1.1656778842864248
1592296478.8264322,-4.850530751384878,8.103795748307371,1.6232448747691872,-0.056666666666666664,-0.72,-0.14888888888888888,0.24550140701582154,0.025445263912199773,1.1999406137571018
1592296478.8364322,-4.647772943037975,8.293857882623707,1.627734824510932,-0.056666666666666664,-0.72,-0.14888888888888888,0.3331283764598068,0.07013777539929124,1.1588748045508197
1592296478.8464322,-4.2329885284810125,8.233525604142693,1.4090303150172612,-0.056666666666666664,-0.72,-0.14888888888888888,0.305158146178081,0.12690088979455827,1.1950715731507
1592296478.8564322,-4.56,8.33,1.51,-0.09,-0.7122222222222222,-0.12777777777777777,0.3294308963139297,0.11671889372712078,1.2413654304809667
1592296478.8664322,-4.294836644229191,8.566752996223936,1.633111558036447,-0.09,-0.7122222222222222,-0.12777777777777777,0.1310891700065984,0.23138520424854667,1.0988073146975723
1592296478.8764322,-4.190068748209682,8.447560154683472,0.9650171870524205,-0.09,-0.7122222222222222,-0.12777777777777777,0.2063494479611076,0.27262895332758313,1.0860801014289063
1592296478.8864322,-4.370947869006017,8.645121590950032,1.0520099434376915,-0.09,-0.7122222222222222,-0.12777777777777777,0.20471726656545144,0.01877040869515563,1.0198163505898077
1592296478.8964322,-3.910068991605721,8.705564722412365,1.4297795150772779,-0.09,-0.7122222222222222,-0.12777777777777777,0.1618606681122155,-0.004306221241202189,1.1343753349167272
1592296478.9064322,-3.81,8.85,1.21,-0.1288888888888889,-0.72,-0.12,0.04363323129985824,-0.04036073895236887,1.102829921103917
1592296478.9164321,-3.4096568109820486,9.294825765575501,1.3345512143611404,-0.1288888888888889,-0.72,-0.12,0.049455986955105946,0.017866817600108262,1.0611001722413085
1592296478.9264321,-3.255788043478261,9.308584811212814,1.4704962814645308,-0.1288888888888889,-0.72,-0.12,0.09331322531187164,0.13901251382749083,0.8513674498624418
1592296478.9364321,-2.902842459054292,8.737899454057226,0.8990011203385913,-0.1288888888888889,-0.72,-0.12,0.17498558709386425,0.03526272044678027,0.7687244153767386
1592296478.946432,-2.947595184322373,9.33460245763164,1.0407180836875145,-0.1288888888888889,-0.72,-0.12,0.06189136384551201,0.05804429059752748,0.6092534243215082
1592296478.956432,-2.6,9.47,1.46,-0.14333333333333334,-0.7066666666666667,-0.12,0.09599310885968812,0.21162117180431245,0.4745113903859583
1592296478.966432,-2.3658513113784263,9.411462827844607,1.1924014987182014,-0.14333333333333334,-0.7066666666666667,-0.12,0.19542314135263572,0.21526998033616376,0.33494446404264655
1592296478.976432,-2.72,9.34,0.98,-0.14333333333333334,-0.7066666666666667,-0.12,0.02181661564992912,0.20289452554434081,0.11999138607461016
1592296478.986432,-2.453969841141843,9.123850495927748,1.320851141037013,-0.14333333333333334,-0.7066666666666667,-0.12,0.16419299114280164,0.32169264777087775,0.07646230312137524
1592296478.996432,-2.3851092357441437,9.027882325104503,0.9209409259405317,-0.14333333333333334,-0.7066666666666667,-0.12,0.0834347463318685,0.3937111049256747,-0.024955324428778847
1592296479.006432,-2.52,9.42,0.99,-0.16333333333333333,-0.6977777777777778,-0.10111111111111111,0.2574360646691636,0.5115996369908379,-0.2083486794568231
1592296479.016432,-2.793389275480966,9.627113087485581,0.8823011945074982,-0.16333333333333333,-0.6977777777777778,-0.10111111111111111,0.20773249178599004,0.40405917929815327,-0.32492615040099376
1592296479.026432,-2.521555897314563,9.061264166568083,0.9217503844788832,-0.16333333333333333,-0.6977777777777778,-0.10111111111111111,0.44723535572288137,0.40121357537305463,-0.5174993113331664
1592296479.036432,-2.680223531972607,9.190521574602748,1.0994486211342365,-0.16333333333333333,-0.6977777777777778,-0.10111111111111111,0.1138040268626326,0.37964812599782133,-0.5632718252217362
1592296479.046432,-2.78556736935519,9.436323861828775,0.8396004889238652,-0.16333333333333333,-0.6977777777777778,-0.10111111111111111,0.2823420676886921,0.39803409408793694,-0.7532601621529306
1592296479.056432,-2.93,9.72,0.81,-0.1811111111111111,-0.7111111111111111,-0.11555555555555555,0.2083486794568231,0.41887902047863906,-0.9435686268594343
1592296479.066432,-2.9617386583011585,9.212181467181468,1.070256998069498,-0.1811111111111111,-0.7111111111111111,-0.11555555555555555,0.2561263570054785,0.391181816102607,-1.0231980894405268
1592296479.076432,-2.6047953848927348,8.080726518839013,0.5189597980890571,-0.1811111111111111,-0.7111111111111111,-0.11555555555555555,0.5270327195543026,0.6294331564391034,-1.2348821946350423
1592296479.086432,-3.260204826038159,9.0700161335578,0.5294177890011224,-0.1811111111111111,-0.7111111111111111,-0.11555555555555555,0.3850503347957269,0.6062049513848877,-1.4721170012229243
1592296479.096432,-3.603502084363739,9.322856991450577,0.5659446760404154,-0.1811111111111111,-0.7111111111111111,-0.11555555555555555,0.31561207499896143,0.7104927026514177,-1.5771904387945643
1592296479.106432,-3.77,9.18,-0.24,-0.14333333333333334,-0.7177777777777777,-0.09222222222222222,0.19962203319685143,0.6032294227205401,-1.6155203888772514
1592296479.116432,-4.07906966425085,9.172075136814081,0.22756692796923528,-0.14333333333333334,-0.7177777777777777,-0.09222222222222222,-0.056260634227248446,0.5617349361112266,-1.6846778665594404
1592296479.126432,-4.533891118658022,8.702636101677472,0.6304183389935165,-0.14333333333333334,-0.7177777777777777,-0.09222222222222222,-0.15589203374483596,0.34286505497826547,-1.4835664329023324
1592296479.136432,-4.503135717549725,8.632090478366484,0.033970273455349975,-0.14333333333333334,-0.7177777777777777,-0.09222222222222222,-0.12198669945787498,0.3076636289576554,-1.4972052444435187
1592296479.146432,-4.778376980666887,8.390019844252684,0.3023749962416188,-0.14333333333333334,-0.7177777777777777,-0.09222222222222222,-0.19747759743354026,0.11699636534141825,-1.3972317316120733
1592296479.156432,-5.391297758130723,7.857614461635617,0.15332530786233028,-0.06550889380065257,-0.737233887660948,-0.10086938217029787,-0.26021101831589005,-0.026809655034445767,-1.306281314557194
1592296479.166432,-5.498706624605679,8.082665615141956,0.2810094637223975,-0.06333333333333334,-0.7377777777777778,-0.10111111111111111,-0.21424157445690253,-0.003554663086179303,-1.2991244042481689
1592296479.176432,-6.026158375036798,8.702849573152783,0.25744480423903443,-0.06333333333333334,-0.7377777777777778,-0.10111111111111111,-0.5644790801103026,-0.13963244136203898,-1.0007307930127982
1592296479.186432,-5.465851537135757,8.306529319812418,0.526365786203856,-0.06333333333333334,-0.7377777777777778,-0.10111111111111111,-0.4379269572848949,-0.15972720040578292,-1.1781288126870564
1592296479.1964319,-5.279637953788879,7.955904032146868,0.68,-0.06333333333333334,-0.7377777777777778,-0.10111111111111111,-0.5385542252747724,-0.26653028912355614,-1.1787022546957697
1592296479.2064319,-5.639291818411278,7.786537698770418,1.0989377276169185,-0.023573039740060982,-0.7377777777777778,-0.09432276830250363,-0.5917624638443444,-0.07425873916822726,-1.2828084255534955
1592296479.2164319,-5.786366813768756,7.959096557811121,0.9945405119152692,-0.017777777777777778,-0.7377777777777778,-0.09333333333333334,-0.5511660431728705,0.03788385024603022,-1.2275293443891528
1592296479.2264318,-5.3673363280683954,7.887655991885234,0.9943683524126938,-0.017777777777777778,-0.7377777777777778,-0.09333333333333334,-0.5567520647333237,-0.09179749641804147,-1.1419337941116485
1592296479.2364318,-5.659147601739007,7.3482146675219155,1.3601689116955313,-0.017777777777777778,-0.7377777777777778,-0.09333333333333334,-0.4891891323559832,-0.1431633187390971,-1.1181480431719693
1592296479.2464318,-5.6596664226146896,7.4715010982338965,1.0504423293273093,-0.017777777777777778,-0.7377777777777778,-0.09333333333333334,-0.5360527598060615,-0.30016120208487357,-1.2398450774078216
1592296479.2564318,-5.712286535146523,7.451570197280215,1.313719210879142,0.02840528634361233,-0.7257300219200238,-0.1063850688459001,-0.4179774397483903,0.06337056176545391,-1.2164896414318207
1592296479.2664318,-5.830324931221652,7.070086995315637,1.0679634173544503,0.03333333333333333,-0.7244444444444444,-0.10777777777777778,-0.48392697386553923,-0.06892900424142137,-1.2061338429170665
1592296479.2764318,-6.4841524480712165,7.1369380563798215,0.9616654302670623,0.03333333333333333,-0.7244444444444444,-0.10777777777777778,-0.4687859449157373,-0.2531615536151266,-1.2288506153778487
1592296479.2864318,-5.6908102330221615,6.70925247630585,1.6586861920710705,0.03333333333333333,-0.7244444444444444,-0.10777777777777778,-0.4326135281168827,-0.21875576324661788,-1.1461035324500881
1592296479.2964318,-6.203267030452385,7.296132371061432,1.4705298362964268,0.03333333333333333,-0.7244444444444444,-0.10777777777777778,-0.291164183797328,-0.20741099893521717,-1.2028410353538896
1592296479.3064318,-6.28596467744934,7.176408254322364,1.092383714445064,0.06019954142653529,-0.7351909276817252,-0.13374844560120636,-0.207860107320517,0.17209829796831505,-1.178942613603314
1592296479.3164318,-6.811568834975168,7.019202149312058,1.4326793128714483,0.06666666666666667,-0.7377777777777778,-0.14,-0.3174258963670854,0.17388311580144167,-1.116631421571735
1592296479.3264318,-7.4125806890916515,8.030727223205774,1.2968541468064823,0.06666666666666667,-0.7377777777777778,-0.14,-0.2626260898697735,-0.12399431761010649,-0.9174852480697989
1592296479.3364317,-7.293996987375669,6.900767262815608,1.684012050497322,0.06666666666666667,-0.7377777777777778,-0.14,-0.259705803308384,-0.011995304633545867,-0.7175445452101417
1592296479.3464317,-7.006144291512802,6.7792571794793535,1.4978209784234138,0.06666666666666667,-0.7377777777777778,-0.14,-0.23618125999629708,-0.022230649966220158,-0.6693429496678814
1592296479.3564317,-7.745456821523666,6.2623160990342965,1.9697329412232243,0.08911656002861344,-0.7228111822031466,-0.14,-0.39189497168860904,-0.04864035397484485,-0.5604221934764656
1592296479.3664317,-7.521145581892287,6.398762217561632,1.8287147323018478,0.09333333333333334,-0.72,-0.14,-0.35923840535739654,-0.03932995112893429,-0.5660311477169196
1592296479.3764317,-7.23374688727796,6.306255879586077,1.5570820651873167,0.09333333333333334,-0.72,-0.14,-0.17648882686588474,-0.019180717925438347,-0.38179379205422137
1592296479.3864317,-7.956249103685645,6.216450595152732,1.8267589272909794,0.09333333333333334,-0.72,-0.14,-0.16021070655180666,-0.0949324702958955,-0.30033201137445625
1592296479.3964317,-7.884514353847565,6.092055397596991,1.8227616252407592,0.09333333333333334,-0.72,-0.14,-0.11735850495270089,-0.07489314192066629,-0.20343919057047222
1592296479.4064317,-7.42812625447676,6.0312424731394385,1.7896843638080995,0.13583166069765307,-0.72,-0.16124916368215986,0.13939816252134857,-0.014998375890579884,0.007293699278265689
1592296479.4164317,-7.680405309668519,6.094739923188785,1.8345665386479735,0.14666666666666667,-0.72,-0.16666666666666666,0.13768416595975497,0.052738387991311766,0.007768208713502857
1592296479.4264317,-7.742638534599728,6.540083039348711,1.7217590230664856,0.14666666666666667,-0.72,-0.16666666666666666,0.1795950016705539,0.0033850684523966668,0.06031900521658394
1592296479.4364316,-7.386415910278952,6.53511001283087,1.6958694102551917,0.14666666666666667,-0.72,-0.16666666666666666,0.06162149381815554,-0.07016852079088914,0.3053118361439529
1592296479.4464316,-7.213754545290085,6.463907954483782,1.7120306818387394,0.14666666666666667,-0.72,-0.16666666666666666,0.1453900794930139,0.09031787606708742,0.4627632669847016
1592296479.4564316,-7.334860433138536,6.638553798556205,1.6926132691646614,0.14666666666666667,-0.7146748023375731,-0.1522125587257935,0.08016481296949676,0.13194308910490177,0.47642895015648157
1592296479.4664316,-7.2792035638370045,6.767051693727105,1.8578481298901,0.14666666666666667,-0.7122222222222222,-0.14555555555555555,-0.03379389916098355,0.1501911825642341,0.6289134530826697
1592296479.4764316,-7.472172251178953,6.61350657731447,1.556741623231571,0.14666666666666667,-0.7122222222222222,-0.14555555555555555,0.09924234422921363,0.13991998996512978,0.6657300466090881
1592296479.4864316,-7.27554764980187,6.552962760251329,1.32740416402128,0.14666666666666667,-0.7122222222222222,-0.14555555555555555,0.16568560621699802,0.1370408440929002,0.657770961845363
1592296479.4964316,-7.28810521371536,6.656754344762799,1.5415481446688586,0.14666666666666667,-0.7122222222222222,-0.14555555555555555,0.0762055716807982,0.0016319935220327486,0.8318650953669519
1592296479.5064316,-6.898590770481805,6.798748119536492,1.3521589754015044,0.14666666666666667,-0.717638679948499,-0.15019823360664997,0.05812311867390671,-0.08091773430695554,0.936071011370504
1592296479.5164316,-6.613826687692423,7.14141323120823,1.212539986483442,0.14666666666666667,-0.72,-0.15222222222222223,0.10067204143661837,-0.017955089424168964,0.8873646704686533
1592296479.5264316,-6.425874411945183,7.107693291061567,1.2956642462671304,0.14666666666666667,-0.72,-0.15222222222222223,0.053382210684272256,-0.02998624430947073,1.1083978659141438
1592296479.5364316,-6.571178483405518,7.3323569668110355,1.207057739704721,0.14666666666666667,-0.72,-0.15222222222222223,0.08771625312983011,0.053451856832537864,1.12551189802618
1592296479.5464315,-6.498214899889448,7.402593968799901,1.2374060312000983,0.14666666666666667,-0.72,-0.15222222222222223,0.07916455513392119,0.0891709612272823,1.1126888352449587
1592296479.5564315,-6.15656734251895,7.2875822411411075,1.40937306299242,0.12135319816287667,-0.7298441266403627,-0.14800331080492388,-0.018254318552151774,0.08021025662281724,1.2360416174259579
1592296479.5664315,-6.15936354316178,7.316217346729546,1.3984269017838835,0.10666666666666667,-0.7355555555555555,-0.14555555555555555,-0.034203818929859145,0.038260940021453,1.2874907750837932
1592296479.5764315,-6.020334758605759,7.24,1.1553133795193764,0.10666666666666667,-0.7355555555555555,-0.14555555555555555,0.07366552790303052,0.006549648888084236,1.2208631431198744
1592296479.5864315,-6.044382226903832,7.491688970817074,1.0056177730961673,0.10666666666666667,-0.7355555555555555,-0.14555555555555555,0.08092895798821514,-0.08026967011062293,1.2179683362744442
1592296479.5964315,-5.9834383077334445,7.545625538488963,1.090967646097626,0.10666666666666667,-0.7355555555555555,-0.14555555555555555,0.05962750240419232,-0.09773537876868749,1.2377247475003648
1592296479.6064315,-5.8267668047481465,7.8177007693111005,1.1029327810074145,0.08412403352633799,-0.7386018573312757,-0.1504296383967077,-0.009141303973790038,-0.018260546030755147,1.3370332684636799
1592296479.6164315,-5.8175898741080765,8.018597009498706,1.2120506294596192,0.06555555555555556,-0.7411111111111112,-0.15444444444444444,-0.03827322307914348,0.06596787134856504,1.4176248557940405
1592296479.6264315,-5.746525244482047,7.839575733446139,1.02508273819892,0.06555555555555556,-0.7411111111111112,-0.15444444444444444,0.018340951420811713,0.08530648503702899,1.4359586270950928
1592296479.6364315,-5.224177438588123,7.728481039828285,1.1407593608394944,0.06555555555555556,-0.7411111111111112,-0.15444444444444444,0.09599308284416744,-0.016279576288531175,1.3984312749344912
1592296479.6464314,-4.883646190257515,7.786095941220107,1.259742131477622,0.06555555555555556,-0.7411111111111112,-0.15444444444444444,0.11166247747181213,-0.06336663720751085,1.4324115970586644
1592296479.6564314,-4.602467403796616,7.642536361114414,1.3065747235762692,0.06124052717561218,-0.7411111111111112,-0.1464308203102639,0.14695539325313556,0.041054542433060254,1.4475851029082498
1592296479.6664314,-4.3180270367555895,7.359672439307283,1.4830432348118225,0.057777777777777775,-0.7411111111111112,-0.14,0.2747935937380178,0.13998531131014352,1.4308241038835352
1592296479.6764314,-4.037661683184949,8.616850887507699,1.4578293857438827,0.057777777777777775,-0.7411111111111112,-0.14,0.5820449563053637,0.4019549571045013,1.4444040746899194
1592296479.6864314,-4.336968011126564,8.465688456189152,1.2337969401947149,0.057777777777777775,-0.7411111111111112,-0.14,0.5024132943093135,0.2699313112959241,1.3104534029056172
1592296479.6964314,-4.2550679821922754,7.969832751774756,1.2464577066538323,0.057777777777777775,-0.7411111111111112,-0.14,0.5116372405306268,0.16311851179183015,1.2525609820993973
1592296479.7064314,-3.4507552277453017,8.556525952371612,1.1896068892463416,0.026196747180701044,-0.750134262710276,-0.13548842420041762,0.5745581495150985,0.29783313754339447,1.164331738654871
1592296479.7164314,-3.550473276058694,8.475363035049039,1.3648262753744393,-0.0044444444444444444,-0.7588888888888888,-0.13111111111111112,0.49270797879947154,0.16058255712073455,1.1099323466188267
1592296479.7264314,-3.2579405659346663,8.99278378673659,0.8413918933682946,-0.0044444444444444444,-0.7588888888888888,-0.13111111111111112,0.50892327002017,0.0009215988682448467,0.7769203595578692
1592296479.7364314,-3.0425756535089494,9.033068966910427,0.8945925417154862,-0.0044444444444444444,-0.7588888888888888,-0.13111111111111112,0.49139117149332734,0.08214470114659293,0.5302115433219827
1592296479.7464314,-3.452516765285996,9.4737483234714,1.2304702169625246,-0.0044444444444444444,-0.7588888888888888,-0.13111111111111112,0.3889029045140363,0.09747474536867896,0.28300780612048665
1592296479.7564313,-2.9608436886854155,9.315905820797907,0.9907652060170046,-0.027121575466899212,-0.7588888888888888,-0.12787152096504614,0.18222652831155967,0.07312133380667707,0.19831146671716143
1592296479.7664313,-3.04846227736642,9.215607764658795,0.73004602761657,-0.051111111111111114,-0.7588888888888888,-0.12444444444444444,0.1534465571247704,0.02990343300786012,0.17710830747671535
1592296479.7764313,-3.448110499036661,9.520138123795826,0.6750560364711948,-0.051111111111111114,-0.7588888888888888,-0.12444444444444444,0.20805272748365006,0.08944954501835135,-0.34078156323942416
1592296479.7864313,-3.2554261814844883,9.21836621607313,0.7947040553418275,-0.051111111111111114,-0.7588888888888888,-0.12444444444444444,-0.011992247042499068,0.06119370883015943,-0.35747952720869414
1592296479.7964313,-3.7058139098528122,9.023953008380936,0.4229573030896885,-0.051111111111111114,-0.7588888888888888,-0.12444444444444444,-0.06357979284386475,0.08247538989319778,-0.6574013856654365
1592296479.8064313,-3.785686945159679,8.455129318627263,0.7251158679528074,-0.061922891339900685,-0.7588888888888888,-0.11273168252992241,0.023469902779558856,0.10953855176918074,-0.7135487982149727
1592296479.8164313,-4.081245266206282,8.416505532041285,0.49475829806192917,-0.07777777777777778,-0.7588888888888888,-0.09555555555555556,0.010427814158834842,0.263749955562816,-0.6705973563213645
1592296479.8264313,-4.504993724463909,8.822509413304136,1.006118781210778,-0.07777777777777778,-0.7588888888888888,-0.09555555555555556,-0.16189324721428305,-0.14357313354458823,-0.7376821890433647
1592296479.8364313,-4.5074543400942035,8.65848553301932,0.905939873113525,-0.07777777777777778,-0.7588888888888888,-0.09555555555555556,0.03837707423684715,-0.06699858968337122,-0.970228235485983
1592296479.8464313,-4.568538204981822,8.448162314834288,0.7578699558306541,-0.07777777777777778,-0.7588888888888888,-0.09555555555555556,0.13965564224540772,0.060719461113357076,-1.059772701948273
1592296479.8564312,-4.421062706790609,8.103598156609422,0.44759610839766817,-0.07277046898797332,-0.7638961976786933,-0.09555555555555556,-0.19436990726370185,-0.2706281651750023,-0.9646283894987414
1592296479.8664312,-4.809352818371607,8.35482254697286,0.8320250521920668,-0.06333333333333334,-0.7733333333333333,-0.09555555555555556,-0.3551189364528859,-0.25062235756847595,-1.0004762895396098
1592296479.8764312,-4.890747476928059,8.932101030816558,0.9556727292352528,-0.06333333333333334,-0.7733333333333333,-0.09555555555555556,-0.3739782260303146,-0.42395810380364846,-0.9098797996443597
1592296479.8864312,-4.839657954178767,8.441790900290416,0.9111971603743143,-0.06333333333333334,-0.7733333333333333,-0.09555555555555556,-0.269218022704569,-0.4431353096211409,-1.0507410792661014
1592296479.8964312,-5.033067792964549,8.296474844058583,1.327094307893862,-0.06333333333333334,-0.7733333333333333,-0.09555555555555556,-0.013377943938646095,-0.19090018615719345,-1.0334173899359294
1592296479.9064312,-5.453137816114488,8.880586551656538,1.9637243677710252,-0.05056045655535952,-0.7733333333333333,-0.10358422095885339,-0.15084493919513675,-0.5074441298487818,-0.9493745581954035
1592296479.9164312,-5.462791170490852,8.786560723621427,1.8877104684452926,-0.024444444444444446,-0.7733333333333333,-0.12,-0.1534864222321385,-0.7179660287508435,-1.1488777713579845
1592296479.9264312,-4.79687454279444,7.92282474657749,0.740584178075034,-0.024444444444444446,-0.7733333333333333,-0.12,-0.05168231193505579,-0.17713591716176175,-1.035044346563163
1592296479.9364312,-5.027292667192316,8.10597711036246,0.850562444747091,-0.024444444444444446,-0.7733333333333333,-0.12,-0.293239021588524,-0.2936372961491846,-1.0670155223592748
1592296479.9464312,-4.87,8.33,0.76,-0.024444444444444446,-0.7733333333333333,-0.12,-0.3337942194439155,-0.29779680362153244,-1.0930124440614488
1592296479.9564312,-5.142560635575417,8.146119323173293,1.2418051258546274,-0.020745748613286142,-0.7713417278857866,-0.11430969872129491,-0.38082052153687423,-0.33212132892223895,-1.0711429138897761
1592296479.9664311,-5.150545704677469,7.670682130846836,1.7692009324365638,-0.01,-0.7655555555555555,-0.09777777777777778,-0.36224723647737483,-0.26090839814976546,-1.0643170665048531
1592296479.9764311,-5.330476294635534,7.820952589271067,1.4551965877399247,-0.01,-0.7655555555555555,-0.09777777777777778,-0.24432820009493597,-0.13054310252768409,-1.044907325513699
1592296479.9864311,-5.429620819594913,7.3253874234573715,1.6049587847385776,-0.01,-0.7655555555555555,-0.09777777777777778,-0.07083386501591504,0.162553568497354,-1.1765715977570639
1592296479.996431,-5.712917778671444,7.350809052023544,1.6564588893357217,-0.01,-0.7655555555555555,-0.09777777777777778,-0.18518951204684048,0.05364021691098145,-1.0693801831855665
1592296480.006431,-5.7197261663286,7.666509407568022,1.6972319367699518,0.001994940663542468,-0.7677084936233709,-0.10023827842670957,-0.32016009357772074,-0.12362556851963219,-1.0346650522628416
1592296480.016431,-5.51,7.37,1.69,0.03333333333333333,-0.7733333333333333,-0.10666666666666667,-0.3643374813538163,-0.17016960206944715,-1.1159198904938745
1592296480.026431,-6.109769396130545,7.323469108573662,1.503294899355091,0.03333333333333333,-0.7733333333333333,-0.10666666666666667,-0.1541729838840294,0.13267777944263393,-1.1671953630590608
1592296480.036431,-6.251802307526933,7.077085493156249,1.3938207964073286,0.03333333333333333,-0.7733333333333333,-0.10666666666666667,-0.15541137528781274,0.02602601915083423,-1.1179824708493027
1592296480.046431,-6.7,7.23,1.32,0.03333333333333333,-0.7733333333333333,-0.10666666666666667,-0.21925698728178766,-0.10799224746714915,-1.1202832136238603
1592296480.056431,-6.220554527952889,6.845718545921256,1.655044732173191,0.04213410005075099,-0.7702411720542406,-0.10666666666666667,-0.21514863467783776,0.15425790944513262,-1.1858995820218532
1592296480.066431,-6.81,6.83,1.49,0.07444444444444444,-0.7588888888888888,-0.10666666666666667,-0.42433317439112134,0.2159844949342983,-1.1464631524037752
1592296480.076431,-6.466173797384172,6.552107625803591,1.7301296829971182,0.07444444444444444,-0.7588888888888888,-0.10666666666666667,-0.2961230760087971,-0.10221762725129656,-1.0737990957112238
1592296480.086431,-6.44,6.31,1.56,0.07444444444444444,-0.7588888888888888,-0.10666666666666667,-0.4003348971761993,-0.0272707695624114,-0.9610219193793778
1592296480.096431,-6.7872491865509765,6.708500542299349,1.8248692671211653,0.07444444444444444,-0.7588888888888888,-0.10666666666666667,-0.284672207030372,-0.07585843714811749,-1.015901068434172
1592296480.106431,-7.186453757952625,6.310457568024154,1.8343136479637683,0.08102372708066248,-0.7576051264232854,-0.10939466190607415,0.010174160397788554,0.08279135489833143,-1.05098842439939
1592296480.116431,-6.81,5.78,2.63,0.12,-0.75,-0.12555555555555556,0.2901609881440573,0.19198621771937624,-1.1639164449237185
1592296480.126431,-7.294347314778519,6.341172089376715,1.9342728341826734,0.12,-0.75,-0.12555555555555556,0.2830098675673895,0.11044822026184471,-1.0636262923426243
1592296480.136431,-7.663842937906789,6.4408199914485245,1.483731768730106,0.12,-0.75,-0.12555555555555556,0.17558737595393226,0.008401454414270412,-0.8038695266438937
1592296480.146431,-7.663064251878763,6.569219111728461,1.4361614488727428,0.12,-0.75,-0.12555555555555556,0.13241212065871613,-0.04857773253560196,-0.7339680969891693
1592296480.156431,-7.478565161610727,6.420164300790465,1.5336473120059595,0.12254107519761619,-0.74929414577844,-0.12372033457949942,0.1543925764776533,0.027958954988408828,-0.7930327599686979
1592296480.166431,-7.4,6.49,1.49,0.14,-0.7444444444444445,-0.1111111111111111,0.11344640137963141,-0.0272707695624114,-0.5606870222031783
1592296480.176431,-7.447120797600884,6.476153785447467,1.495296732782659,0.14,-0.7444444444444445,-0.1111111111111111,0.052388630452029114,-0.08438715600962612,-0.5680471313051544
1592296480.186431,-7.322672170276129,6.411264151356559,1.538639936934767,0.14,-0.7444444444444445,-0.1111111111111111,0.00855213053314661,-0.06098001333172148,-0.5708064501493961
1592296480.196431,-7.659021450531023,6.5926488261598655,1.3924343208496366,0.14,-0.7444444444444445,-0.1111111111111111,-0.01504789326895134,0.0009761990401211951,-0.5571931549250182
1592296480.206431,-7.622388729737284,6.167709264952487,1.3338219675796534,0.14,-0.7444444444444445,-0.1111111111111111,-0.2108523807621558,-0.10132165565020607,-0.45089929028585
1592296480.216431,-7.61,6.18,1.57,0.16,-0.75,-0.10666666666666667,0.08508480103472357,-0.10144726277217041,-0.5410520681182421
1592296480.226431,-7.133673090090971,5.9494639538296,1.992117773647657,0.16,-0.75,-0.10666666666666667,0.022656941975119416,-0.2361089339463177,-0.35748351863518024
1592296480.236431,-7.34,6.13,1.76,0.16,-0.75,-0.10666666666666667,0.0545415391248228,-0.38615409700374537,-0.409061543436171
1592296480.2464309,-7.2118289605447625,6.44646344882836,1.5535365511716404,0.16,-0.75,-0.10666666666666667,-0.032112852271160036,-0.35014344177711254,-0.43048606735660955
1592296480.2564309,-7.35764236463547,6.42675825137377,1.573831157467362,0.16055666390551415,-0.749934510128763,-0.10679764640914059,-0.10048502105115054,-0.31707378530729863,-0.2717884823687367
1592296480.2664309,-7.28,6.32,1.7,0.17888888888888888,-0.7477777777777778,-0.1111111111111111,-0.10471975511965977,-0.23343778745424157,-0.4570580978660151
1592296480.2764308,-7.7926030886801465,6.252728864830441,1.6074027490314706,0.17888888888888888,-0.7477777777777778,-0.1111111111111111,-0.07604739854482882,-0.28923989232172004,-0.38152117779277
1592296480.2864308,-7.181519963702359,6.050461193551831,1.638847016120423,0.17888888888888888,-0.7477777777777778,-0.1111111111111111,0.008646583682522479,-0.3094894917961826,-0.3765286536924972
1592296480.2964308,-7.31,5.99,1.79,0.17888888888888888,-0.7477777777777778,-0.1111111111111111,-0.05235987755982988,-0.2781618495365963,-0.2083486794568231
1592296480.3064308,-7.152291440735832,5.854779290677591,2.087381210587621,0.17901982835950783,-0.7477414057026058,-0.11102381813069848,0.05414160727027696,-0.2969040985890641,-0.24160922595119783
1592296480.3164308,-7.5,6.58,1.69,0.1988888888888889,-0.7422222222222222,-0.09777777777777778,-0.006544984694978735,-0.16144295580947549,-0.32288591161895097
1592296480.3264308,-7.160325813178777,6.08697099368957,2.0756999702082712,0.1988888888888889,-0.7422222222222222,-0.09777777777777778,0.07159333690343611,-0.28677835801910817,-0.4229384897885676
1592296480.3364308,-7.27,6.473240699343483,1.59,0.1988888888888889,-0.7422222222222222,-0.09777777777777778,0.1121897782818152,-0.28678915901683616,-0.24262892941602876
1592296480.3464308,-7.339899596577238,6.38323552291188,1.6057837798722796,0.1988888888888889,-0.7422222222222222,-0.09777777777777778,0.14569035051326587,-0.2871546666378638,-0.040241960609118575
1592296480.3564308,-7.575120936374984,6.360472167447583,1.6588982759556414,0.1988888888888889,-0.7422222222222222,-0.09777777777777778,0.1183762847745642,-0.4055156181722377,-0.15363671837281942
1592296480.3664308,-7.14,6.13,1.47,0.21666666666666667,-0.7355555555555555,-0.11333333333333333,-0.004363323129985824,-0.33052172709642613,-0.13199052468207118
1592296480.3764307,-7.452569654973293,6.264888118954815,1.8622347336509313,0.21666666666666667,-0.7355555555555555,-0.11333333333333333,0.09304359816874565,-0.26416387808342606,-0.3061881851585454
1592296480.3864307,-7.191061175172703,6.0772309632003365,2.001384518399832,0.21666666666666667,-0.7355555555555555,-0.11333333333333333,0.10730710797328097,-0.25542912628222386,-0.12422683292652917
1592296480.3964307,-7.440853837322265,6.3745090523712795,1.8946289852512586,0.21666666666666667,-0.7355555555555555,-0.11333333333333333,0.14370670045509354,-0.19073261490737292,-0.1405639363361399
1592296480.4064307,-6.900036209485119,5.7744237392917075,2.3465450852247636,0.21666666666666667,-0.7355555555555555,-0.11333333333333333,0.020061633369196252,-0.3127614066065264,-0.07672105855976155
1592296480.4164307,-6.97,5.93,2.3,0.21666666666666667,-0.7422222222222222,-0.09888888888888889,0.06981317007977318,-0.20943951023931953,0.01090830782496456
1592296480.4264307,-7.394149971379508,6.341786914213185,1.9644956571513899,0.21666666666666667,-0.7422222222222222,-0.09888888888888889,-0.05747465525937599,-0.17990218754981208,0.019314337088313843
1592296480.4364307,-7.228735153478328,6.065823435652218,1.9757905290760451,0.21666666666666667,-0.7422222222222222,-0.09888888888888889,0.18167865484332008,-0.19697760003504747,-0.024695323076656103
1592296480.4464307,-7.443631113385481,6.223854448424593,1.8363688866145187,0.21666666666666667,-0.7422222222222222,-0.09888888888888889,0.1887931114413346,-0.16753682348299195,0.015722747976412658
1592296480.4564307,-7.5049557716207325,6.331172600336282,1.7750442283792676,0.21666666666666667,-0.7422222222222222,-0.09888888888888889,0.13026013962838373,-0.22439742467271567,-0.04113785321331104
1592296480.4664307,-7.07,5.91,1.95,0.20444444444444446,-0.7477777777777778,-0.11333333333333333,0.1712604328519436,-0.1854412330243975,-0.11344640137963141
1592296480.4764307,-7.5529381740347405,6.433391509563404,1.6313600065859883,0.20444444444444446,-0.7477777777777778,-0.11333333333333333,0.10999990175082014,0.04256143864413294,-0.14035487778432063
1592296480.4864306,-7.23194028787231,6.109731366680918,1.9214825899007173,0.20444444444444446,-0.7477777777777778,-0.11333333333333333,-0.020364350982680735,-0.031069685828925116,0.0762995480760201
1592296480.4964306,-7.442043251036222,5.897608578122184,1.9677606775995673,0.20444444444444446,-0.7477777777777778,-0.11333333333333333,0.04802973738823033,-0.00849896555853222,0.013749225131925415
1592296480.5064306,-7.880445485673094,6.124368354658498,2.3381349792755453,0.20444444444444446,-0.7477777777777778,-0.11333333333333333,0.07936156635542184,-0.06456644897350648,-0.014284516575561713
1592296480.5164306,-6.79,5.91,2.31,0.2088888888888889,-0.7355555555555555,-0.09888888888888889,0.05017821599483697,-0.15489797111449674,-0.006544984694978735
1592296480.5264306,-7.289802792458784,6.079932949435986,1.9501419894296759,0.2088888888888889,-0.7355555555555555,-0.09888888888888889,0.18429748270800222,-0.07311793043573744,-0.03925700096648246
1592296480.5364306,-7.408848209444631,5.800732229996644,1.9550267227802018,0.2088888888888889,-0.7355555555555555,-0.09888888888888889,0.09367414642292143,-0.19122158564393288,0.13614833305075788
1592296480.5464306,-7.429685395234327,5.973493361470148,1.8440480084410447,0.2088888888888889,-0.7355555555555555,-0.09888888888888889,0.1398078479563279,-0.06584083108781326,0.12178384750338447
1592296480.5564306,-7.5919549810955775,6.047252264134353,1.8661756792403061,0.2088888888888889,-0.7355555555555555,-0.09888888888888889,0.12291156683938027,-0.14549472778199485,0.14350763751088855
1592296480.5664306,-7.43,6.0,1.72,0.19666666666666666,-0.7422222222222222,-0.08666666666666667,0.08072147790473774,0.011999138607461015,-0.06326818538479445
1592296480.5764306,-7.523583899481335,5.895732096330387,2.142379769644727,0.19666666666666666,-0.7422222222222222,-0.08666666666666667,0.06852686790349603,-0.19090277123467447,-0.013758381151487187
1592296480.5864305,-7.2869791053214295,6.11868059645238,1.6395486560976182,0.19666666666666666,-0.7422222222222222,-0.08666666666666667,0.08185776532322007,-0.12476759627470393,0.07857003510962576
1592296480.5964305,-7.168699922745834,6.202403156384505,1.7563624324026046,0.19666666666666666,-0.7422222222222222,-0.08666666666666667,0.0885843441333208,-0.22014869720408664,-0.09439303911792006
1592296480.6064305,-7.415577750800132,6.102109038737447,1.972380531950116,0.19666666666666666,-0.7422222222222222,-0.08666666666666667,0.01957572345421242,-0.3615322127417721,0.041941065150562354
1592296480.6164305,-7.19,6.23,1.49,0.19666666666666666,-0.7555555555555555,-0.08666666666666667,-0.05890486225480862,-0.23125612588924865,0.04145156973486533
1592296480.6264305,-6.4274663157894745,6.081982105263158,1.9291505263157893,0.19666666666666666,-0.7555555555555555,-0.08666666666666667,0.04134753892550303,0.008211314833461743,0.04118173264656357
1592296480.6364305,-7.308801463204706,6.139200258212595,1.9179995696456749,0.19666666666666666,-0.7555555555555555,-0.08666666666666667,-0.025045762691615656,-0.050047241189938176,-0.09320117042599113
1592296480.6464305,-6.882087551740821,6.06368125862347,2.0647250344938803,0.19666666666666666,-0.7555555555555555,-0.08666666666666667,0.04529824012876166,-0.078004809452657,0.0730109753016346
1592296480.6564305,-7.062464923755084,6.093744153959181,2.1849766158367228,0.19666666666666666,-0.7555555555555555,-0.08666666666666667,-0.10145281397438927,-0.11817688571553073,-0.043406062031591294
1592296480.6664305,-7.32,6.05,2.0,0.19666666666666666,-0.7355555555555555,-0.08,-0.06326818538479445,-0.11453723216212788,-0.01090830782496456
1592296480.6764305,-7.25892109631189,6.0063722116513505,2.1919622687340596,0.19666666666666666,-0.7355555555555555,-0.08,0.04714185466204371,-0.047910483858001396,-0.3116804858835926
1592296480.6864305,-6.920297660921562,6.083514992965178,1.9179207703130494,0.19666666666666666,-0.7355555555555555,-0.08,0.03365364521567196,-0.10200879314508056,-0.16598438305970403
1592296480.6964304,-7.432821427297693,6.199788865508756,1.8985220585612896,0.19666666666666666,-0.7355555555555555,-0.08,-0.05166894155294172,-0.029054598266681435,-0.08900640753057605
1592296480.7064304,-7.178521701915189,6.1923094618210355,1.846166232747245,0.19666666666666666,-0.7355555555555555,-0.08,-0.02719265022109206,0.06232355603889064,-0.30521364762858144
1592296480.7164304,-7.639205804560726,6.382511258846237,1.883331188791193,0.19,-0.7355555555555555,-0.07444444444444444,-0.07962854172291843,-0.13863266965691196,-0.17653219680086457
1592296480.7264304,-6.9600260825357525,6.196137795362614,1.912327755796733,0.19,-0.7355555555555555,-0.07444444444444444,-0.11027182605006204,-0.02711476781261029,-0.18519300458325338
1592296480.7364304,-6.842599818629356,6.27098613810079,1.8215240316103123,0.19,-0.7355555555555555,-0.07444444444444444,-0.04556063418576479,0.026600895734818487,-0.16904943374705608
1592296480.7464304,-7.358691141699811,6.469993951502044,2.172261771660038,0.19,-0.7355555555555555,-0.07444444444444444,0.001686240168715861,-0.12111708569423109,-0.1559868225306656
1592296480.7564304,-6.628365255961436,6.231677083524258,2.3183269488077127,0.19,-0.7355555555555555,-0.07444444444444444,-0.10816925080147419,-0.10853821268237725,-0.0779978098571719
1592296480.7664304,-7.28,6.35,2.45,0.17555555555555555,-0.7355555555555555,-0.08,-0.017453292519943295,-0.001090830782496456,-0.08290313946973066
1592296480.7764304,-7.5387935967829245,6.180788802103472,2.469907199752533,0.17555555555555555,-0.7355555555555555,-0.08,-0.04351175605998546,0.0054237851025140844,-0.05250159867301479
1592296480.7864304,-7.218023261267176,6.342701073957698,2.375322187309478,0.17555555555555555,-0.7355555555555555,-0.08,-0.010914651351533503,-0.07949165226992018,0.008875156402146164
1592296480.7964303,-6.781147028154327,5.676540577469346,2.5919219014059185,0.17555555555555555,-0.7355555555555555,-0.08,0.11109702227747857,0.048455777284163164,-0.05751585824558396
1592296480.8064303,-6.99982794577685,5.608674085793391,2.6296255078925608,0.17555555555555555,-0.7355555555555555,-0.08,0.10780676191213759,0.12166407041299976,-0.2014647492292514
1592296480.8164303,-7.73,6.36,2.27,0.19555555555555557,-0.7333333333333333,-0.06666666666666667,0.08944812416470939,0.10799224746714915,-0.06326818538479445
1592296480.8264303,-7.4147526100771675,5.976591012256015,2.295560599182932,0.19555555555555557,-0.7333333333333333,-0.06666666666666667,0.07271875112003157,0.02062774378938713,-0.09115047379259084
1592296480.8364303,-7.559039067723756,6.372424061514949,2.267582147292005,0.19555555555555557,-0.7333333333333333,-0.06666666666666667,0.20637801534474404,0.013791262405679353,-0.121628648162017
1592296480.8464303,-6.905892400123427,5.9164647051349535,2.1230976712104987,0.19555555555555557,-0.7333333333333333,-0.06666666666666667,0.2179200646946037,0.2540827495083558,-0.02102327697181996
1592296480.8564303,-7.804241373677237,6.281894796072096,2.2981995897845464,0.19555555555555557,-0.7333333333333333,-0.06666666666666667,0.14234790286945992,0.1261913987273433,0.02382174213321041
1592296480.8664303,-6.72,6.35,2.14,0.18777777777777777,-0.7333333333333333,-0.04,0.05235987755982988,-0.04690572364734761,0.1778054175469223
1592296480.8764303,-7.1598806035745675,6.358797612071491,2.377535525930267,0.18777777777777777,-0.7333333333333333,-0.04,0.10226274907206484,-0.09488925394757353,0.042491862100285244
1592296480.8864303,-6.83,6.39,2.31,0.18777777777777777,-0.7333333333333333,-0.04,0.10690141668465267,0.11017390903214205,0.13635384781205698
1592296480.8964303,-6.798069499651683,6.10262549686514,2.60535712822194,0.18777777777777777,-0.7333333333333333,-0.04,0.17395065409453606,0.1528416055657042,0.1232923080568849
1592296480.9064302,-7.1050139512793615,6.4182730097164225,2.3210306136584014,0.18777777777777777,-0.7333333333333333,-0.04,0.20208323998245917,0.033366042629508375,-0.02704896823871894
1592296480.9164302,-6.77,6.34,2.18,0.18777777777777777,-0.7333333333333333,-0.03111111111111111,0.2083486794568231,-0.007635815477475192,0.20616701789183017
1592296480.9264302,-7.060024143897629,6.219746086676593,2.1587787211782223,0.18777777777777777,-0.7333333333333333,-0.03111111111111111,0.18519985527408775,0.0648971669617622,0.08965126950539562
1592296480.9364302,-6.95,6.3,2.04,0.18777777777777777,-0.7333333333333333,-0.03111111111111111,0.24434609527920614,0.07090400086226964,0.028361600344907853
1592296480.9464302,-6.9877602980749325,6.367968536534879,1.7530217346305113,0.18777777777777777,-0.7333333333333333,-0.03111111111111111,0.12242341260992641,-0.04937107798715497,-0.1125085262527059
1592296480.9564302,-6.877897519316795,6.341159007726718,1.953045953639691,0.18777777777777777,-0.7333333333333333,-0.03111111111111111,0.23740718714589598,-0.0546150300966136,-0.013433913052704777
1592296480.9664302,-6.879039510710388,6.010565382185724,2.3297547809108137,0.18132455317546917,-0.7333333333333333,0.008683773936458715,0.10376267060263336,-0.09758923115379178,0.019634954084936207
1592296480.9764302,-7.2762476032666585,6.038658302757723,2.0307335779382174,0.1811111111111111,-0.7333333333333333,0.01,0.08763235376288311,-0.06342138455706456,-0.16907430416124655
1592296480.9864302,-7.096512294103604,5.894884220577703,2.116743852948198,0.1811111111111111,-0.7333333333333333,0.01,0.11892581444367784,0.13305531510213037,-0.10280724674081827
1592296480.9964302,-7.5053231142741526,5.851365291695427,2.100682645847714,0.1811111111111111,-0.7333333333333333,0.01,0.15054573466587445,-0.03211017088790469,-0.14776835221749784
1592296481.0064301,-7.52,6.024923973474445,1.931554692209793,0.1811111111111111,-0.7333333333333333,0.01,0.27388679243817693,0.1335521319888911,-0.11057461343372357
1592296481.0164301,-7.19,5.85,2.18,0.18777777777777777,-0.7333333333333333,0.0011111111111111111,0.234528618236738,0.1832595714594046,-0.09817477042468103
1592296481.0264301,-7.5470764400434724,5.897610192005796,1.9974942639777804,0.18777777777777777,-0.7333333333333333,0.0011111111111111111,0.3418602551044161,0.12872817530889075,-0.11808305790820198
1592296481.0364301,-7.501719630380888,6.1589046653144015,1.636564495530013,0.18777777777777777,-0.7333333333333333,0.0011111111111111111,0.3466627610843196,0.30359063851917345,-0.1836000719403056
1592296481.04643,-7.438790759234749,5.8087330044519305,1.8468427385392854,0.18777777777777777,-0.7333333333333333,0.0011111111111111111,0.33353040403387846,0.18834097126019275,-0.16357644809313326
1592296481.05643,-7.512932453225698,5.62205695426265,1.8550105925116518,0.18777777777777777,-0.7333333333333333,0.0011111111111111111,0.37135997665826376,0.0728325307205824,-0.2192189907676771
1592296481.06643,-7.919354983672369,6.008363641810719,1.4496536744659816,0.18177200568554414,-0.7223227511642384,0.03314189560302386,0.1268315052192946,0.03226403529593243,-0.14902495569809715
1592296481.07643,-7.701498315291419,5.8284271273926445,1.8069847300881783,0.1811111111111111,-0.7211111111111111,0.03666666666666667,0.3952625223073866,0.16742199725598286,-0.04689149099967291
1592296481.08643,-7.626964743589744,5.929329326923077,1.5681943108974359,0.1811111111111111,-0.7211111111111111,0.03666666666666667,0.257982878561415,0.055236550420257144,-0.07832033908855504
1592296481.09643,-7.6,6.026016971910415,1.2229024115151188,0.1811111111111111,-0.7211111111111111,0.03666666666666667,0.13437091324713005,-0.03120886846878912,0.053085652936250005
1592296481.10643,-7.666208692462865,5.958698331193839,1.4189979827617825,0.1811111111111111,-0.7211111111111111,0.03666666666666667,0.13425332341291418,-0.04826025021885687,0.05981313441414236
1592296481.11643,-7.650058772083261,6.29969879307329,1.4601248906769284,0.1633463937962801,-0.7299934697685266,0.07219610129632868,0.11128477431387973,-0.21151138274847048,0.1068597449262309
1592296481.12643,-7.706628707094282,6.200899762585006,1.5520216490282082,0.16333333333333333,-0.73,0.07222222222222222,0.0510367113650058,-0.03016493224452163,0.06057216403108907
1592296481.13643,-7.388592816427443,5.858291326145182,1.502663278620974,0.16333333333333333,-0.73,0.07222222222222222,-0.058696599802000426,-0.0020446428505374453,0.01546895588325858
1592296481.14643,-7.777900306784941,5.78,1.566178743846465,0.16333333333333333,-0.73,0.07222222222222222,-0.148235184270042,-0.14322598575676967,0.07025812547898314
1592296481.15643,-7.903001044397554,5.926978067651385,1.8139665792783,0.16333333333333333,-0.73,0.07222222222222222,-0.3226445045380494,0.07304806681425882,0.1491073399531646
1592296481.16643,-7.9515822277074975,5.5429540265350195,2.1679111385374883,0.17861695635777708,-0.7175820562926394,0.06649086358805581,-0.38379984116992677,0.19420698898413036,0.36505761141929893
1592296481.17643,-8.123949512057424,5.564586256956206,2.178471247681265,0.1811111111111111,-0.7155555555555555,0.06555555555555556,-0.30515447880391433,0.05534015324113148,0.33062576027654567
1592296481.18643,-7.789192044277086,5.3217483383456745,2.3091258308271625,0.1811111111111111,-0.7155555555555555,0.06555555555555556,-0.3635464505349188,0.0016485276343224664,0.36192970858869106
1592296481.19643,-7.843918896139861,5.497042887759771,2.170683651600164,0.1811111111111111,-0.7155555555555555,0.06555555555555556,-0.32688418850470163,0.07043228031438341,0.31815754224473003
1592296481.20643,-7.675047923322683,5.7046261980830675,1.9407156549520768,0.1811111111111111,-0.7155555555555555,0.06555555555555556,-0.3394972082377724,0.07141561095450759,0.29343696557391885
1592296481.21643,-7.507946048582466,6.139865121456165,1.7415622340077261,0.1586360098067032,-0.6989435241566453,0.08412194358963167,-0.29208488710222574,0.24584517517796983,0.45812378804513043
1592296481.22643,-7.419066222010481,6.229642686993807,1.869285373987613,0.15555555555555556,-0.6966666666666667,0.08666666666666667,-0.29144358479541566,0.23408220392412987,0.4877421959560285
1592296481.23643,-7.5050664437944,6.039723359799415,1.9942256581696614,0.15555555555555556,-0.6966666666666667,0.08666666666666667,-0.32734095023303134,0.09086351471199375,0.4302494612945334
1592296481.24643,-7.370162150475641,6.118568751801672,2.097299654078985,0.15555555555555556,-0.6966666666666667,0.08666666666666667,-0.21764880586657215,0.15169316436110725,0.5547801373540864
1592296481.25643,-7.409060956068901,6.091744558686073,2.099194485245026,0.15555555555555556,-0.6966666666666667,0.08666666666666667,-0.15177160989032684,0.18106334412084385,0.5197767530285283
1592296481.26643,-7.543235983528667,5.909310738042445,2.0854906556857773,0.15555555555555556,-0.6906425227888643,0.08150311477140745,-0.000874184947645254,0.1127060047370171,0.48192420231987215
1592296481.27643,-7.407059322376125,5.923981746961192,2.2549315511044705,0.15555555555555556,-0.6888888888888889,0.08,0.005789865312288665,0.15252605400091918,0.566385261782414
1592296481.28643,-7.203718128327262,5.9913752260628135,1.927215415573499,0.15555555555555556,-0.6888888888888889,0.08,-0.0006407891058339051,0.18967490903063772,0.46200658353909607
1592296481.2964299,-7.510599749829928,5.9338800500340145,1.8367333055366588,0.15555555555555556,-0.6888888888888889,0.08,0.13761765459214653,0.36335123569912,0.4594608029352668
1592296481.3064299,-7.604414947183476,5.929188789612393,1.7348672623256411,0.15555555555555556,-0.6888888888888889,0.08,0.17397303037406597,0.36550822365407226,0.5212589037192625
1592296481.3164299,-7.494173924098913,6.1076956328269025,1.6380579746996375,0.1502318846721618,-0.6835652180054951,0.10218196201414051,0.2261307952919147,0.2834832120849897,0.4317429325072757
1592296481.3264298,-7.513859034426563,6.226753310246487,1.6153803218578122,0.14888888888888888,-0.6822222222222222,0.10777777777777778,0.2267207674787966,0.33819807374821936,0.4248431916679569
1592296481.3364298,-7.062561395710635,6.279419102122458,1.5020935659517725,0.14888888888888888,-0.6822222222222222,0.10777777777777778,0.22577645582166964,0.49933385153219373,0.48198219937352654
1592296481.3464298,-7.370856005150337,6.172945229976872,1.4931164310069387,0.14888888888888888,-0.6822222222222222,0.10777777777777778,0.10928858276841105,0.30162598666831775,0.5836728885981501
1592296481.3564298,-7.3972355610643525,6.2146128625977095,1.6163031526758762,0.14888888888888888,-0.6822222222222222,0.10777777777777778,0.11639830230884685,0.32660805191238895,0.5435888204977208
1592296481.3664298,-7.477136038844594,6.163055977046376,1.70006400529699,0.13105421751378657,-0.6785066656857426,0.10777777777777778,0.23336974407412114,0.46935745795073447,0.6148481082490617
1592296481.3764298,-7.517055483416598,6.12658890331668,1.512332900499593,0.12222222222222222,-0.6766666666666666,0.10777777777777778,0.10819307057377112,0.43762053380889065,0.5960867462069768
1592296481.3864298,-7.3698846163308485,6.006390385514306,1.6832423057052182,0.12222222222222222,-0.6766666666666666,0.10777777777777778,0.1942136089975921,0.2522898617304099,0.47689338781316337
1592296481.3964298,-7.0514565337254185,6.022847822091528,1.511354530417203,0.12222222222222222,-0.6766666666666666,0.10777777777777778,0.2935407391698476,0.20512069444874084,0.4441826458326595
1592296481.4064298,-7.259938095333187,6.09611478323382,1.5284723525770314,0.12222222222222222,-0.6766666666666666,0.10777777777777778,0.2653704824663956,0.2436097186072351,0.5644603508897287
1592296481.4164298,-7.42040805204537,6.304144555332266,1.6486184815559113,0.1188121378642173,-0.6650723798494499,0.1255102164394034,0.28424964315631296,0.22740308819019733,0.6646618586826163
1592296481.4264297,-7.2308839801154585,6.423300593329057,1.5571905067350866,0.11666666666666667,-0.6577777777777778,0.13666666666666666,0.35556373660311547,0.1964352539801227,0.6585338961715108
1592296481.4364297,-7.158823117149172,6.327978327672651,1.4159927758908835,0.11666666666666667,-0.6577777777777778,0.13666666666666666,0.4366371151952334,0.17592855817858039,0.7031605547900559
1592296481.4464297,-6.9161743191403176,6.509327360670971,1.3785005599370965,0.11666666666666667,-0.6577777777777778,0.13666666666666666,0.45869373324313867,0.20111214303009273,0.6157950686961846
1592296481.4564297,-6.890620907021537,6.627689721589914,1.3624482577482053,0.11666666666666667,-0.6577777777777778,0.13666666666666666,0.4858146969954094,0.22123179019900543,0.6064681453460289
1592296481.4664297,-6.983789196310935,6.594785243741765,1.3738866930171278,0.09859376372419851,-0.6577777777777778,0.1313954033084468,0.5817493980709545,0.26458610833572466,0.5807545718948753
1592296481.4764297,-6.85909873872403,6.646972529490999,1.3144899791828237,0.09,-0.6577777777777778,0.1288888888888889,0.6079730383405583,0.281912946728408,0.5841007683550932
1592296481.4864297,-7.039356667101998,6.8931393496147315,0.9200613817421966,0.09,-0.6577777777777778,0.1288888888888889,0.4716215222144685,0.09364952509704791,0.8185657160014025
1592296481.4964297,-6.817799179258486,7.159691154493916,0.8410038664990394,0.09,-0.6577777777777778,0.1288888888888889,0.4444819628968848,0.017929219426090732,0.8612467014475454
1592296481.5064297,-6.511874534586512,7.170650673214322,0.9578388713345544,0.09,-0.6577777777777778,0.1288888888888889,0.42904293239839486,0.08843417645827513,0.871039784951351
1592296481.5164297,-6.590063722716851,7.15209093886788,0.8437271833963612,0.09482929524527953,-0.6412201940796766,0.15096566715302384,0.37662914957528326,0.0765653876125665,0.934485007419591
1592296481.5264297,-6.648505519037579,7.21574724048121,0.7686208607218157,0.09777777777777778,-0.6311111111111111,0.16444444444444445,0.3888374081460045,0.023378791396609828,0.9428513274908624
1592296481.5364296,-6.6002985074626865,7.4843283582089555,0.8549253731343284,0.09777777777777778,-0.6311111111111111,0.16444444444444445,0.3269724567891989,-0.003988858831516895,0.9071316225127618
1592296481.5464296,-6.296529963933408,7.276181240595219,0.740871808345475,0.09777777777777778,-0.6311111111111111,0.16444444444444445,0.22488232036261258,-0.0643761601387931,0.9455981291636782
1592296481.5564296,-6.430560978525041,7.181849874496992,0.7065807402685366,0.09777777777777778,-0.6311111111111111,0.16444444444444445,0.22092259144563456,0.018385316350798556,0.9291554400503014
1592296481.5664296,-6.378445183361576,7.227537807334463,0.5330671100169453,0.07216104840972955,-0.6428809597396739,0.18244538940577562,0.16326891244270764,0.08627461118738738,0.8454492751166406
1592296481.5764296,-6.249074020439406,7.1368587860482435,0.46813438702470106,0.056666666666666664,-0.65,0.19333333333333333,0.1392881550855571,0.02191017732861318,0.80482812127178
1592296481.5864296,-6.661668681361076,7.20181734008899,0.5213713639052493,0.056666666666666664,-0.65,0.19333333333333333,0.16283297178434203,-0.013864080214026853,0.8170110740924488
1592296481.5964296,-6.787520481524829,7.456239759237586,0.2465674636348437,0.056666666666666664,-0.65,0.19333333333333333,0.06408288879650012,0.0681813922815796,0.8618424027950623
1592296481.6064296,-6.6695675332463225,7.374108081413806,0.2145285547991111,0.056666666666666664,-0.65,0.19333333333333333,0.02062554802703606,0.04215061107056017,0.8791106821252875
1592296481.6164296,-6.171140552995391,7.232281105990784,0.5065140674266311,0.056666666666666664,-0.6341204826582586,0.19450959387716604,0.22140885141363023,-0.08348579338453851,0.8132568452452236
1592296481.6264296,-5.827281501779068,7.5038170217986995,0.44737761236759227,0.056666666666666664,-0.62,0.19555555555555557,0.47524750375192254,0.15187147447003324,0.797982445211454
1592296481.6364295,-6.358018020343884,8.400790261785511,-0.4656110910311355,0.056666666666666664,-0.62,0.19555555555555557,0.19728145290139876,0.6585672733857634,1.4520913572874794
1592296481.6464295,-6.088896591289382,7.462369364631639,0.2880647320361429,0.056666666666666664,-0.62,0.19555555555555557,-0.07168505802292602,0.04797632005858582,1.9143880496622288
1592296481.6564295,-5.122555425904317,7.229352886498033,0.7665350157229596,0.056666666666666664,-0.62,0.19555555555555557,0.14575583704644213,-0.14285631075254526,2.0127576053633107
1592296481.6664295,-5.407621701360433,7.55926995574496,0.23389378790362234,0.048725418419566915,-0.6218325957493307,0.2028859385528784,0.010102262367883669,-0.04372373753524583,2.0943239060618413
1592296481.6764295,-5.190998986006895,7.1236629486919485,0.4827211518961671,0.042222222222222223,-0.6233333333333333,0.2088888888888889,-0.11022894831396828,0.035088205821153996,2.086130405603921
1592296481.6864295,-5.1631611363461385,7.432372776965124,0.5571067826622527,0.042222222222222223,-0.6233333333333333,0.2088888888888889,0.1341116358587216,0.027213998324520296,1.7928394717516478
1592296481.6964295,-4.99665825436884,7.77686014951669,0.6592276558259131,0.042222222222222223,-0.6233333333333333,0.2088888888888889,0.0995668119927447,-0.1474967250296102,1.7637076288548403
1592296481.7064295,-4.965467459138187,8.087337295690936,0.8429743437345221,0.042222222222222223,-0.6233333333333333,0.2088888888888889,0.02778669632359096,-0.2540955831460084,1.843593514846357
1592296481.7164295,-4.888487352495319,8.10936658443064,0.6686811520970187,0.013831769527753834,-0.6233333333333333,0.2088888888888889,0.3089781514851203,-0.0818855214181701,1.7770901862294288
1592296481.7264295,-4.82,8.22,0.4,-0.017777777777777778,-0.6233333333333333,0.2088888888888889,0.5606870222031783,0.11235557059713495,1.646063650787152
1592296481.7364295,-4.846076053555751,8.231077151009657,1.0996460711150131,-0.017777777777777778,-0.6233333333333333,0.2088888888888889,0.2818976337111556,-0.11520337876981024,1.3626437981542632
1592296481.7464294,-4.931144063752625,8.503224852071005,0.580479099064707,-0.017777777777777778,-0.6233333333333333,0.2088888888888889,0.4072172398737243,0.04741779884408405,1.2143001937179776
1592296481.7564294,-4.950287519365808,8.894819017726002,0.4374318424176576,-0.017777777777777778,-0.6233333333333333,0.2088888888888889,0.2720749387085716,-0.11574164314018215,1.016814355057944
1592296481.7664294,-4.680521916546005,8.887536527576675,0.449478083453995,-0.04355988474982815,-0.6072195164758019,0.21587154286048588,0.29507238302562777,-0.25946286760589243,0.9763717334804476
1592296481.7764294,-4.774564060913706,9.143246294416244,0.30577340101522843,-0.07111111111111111,-0.59,0.22333333333333333,0.3284601565873255,-0.3070664510482794,1.0987041222239107
1592296481.7864294,-4.150036139135672,8.995051950007529,0.1950112934798976,-0.07111111111111111,-0.59,0.22333333333333333,0.4657850726400004,-0.31851043347045815,0.8759348187465582
1592296481.7964294,-3.873073771473752,9.098389917818722,0.2782552651124901,-0.07111111111111111,-0.59,0.22333333333333333,0.352544632785559,-0.28070499564893825,0.9234329627059482
1592296481.8064294,-3.8377696226288625,9.480129365238957,0.40580668945639786,-0.07111111111111111,-0.59,0.22333333333333333,0.252121673679179,-0.17555034663105962,0.9557898945584715
1592296481.8164294,-3.5603334161182167,8.800147150130385,-0.02747299143176457,-0.07944099507429943,-0.5921920747271547,0.2351705368599694,0.16355614413958053,-0.20319049788505295,1.0557804781643516
1592296481.8264294,-3.297795768917819,9.227550854353133,0.35951017087062653,-0.09222222222222222,-0.5955555555555555,0.25333333333333335,0.09844193077092304,-0.16963528137696313,0.953292819674693
1592296481.8364294,-3.2655661520220636,8.97256256927082,0.14551846792277753,-0.09222222222222222,-0.5955555555555555,0.25333333333333335,0.13484371761312705,-0.04783598184436484,1.074871368913946
1592296481.8464293,-3.369876277949614,8.919597903336244,0.10941232026066632,-0.09222222222222222,-0.5955555555555555,0.25333333333333335,0.14514122599149423,0.021961697457541396,1.0847822902576003
1592296481.8564293,-3.305956052351179,9.1207498844012,0.250058905128566,-0.09222222222222222,-0.5955555555555555,0.25333333333333335,0.08050178101929013,-0.053235704522708815,1.1324266749707035
1592296481.8664293,-3.1234165012758717,9.187481334467442,0.09870333616860409,-0.10080353673775845,-0.5946522592907623,0.25062344453895347,0.07908652039792258,-0.011134185364370053,1.124241276777852
1592296481.8764293,-3.07,9.14,-0.02,-0.11333333333333333,-0.5933333333333334,0.24666666666666667,0.16907877128695067,0.10799224746714915,1.0471975511965976
1592296481.8864293,-3.0010968006773227,9.322193601354645,-0.09963439977422583,-0.11333333333333333,-0.5933333333333334,0.24666666666666667,-0.018718731231526023,-0.0260850924469011,1.1386473555844256
1592296481.8964293,-3.100970436864153,9.44582262118492,-0.0171834829443447,-0.11333333333333333,-0.5933333333333334,0.24666666666666667,-0.033783505878781324,0.011469847405517193,1.0525987759888855
1592296481.9064293,-2.916956685648525,9.208653346296554,0.13339332129605747,-0.11333333333333333,-0.5933333333333334,0.24666666666666667,-0.06426410767741518,0.023775020413766234,1.0212085115913017
1592296481.9164293,-2.72301870099759,9.050603740199518,0.4207794624607218,-0.12275888017734932,-0.589013291029826,0.24902305337767067,-0.12541678749933877,-0.01115380215616674,0.977713670313957
1592296481.9264293,-2.82,9.07,0.66,-0.14,-0.5811111111111111,0.25333333333333335,-0.08944812416470939,-0.07744898555724837,0.988292688941789
1592296481.9364293,-2.8446334161922326,9.499032421885442,0.13950872691310506,-0.14,-0.5811111111111111,0.25333333333333335,-0.12230498063858192,0.06574418145248165,0.9451969862097042
1592296481.9464293,-2.7662585421412302,9.345354261579347,0.1994841495823842,-0.14,-0.5811111111111111,0.25333333333333335,-0.06086177809836035,0.004806706086140064,0.7777833652556646
1592296481.9564292,-2.5644780069908877,9.568241771563656,0.13456044289091387,-0.14,-0.5811111111111111,0.25333333333333335,0.02295838110881112,-0.02193948922017981,0.7073527947124126
1592296481.9664292,-2.4632745663823448,9.68659320797793,0.11022037606620795,-0.1536433043374097,-0.5781612074705901,0.2559144990187892,-0.053112740001147005,-0.03973288086935921,0.5117102177693406
1592296481.9764292,-2.49,9.72,0.01,-0.1811111111111111,-0.5722222222222222,0.2611111111111111,-0.04145156973486533,0.00545415391248228,0.46142142099600086
1592296481.9864292,-2.04,9.66844855685821,0.10954681667630514,-0.1811111111111111,-0.5722222222222222,0.2611111111111111,-0.11703643381663673,0.03968379417782557,0.5754744002204598
1592296481.9964292,-1.9816741962471613,9.699169355802558,-0.016664515357953866,-0.1811111111111111,-0.5722222222222222,0.2611111111111111,-0.19497984224760423,0.037636830059712606,0.48434153968276594
1592296482.0064292,-1.928467101940697,9.641532898059303,0.010608181227905633,-0.1811111111111111,-0.5722222222222222,0.2611111111111111,-0.2769807523297781,0.007412864492206274,0.35481990211124703
1592296482.0164292,-2.0001904487087,9.566897994517385,0.13310200548261433,-0.18030234534057937,-0.5693106654483079,0.25900832010772856,-0.314242364284554,0.0011175861183822435,0.4064330677618854
1592296482.0264292,-2.06,9.49,0.21,-0.17555555555555555,-0.5522222222222222,0.24666666666666667,-0.3403392041388943,-0.08835729338221293,0.6086835766330224
1592296482.0364292,-2.12,9.372542674705537,0.264743951766771,-0.17555555555555555,-0.5522222222222222,0.24666666666666667,-0.16893369348464352,-0.08673035738495524,0.41014346641940563
1592296482.0464292,-2.0755055783910747,9.388898884321785,0.252629242513212,-0.17555555555555555,-0.5522222222222222,0.24666666666666667,-0.21494757156146413,-0.11133094549266484,0.6559226858386047
1592296482.0564291,-1.9079531349458942,9.445796268300446,0.33715925366008914,-0.17555555555555555,-0.5522222222222222,0.24666666666666667,-0.16441809087968662,-0.11035858560736936,0.6547582665411349
1592296482.0664291,-1.6988569909622542,9.564178628389156,0.36278575225943643,-0.18019847598794966,-0.5539246263807667,0.24697619469549295,-0.1883008218540041,0.04253428162796521,0.5703485005850981
1592296482.0764291,-1.63,9.59,0.38,-0.2088888888888889,-0.5644444444444444,0.24888888888888888,-0.2127120025868089,-0.10581058590215622,0.495237175253391
1592296482.086429,-1.5851624773550725,9.564837522644927,0.40967504528985504,-0.2088888888888889,-0.5644444444444444,0.24888888888888888,-0.31253472165541596,-0.007639829517379081,0.6035564743410169
1592296482.096429,-1.5743859159515339,9.517067606223401,0.46416056187353194,-0.2088888888888889,-0.5644444444444444,0.24888888888888888,-0.23969024511945294,-0.0965317634796734,0.7254544001866919
1592296482.106429,-1.5221255364806867,9.46524964234621,0.6257489270386266,-0.2088888888888889,-0.5644444444444444,0.24888888888888888,-0.24937698656081203,-0.17851344319215642,0.7206158845992809
1592296482.116429,-1.4978455628121399,9.479730695351519,0.6716158278908951,-0.20924796175353227,-0.5642649080121227,0.24888888888888888,-0.271855774802855,-0.21917275486254761,0.7460617074257087
1592296482.126429,-1.42,9.47,0.73,-0.2222222222222222,-0.5577777777777778,0.24888888888888888,-0.24107360293171679,-0.17671458676442586,0.8224864100023278
1592296482.136429,-1.164565584901477,9.572204916442645,0.6001557520161849,-0.2222222222222222,-0.5577777777777778,0.24888888888888888,-0.06157022230717629,-0.045943647355959225,0.5864225629978177
1592296482.146429,-1.0833866268570467,9.603286701500084,0.5433066865714767,-0.2222222222222222,-0.5577777777777778,0.24888888888888888,-0.13533495812207597,-0.03746203035354212,0.6911954920892383
1592296482.156429,-1.03,9.65,0.57,-0.2222222222222222,-0.5577777777777778,0.24888888888888888,-0.06326818538479445,-0.0272707695624114,0.7188574856651644
1592296482.166429,-1.0104872491455612,9.65,0.6285382525633161,-0.2222222222222222,-0.5577777777777778,0.24888888888888888,-0.2218422495446773,-0.18797334465061485,0.5794400198601667
1592296482.176429,-0.9,9.62,0.71,-0.24888888888888888,-0.5455555555555556,0.22666666666666666,-0.22143864884678055,-0.05563236990731925,0.6359543461954338
1592296482.186429,-0.9039833594883487,9.62,0.6924791993604358,-0.24888888888888888,-0.5455555555555556,0.22666666666666666,-0.13605618114070747,-0.0778744266808395,0.7669967043405979
1592296482.196429,-0.8412917623607922,9.628612471291762,0.6729665901113663,-0.24888888888888888,-0.5455555555555556,0.22666666666666666,-0.0882163839675307,-0.08538240776898702,0.8098973993432668
1592296482.206429,-0.7635424182889802,9.65,0.731614395427755,-0.24888888888888888,-0.5455555555555556,0.22666666666666666,-0.09564090241414479,-0.16419218448208917,0.7577510679305057
1592296482.216429,-0.7335777817467405,9.65,0.7391055545633148,-0.24888888888888888,-0.5455555555555556,0.22666666666666666,-0.09400658501781514,-0.1870726280307044,0.8116835420093845
1592296482.226429,-0.64,9.73,0.75,-0.2877777777777778,-0.5455555555555556,0.24666666666666667,-0.17562375598192942,-0.08835729338221293,0.8246680715673207
1592296482.236429,0.40745494505494506,9.593142857142857,0.6058461538461538,-0.2877777777777778,-0.5455555555555556,0.24666666666666667,0.4838393121629632,-0.412766532208193,0.47009436481744954
1592296482.246429,4.580326431591083,9.296167611452729,-0.029596944657955426,-0.2877777777777778,-0.5455555555555556,0.24666666666666667,0.09909321996875407,0.27399255028113934,-0.41205627115248133
1592296482.256429,-1.1678265765765765,9.808070805180181,0.8690871340090089,-0.2877777777777778,-0.5455555555555556,0.24666666666666667,0.009339010162082552,0.025089107997418484,-0.17504233273334796
1592296482.266429,0.8395805180180176,9.18075608811937,1.4521208122184683,-0.2877777777777778,-0.5455555555555556,0.24666666666666667,0.04154109033539959,0.025089107997418484,0.17676539316014073
1592296482.276429,-0.09,9.52,1.35,-0.3022222222222222,-0.5188888888888888,0.23777777777777778,0.15162547876700738,0.15489797111449674,0.0
1592296482.286429,-0.43902753773476205,9.788829358220992,0.7325394630717825,-0.3022222222222222,-0.5188888888888888,0.23777777777777778,0.18708608870483664,0.16035853502466393,-0.011908267463810254
1592296482.296429,-0.08445448936977981,9.812149772209567,0.4205293754745634,-0.3022222222222222,-0.5188888888888888,0.23777777777777778,0.10411131360475506,0.05929570187173384,-0.04826838208924463
1592296482.306429,-0.09718941080832716,9.860803025483335,0.4085947054041636,-0.3022222222222222,-0.5188888888888888,0.23777777777777778,0.051800910158542164,0.06072985342186302,-0.016137186076960963
1592296482.316429,-0.6160474322270526,9.712557876506557,0.6680237161135263,-0.3022222222222222,-0.5188888888888888,0.23777777777777778,0.0744403622188922,0.005748326989584315,0.0631008961342642
1592296482.326429,-0.54,9.6,0.89,-0.3022222222222222,-0.5188888888888888,0.21777777777777776,0.1538071403320003,-0.11453723216212788,0.11344640137963141
1592296482.3364289,-0.4609476295479603,9.72905237045204,0.7338902976846747,-0.3022222222222222,-0.5188888888888888,0.21777777777777776,0.21732560342995624,-0.003664205231567754,0.17176640033837826
1592296482.3464289,-0.47444189565132505,9.724441895651326,0.560011469569037,-0.3022222222222222,-0.5188888888888888,0.21777777777777776,0.1484672390848134,-0.021468853110455897,0.1526208239226598
1592296482.3564289,-0.49,9.741669043276405,0.5000142596584314,-0.3022222222222222,-0.5188888888888888,0.21777777777777776,0.15684934819063634,0.04868592475722046,-0.0058198381565630845
1592296482.3664289,-0.49,9.748623611341403,0.5417416680484165,-0.3022222222222222,-0.5188888888888888,0.21777777777777776,0.01498634370686025,-0.06207342633706461,-0.011888843695975964
1592296482.3764288,-0.47890171238391754,9.743294862848247,0.5323119866874229,-0.29444444444444445,-0.5111111111111111,0.24,0.03949388303395792,-0.029357805407048188,0.08113124943385419
1592296482.3864288,-0.458477700379953,9.804566898860141,0.3817324045594355,-0.29444444444444445,-0.5111111111111111,0.24,0.1378885748825365,0.0008503920995262537,0.02571031116150526
1592296482.3964288,-0.44894870887867,9.82894870887867,0.27789741775733995,-0.29444444444444445,-0.5111111111111111,0.24,0.035253397458460276,-0.050692878215457336,0.07535105596247185
1592296482.4064288,-0.437085764294049,9.820728558926488,0.262914235705951,-0.29444444444444445,-0.5111111111111111,0.24,0.015502334664784085,-0.06404112236574074,-0.08072648974395136
1592296482.4164288,-0.40649722870478416,9.828375692823805,0.29350277129521585,-0.29444444444444445,-0.5111111111111111,0.24,-0.027874656411151957,-0.06070443074451489,0.12531421786674485
1592296482.4264288,-0.38253756300312924,9.756417839141964,0.46,-0.29444444444444445,-0.5244444444444445,0.24,0.28700192260296514,0.11507419200578228,-0.019569915419931045
1592296482.4364288,-0.43829742299310254,9.750215462041385,0.4361639219034353,-0.29444444444444445,-0.5244444444444445,0.24,0.153804836571108,0.04477106860779513,-0.02626934430901124
1592296482.4464288,-0.4369104028310775,9.80345520141554,0.3130895971689225,-0.29444444444444445,-0.5244444444444445,0.24,0.10272158233670316,0.04482778839110691,0.03005270515246216
1592296482.4564288,-0.4849492241300156,9.83,0.25936865301625195,-0.29444444444444445,-0.5244444444444445,0.24,0.03984301750211414,-0.0413470639191958,-0.01793778124100581
1592296482.4664288,-0.42333063997796344,9.83,0.2516663299972454,-0.29444444444444445,-0.5244444444444445,0.24,0.07345074168556753,-0.07999594673016719,0.05599921196259163
1592296482.4764287,-0.45113417045914844,9.824536681836594,0.2588658295408516,-0.3022222222222222,-0.5111111111111111,0.23222222222222222,0.057284405823501604,0.006824001789741529,0.007827449668410081
1592296482.4864287,-0.463238990124752,9.857840673250164,0.23596437612607477,-0.3022222222222222,-0.5111111111111111,0.23222222222222222,-0.012904726933085423,-0.12043160434943567,0.04315069534854341
1592296482.4964287,-0.4913430144267274,9.839328492786636,0.12671507213363706,-0.3022222222222222,-0.5111111111111111,0.23222222222222222,-0.06486384635858292,-0.12260659489678832,0.1064302349372019
1592296482.5064287,-0.5090643462168126,9.829532173108406,0.22280696134956224,-0.3022222222222222,-0.5111111111111111,0.23222222222222222,-0.058764480586735904,0.022907446432425576,0.04131118806679261
1592296482.5164287,-0.4941369492490569,9.822068474624528,0.2675891522528294,-0.3022222222222222,-0.5111111111111111,0.23222222222222222,-0.09133100881668027,0.022907446432425576,0.07387771629673698
1592296482.5264287,-0.42587106603818503,9.786903299528637,0.45103223349045374,-0.3088888888888889,-0.5333333333333333,0.24,-0.06629454874698405,-0.0496784271732418,0.1011165805081055
1592296482.5364287,-0.38801781323931905,9.758017813239318,0.45603562647863805,-0.3088888888888889,-0.5333333333333333,0.24,-0.0021427991054225972,-0.07866611933334834,0.05965068750429674
1592296482.5464287,-0.37070201643017175,9.740702016430172,0.42561613144137417,-0.3088888888888889,-0.5333333333333333,0.24,-0.039460538792056264,0.045411635779462244,-0.03165282989030418
1592296482.5564287,-0.3807885449599294,9.75,0.5007885449599294,-0.3088888888888889,-0.5333333333333333,0.24,-0.012195393509657091,-0.0052508813135382845,-0.01638668281650823
1592296482.5664287,-0.41933626203955593,9.75,0.539336262039556,-0.3088888888888889,-0.5333333333333333,0.24,0.031535604331180724,-0.10196366500000652,0.03575412230141378
1592296482.5764287,-0.47,9.78,0.48,-0.3022222222222222,-0.5133333333333333,0.24666666666666667,0.02181661564992912,0.05563236990731925,0.002181661564992912
1592296482.5864286,-0.5126270046183498,9.77147459907633,0.4629491981526601,-0.3022222222222222,-0.5133333333333333,0.24666666666666667,0.02925643145845944,0.05377241595518666,0.007761523421390654
1592296482.5964286,-0.5092080508573975,9.779604025428698,0.34019798728565065,-0.3022222222222222,-0.5133333333333333,0.24666666666666667,-0.06337652894277351,0.07645552067888757,0.039680610603874344
1592296482.6064286,-0.4700282931022133,9.760028293102213,0.3502263448177064,-0.3022222222222222,-0.5133333333333333,0.24666666666666667,0.03892424271741454,0.026993002680972038,-0.048419377349368416
1592296482.6164286,-0.47753903731824365,9.767539037318244,0.4103122985459494,-0.3022222222222222,-0.5133333333333333,0.24666666666666667,-0.05283680837398062,-0.04674355623175622,-0.16066280591652143
1592296482.6264286,-0.4791599369235915,9.759439957949061,0.4716801261528169,-0.3022222222222222,-0.52,0.24,-0.0023649348975899177,-0.03218391269018824,-0.0848839092759554
1592296482.6364286,-0.45,9.739715484758918,0.5294309695178359,-0.3022222222222222,-0.52,0.24,-0.010899152141403974,-0.050275901231535795,-0.0009402296327458677
1592296482.6464286,-0.45,9.730252024999436,0.5105040499988719,-0.3022222222222222,-0.52,0.24,-0.08316038464332,-0.01724219494494561,0.04035190322549186
1592296482.6564286,-0.39077609342133895,9.739870651096444,0.5198706510964435,-0.3022222222222222,-0.52,0.24,-0.09154512707029336,-0.07019851203386172,-0.0769877409172474
1592296482.6664286,-0.4114667864795742,9.74,0.5486223819727657,-0.3022222222222222,-0.52,0.24,-0.05260206657437185,-0.024070737875873098,-0.00360659556151037
1592296482.6764286,-0.4,9.72,0.66,-0.3022222222222222,-0.52,0.24,-0.02399827721492203,0.07744898555724837,-0.08072147790473774
