time,acc_x,acc_y,acc_z,mag_x,mag_y,mag_z,gyr_x,gyr_y,gyr_z
1592296534.1363795,-0.47,9.734566058985008,0.7619624128950517,-0.28888888888888886,-0.5011111111111111,0.21777777777777776,0.01755218673039275,-0.04367000950389961,-0.042348835063523986
1592296534.1463795,-0.5780415055951169,9.74,0.8090034587995931,-0.28588773595569117,-0.49760976602238044,0.21177547191138238,0.03675835629458393,0.010357232986116398,0.005135582497386569
1592296534.1563795,-0.7293061224489795,9.736489795918368,0.825265306122449,-0.2822222222222222,-0.49333333333333335,0.20444444444444446,0.03333935060952434,0.0015538773187398491,0.052444472600105124
1592296534.1663795,-0.7908349190550075,9.76083111332299,0.7508387247870254,-0.2822222222222222,-0.49333333333333335,0.20444444444444446,0.013455932116249507,-0.08062376010871214,0.1291734100376293
1592296534.1763794,-0.8164671074696948,9.84310526567965,0.7331052656796512,-0.2822222222222222,-0.49333333333333335,0.20444444444444446,-0.04352127885215054,-0.19623758840165437,0.12867138548137028
1592296534.1863794,-0.8563060926669098,9.865341116380883,0.7693177672382342,-0.2822222222222222,-0.49333333333333335,0.20444444444444446,-0.03969832091608089,-0.20994771560569966,0.12693025977614703
1592296534.1963794,-0.8922180579216354,9.83,0.8790141964792731,-0.2881827244621112,-0.5003775632532022,0.20444444444444446,0.04689023769075339,-0.19997152026526965,0.11721258602334433
1592296534.2063794,-0.6742198003261605,9.8129672646275,0.9082081062805776,-0.29444444444444445,-0.5077777777777778,0.20444444444444446,0.00446841012553916,-0.18458370231419266,0.15542553212974572
1592296534.2163794,-0.08831475188856752,9.790296273414024,0.7509907607627285,-0.29444444444444445,-0.5077777777777778,0.20444444444444446,0.0011665876002985229,-0.18628359492327384,0.17568787204325562
1592296534.2263794,-0.5357886332292953,9.757684546708282,0.8882361907527038,-0.29444444444444445,-0.5077777777777778,0.20444444444444446,0.0064415786557873046,-0.18919599656998415,0.22215061447037118
1592296534.2363794,-0.7027111630835657,9.712301880003597,1.0028388953854457,-0.29444444444444445,-0.5077777777777778,0.20444444444444446,0.030356436164657153,-0.20114538912905056,0.21818293549216758
1592296534.2463794,-1.032609633357297,9.872228612508986,1.044076204169662,-0.2918377399685811,-0.5046497324067417,0.20444444444444446,0.15892539260165775,-0.2905993593930979,0.2556831024771144
1592296534.2563794,-1.170951618860027,9.929582666502524,1.0476794287824696,-0.28888888888888886,-0.5011111111111111,0.20444444444444446,0.1671047207511021,-0.2597725616265261,0.2462090886862692
1592296534.2663794,-1.2290405933069524,9.984520296653477,0.8878044498021436,-0.28888888888888886,-0.5011111111111111,0.20444444444444446,0.11103733451379835,-0.3346153655490863,0.42265060385659586
1592296534.2763793,-1.1840064133709065,10.009994655524244,0.760010688951511,-0.28888888888888886,-0.5011111111111111,0.20444444444444446,0.053668641302078816,-0.3761087761397851,0.5720242000452433
1592296534.2863793,-1.16,10.033460937951771,0.7153854160643035,-0.28888888888888886,-0.5011111111111111,0.20444444444444446,0.06133707490220921,-0.41761945249940535,0.6091434879980361
1592296534.2963793,-1.1730001909490166,10.077333587932022,0.6323326331869391,-0.2912963316572253,-0.5040000424331148,0.19818509324676978,0.10871939855779171,-0.44680412187609625,0.7103130958372502
1592296534.3063793,-1.188400030259475,10.112799757924199,0.5460004538921249,-0.29444444444444445,-0.5077777777777778,0.19,0.08473607186558596,-0.4668749147491474,0.7681190704222399
1592296534.3163793,-1.2066696397199923,10.190667855887996,0.34532500878402117,-0.29444444444444445,-0.5077777777777778,0.19,-0.12800410851506908,-0.7263563539552914,1.0200899979160292
1592296534.3263793,-1.1707210799385088,10.140721079938508,0.36891838009223676,-0.29444444444444445,-0.5077777777777778,0.19,-0.21294797544487873,-0.7290173408262645,1.1110556687265667
1592296534.3363793,-1.063531341430978,10.06898129266779,0.4743124390460147,-0.29444444444444445,-0.5077777777777778,0.19,-0.16868611475916137,-0.7280619929851871,1.1304285491956894
1592296534.3463793,-0.8169017552499208,9.989225438812479,0.5596542263181962,-0.30432918655050983,-0.5024235424703257,0.2002966063604848,-0.1124219513088631,-0.8205386157425273,1.2390977809535562
1592296534.3563793,-0.54,9.92,0.61,-0.3211111111111111,-0.49333333333333335,0.21777777777777776,-0.08290313946973066,-0.8857545953871222,1.3111786005607402
1592296534.3663793,-0.2900403355449683,9.82616315435653,0.5638771811884371,-0.3211111111111111,-0.49333333333333335,0.21777777777777776,-0.16269416068474243,-0.9268590173839985,1.5134370180484478
1592296534.3763793,-0.11487915656696397,9.7823366201492,0.51,-0.3211111111111111,-0.49333333333333335,0.21777777777777776,-0.14665473234435145,-0.8653657402262357,1.607723437569834
1592296534.3863792,0.046494415122130844,9.703635694120536,0.6025985025162637,-0.3211111111111111,-0.49333333333333335,0.21777777777777776,-0.12502056184745283,-0.774107053902279,1.6572416202293927
1592296534.3963792,0.23100090171325519,9.603863431428806,0.7593638822854333,-0.3250556056507364,-0.49333333333333335,0.22243945314278948,-0.08995835290845271,-0.7338464609841224,1.7466088477396795
1592296534.4063792,0.4141997851772288,9.549693877551022,0.8170998925886144,-0.3333333333333333,-0.49333333333333335,0.23222222222222222,-0.028045833539448353,-0.7315895078971706,1.8240530215379969
1592296534.4163792,1.1037096940352322,9.206981559699186,0.9984485422890698,-0.3333333333333333,-0.49333333333333335,0.23222222222222222,-0.029710052387203756,-0.6914616700583291,1.9388220624399068
1592296534.4263792,1.7172907736883696,9.155575297526399,0.9513546131558153,-0.3333333333333333,-0.49333333333333335,0.23222222222222222,0.2216674148244416,-0.5882139584637996,1.9123050898113627
1592296534.4363792,1.88,9.28,0.87,-0.3333333333333333,-0.49333333333333335,0.23222222222222222,0.31197760379398637,-0.5574145298556891,1.9384063004962022
1592296534.4463792,1.6729988326691625,8.997271666062876,1.1914092500905686,-0.3482876016941951,-0.4821971760433299,0.23222222222222222,0.3547327433179575,-0.44850120372153396,1.807318456618646
1592296534.4563792,1.8376898148148149,9.13545601851852,1.1687766203703702,-0.38555555555555554,-0.45444444444444443,0.23222222222222222,0.41763567539229357,-0.2953697051304779,1.774387898259395
1592296534.4663792,2.410971122994652,8.875594652406416,0.9678395721925135,-0.38555555555555554,-0.45444444444444443,0.23222222222222222,0.45663588218667234,-0.44229466572267473,1.8867281046756372
1592296534.4763792,2.59,8.87,0.8,-0.38555555555555554,-0.45444444444444443,0.23222222222222222,0.5170537909033202,-0.33488505022641196,1.8238690683340746
1592296534.4863791,2.869154943337241,8.861083431027746,0.6367497069167644,-0.38555555555555554,-0.45444444444444443,0.23222222222222222,0.6801808419507588,-0.1029718256067146,1.7780920071346966
1592296534.4963791,2.97301892358916,8.954264340203144,0.3884523960045517,-0.3994424073839929,-0.44663309029094844,0.23193291280912978,0.5797539185838736,-0.0997430896594474,1.86820621121613
1592296534.5063791,3.0148217659654866,9.093259856405089,0.07589117017256582,-0.4388888888888889,-0.42444444444444446,0.2311111111111111,0.5755104493525482,-0.09595422422542102,1.833610287524888
1592296534.516379,3.05,9.19,-0.1,-0.4388888888888889,-0.42444444444444446,0.2311111111111111,0.5563236990731926,-0.10362892433716332,1.4988014951501305
1592296534.526379,3.4201096948628815,9.253315050856186,-0.49502742371572034,-0.4388888888888889,-0.42444444444444446,0.2311111111111111,0.4458852210918981,0.049800982638098776,1.3558883654146079
1592296534.536379,3.6438826937002173,9.278931571325126,-0.5474755611875453,-0.4388888888888889,-0.42444444444444446,0.2311111111111111,0.3380516585287213,0.10755842303810018,1.13632877361624
1592296534.546379,3.761788465853841,9.320549779340265,-0.5372929912484105,-0.4416361233699853,-0.416951986768727,0.23061161393272994,0.29529937310386833,0.004172801035803073,0.9901342665288148
1592296534.556379,3.63,9.15,-0.39,-0.45111111111111113,-0.39111111111111113,0.2288888888888889,0.16253378659197193,-0.09053895494720585,1.0341075818066403
1592296534.566379,3.84567116371237,9.401984581557588,-0.3630057819159043,-0.45111111111111113,-0.39111111111111113,0.2288888888888889,0.14038298390625858,-0.11901195097070844,0.7121990029276408
1592296534.576379,3.982020527790202,9.258763859789543,-0.3937084206313708,-0.45111111111111113,-0.39111111111111113,0.2288888888888889,0.08442268608625753,-0.0973545223761276,0.6581633928352193
1592296534.586379,4.022575144058558,9.174978585890049,-0.32128757202927893,-0.45111111111111113,-0.39111111111111113,0.2288888888888889,0.08653612752201015,-0.04036073895236887,0.5625269603420707
1592296534.596379,4.101347894529713,9.087971599107963,-0.2925669027941755,-0.46025511245208217,-0.3797599370326643,0.22699702654248108,-0.012278071036003743,0.003596106910603074,0.43167385166986916
1592296534.606379,4.66,9.31,-0.4,-0.48333333333333334,-0.3511111111111111,0.2222222222222222,-0.1974403716318585,0.11453723216212788,0.48323803664593
1592296534.616379,4.462331970935513,8.949073317186397,-0.29120017156120703,-0.48333333333333334,-0.3511111111111111,0.2222222222222222,-0.02950670295864568,0.03994481086638976,0.31589389986775845
1592296534.626379,4.756589034335268,8.994996827336609,-0.4545437240017861,-0.48333333333333334,-0.3511111111111111,0.2222222222222222,-0.027469165356299674,0.248447855896588,0.20373684245864332
1592296534.636379,4.66502859648074,8.824291464897073,-0.21570853510292742,-0.48333333333333334,-0.3511111111111111,0.2222222222222222,-0.05329612996217584,0.16385151782897703,0.07967986178300078
1592296534.646379,4.634467213114754,8.907017304189434,0.03780510018214936,-0.48975612224246107,-0.3516950010119409,0.2239738919247116,-0.08911431802361758,0.25609388581019027,-0.028891120205627903
1592296534.656379,4.17,8.59,0.2,-0.5077777777777778,-0.35333333333333333,0.2288888888888889,-0.06981317007977318,0.39924406639370286,0.09817477042468103
1592296534.666379,4.524001654430773,8.906963085513391,0.4273322303794851,-0.5077777777777778,-0.35333333333333333,0.2288888888888889,0.06932815587599542,0.3633843720463925,-0.2572173571014601
1592296534.676379,4.16,8.864676227727076,0.6393524554541504,-0.5077777777777778,-0.35333333333333333,0.2288888888888889,0.11720742094196762,0.2738416666070482,-0.40893212283485786
1592296534.686379,4.1567597699104555,8.801117238925459,0.6580448318804483,-0.5077777777777778,-0.35333333333333333,0.2288888888888889,0.18794601027216157,0.22488780364264788,-0.4299639907519816
1592296534.696379,4.109995746878513,8.717646808639913,0.8400042531214874,-0.5062089835377195,-0.351764539093275,0.22339810904868473,0.29285278881849974,0.1872408701867833,-0.35047604006130034
1592296534.706379,3.98,8.71,0.97,-0.5011111111111111,-0.3466666666666667,0.20555555555555555,0.19525871006686563,0.2781618495365963,-0.30543261909900765
1592296534.716379,3.9517464406012057,8.955960542330663,0.6880675931953919,-0.5011111111111111,-0.3466666666666667,0.20555555555555555,0.2824680205315542,0.3197277235415174,-0.4715283638763332
1592296534.726379,3.664383671165875,8.955412218407561,0.5684244932511875,-0.5011111111111111,-0.3466666666666667,0.20555555555555555,0.3009722329092239,0.24074814413078757,-0.5993482854779966
1592296534.736379,3.633479553452251,9.23215143793229,0.4377824293168305,-0.5011111111111111,-0.3466666666666667,0.20555555555555555,0.32023487910932363,0.1303955767978713,-0.6610709863858821
1592296534.746379,3.4211005443283486,9.230576862916848,0.1208121128699243,-0.5053691769727557,-0.35267805376545913,0.20079654076901152,0.3289390908569648,0.11890055529211369,-0.7011127680409692
1592296534.756379,3.2806692015209125,9.346940729143368,-0.24690248266607023,-0.52,-0.37333333333333335,0.18444444444444444,0.25975330544816533,0.0568546078603486,-0.8377789011746576
1592296534.7663789,3.407726678239365,9.286003614486482,-0.396269707274154,-0.52,-0.37333333333333335,0.18444444444444444,0.1561127923647442,-0.014122747731695195,-0.9291181603893363
1592296534.7763789,3.2566669773511046,9.366672569670985,-0.5533311585422687,-0.52,-0.37333333333333335,0.18444444444444444,0.11926204740201826,0.09381393824018602,-1.1733696338970576
1592296534.7863789,3.212393605530352,9.507405683536597,-0.4678554174276793,-0.52,-0.37333333333333335,0.18444444444444444,0.03693053148437951,0.16558024630751406,-1.160276828965796
1592296534.7963789,3.057221706557051,9.243440628522176,-0.47411224557448783,-0.52,-0.37333333333333335,0.18540733865205125,0.07038216240101504,0.01990493162992455,-1.2225413130543852
1592296534.8063788,3.1,9.56,-0.38,-0.52,-0.37333333333333335,0.19111111111111112,0.12544553998709243,-0.25634523388666713,-1.3242685699506975
1592296534.8163788,2.6679387214983716,9.509045958876222,-0.628091917752443,-0.52,-0.37333333333333335,0.19111111111111112,-0.11669321634332067,-0.04671687689924798,-1.5801666842472366
1592296534.8263788,2.52,9.62,-0.85,-0.52,-0.37333333333333335,0.19111111111111112,-0.2127120025868089,-0.17016960206944715,-1.6067937426172796
1592296534.8363788,2.245518930957684,9.356378619153675,-0.390173719376392,-0.52,-0.37333333333333335,0.19111111111111112,-0.3623346285763328,-0.2935462077706287,-1.6804814270220536
1592296534.8463788,1.8749693104275966,9.486395775468916,-0.06273017179302541,-0.52,-0.37830264376093,0.1902828927065117,-0.3444866652366548,-0.34075405872205333,-1.6621499916578708
1592296534.8563788,1.91,9.32,0.2,-0.52,-0.41333333333333333,0.18444444444444444,-0.43524148221608594,-0.48978302134090873,-1.8216874067690816
1592296534.8663788,1.8031420539110303,9.337509745092017,-0.07716435540645893,-0.52,-0.41333333333333333,0.18444444444444444,-0.4608404554839264,-0.5498789865928821,-1.8190481420902707
1592296534.8763788,1.9770877803375806,9.55596901593869,0.10694320372372935,-0.52,-0.41333333333333333,0.18444444444444444,-0.4433432946134804,-0.43158410390276625,-1.843959505430875
1592296534.8863788,1.904000788954635,9.735432741617357,0.007423274161735702,-0.52,-0.41333333333333333,0.18444444444444444,-0.4200955872590233,-0.16100825866688065,-1.820285463301873
1592296534.8963788,1.7990006636958378,9.444631648810088,0.3646316488100882,-0.5175146522268927,-0.41880109843416946,0.1836491331570501,-0.3193611640065987,-0.07719600631253554,-1.760750436501142
1592296534.9063787,1.28,9.39,0.31,-0.4922222222222222,-0.47444444444444445,0.17555555555555555,-0.039269908169872414,-0.36324665057131983,-1.5402530648849957
1592296534.9163787,1.4558551350774729,9.527233645358296,0.3985140144544897,-0.4922222222222222,-0.47444444444444445,0.17555555555555555,-0.27460033663215294,-0.10737699877474662,-1.6151258547259268
1592296534.9263787,1.0934711720226844,9.522859640831758,0.19162783553875234,-0.4922222222222222,-0.47444444444444445,0.17555555555555555,-0.16322532484961838,-0.09744193937607147,-1.5789019573166194
1592296534.9363787,0.9643161406209905,9.484250606975781,0.41998361658869743,-0.4922222222222222,-0.47444444444444445,0.17555555555555555,-0.029026292045736216,-0.10210523650051226,-1.464606498426699
1592296534.9463787,0.7619825795852577,9.754364712811135,0.558416974055361,-0.48965221164873995,-0.4772347416385109,0.17746470626728522,0.2319848567104992,-0.3758303427440082,-1.3941633300208045
1592296534.9563787,0.79,10.24,0.96,-0.4533333333333333,-0.5166666666666667,0.20444444444444446,-0.004363323129985824,-0.13744467859455345,-1.3799009398580167
1592296534.9663787,0.3300624569946541,9.918774149155773,0.6458910707669507,-0.4533333333333333,-0.5166666666666667,0.20444444444444446,-0.07294576495274877,-0.2573425879827262,-1.3832409271075725
1592296534.9763787,0.09824512665976079,9.684619314436388,0.40323429701478486,-0.4533333333333333,-0.5166666666666667,0.20444444444444446,0.02148355734834243,-0.1844484783968675,-1.2317267196376926
1592296534.9863787,0.23486329542705056,9.808906363416405,0.7949350754093072,-0.4533333333333333,-0.5166666666666667,0.20444444444444446,-0.19383981186055035,-0.09529148973795176,-1.172038774977144
1592296534.9963787,0.1937165128857779,9.615071905822463,0.48,-0.45214692261462863,-0.5175268144377276,0.20305041184996642,-0.1306487993489331,-0.032476284858100654,-1.0968538829255614
1592296535.0063787,-0.4,9.8,0.48,-0.4088888888888889,-0.5488888888888889,0.15222222222222223,-0.002181661564992912,0.016362461737446838,-1.15737146022874
1592296535.0163786,-0.08950538822879249,9.956236529428018,0.1517822602928986,-0.4088888888888889,-0.5488888888888889,0.15222222222222223,-0.07253497222565408,0.0235771966393079,-1.0393784737363212
1592296535.0263786,-0.2888791093772301,9.561200342547219,0.2514386983205671,-0.4088888888888889,-0.5488888888888889,0.15222222222222223,-0.09799183220172561,0.05395712286136152,-1.15039899691178
1592296535.0363786,-0.42615285547551013,9.569559302933957,0.43901638024711237,-0.4088888888888889,-0.5488888888888889,0.15222222222222223,-0.04769696778921317,0.0028656094363863314,-1.1357085890711156
1592296535.0463786,-0.030902533427163967,10.049080752990852,-0.2085124912033779,-0.4088554617249199,-0.548953886152162,0.1522575064508562,-0.18681465499746858,0.07115377501135815,-1.218436106020884
1592296535.0563786,-0.5550323436722507,9.589805937966496,0.5527749212141317,-0.3888888888888889,-0.5877777777777777,0.17333333333333334,-0.3433654498957421,0.21014333039919866,-1.1931226294604813
1592296535.0663786,-0.2768490065914475,10.925745584199293,0.19882151486007837,-0.3888888888888889,-0.5877777777777777,0.17333333333333334,-0.2786330988744311,0.23751365795561055,-1.0424195788012802
1592296535.0763786,-0.056283342503767875,14.357446472572427,0.6113516423052081,-0.3888888888888889,-0.5877777777777777,0.17333333333333334,-0.19588521817495333,0.5596138843770833,-0.45942704902996434
1592296535.0863786,-3.77489556892451,9.59618431834989,-1.3132546519297263,-0.3888888888888889,-0.5877777777777777,0.17333333333333334,-0.11970307343559725,0.49811980019231794,0.14030288504015812
1592296535.0963786,-3.3305930086143145,8.212978234365318,2.0986536885655473,-0.3888888888888889,-0.5877777777777777,0.17333333333333334,-0.5568105427838065,0.3280319564710483,-0.35258608144244596
1592296535.1063786,-2.33,8.13,2.9,-0.3622222222222222,-0.6133333333333333,0.14555555555555555,0.08290313946973066,0.031634092692397225,-0.08290313946973066
1592296535.1163785,-0.6431352498552961,9.923819078856702,0.15421019266282626,-0.3622222222222222,-0.6133333333333333,0.14555555555555555,-0.1593652029345492,0.3225403310391981,-0.14033608221328278
1592296535.1263785,-0.9826843275739876,9.329251203597352,0.5658640240475085,-0.3622222222222222,-0.6133333333333333,0.14555555555555555,-0.03453710106800553,0.16234779166615562,-0.10312247004439302
1592296535.1363785,-0.9330641842428079,9.869420284120137,0.3235196470262356,-0.3622222222222222,-0.6133333333333333,0.14555555555555555,0.04734160704102609,0.1630690365505393,-0.13380631700119175
1592296535.1463785,-0.8915709706778521,9.985601282102014,0.7633477108147679,-0.3622222222222222,-0.6133333333333333,0.14555555555555555,-0.008783365489452105,0.21195207714160091,-0.14466921491031653
1592296535.1563785,-0.96,10.18,0.66,-0.3377777777777778,-0.62,0.14333333333333334,-0.09381144729469522,0.20289452554434081,-0.22143864884678055
1592296535.1663785,-0.9004863440344993,10.189918942660917,0.6500810573390833,-0.3377777777777778,-0.62,0.14333333333333334,-0.1857804951616306,0.26023993186137107,-0.43567243093681823
1592296535.1763785,-0.8623713774597496,10.285257245080501,0.30820393559928444,-0.3377777777777778,-0.62,0.14333333333333334,-0.1040064805800925,0.26698058033443023,-0.6036222779139787
1592296535.1863785,-0.8137758779481841,10.421020702358547,0.1446942698113963,-0.3377777777777778,-0.62,0.14333333333333334,-0.11740952462857641,0.22065925936005154,-0.792521913473762
1592296535.1963785,-0.9397409201938093,10.521792736155048,0.27905698154006325,-0.3377777777777778,-0.62,0.14333333333333334,-0.29328990299656943,0.14371159382405457,-0.7778652152764293
1592296535.2063785,-0.94,10.39,0.15,-0.3377777777777778,-0.6311111111111111,0.10777777777777778,-0.21925698728178766,0.1308996938995747,-0.8650288105196896
1592296535.2163785,-1.0966194068164765,10.37042257414794,0.4730275265589826,-0.3377777777777778,-0.6311111111111111,0.10777777777777778,-0.3794244279928012,0.15225535266104318,-0.8863844692811581
1592296535.2263784,-1.0896755636175175,10.289107799948173,0.5786211453744493,-0.3377777777777778,-0.6311111111111111,0.10777777777777778,-0.3002590170268021,0.1141604870813009,-1.1562603618724925
1592296535.2363784,-1.0608615785731217,10.14162242237497,0.4128964209528324,-0.3377777777777778,-0.6311111111111111,0.10777777777777778,-0.47626010666882507,0.33875544401607316,-1.2932623707295712
1592296535.2463784,-1.1851297700876984,9.702541479023466,0.4460346053567196,-0.3377777777777778,-0.6311111111111111,0.10777777777777778,-0.5711490046813109,0.38303692975523324,-1.3628475626053942
1592296535.2563784,-1.33,9.52,0.68,-0.32666666666666666,-0.6577777777777778,0.09555555555555556,-0.5519603759432067,0.4363323129985824,-1.4900748488901587
1592296535.2663784,-1.4961799291237114,9.617752899484536,0.7777528994845361,-0.32666666666666666,-0.6577777777777778,0.09555555555555556,-0.5988783995510528,0.3766184647704146,-1.315198579079096
1592296535.2763784,-1.7168567070264085,9.493285823243397,0.6121567832967871,-0.32666666666666666,-0.6577777777777778,0.09555555555555556,-0.659126934498388,0.3650964818074682,-1.3133181171000292
1592296535.2863784,-2.09,9.379238783605112,0.9229658880564126,-0.32666666666666666,-0.6577777777777778,0.09555555555555556,-0.4691817902148287,0.2843833060326377,-1.3741108542938918
1592296535.2963784,-2.09,9.068686822388718,0.9673304539444689,-0.32666666666666666,-0.6577777777777778,0.09555555555555556,-0.5199957360437522,0.2795438826203593,-1.3854028422558748
1592296535.3063784,-2.3023310235147108,9.3642576394411,0.9469930705441326,-0.3,-0.6844444444444444,0.09555555555555556,-0.3570703153796839,0.3363851748944685,-1.469124404678336
1592296535.3163784,-2.3227508479252204,9.051153665146622,1.0082525437756609,-0.3,-0.6844444444444444,0.09555555555555556,-0.3125211692993715,0.2539692546458906,-1.4193778582219871
1592296535.3263783,-2.6268963075724856,8.959154600488548,0.9916907990229051,-0.3,-0.6844444444444444,0.09555555555555556,-0.42520670405091077,0.23097946954606868,-1.333810665030126
1592296535.3363783,-2.871737134909597,9.188088217762765,0.9777665408305185,-0.3,-0.6844444444444444,0.09555555555555556,-0.294621560583025,0.11264833718187493,-1.227382141552719
1592296535.3463783,-2.9300723226703753,8.788075501688853,0.9027641565666601,-0.3,-0.6844444444444444,0.09555555555555556,-0.22462436021964016,0.2690057198117736,-1.1973833413969825
1592296535.3563783,-3.04,8.98,0.91,-0.2677777777777778,-0.6966666666666667,0.01888888888888889,-0.2923426497090502,0.17235126363444003,-1.0624691821515482
1592296535.3663783,-3.049326352816066,8.728188473966217,1.0312425866088593,-0.2677777777777778,-0.6966666666666667,0.01888888888888889,-0.45613556082606743,0.28120742195444526,-1.169290645923516
1592296535.3763783,-2.89,9.07,1.18,-0.2677777777777778,-0.6966666666666667,0.01888888888888889,-0.3403392041388943,0.23343778745424157,-1.0842857978014773
1592296535.3863783,-2.844073958738809,9.27666718567536,1.2182717010509925,-0.2677777777777778,-0.6966666666666667,0.01888888888888889,-0.28356199267619664,0.23343778745424157,-1.1235288704301065
1592296535.3963783,-2.822008855070529,9.324017710141058,1.341876029012593,-0.2677777777777778,-0.6966666666666667,0.01888888888888889,-0.355947675756646,0.38685675647989093,-0.9559849149237893
1592296535.4063783,-3.29,8.84,1.4,-0.21666666666666667,-0.7211111111111111,0.03333333333333333,-0.0370882466048795,0.29561514205653955,-1.124646536753846
1592296535.4163783,-3.2657606196296745,8.613765783210296,1.2868828916051473,-0.21666666666666667,-0.7211111111111111,0.03333333333333333,-0.14549660185690444,0.26917407979994806,-1.0215263939531394
1592296535.4263783,-3.71768590618394,8.778893259479275,1.2202012255492227,-0.21666666666666667,-0.7211111111111111,0.03333333333333333,-0.050787336884541165,0.23792732482263454,-1.0621399276165728
1592296535.4363782,-3.6473760932944606,8.852623906705539,0.8003952057013282,-0.21666666666666667,-0.7211111111111111,0.03333333333333333,-0.018490058803015727,0.3231830896844124,-0.9788476562286865
1592296535.4463782,-3.868515334274349,9.052861756277,1.161129646263741,-0.21666666666666667,-0.7211111111111111,0.03333333333333333,-0.21905220280407783,0.17796384673217264,-0.9961327056648092
1592296535.4563782,-3.65,8.95,1.1,-0.17777777777777778,-0.7411111111111112,-0.006666666666666667,-0.16035212502697901,0.2585268954516601,-0.8737554567796613
1592296535.4663782,-3.624997413347129,8.958334195550957,1.516709777547853,-0.17777777777777778,-0.7411111111111112,-0.006666666666666667,-0.27399208820609117,0.179433481078998,-0.849209224732973
1592296535.4763782,-3.6870724527344247,8.940836442075879,1.4754368734932115,-0.17777777777777778,-0.7411111111111112,-0.006666666666666667,-0.2946155529504575,0.3381746780707765,-0.6990188433960484
1592296535.4863782,-3.7282868544823984,8.834711150173405,1.5082868544823982,-0.17777777777777778,-0.7411111111111112,-0.006666666666666667,-0.3665680382983182,0.21527935981899407,-0.895235272141907
1592296535.4963782,-3.787149249481349,8.340149290159866,1.1507761461172357,-0.17777777777777778,-0.7411111111111112,-0.006666666666666667,-0.15160107340841106,0.13374074388046062,-0.7065913524346599
1592296535.5063782,-4.24432830565174,8.47148277481073,1.0023848230529961,-0.1294812228156321,-0.7411111111111112,-0.03886436997476378,-0.14152378649718478,0.24105164419244823,-0.7021736452946915
1592296535.5163782,-4.24715731741743,8.325887809009155,0.8202024438440134,-0.12777777777777777,-0.7411111111111112,-0.04,-0.26688019490149145,0.11094866854907262,-0.6853739031720455
1592296535.5263782,-4.2945783132530115,8.249096385542169,1.311265060240964,-0.12777777777777777,-0.7411111111111112,-0.04,-0.29231636462995386,0.39023485553344595,-0.6375183084016637
1592296535.5363781,-4.67135446685879,8.389257925072046,1.8806123919308355,-0.12777777777777777,-0.7411111111111112,-0.04,0.060393673374665446,0.12262305463243989,-0.5456667224328406
1592296535.5463781,-4.2937563362433115,8.233050549141087,1.469236482680935,-0.12777777777777777,-0.7411111111111112,-0.04,-0.04931873748861977,0.07255560652323619,-0.3834668011194089
1592296535.5563781,-4.6468523099552055,7.844954202045865,1.6200915959082702,-0.11578844539531842,-0.7411111111111112,-0.04762957515247413,-0.11857878318458048,0.15506345182891035,-0.20932559182772234
1592296535.566378,-4.4573775671406,8.196124275934702,1.6729805160610847,-0.11555555555555555,-0.7411111111111112,-0.04777777777777778,-0.10307460537712694,0.11622316599394836,-0.22576291115885708
1592296535.576378,-4.144160205307415,8.331504859670197,1.7530970841978815,-0.11555555555555555,-0.7411111111111112,-0.04777777777777778,0.09828966681975777,0.08860829048374401,-0.30331820379116436
1592296535.586378,-4.047937925271577,8.202899128566312,1.2465577175599858,-0.11555555555555555,-0.7411111111111112,-0.04777777777777778,0.0672560137500188,0.35660548733796793,-0.345385803773824
1592296535.596378,-4.2268165008800205,8.466488421302431,1.3842891609152215,-0.11555555555555555,-0.7411111111111112,-0.04777777777777778,-0.18345570398604166,0.28426150208464407,0.05279854396206973
1592296535.606378,-4.423664863873866,8.372869190576587,1.4232670272252268,-0.10367423432232306,-0.7490319919332661,-0.032926126236237155,-0.007600517717256894,0.20217037149476347,-0.09123331088759043
1592296535.616378,-4.317894565438632,8.14649094239772,1.1893564013840832,-0.10222222222222223,-0.75,-0.03111111111111111,-0.029280269476936627,0.0964522658021271,-0.14468501518137472
1592296535.626378,-4.233922835329265,8.823622551898476,1.8710073283456323,-0.10222222222222223,-0.75,-0.03111111111111111,-0.12375958905295237,0.12968374471769684,-0.22018061286582316
1592296535.636378,-4.0638949167834,8.756410171181653,1.4392305135449561,-0.10222222222222223,-0.75,-0.03111111111111111,-0.17994714319067756,0.2066558573946584,-0.02131705405151571
1592296535.646378,-4.1431596726519615,8.943687893350491,1.4926338648382362,-0.10222222222222223,-0.75,-0.03111111111111111,-0.03943960953042125,0.35262775846981936,0.031232595548175125
1592296535.656378,-4.3271541035856576,8.256638087649401,1.585985657370518,-0.07769653829127933,-0.7551095174856131,-0.07709676848162904,0.01710297503900515,0.24692501047036014,0.10949750702820679
1592296535.666378,-4.410723579557042,8.460035485581432,1.4356940082391811,-0.07555555555555556,-0.7555555555555555,-0.0811111111111111,-0.06249952720482099,0.2734141973166237,0.09739320932318686
1592296535.676378,-4.358087050841199,8.947014146915604,1.556804135607302,-0.07555555555555556,-0.7555555555555555,-0.0811111111111111,-0.1745779118050576,0.2772338717769234,0.38888639764250876
1592296535.686378,-4.288581661891118,8.88432664756447,1.4129083094555874,-0.07555555555555556,-0.7555555555555555,-0.0811111111111111,-0.14465666411756872,0.28065294447542055,0.3644909478048781
1592296535.696378,-4.5006048788097415,8.808636585223173,1.24590975566952,-0.07555555555555556,-0.7555555555555555,-0.0811111111111111,-0.21313303693559377,0.26297296201989856,0.38621169834842106
1592296535.706378,-4.410038416357113,8.319225640537194,1.1652224021335365,-0.060872534597651275,-0.7390371569779132,-0.08753493278019424,-0.22798782411624835,0.22443258920571169,0.5906714138607648
1592296535.716378,-4.352800078942175,8.465098875074009,1.387898954016183,-0.057777777777777775,-0.7355555555555555,-0.08888888888888889,-0.24285156884181777,0.19471340231631035,0.6983604587984188
1592296535.726378,-4.113448818897638,8.434237345331834,1.434778965129359,-0.057777777777777775,-0.7355555555555555,-0.08888888888888889,-0.17301244942425806,0.20074501219813462,1.0740699650632415
1592296535.736378,-4.2615981362282636,8.509044576808531,1.4495222884042656,-0.057777777777777775,-0.7355555555555555,-0.08888888888888889,-0.09802918135132305,0.31904020650630066,1.089013892691111
1592296535.746378,-4.297594625480486,8.537594625480487,1.5485673719569206,-0.057777777777777775,-0.7355555555555555,-0.08888888888888889,-0.11929258499951917,0.32376452204143547,1.1117186224269808
1592296535.756378,-4.131507274106818,8.404505657638637,1.5692544452875004,-0.07977670013232313,-0.7428885296737373,-0.09988835006616158,-0.08642490390610442,0.1390340535548187,1.2983821295332687
1592296535.766378,-4.228350983358547,8.478731525660422,1.5055708134528105,-0.08444444444444445,-0.7444444444444445,-0.10222222222222223,-0.04181132935753435,0.07673175130598514,1.463766950442054
1592296535.776378,-4.181355020836134,8.564465653985751,1.343492404893131,-0.08444444444444445,-0.7444444444444445,-0.10222222222222223,0.027578853373948574,-0.04290459328961157,1.6520590409435103
1592296535.786378,-3.8610673312762085,8.627233167180949,1.25537305166548,-0.08444444444444445,-0.7444444444444445,-0.10222222222222223,0.026435406705873445,-0.03205233511442253,1.6964097333752286
1592296535.796378,-3.215593322606597,8.677314516849915,1.4056232680790202,-0.08444444444444445,-0.7444444444444445,-0.10222222222222223,-0.021871659359298856,-0.0978624741621763,1.8192711146891711
1592296535.806378,-2.788176149148184,8.886084860173577,1.3453931211828993,-0.10018343512268296,-0.7348261723632987,-0.10834294081931498,0.09847232073070047,-0.13973097015167008,1.9523255256883467
1592296535.8163779,-2.632688797986155,8.82300188797986,1.70274386406545,-0.10444444444444445,-0.7322222222222222,-0.11,0.11124466001577882,-0.007085423042065164,2.086096310308926
1592296535.8263779,-2.4378480166216896,8.711749098464404,1.645673106775249,-0.10444444444444445,-0.7322222222222222,-0.11,0.10471975511965977,0.014846088939043243,2.0681737165764082
1592296535.8363779,-2.2394516667313438,8.954600100896425,1.5452551515386705,-0.10444444444444445,-0.7322222222222222,-0.11,0.10471975511965977,0.025933190647229473,2.025266511280962
1592296535.8463778,-2.084474773807698,9.043608342278791,1.712510351173133,-0.10444444444444445,-0.7322222222222222,-0.11,0.14943863153198572,0.018514347519694104,2.0390663451020745
1592296535.8563778,-1.8583039574326572,9.024510082534691,1.7794346524775524,-0.16303742446077,-0.7216429341637189,-0.09942071194149678,0.21615443329092687,-0.02868502077251443,2.0687989495222734
1592296535.8663778,-1.6354197657857257,9.16997388827346,1.5808134198449122,-0.18444444444444444,-0.7177777777777777,-0.09555555555555556,0.22345424312062587,-0.015194294004395172,2.014107306975137
1592296535.8763778,-1.427122111854891,9.301511552580436,1.3954653422586913,-0.18444444444444444,-0.7177777777777777,-0.09555555555555556,0.22669623651266527,-0.09843829168097944,1.8979757210499855
1592296535.8863778,-1.316957935819601,9.470867302688637,1.4450722752240532,-0.18444444444444444,-0.7177777777777777,-0.09555555555555556,0.2109732643620925,-0.06203615209207458,1.760270464344955
1592296535.8963778,-1.2056432343357928,9.57213550054305,1.45,-0.18444444444444444,-0.7177777777777777,-0.09555555555555556,0.1991187173944337,-0.05436378530531633,1.7059012405650937
1592296535.9063778,-0.8031849359389155,9.61512876925068,1.5490164358742073,-0.21823576779834059,-0.6989175042779288,-0.10577153703464044,0.31396261371150713,-0.01796673260742092,1.5414869022137156
1592296535.9163778,-0.6101937472479084,9.66440895080261,1.5083139185781194,-0.23222222222222222,-0.6911111111111111,-0.11,0.3729563152282956,0.014590915168218978,1.4894808109427153
1592296535.9263778,-0.06498718948423751,9.909854071516097,1.2833819761613012,-0.23222222222222222,-0.6911111111111111,-0.11,0.3042247703769385,0.002470986294092172,1.31896521485754
1592296535.9363778,-0.004453068154256612,9.934850836769343,1.3072265340771283,-0.23222222222222222,-0.6911111111111111,-0.11,0.27259922106170226,0.04624521939110157,1.2037492302436663
1592296535.9463778,-0.12231289890294593,10.011791400731369,1.2522372634973993,-0.23222222222222222,-0.6911111111111111,-0.11,0.3320198819769588,0.10524823583809731,1.126323602054812
1592296535.9563777,-0.08635325079251151,9.970114241282372,1.0855272444524193,-0.26045889241116227,-0.6649921911863416,-0.12129466807557601,0.31402890589349525,0.11374450568283292,1.0711028543182692
1592296535.9663777,-0.1179842889536767,9.88242670877875,1.0208219954648527,-0.27666666666666667,-0.65,-0.12777777777777777,0.2556664682309082,0.13644779813090901,1.0838651636282624
1592296535.9763777,-0.1637591310251188,9.74687956551256,0.7822354378818737,-0.27666666666666667,-0.65,-0.12777777777777777,0.2191365441599511,0.10581058590215622,1.068075652476348
1592296535.9863777,-0.2157179487179487,9.757923076923078,0.814551282051282,-0.27666666666666667,-0.65,-0.12777777777777777,0.29182100883485634,0.08886634774737795,1.012207056096519
1592296535.9963777,0.11097976297437218,12.853175886706886,0.9502111410601977,-0.27666666666666667,-0.65,-0.12777777777777777,0.12555423569977092,0.0833048328999684,0.7324698151943037
1592296536.0063777,0.6211988660711343,10.785531858786301,1.3807551834393643,-0.3090297876080913,-0.6456849172078101,-0.11483252940120792,0.26930201814894666,0.0015686288323304154,0.10410226370561709
1592296536.0163777,0.8549475474907854,8.850615253756734,1.6259795860504678,-0.32666666666666666,-0.6433333333333333,-0.10777777777777778,0.30316745191698213,0.013747498804073569,-0.04754686121812026
1592296536.0263777,-0.5401061333055179,9.923771513507875,1.3342896630854282,-0.32666666666666666,-0.6433333333333333,-0.10777777777777778,0.25141922890342794,0.09696603274760213,0.03377382548474489
1592296536.0363777,-0.42570191130778645,10.134699180868092,0.4352970530081913,-0.32666666666666666,-0.6433333333333333,-0.10777777777777778,0.2655597293338018,0.11807757938964272,0.15015741218146886
1592296536.0463777,0.00040084466343127956,10.263167487867225,0.14544919053087838,-0.32666666666666666,-0.6433333333333333,-0.10777777777777778,0.16850621949476716,0.1427697982133851,0.1871666878430635
1592296536.0563776,-0.5295151038198438,9.954075912585507,0.5307536775833888,-0.3404907480275238,-0.6320227213108138,-0.09960900242818035,0.004421962135667576,0.0746797453069444,0.20580098635073338
1592296536.0663776,-0.5542096417151758,10.219777404279741,0.3658129048126588,-0.3511111111111111,-0.6233333333333333,-0.09333333333333334,-0.013843006627689718,0.06370310463504289,0.2675522971620645
1592296536.0763776,-1.0308030072782532,10.055912181076542,0.38624090218347595,-0.3511111111111111,-0.6233333333333333,-0.09333333333333334,0.02915378969986808,0.0358819027490386,0.3627013660483571
1592296536.0863776,-0.9742461699995228,10.334835107144562,0.3130329785710877,-0.3511111111111111,-0.6233333333333333,-0.09333333333333334,0.014851916462109909,0.08370466816382292,0.5099681023231216
1592296536.0963776,-1.114676031259274,10.51412958749629,0.36197111484815514,-0.3511111111111111,-0.6233333333333333,-0.09333333333333334,-0.024808096866369193,0.10976899920641847,0.6475515532074212
1592296536.1063776,-1.4245278489116517,10.333261843790012,0.704985595390525,-0.3629709062455541,-0.6266277208706786,-0.08410904822876654,-0.09835110510623055,0.04388917847129546,0.8205926453580034
1592296536.1163776,-1.5025152033069678,10.160202710759568,0.9598378313923447,-0.3711111111111111,-0.6288888888888889,-0.07777777777777778,-0.13004784953438897,0.007653505328393692,0.9292617864991862
1592296536.1263776,-1.1670562781646865,10.00171036460467,0.9992436501433839,-0.3711111111111111,-0.6288888888888889,-0.07777777777777778,-0.1162219925992174,-0.10807288113339932,1.2363650539067481
1592296536.1363776,-0.9474567077825545,10.077110370042991,0.9032359676965728,-0.3711111111111111,-0.6288888888888889,-0.07777777777777778,-0.09155365679446197,-0.17016960206944715,1.33197345808329
1592296536.1463776,-0.7965464357819537,10.069153983537817,1.0312204923124708,-0.3711111111111111,-0.6288888888888889,-0.07777777777777778,-0.19925589590399997,-0.16417532682720956,1.4357874882457349
1592296536.1563776,-0.6370891672807664,10.135187914517319,1.0682313927781872,-0.3767792516171293,-0.6240927699991813,-0.0838819290919512,-0.21681367102283558,-0.16089070765356167,1.5898251744612606
1592296536.1663775,-0.6519514922495565,9.912399167116527,1.4584518392843373,-0.38555555555555554,-0.6166666666666667,-0.09333333333333334,-0.30084039564055937,-0.19476174987194023,1.785858869083188
1592296536.1763775,-0.06208837310667975,9.848939195815625,0.8830718099596818,-0.38555555555555554,-0.6166666666666667,-0.09333333333333334,-0.24758001569807828,-0.40625672829405723,1.8416658828068795
1592296536.1863775,0.5407930560166958,9.363524166389983,1.0323443058388275,-0.38555555555555554,-0.6166666666666667,-0.09333333333333334,-0.23761163933604154,-0.38400914484634063,1.9306362977761902
1592296536.1963775,0.7290466814634495,9.299731867974511,1.1309930550583518,-0.38555555555555554,-0.6166666666666667,-0.09333333333333334,-0.2376678709969904,-0.31381804393070356,1.9829722089067192
1592296536.2063775,0.6872625676417536,9.340271351266567,1.0383107207277862,-0.4044855305466238,-0.5972749849684992,-0.09564186686882946,-0.14778276192099005,-0.2941409677922482,1.943127430837214
1592296536.2163775,0.8765329533830192,9.126274294899897,1.076972818939062,-0.4311111111111111,-0.57,-0.09888888888888889,-0.0011966778728921337,-0.3074802183100506,1.8805019642396894
1592296536.2263775,1.622368059953557,8.93917062486806,1.328595366265569,-0.4311111111111111,-0.57,-0.09888888888888889,0.07616990183730399,-0.2684902829130767,1.8286125530152642
1592296536.2363775,1.7966720353854662,9.261081275992211,1.1953544556359528,-0.4311111111111111,-0.57,-0.09888888888888889,0.12722004441946624,-0.25705468427779293,1.846286363344917
1592296536.2463775,1.6108905896677683,9.399972169072882,1.0001113237084711,-0.4311111111111111,-0.57,-0.09888888888888889,0.17129888737248386,-0.2866193141527861,1.8357659988737836
1592296536.2563775,2.3622269597872005,9.179785244875607,1.0936625723673918,-0.44314178793094455,-0.5524417149115944,-0.09888888888888889,0.2551680805148658,-0.052590768084164435,1.7314402332680778
1592296536.2663774,1.86,8.72,1.03,-0.4722222222222222,-0.51,-0.09888888888888889,0.35779249665883756,-0.18762289458939044,1.7453292519943295
1592296536.2763774,2.5062409721426113,9.323096411784936,1.1594577553593948,-0.4722222222222222,-0.51,-0.09888888888888889,0.3703791307398935,-0.06370061606757249,1.5842476971892578
1592296536.2863774,2.54,9.43,0.85,-0.4722222222222222,-0.51,-0.09888888888888889,0.4679664056909796,-0.23125612588924865,1.5075281414101023
1592296536.2963774,2.752316847506098,9.208108966271343,0.46030511397089746,-0.4722222222222222,-0.51,-0.09888888888888889,0.3108935396672397,0.0774621518636903,1.1587082532132866
1592296536.3063774,2.7118598262977174,8.695390830135327,0.585687335891739,-0.4851467492537983,-0.49553683879799815,-0.10135070356157005,0.3937899124812206,0.004047244390222256,1.0704923736503897
1592296536.3163774,3.03,8.84,0.47,-0.5188888888888888,-0.4577777777777778,-0.10777777777777778,0.3937899124812206,0.06872233929727672,1.102829921103917
1592296536.3263774,3.446233276061178,9.276144832831028,0.6404875644311748,-0.5188888888888888,-0.4577777777777778,-0.10777777777777778,0.35517100627229614,0.26566161639538505,0.8947310054256736
1592296536.3363774,3.26,9.41,0.85,-0.5188888888888888,-0.4577777777777778,-0.10777777777777778,0.43960480534607177,0.284706834231575,0.9239336727744982
1592296536.3463774,3.2045714663318576,9.376734289301528,0.29073481794753187,-0.5188888888888888,-0.4577777777777778,-0.10777777777777778,0.20911448836670496,0.20357563702678377,0.6909454664733942
1592296536.3563774,3.6377865499857323,9.072022258156569,0.38460192143060973,-0.5351565786275194,-0.4397514188782143,-0.10777777777777778,0.2696653433580074,0.22209607335338166,0.6401092151218588
1592296536.3663774,4.23,9.35,0.3,-0.56,-0.4122222222222222,-0.10777777777777778,0.35997415822383044,0.4363323129985824,0.7613998861825263
1592296536.3763773,3.612347890217563,9.178222620239161,0.2598503924564084,-0.56,-0.4122222222222222,-0.10777777777777778,0.16325731029119822,0.3874714491445414,0.5919109399956409
1592296536.3863773,3.7753842485514677,9.095798421516966,0.31443858937981356,-0.56,-0.4122222222222222,-0.10777777777777778,0.15297484833149708,0.43892711641600796,0.489828200602913
1592296536.3963773,3.64,8.95,0.58,-0.56,-0.4122222222222222,-0.10777777777777778,0.28361600344907856,0.45596726708351865,0.4886921905584123
1592296536.4063773,3.9808509580322218,8.819786846118147,0.4074471259033349,-0.5604018873345268,-0.4049882502007411,-0.10014191842176991,0.11381824428012903,0.18574241745678538,0.4463592341798896
1592296536.4163773,4.0,8.89,0.35,-0.5611111111111111,-0.39222222222222225,-0.08666666666666667,0.02399827721492203,0.2825251726665821,0.34470252726888007
1592296536.4263773,4.123278276481149,9.111730700179534,0.39299461400359065,-0.5611111111111111,-0.39222222222222225,-0.08666666666666667,-0.010748502094530606,0.16118522990107956,0.5158720901956749
1592296536.4363773,4.018430746100357,9.025179477541815,0.7852358579214433,-0.5611111111111111,-0.39222222222222225,-0.08666666666666667,-0.03679959978252374,0.1531369794923121,0.6279163112112385
1592296536.4463773,4.029189168544476,9.11908585723561,0.8856359087957836,-0.5611111111111111,-0.39222222222222225,-0.08666666666666667,-0.06372169485593471,0.14292657926260777,0.6611821879707125
1592296536.4563773,3.755821058554831,9.149365793916123,0.708761047300652,-0.5704419288044458,-0.38499836336286636,-0.09208456081118357,-0.18265300874002563,0.12096584376081763,0.6613046166518837
1592296536.4663773,3.61,9.04,0.84,-0.5955555555555555,-0.3655555555555556,-0.10666666666666667,-0.26616271092913524,0.08835729338221293,0.7941248096574199
1592296536.4763772,4.063157747695121,8.66809996698245,0.8455200264140401,-0.5955555555555555,-0.3655555555555556,-0.10666666666666667,-0.13854107809132826,-0.11608597194757309,0.6114618109569998
1592296536.4863772,4.295281831187411,8.871725798760133,0.5005288507391512,-0.5955555555555555,-0.3655555555555556,-0.10666666666666667,-0.2105379357425716,0.01789435852875529,0.5319413162551254
1592296536.4963772,4.26,8.76,0.33,-0.5955555555555555,-0.3655555555555556,-0.10666666666666667,-0.23234695667174513,0.17889624832941878,0.5345070834232635
1592296536.5063772,4.6440868366643695,8.81322605099931,0.514408683666437,-0.6014575005743166,-0.36275989738877407,-0.10666666666666667,-0.14271103820692022,0.14092988670352274,0.6303716005494258
1592296536.5163772,4.5,8.77,0.5,-0.6166666666666667,-0.35555555555555557,-0.10666666666666667,-0.16471544815696484,-0.13962634015954636,0.5541420375081997
1592296536.5263772,4.711309517911113,8.565969380171431,0.7983758608730119,-0.6166666666666667,-0.35555555555555557,-0.10666666666666667,-0.23357414805792978,0.015641744872531324,0.5909455104226974
1592296536.5363772,4.807765208110992,8.629526147278549,0.7254172892209179,-0.6166666666666667,-0.35555555555555557,-0.10666666666666667,-0.10192015014020675,-0.019472901102093612,0.5650927212568385
1592296536.5463772,4.9419311559831955,8.553126439897005,0.7912183222658897,-0.6166666666666667,-0.35555555555555557,-0.10666666666666667,-0.10808508412948925,0.08122291414463854,0.3946300251437666
1592296536.5563772,5.214324378777703,8.607568166554735,0.6486487575554063,-0.6166666666666667,-0.3466665547347213,-0.1095495858518021,-0.1854702070723812,-0.07564992061828552,0.39582285769373077
1592296536.5663772,5.23,8.78,0.68,-0.6166666666666667,-0.31444444444444447,-0.12,-0.039269908169872414,0.11671889372712078,0.019634954084936207
1592296536.5763772,4.965332096086991,8.676166975978253,0.5795710588911833,-0.6166666666666667,-0.31444444444444447,-0.12,-0.20393403250613792,0.15305695715277864,0.11099856877784513
1592296536.5863771,4.83,8.71,1.06,-0.6166666666666667,-0.31444444444444447,-0.12,-0.15817046346198613,0.4254240051736178,0.030543261909900768
1592296536.5963771,4.375446689652163,8.88805372495963,0.4122004975341509,-0.6166666666666667,-0.31444444444444447,-0.12,-0.11140418219939528,0.03450813401932602,-0.007536791865220461
1592296536.6063771,5.125754365066926,8.628612269207862,1.02,-0.6231805690521719,-0.30988471277459084,-0.12260556095420205,-0.2704864371171402,0.1738802253475069,-0.04466507700038841
1592296536.616377,5.52,8.17,1.02,-0.65,-0.2911111111111111,-0.13333333333333333,-0.16253378659197193,0.13526301702956053,-0.24652775684419903
1592296536.626377,5.231698288443678,8.295377471142364,0.8046225288576356,-0.65,-0.2911111111111111,-0.13333333333333333,-0.09323513202656454,0.13136268549745267,-0.22881698947191909
1592296536.636377,5.050099201144628,8.3654839632765,0.890843686657923,-0.65,-0.2911111111111111,-0.13333333333333333,-0.08028296054855971,0.18610709892091223,-0.31353668412735247
1592296536.646377,4.811460273750709,8.693783105207743,0.9447566210415486,-0.65,-0.2911111111111111,-0.13333333333333333,-0.0689978962107461,0.1488120417970066,-0.3078743767054414
1592296536.656377,4.6,8.865669520859901,1.0124785935507379,-0.6516840752211494,-0.2879835428432623,-0.13333333333333333,-0.13512321024226118,0.039614904023108674,-0.4555414873510539
1592296536.666377,4.6,8.85,1.13,-0.6577777777777778,-0.27666666666666667,-0.13333333333333333,-0.004363323129985824,-0.05781403147231216,-0.4974188368183839
1592296536.676377,4.415162374020157,8.400291153415454,1.227094064949608,-0.6577777777777778,-0.27666666666666667,-0.13333333333333333,-0.15400686130953464,-0.14453385714574962,-0.4599464174463206
1592296536.686377,4.8300771085487835,8.232646040726681,1.1044873355773592,-0.6577777777777778,-0.27666666666666667,-0.13333333333333333,0.022836484750783547,-0.21279020366202764,-0.5715592372241958
1592296536.696377,5.74,8.83,0.91,-0.6577777777777778,-0.27666666666666667,-0.13333333333333333,0.06981317007977318,0.14180800172453928,-0.7352199474026113
1592296536.706377,4.4605568396722,8.23927505778525,1.1100840512712755,-0.6570376596390465,-0.27888702108286056,-0.1370339240269898,0.05541347026510784,0.14272760943611223,-0.885140071888935
1592296536.716377,5.31,8.69,0.46,-0.6522222222222223,-0.29333333333333333,-0.16111111111111112,0.061086523819801536,-0.2203478180642841,-0.5759586531581287
1592296536.726377,4.675159995661135,8.801274541707343,0.8481527280616119,-0.6522222222222223,-0.29333333333333333,-0.16111111111111112,0.03728241661399944,0.11340593450387332,-0.8121483064881182
1592296536.736377,4.470100986099561,8.647010098609956,0.8231918735891648,-0.6522222222222223,-0.29333333333333333,-0.16111111111111112,0.09749821428627727,-0.13961309519032084,-0.7397882435592807
1592296536.746377,4.294110765820155,8.603061895053543,0.7983517745096098,-0.6522222222222223,-0.29333333333333333,-0.16111111111111112,0.045684133948384754,-0.09699297410138655,-0.8278915293211352
1592296536.756377,4.025728849421345,8.49,1.1312384188760298,-0.6522222222222223,-0.29388374172267995,-0.16111111111111112,0.06848247752261115,-0.16273962219565785,-0.8511320047300989
1592296536.766377,4.42,8.49,1.14,-0.6522222222222223,-0.29777777777777775,-0.16111111111111112,0.04363323129985824,-0.11017390903214205,-0.9457502884244272
1592296536.776377,4.340284691890754,8.657488554438773,0.9213268957533021,-0.6522222222222223,-0.29777777777777775,-0.16111111111111112,0.0486376320585827,-0.2618820195368437,-0.6675058071501367
1592296536.786377,4.470577182478642,9.009028799962136,0.8477165913339801,-0.6522222222222223,-0.29777777777777775,-0.16111111111111112,0.08629590018969444,-0.18552141193938046,-0.7536982186728163
1592296536.796377,4.020502007630996,8.913951137657564,0.9190990631055355,-0.6522222222222223,-0.29777777777777775,-0.16111111111111112,0.14480252932120413,-0.2093412332695627,-0.7872667768587767
1592296536.806377,4.426103848836857,9.132918625458736,0.6899111340268721,-0.6522222222222223,-0.3000197479940284,-0.16111111111111112,0.17356212517362865,-0.16627376366715152,-0.9247978412873977
1592296536.816377,3.73,8.62,0.58,-0.6522222222222223,-0.3244444444444444,-0.16111111111111112,-0.015271630954950384,0.042542400517361786,-0.9817477042468103
1592296536.826377,1.8549132205428158,7.651414710142947,0.4176379588378386,-0.6522222222222223,-0.3244444444444444,-0.16111111111111112,0.2886259480022689,-0.7438062558241919,-0.973155939733361
1592296536.836377,5.099794946295458,10.100098120936435,-0.0667591512062683,-0.6522222222222223,-0.3244444444444444,-0.16111111111111112,0.10007650863638143,-0.28419541231668716,-1.4013305208798854
1592296536.846377,2.8299519774571866,8.106268727799495,0.6846220705256683,-0.6522222222222223,-0.3244444444444444,-0.16111111111111112,0.2446176503000705,-0.12311631440637752,-1.7975252224502947
1592296536.856377,3.646611770633246,8.605708977548257,0.7863170324652832,-0.6517781906351356,-0.32558623995409586,-0.159398417846634,0.43431748599323255,-0.2277084612837192,-1.4979716503639626
1592296536.8663769,2.93,8.7,0.23,-0.6444444444444445,-0.34444444444444444,-0.13111111111111112,0.23889194136672384,-0.13308135546456762,-1.8445948532015068
1592296536.8763769,2.7838267813267814,8.756916953316955,0.749812285012285,-0.6444444444444445,-0.34444444444444444,-0.13111111111111112,0.21083515720091506,-0.17153531148843704,-1.7955491982969882
1592296536.8863769,2.1316133710730076,8.965697677138646,0.742729654494842,-0.6444444444444445,-0.34444444444444444,-0.13111111111111112,0.15205832544326853,-0.12208394190397234,-1.9057378208607172
1592296536.8963768,2.085629389849142,9.287034141574543,1.058438893299945,-0.6444444444444445,-0.34444444444444444,-0.13111111111111112,0.40659673090155674,-0.14567864216738396,-1.8506374947644988
1592296536.9063768,2.520346053014856,9.270629187299738,0.5895910282551704,-0.6444059941094605,-0.3446506780593585,-0.13111111111111112,0.1671098741530558,-0.3368059037790911,-1.7464985666694204
1592296536.9163768,2.4799675347757053,9.455362686319582,0.4563406715798953,-0.6322222222222222,-0.41,-0.13111111111111112,0.29300714166608366,-0.19867882995526442,-1.4117448544291675
1592296536.9263768,1.8293398337219435,9.430437834145883,0.48922866765585626,-0.6322222222222222,-0.41,-0.13111111111111112,0.5476213054865924,0.05215596498721455,-1.327685833288068
1592296536.9363768,2.0143977597712106,9.722678265014299,0.5759192087702574,-0.6322222222222222,-0.41,-0.13111111111111112,0.47297455643605224,0.055701521715742525,-1.1953828574791494
1592296536.9463768,2.4171083070452157,10.098342558974664,-0.07023173223816043,-0.6322222222222222,-0.41,-0.13111111111111112,0.2678437455937312,0.03364594971560756,-1.0319511983075154
1592296536.9563768,1.9760672975814932,9.241225125488564,0.4124169196277998,-0.6322222222222222,-0.41,-0.13111111111111112,0.3704181330837243,0.23062508321408978,-0.9793023976489351
1592296536.9663768,1.8,9.63,0.01,-0.5866666666666667,-0.45111111111111113,-0.12,0.30543261909900765,0.39051742013373125,-0.8203047484373349
1592296536.9763768,1.138884801103702,9.99899287192458,0.9404560435349123,-0.5866666666666667,-0.45111111111111113,-0.12,0.1920503448911533,0.4035642479061699,-0.8214936511526795
1592296536.9863768,1.4192701077007204,9.719291029694967,-0.25452580775540284,-0.5866666666666667,-0.45111111111111113,-0.12,0.09266711364958755,0.31663328648297184,-0.8816040129173398
1592296536.9963768,1.318159302555974,9.400265504259956,0.6799504656231424,-0.5866666666666667,-0.45111111111111113,-0.12,0.24106819956940995,0.23248636341926052,-0.7704485728359831
1592296537.0063767,1.4428165246681197,9.608027541113533,0.9541963542698633,-0.5866666666666667,-0.45111111111111113,-0.12,0.27098378530030376,0.37571856176717644,-0.8175882836846643
1592296537.0163767,0.91,10.13,0.71,-0.5666666666666667,-0.4888888888888889,-0.13111111111111112,0.3076142806640006,0.29779680362153244,-0.7701265324424978
1592296537.0263767,0.9498033676121596,9.77002457904848,0.5398197536444796,-0.5666666666666667,-0.4888888888888889,-0.13111111111111112,0.16456440957449747,0.06652280334382613,-0.9793640620922457
1592296537.0363767,0.71,9.8,0.32,-0.5666666666666667,-0.4888888888888889,-0.13111111111111112,-0.019634954084936207,0.044724062082354694,-0.7330382858376184
1592296537.0463767,0.5312020275162925,9.68564911554774,0.2310096203579187,-0.5666666666666667,-0.4888888888888889,-0.13111111111111112,0.006434852198473455,-0.07011208502162,-0.7197254561191794
1592296537.0563767,0.8956596669080377,9.954653563670218,0.24836474604323988,-0.5666666666666667,-0.4888888888888889,-0.13111111111111112,0.004541701665309129,-0.018997020626183185,-0.809650106444485
1592296537.0663767,0.05,9.48,0.47,-0.5455555555555556,-0.5077777777777778,-0.10444444444444445,-0.05017821599483697,-0.06872233929727672,-0.6992225315802282
1592296537.0763767,-0.14781760565209487,9.436211070417412,0.5673381126782513,-0.5455555555555556,-0.5077777777777778,-0.10444444444444445,0.1016506159118877,-0.18978426900821674,-0.9532389654241886
1592296537.0863767,0.83,9.71,0.45,-0.5455555555555556,-0.5077777777777778,-0.10444444444444445,-0.12980886311707826,-0.09272061651219875,-0.9948376736367678
1592296537.0963767,0.03661907928188679,9.509265068252043,0.7080877693902295,-0.5455555555555556,-0.5077777777777778,-0.10444444444444445,-0.0015562695514663716,-0.036414599824856946,-0.9687700733185541
1592296537.1063766,0.5185237667109687,9.531909154874521,0.5285450707528732,-0.5455555555555556,-0.5077777777777778,-0.10444444444444445,-0.006078923384186529,0.014914729475414175,-0.9875812098931868
1592296537.1163766,0.48,9.77,0.71,-0.5311111111111111,-0.52,-0.14,-0.0916297857297023,-0.062177354602297986,-1.036289243371633
1592296537.1263766,0.2800348947468234,9.71546406220368,0.3827843732220747,-0.5311111111111111,-0.52,-0.14,-0.012310479462317309,-0.17421587470497932,-1.05215310462511
1592296537.1363766,0.17736951178370042,9.69564726010892,0.47183719697334814,-0.5311111111111111,-0.52,-0.14,-0.023973200040925652,-0.19039549949674447,-1.0658407477367653
1592296537.1463766,-0.007281424681095022,10.179417371363051,0.5859778558119536,-0.5311111111111111,-0.52,-0.14,0.09030748368828567,-0.10835383825003844,-1.0490403704205606
1592296537.1563766,-1.9535400243657732,11.757464884620898,-0.12790078113802494,-0.5311111111111111,-0.52,-0.14,-0.04248490402599543,-0.1419617882271096,-0.1940869112477508
1592296537.1663766,-5.06,8.69,0.56,-0.5133333333333333,-0.5466666666666666,-0.11888888888888889,-0.056723200689815706,-0.469057236473476,0.15598880189699318
1592296537.1763766,1.7834887788901703,10.6480520302207,-0.0506795935836839,-0.5133333333333333,-0.5466666666666666,-0.11888888888888889,0.14523598485683498,-0.09580282548935204,-0.062888430606445
1592296537.1863766,-0.9722148247848869,9.750238427149931,0.22470196606258713,-0.5133333333333333,-0.5466666666666666,-0.11888888888888889,0.05737915164273785,-0.17965814667435334,0.07422111643698126
1592296537.1963766,-0.17,10.09,-0.2,-0.5133333333333333,-0.5466666666666666,-0.11888888888888889,0.21489366415180183,-0.22907446432425577,-0.03490658503988659
1592296537.2063766,-0.3258527807135308,9.672314547687737,0.11170556142706162,-0.5133333333333333,-0.5466666666666666,-0.11888888888888889,0.14757009589876602,-0.08966707551746447,-0.06210802675828489
1592296537.2163765,-0.38,9.85,0.27,-0.4866666666666667,-0.5777777777777777,-0.11888888888888889,0.15817046346198613,0.06872233929727672,-0.04799655442984406
1592296537.2263765,-0.1309173199709044,9.89151378000485,-0.06211024003879417,-0.4866666666666667,-0.5777777777777777,-0.11888888888888889,0.04133642991413143,-0.0037328753060439923,0.09147973368154831
1592296537.2363765,-0.23,9.71,0.0,-0.4866666666666667,-0.5777777777777777,-0.11888888888888889,0.04581489286485115,0.053450708342326333,-0.11562806294462433
1592296537.2463765,-0.26390597841464897,9.921912365091556,-0.13562391365859575,-0.4866666666666667,-0.5777777777777777,-0.11888888888888889,-0.017060771576259896,-0.02421923008492849,-0.05460168275178126
1592296537.2563765,-0.3665313199913301,9.97379018857019,-0.028993208583194846,-0.4866666666666667,-0.5777777777777777,-0.11888888888888889,-0.08101126800568706,-0.02614486763634071,0.11055508113528084
1592296537.2663765,-0.4457289260969977,9.881745453233256,0.1103900837182448,-0.49162901751347193,-0.5658681357454451,-0.10598677668719528,-0.10471975511965977,-0.07918710348565171,-0.05678126129187197
1592296537.2763765,-0.1888579876189596,9.779951030213434,0.2730832486371616,-0.4922222222222222,-0.5644444444444444,-0.10444444444444445,-0.06542847984954812,-0.0095576450405023,-0.02221876060254492
1592296537.2863765,-0.007678737233054761,9.83272051996286,0.13767873723305477,-0.4922222222222222,-0.5644444444444444,-0.10444444444444445,-0.09431786827078456,0.024321373797667037,-0.18045096072601305
1592296537.2963765,-0.14971992632125822,9.88436664620035,0.1998599631606291,-0.4922222222222222,-0.5644444444444444,-0.10444444444444445,-0.055585847440186846,0.009848028341481962,-0.03410599159802177
1592296537.3063765,-0.2508379847770931,9.84284450888003,0.2638919898513954,-0.4922222222222222,-0.5644444444444444,-0.10444444444444445,-0.10235171529048823,-0.06731766238388297,-0.087308609233067
1592296537.3163764,-0.5375488168128413,9.82,0.2503921893099454,-0.4922222222222222,-0.5644444444444444,-0.09564270873554342,-0.12978747250848555,0.12427966156305652,-0.007689382254689459
1592296537.3263764,-0.5616406112150192,9.697369869781559,0.30049475950171156,-0.4922222222222222,-0.5644444444444444,-0.09555555555555556,-0.07236700061131779,0.08797950415613325,-0.05533122408343282
1592296537.3363764,-0.16047654504839914,9.689002233804914,0.31024944154877143,-0.4922222222222222,-0.5644444444444444,-0.09555555555555556,-0.08634132763228278,0.12520308802240504,-0.010359237378972305
1592296537.3463764,-0.24920555104191827,9.816261610416987,0.35509343229178103,-0.4922222222222222,-0.5644444444444444,-0.09555555555555556,-0.09710432340617536,0.1540823810276738,-0.12382961769554066
1592296537.3563764,-0.4353762154854142,9.83,0.3535045846116513,-0.4922222222222222,-0.5644444444444444,-0.09555555555555556,-0.1987874369447901,0.09827082055858084,-0.009525204804313903
1592296537.3663764,-0.4066982891429498,9.733120084326604,0.4997235060407038,-0.48145778714740034,-0.5644444444444444,-0.09555555555555556,-0.08590683795133122,0.1424378408555015,-0.004502894278512498
1592296537.3763764,-0.3803684587459561,9.691105376237868,0.5681577062702194,-0.48,-0.5644444444444444,-0.09555555555555556,-0.14206604800576156,0.03189292019735428,-0.05091294344802168
1592296537.3863764,-0.43362897738643186,9.663185511306784,0.57,-0.48,-0.5644444444444444,-0.09555555555555556,-0.12533669703569106,0.05359583227752819,-0.0026347590979426128
1592296537.3963764,-0.4120389869095048,9.678776607854298,0.7138830392714854,-0.48,-0.5644444444444444,-0.09555555555555556,-0.021456833954734633,0.024686798181221735,-0.02631534583379228
1592296537.4063764,-0.3949483244597557,9.685017225180081,0.7501033510804885,-0.48,-0.5644444444444444,-0.09555555555555556,-0.011980348850794149,0.03713709997221336,-0.04149666515086581
1592296537.4163764,-0.39,9.64,0.82,-0.46555555555555556,-0.5522222222222222,-0.12555555555555556,0.04799655442984406,0.14180800172453928,-0.01308996938995747
1592296537.4263763,-0.4115371566752084,9.64,0.8415371566752085,-0.46555555555555556,-0.5522222222222222,-0.12555555555555556,0.004142219954813481,-0.0062003771286889275,0.047992853628835125
1592296537.4363763,-0.41097980652323307,9.6670605804303,0.6786163239414283,-0.46555555555555556,-0.5522222222222222,-0.12555555555555556,0.14335815547568695,0.14522243412442146,-0.12577921299670897
1592296537.4463763,-0.4587471964114066,9.700466997757129,0.6173462031400192,-0.46555555555555556,-0.5522222222222222,-0.12555555555555556,0.07194878327706537,0.1261126733597583,-0.07481129660889684
1592296537.4563763,-0.49,9.71402446721616,0.59,-0.46555555555555556,-0.5522222222222222,-0.12555555555555556,0.02961188018029985,0.10578389630960908,0.0739756327632679
1592296537.4663763,-0.4662790697674419,9.702093023255813,0.5346511627906977,-0.46555555555555556,-0.5724289405684754,-0.10886304909560723,0.1108588492909189,0.023922172741724604,-0.02701708798508662
1592296537.4763763,-0.4507652108053522,9.718469578389296,0.4091825296642262,-0.46555555555555556,-0.5777777777777777,-0.10444444444444445,0.18017682473401572,0.007134986176528952,0.010608625407011352
1592296537.4863763,-0.43593340723406004,9.78329966744673,0.3226337397873301,-0.46555555555555556,-0.5777777777777777,-0.10444444444444445,0.1766782660449364,0.049065350941084274,0.00978115632297865
1592296537.4963763,-0.42120643363728466,9.81,0.24603216818642348,-0.46555555555555556,-0.5777777777777777,-0.10444444444444445,0.1580944258147361,-0.02938225103146863,0.012300360420803881
1592296537.5063763,-0.4267521429609182,9.830256428882755,0.2332478570390818,-0.46555555555555556,-0.5777777777777777,-0.10444444444444445,0.006470260488390445,-0.08084271654321076,0.029293949247047424
1592296537.5163763,-0.43,9.814360768711591,0.23854641042946964,-0.47125316250853533,-0.5730297719836279,-0.11678925950923394,-0.013242796522427575,-0.1029946762377032,-0.0505450166124744
1592296537.5263762,-0.436366213592233,9.822732427184466,0.22726757281553397,-0.4722222222222222,-0.5722222222222222,-0.11888888888888889,0.02619230858917665,-0.08418443142496902,-0.043227569335851014
1592296537.5363762,-0.4480502989278127,9.813899402144376,0.15559760857749888,-0.4722222222222222,-0.5722222222222222,-0.11888888888888889,0.015532386887838263,-0.0028335513972126136,0.046734060223154156
1592296537.5463762,-0.442212642363811,9.794425284727621,0.15557471527237798,-0.4722222222222222,-0.5722222222222222,-0.11888888888888889,-0.026951049320256285,0.007385048633362893,0.005987020982740808
1592296537.5563762,-0.4284286021659614,9.801571397834039,0.1542143010829807,-0.4722222222222222,-0.5722222222222222,-0.11888888888888889,-0.03203927182332666,0.020601078257140807,-0.07970058922362204
1592296537.5663762,-0.41290698569010614,9.824186028619788,0.19255808585936296,-0.4777390111299174,-0.5722222222222222,-0.11258398728009437,-0.014434499315051771,0.034729004032365236,-0.10737075590231013
1592296537.5763762,-0.34395087517107253,9.83,0.16046315637830438,-0.48,-0.5722222222222222,-0.11,-0.08257627524332532,-0.02344252945690161,-0.06395177162751714
1592296537.5863762,-0.3454662623199393,9.845466262319938,0.13453373768006066,-0.48,-0.5722222222222222,-0.11,-0.061058405361420265,0.01292870176100614,0.037754819471211676
1592296537.5963762,-0.3574797570850202,9.812601214574899,0.18983805668016193,-0.48,-0.5722222222222222,-0.11,-0.033859917446964885,-0.04452974404822578,0.00017665275829902016
1592296537.6063762,-0.37665919999999997,9.7833408,0.2655306666666667,-0.48,-0.5722222222222222,-0.11,0.0043486623642690694,0.028196957618803045,-0.0012212650552621655
1592296537.6163762,-0.4234234945705824,9.756630602171766,0.3768469891411648,-0.47480078973346496,-0.5759359438411757,-0.11,-0.08977268131954101,0.09122683520767844,0.03131375671887596
1592296537.6263762,-0.44,9.75,0.43410043343949806,-0.4722222222222222,-0.5777777777777777,-0.11,-0.11351484115668883,0.08224133727440634,-0.044856474765524165
1592296537.6363761,-0.456464587299263,9.725303119051105,0.43176770635036854,-0.4722222222222222,-0.5777777777777777,-0.11,-0.08137165287838269,0.07642428509309335,-0.09418597278520528
1592296537.6463761,-0.455149329382408,9.705447988147224,0.5173120711166562,-0.4722222222222222,-0.5777777777777777,-0.11,-0.08164941560017237,0.03187898522380765,-0.023104023938535168
1592296537.6563761,-0.4444018234595079,9.695598176540491,0.6211963530809842,-0.4722222222222222,-0.5777777777777777,-0.11,-0.06894647271106158,0.03711517151577979,-0.035137752506953196
1592296537.666376,-0.4266288873531444,9.706685556323428,0.6567422252937112,-0.4722222222222222,-0.5740635798203179,-0.11,-0.007867551056286122,0.06869761279439773,-0.12877366696605952
1592296537.676376,-0.41235887382493264,9.702358873824933,0.6317943691246635,-0.4722222222222222,-0.5722222222222222,-0.11,-0.03140535265538547,-0.0056564592482128695,0.05900815340240717
