time,acc_x,acc_y,acc_z,mag_x,mag_y,mag_z,gyr_x,gyr_y,gyr_z
1592296633.4862847,-0.42406015037593986,9.76,0.7120300751879699,-0.4811111111111111,-0.6111111111111112,-0.03666666666666667,-0.0050030584761115715,0.10234945364491183,0.010202958597184897
1592296633.4962847,-0.4185330612825927,9.76,0.6518140406652589,-0.4811111111111111,-0.6111111111111112,-0.03666666666666667,-0.04561204269822306,0.03481012898336415,0.03775264689547357
1592296633.5062847,-0.45,9.763706811569811,0.5922408694188647,-0.4811111111111111,-0.6111111111111112,-0.03666666666666667,0.044441932132910957,0.08835729338221293,-0.09251386459331198
1592296633.5162847,-0.44715653569432173,9.764313071388644,0.6328434643056783,-0.4811111111111111,-0.6111111111111112,-0.03666666666666667,0.04581489286485115,0.08215381659508539,-0.08166244411230515
1592296633.5262847,-0.4392370673613696,9.749237067361369,0.6438146631931522,-0.4811111111111111,-0.6111111111111112,-0.03666666666666667,0.03782548095583357,0.06970315327960327,-0.06405900725465045
1592296633.5362847,-0.3996845810518566,9.760210279298763,0.6630529609349837,-0.4811111111111111,-0.6111111111111112,-0.03666666666666667,-0.030245069038285645,0.07859758775789481,0.04733135494701032
1592296633.5462847,-0.3019896653305646,9.834842806780316,0.559319553774086,-0.4811111111111111,-0.6111111111111112,-0.03666666666666667,0.0019932802988410145,0.017270547941564962,-0.0916697166580421
1592296633.5562847,-0.1710822643828251,9.937952991781243,0.4290352561640679,-0.4811111111111111,-0.6111111111111112,-0.03666666666666667,-0.08105134969141019,0.008292877847575599,-0.11617988808737889
1592296633.5662847,-0.003052771015322933,10.037352140913647,0.4136760704568237,-0.4811111111111111,-0.6111111111111112,-0.03666666666666667,-0.12465371915326362,0.061949811799984676,-0.17752353237621993
1592296633.5762846,0.193608528374479,10.1552340493748,0.47418723949983965,-0.4804132378611378,-0.6123905454027289,-0.03666666666666667,-0.08888924388563618,0.21085157477421196,-0.3309756861716684
1592296633.5862846,0.31,10.2,0.51,-0.47444444444444445,-0.6233333333333333,-0.03666666666666667,-0.06544984694978735,0.33488505022641196,-0.25089107997418486
1592296633.5962846,0.46889513006489614,10.255779026012979,0.5571104869935104,-0.47444444444444445,-0.6233333333333333,-0.03666666666666667,-0.04640197957437056,0.24846530955191026,-0.4462300690474844
1592296633.6062846,0.54,10.27,0.55,-0.47444444444444445,-0.6233333333333333,-0.03666666666666667,-0.10690141668465267,0.22907446432425577,-0.5323254218582705
1592296633.6162846,0.4826773316644828,10.2591733322903,0.6951573347935776,-0.47444444444444445,-0.6233333333333333,-0.03666666666666667,-0.22532956948038238,0.2717285655041476,-0.5840709457741848
1592296633.6262846,0.4079690144022863,10.217876884894523,0.7478768848945211,-0.47389400719487584,-0.6233333333333333,-0.03666666666666667,-0.22238513211212568,0.2634475091096418,-0.6800274702983413
1592296633.6362846,0.25,10.19,0.72,-0.4666666666666667,-0.6233333333333333,-0.03666666666666667,-0.20616701789183017,0.3567016658763411,-0.8290313946973066
1592296633.6462846,0.07879942074920081,10.097950217219049,0.4575988414984016,-0.4666666666666667,-0.6233333333333333,-0.03666666666666667,-0.13675153504752383,0.3950117061440769,-0.8546267991099895
1592296633.6562846,0.02,10.12,0.34,-0.4666666666666667,-0.6233333333333333,-0.03666666666666667,-0.08944812416470939,0.40142572795869574,-0.7592182246175333
1592296633.6662846,0.021345797672196985,10.099614957206636,0.4251925213966818,-0.4666666666666667,-0.6233333333333333,-0.03666666666666667,-0.2435504882684254,0.45078632594983137,-1.1245633415806036
1592296633.6762846,-0.019539898231727533,10.050552122121928,0.4497239389390365,-0.4666666666666667,-0.6233333333333333,-0.03666666666666667,-0.42016401586535423,0.5087655143023585,-1.2066261927872577
1592296633.6862845,-0.25,10.02,0.69,-0.44222222222222224,-0.65,-0.03666666666666667,-0.3403392041388943,0.5006913291658732,-1.3624476473380736
1592296633.6962845,-0.3871968709256845,9.928409387222946,0.84,-0.44222222222222224,-0.65,-0.03666666666666667,-0.2768519992749545,0.5090254470086755,-1.3990978549846622
1592296633.7062845,-0.4623844131006455,9.839781018407841,0.8823844131006454,-0.44222222222222224,-0.65,-0.03666666666666667,-0.27868470770511294,0.5321316644422067,-1.4706920141455329
1592296633.7162845,-0.55,9.86,0.97,-0.44222222222222224,-0.65,-0.03666666666666667,-0.26398104936414235,0.5835944686356039,-1.581704634619861
1592296633.7262845,-0.4349749430523918,9.879170842824601,0.9412437357630979,-0.44222222222222224,-0.65,-0.03666666666666667,-0.14791864195304788,0.5626823231561275,-1.6622163947158455
1592296633.7362845,-0.6,9.79,0.95,-0.4088888888888889,-0.65,-0.057777777777777775,-0.4134248665661568,0.509417975425845,-1.7911441448591805
1592296633.7462845,-0.9970567926808217,9.640136371482825,0.7696841015018125,-0.4088888888888889,-0.65,-0.057777777777777775,-0.27574292803962586,0.6696275561921041,-1.9512495948775164
1592296633.7562845,-1.55,9.47,0.54,-0.4088888888888889,-0.65,-0.057777777777777775,-0.36760997370130566,0.507236313860852,-1.918771346411266
1592296633.7662845,-1.624358979489745,9.398012806403202,0.6841666833416709,-0.4088888888888889,-0.65,-0.057777777777777775,-0.33778695477949966,0.5594003984818327,-2.051775803489706
1592296633.7762845,-1.657930165082541,9.305692046023012,0.7932730365182592,-0.4088888888888889,-0.65,-0.057777777777777775,-0.4357467458669759,0.5410901571570707,-2.177200956564325
1592296633.7862844,-1.81,9.21,1.04,-0.3477777777777778,-0.6844444444444444,-0.07222222222222222,-0.4308781590861001,0.5203262832508094,-2.0976675947406846
1592296633.7962844,-1.7853262187727383,9.174891260409087,1.0344563020454363,-0.3477777777777778,-0.6844444444444444,-0.07222222222222222,-0.353251469266039,0.4884195931011645,-2.062191650534188
1592296633.8062844,-1.878540459682781,9.110270443536898,0.9073513629024599,-0.3477777777777778,-0.6844444444444444,-0.07222222222222222,-0.4293333421236341,0.5852512022048504,-1.985022869550146
1592296633.8162844,-2.1222355361461003,8.97027285523514,0.8762182841881113,-0.3477777777777778,-0.6844444444444444,-0.07222222222222222,-0.4390909845591818,0.6597087642460009,-2.113766354721133
1592296633.8262844,-2.8564310463059877,8.856737467066084,0.7853899736528676,-0.3477777777777778,-0.6844444444444444,-0.07222222222222222,-0.562113228234554,0.5796204579606914,-2.04193457485699
1592296633.8362844,-3.45,8.84,0.79,-0.2677777777777778,-0.7155555555555555,-0.07222222222222222,-0.5563236990731926,0.46687557490848314,-1.782417498599209
1592296633.8462844,-3.4378293167992515,8.591992571361722,1.0113172671970052,-0.2677777777777778,-0.7155555555555555,-0.07222222222222222,-0.39035066263197327,0.580069399448356,-1.8161397448715881
1592296633.8562844,-3.626367944647173,8.347877351784277,1.404709729396711,-0.2677777777777778,-0.7155555555555555,-0.07222222222222222,-0.4885999654451014,0.40422246485898766,-1.572565560134556
1592296633.8662844,-3.9981084991604443,8.32265906898646,1.454569325854739,-0.2677777777777778,-0.7155555555555555,-0.07222222222222222,-0.4350494732394377,0.3905133282030334,-1.5253900034675287
1592296633.8762844,-4.320274373905898,8.622348254796185,1.3496781108213356,-0.2677777777777778,-0.7155555555555555,-0.07222222222222222,-0.40726210716912115,0.40849338860147355,-1.473084373217521
1592296633.8862844,-4.01,8.44,1.85,-0.20222222222222222,-0.7355555555555555,-0.1288888888888889,-0.49305551368839806,0.12435470920459597,-1.2784536770858463
1592296633.8962843,-4.279206402134045,8.447669223074358,1.5807685895298433,-0.20222222222222222,-0.7355555555555555,-0.1288888888888889,-0.4613484928293151,0.03583519157130155,-1.2409553232094548
1592296633.9062843,-4.53654513847546,8.71354320958255,1.552618055390184,-0.20222222222222222,-0.7355555555555555,-0.1288888888888889,-0.32250694059316476,0.023238231067586428,-1.10501158266891
1592296633.9162843,-4.173806649762509,8.444516624406273,1.4146450126781185,-0.20222222222222222,-0.7355555555555555,-0.1288888888888889,-0.38938457438752194,0.2815117881037065,-1.0732588663654739
1592296633.9262843,-4.1438484339845,8.369621084961251,1.4371136745116244,-0.20222222222222222,-0.7355555555555555,-0.1288888888888889,-0.3575222140271829,0.27660988650980817,-0.9196659497566599
1592296633.9362843,-4.75,8.42,1.41,-0.13666666666666666,-0.73,-0.11333333333333333,-0.210530341021816,0.3665191429188092,-1.0406525665016189
1592296633.9462843,-4.79009422722842,7.844591140474385,1.6668081880212282,-0.13666666666666666,-0.73,-0.11333333333333333,-0.21584555666935556,0.34420171153325757,-0.6683808359481801
1592296633.9562843,-5.394202870629034,8.12581519121472,1.6967392351411232,-0.13666666666666666,-0.73,-0.11333333333333333,-0.23113355059710125,0.2924196992872474,-0.6709281296059404
1592296633.9662843,-5.326918958031838,7.978122648335745,2.142089363241679,-0.13666666666666666,-0.73,-0.11333333333333333,0.027174157632036896,0.17234467286958197,-0.6996899233659412
1592296633.9762843,-5.721462373371925,7.849137301013025,1.8006575615050653,-0.13666666666666666,-0.73,-0.11333333333333333,0.007310460594302223,0.030815831475722477,-0.599543784134029
1592296633.9862843,-6.12,8.06,2.17,-0.09777777777777778,-0.7355555555555555,-0.11555555555555555,-0.10035643198967394,0.00545415391248228,-0.36760997370130566
1592296633.9962842,-5.245956054353826,7.9086453596867035,1.7673206823139802,-0.09777777777777778,-0.7355555555555555,-0.11555555555555555,0.016295114469381443,-0.16003153024132244,-0.3067276706522277
1592296634.0062842,-4.848696750135706,7.690492553869392,1.5246947204455878,-0.09777777777777778,-0.7355555555555555,-0.11555555555555555,0.06346631697720653,0.2179103824126729,-0.13644619422863472
1592296634.0162842,-5.927507709338183,8.090127698268365,1.1884984581323634,-0.09777777777777778,-0.7355555555555555,-0.11555555555555555,-0.08707593162806038,-0.0019086735499220429,-0.2616570502093009
1592296634.0262842,-4.93257610500514,7.741901636751798,1.387484778998972,-0.09777777777777778,-0.7355555555555555,-0.11555555555555555,-0.04004617740704076,-0.03808540756609098,-0.15403126651119828
1592296634.0362842,-5.4,8.1,1.26,-0.04888888888888889,-0.73,-0.11,-0.1341721862470641,0.05563236990731925,-0.1090830782496456
1592296634.0462842,-5.682558278541542,8.109418609284717,1.278837218569436,-0.04888888888888889,-0.73,-0.11,-0.2584889043736006,0.002207003439716783,0.08201534796139402
1592296634.0562842,-5.557555328642145,8.024295766831672,1.2359557370862837,-0.04888888888888889,-0.73,-0.11,-0.1796929720133292,-0.05450751800893992,0.1745735326096362
1592296634.0662842,-5.306735370765222,7.414453274751782,1.467496069436368,-0.04888888888888889,-0.73,-0.11,-0.19509275136152748,0.03858358998484368,0.4196967148075312
1592296634.0762842,-5.704205164652926,7.757722642200254,1.8830326721371498,-0.04888888888888889,-0.73,-0.11,-0.19115118512257084,-0.10725436085655174,0.46502472655553245
1592296634.0862842,-5.33,7.36,1.71,-0.022222222222222223,-0.7377777777777778,-0.13333333333333333,-0.19962203319685143,-0.09272061651219875,0.4526947747360292
1592296634.0962842,-5.9686398911509775,7.88645484781294,1.7541360108849022,-0.022222222222222223,-0.7377777777777778,-0.13333333333333333,-0.026953371006770675,-0.020735514611864323,0.544429141475795
1592296634.1062841,-5.322055081717253,7.836575499118502,1.8210959165197504,-0.022222222222222223,-0.7377777777777778,-0.13333333333333333,-0.03257533511104821,-0.04941598063841106,0.48195348945201866
1592296634.1162841,-5.441341741110527,7.895335435277632,1.8415601097682024,-0.022222222222222223,-0.7377777777777778,-0.13333333333333333,0.022980627057700778,-0.00453522435506657,0.6828907687647854
1592296634.1262841,-5.637256962690489,7.944314240672623,1.9476808547906814,-0.022222222222222223,-0.7377777777777778,-0.13333333333333333,0.03366614478065258,-0.05618189334933358,0.8333784766963566
1592296634.136284,-5.47,8.05,1.68,-0.03,-0.7388888888888889,-0.13444444444444445,-0.0545415391248228,-0.07963064712224129,1.0842857978014773
1592296634.146284,-5.542049141597102,8.086024570798552,1.5989447157032604,-0.03,-0.7388888888888889,-0.13444444444444445,0.14685410348574907,-0.2427119967483629,1.1736858147651943
1592296634.156284,-5.0528611774929395,7.865433412991527,1.5781359982620031,-0.03,-0.7388888888888889,-0.13444444444444445,0.10223617775694788,-0.37879578811899306,1.25409755618603
1592296634.166284,-5.24,8.09,1.26,-0.03,-0.7388888888888889,-0.13444444444444445,0.19307704850187268,-0.2399827721492203,1.2806353386508393
1592296634.176284,-4.489645959049845,7.770700408106317,1.4356147755415256,-0.03,-0.7388888888888889,-0.13444444444444445,0.0528855644722081,-0.23475824479407753,1.4086362588518373
1592296634.186284,-4.75,8.67,1.8,-0.042222222222222223,-0.7388888888888889,-0.12777777777777777,-0.02181661564992912,-0.33706671179140485,1.4562590946327687
1592296634.196284,-4.328996541200406,8.459498270600204,1.6660443540183112,-0.042222222222222223,-0.7388888888888889,-0.12777777777777777,0.09716920865269021,-0.2337369170022881,1.4124222119949617
1592296634.206284,-4.312419427514406,8.336192520217232,1.215552209073446,-0.042222222222222223,-0.7388888888888889,-0.12777777777777777,-0.19143892680386185,-0.4793598922416235,1.6046430207353533
1592296634.216284,-3.7011981165670873,8.768707909626874,1.9635395481343727,-0.042222222222222223,-0.7388888888888889,-0.12777777777777777,-0.26730479647181904,-0.3927870672386331,1.4612331802756227
1592296634.226284,-3.9169457523839672,8.743813951648004,1.839069758240019,-0.042222222222222223,-0.7388888888888889,-0.12777777777777777,-0.16321026310263814,-0.3104166103986725,1.4730003883956169
1592296634.236284,-4.18,8.57,1.59,-0.06888888888888889,-0.7333333333333333,-0.12,-0.1712604328519436,-0.2781618495365963,1.5686146652299036
1592296634.246284,-3.953031368744442,8.170535208990218,1.698944943002668,-0.06888888888888889,-0.7333333333333333,-0.12,-0.10490782178985734,-0.16031168959050277,1.6488320009915303
1592296634.256284,-4.010208412277377,8.286634141720349,1.5987760515346723,-0.06888888888888889,-0.7333333333333333,-0.12,-0.012844232785109369,-0.33314939336559246,1.7378588798744496
1592296634.266284,-3.71476900602593,8.201743258871508,1.5663588775944977,-0.06888888888888889,-0.7333333333333333,-0.12,-0.073952736454204,-0.27928063331437125,1.8488798282687169
1592296634.276284,-4.327485543855378,9.103798161787084,1.8301673869377322,-0.06888888888888889,-0.7333333333333333,-0.12,-0.06466981894852324,-0.32569522084277513,1.936139252822116
1592296634.286284,-3.42,8.51,1.41,-0.1288888888888889,-0.7388888888888889,-0.12222222222222222,-0.017453292519943295,-0.26070855701665296,1.896954730761337
1592296634.296284,-2.9809864925161236,8.360735407455483,2.015838640327749,-0.1288888888888889,-0.7388888888888889,-0.12222222222222222,-0.028946639269426908,-0.3430775420546188,1.7484990019138404
1592296634.306284,-2.9396527357157276,9.273504946497072,1.9526044821320412,-0.1288888888888889,-0.7388888888888889,-0.12222222222222222,0.038057727142846276,-0.2098147930282099,1.7557451112770648
1592296634.316284,-1.9033677938114724,8.983946681982435,2.2856713810515235,-0.1288888888888889,-0.7388888888888889,-0.12222222222222222,0.1717339171588553,-0.1814112127740373,1.890855455133301
1592296634.326284,-2.077129455570819,8.92760375244017,1.706156098619044,-0.1288888888888889,-0.7388888888888889,-0.12222222222222222,0.23957910324223508,-0.1549497088770098,1.6851988120557233
1592296634.336284,-2.32,9.0,1.27,-0.18777777777777777,-0.7122222222222222,-0.13666666666666666,-0.08290313946973066,-0.30870511144649704,1.399535893942953
1592296634.346284,-2.2989550602849835,9.315674095725246,1.4523894775301425,-0.18777777777777777,-0.7122222222222222,-0.13666666666666666,0.06325304049267355,-0.2780964873706009,1.3673968386632622
1592296634.356284,-1.739757200267917,8.880450435365036,1.723067649028801,-0.18777777777777777,-0.7122222222222222,-0.13666666666666666,0.06752940295426194,-0.3777450921923272,1.3358196496315906
1592296634.366284,-2.0782578803378136,9.092383489948851,1.8268264541453552,-0.18777777777777777,-0.7122222222222222,-0.13666666666666666,0.1383285279015844,-0.29623753971295436,1.1292153881292792
1592296634.376284,-1.9771949840274607,8.793814956645965,1.2579174189964086,-0.18777777777777777,-0.7122222222222222,-0.13666666666666666,0.1372014228322471,-0.19762934449961336,1.2182690111807863
1592296634.3862839,-2.39,9.0,2.03,-0.22,-0.7055555555555556,-0.13666666666666666,0.06981317007977318,-0.3687008044838021,1.2762720155208536
1592296634.3962839,-2.2771187462326705,9.270915009041591,1.984847498493068,-0.22,-0.7055555555555556,-0.13666666666666666,0.055037048514629504,-0.3769097609088819,1.3706750144092714
1592296634.4062839,-1.5829811677070764,8.975174683942715,1.7259644337197713,-0.22,-0.7055555555555556,-0.13666666666666666,0.2938549807561361,-0.2843908807003599,1.0607748552326828
1592296634.4162838,-1.7852661918486934,9.383932493270766,1.8231997808532432,-0.22,-0.7055555555555556,-0.13666666666666666,0.11016702329437111,-0.22774011227991328,1.1465174847723754
1592296634.4262838,-1.7214844215122047,9.873241913077992,1.8692577892438975,-0.22,-0.7055555555555556,-0.13666666666666666,0.13671601488868262,-0.22984997378947014,1.0528009014923498
1592296634.4362838,-1.5938216955672055,9.488413624096536,1.0595312839284052,-0.29078553628852977,-0.6851779011694636,-0.1141439960294072,0.05355117292008579,-0.47553644038732834,0.9716813836526943
1592296634.4462838,-1.016282461613256,9.157063160879959,1.6260701697524613,-0.29333333333333333,-0.6844444444444444,-0.11333333333333333,0.055054803667541015,-0.45181828294373283,0.9851910932695789
1592296634.4562838,-1.463619435704338,9.79475963274359,0.9013490999123123,-0.29333333333333333,-0.6844444444444444,-0.11333333333333333,0.06875885599288926,-0.4627610041842031,0.9373168729182071
1592296634.4662838,-0.7256816559600285,9.656802284082799,1.08785153461813,-0.29333333333333333,-0.6844444444444444,-0.11333333333333333,-0.0672095026017802,-0.3740171446571682,1.0565852362391102
1592296634.4762838,-0.5186272203747262,8.666098629248115,1.7854477248763079,-0.29333333333333333,-0.6844444444444444,-0.11333333333333333,0.09023859824358998,-0.23286720040611766,1.2227597715463407
1592296634.4862838,-0.43213382990414556,8.84994199890103,1.43389889492643,-0.3188619573844557,-0.676998595762867,-0.09950532863897538,0.39742330671590387,-0.24020920994520834,1.3687472134218124
1592296634.4962838,-0.40867928351434596,8.891320716485653,1.680062408818285,-0.32,-0.6766666666666666,-0.09888888888888889,0.3772765751780151,-0.1599886621199566,1.5439094433775329
1592296634.5062838,-2.4406196770198894,17.106457580429122,2.5200492810028052,-0.32,-0.6766666666666666,-0.09888888888888889,0.041955509351839115,-0.5381490671649705,1.0597244480112438
1592296634.5162838,1.4421468980497933,12.807672164800803,-0.9120564294750917,-0.32,-0.6766666666666666,-0.09888888888888889,0.46248678612778527,-0.34280736729364697,0.6596295116928851
1592296634.5262837,2.1413380432455575,10.444230357525154,0.8799314921858274,-0.32,-0.6766666666666666,-0.09888888888888889,0.281637048182353,-0.2005697084945116,0.6267064551684889
1592296634.5362837,-0.6428966159577767,8.207799596398635,3.0753492704129153,-0.34766049191072473,-0.6529576736003312,-0.09296164062230501,0.28126636545809425,-0.20499025158898024,0.6614122572733051
1592296634.5462837,-0.28602518663750853,9.645488273885832,1.583038986501772,-0.3511111111111111,-0.65,-0.09222222222222222,0.23488142520650857,-0.11817939448447125,0.7298230454488513
1592296634.5562837,-0.445868444735335,9.770868035670459,2.047665057678148,-0.3511111111111111,-0.65,-0.09222222222222222,0.2574785448665348,-0.007844825188070524,0.8247987249474709
1592296634.5662837,-0.38972130981003017,9.74199553012089,1.750308489384037,-0.3511111111111111,-0.65,-0.09222222222222222,0.2927780068457033,0.014803435493633716,0.7767051681090947
1592296634.5762837,-0.12213972201901975,9.832730539179828,1.3669381212616722,-0.3511111111111111,-0.65,-0.09222222222222222,0.26798990764391856,-0.03241530947079081,0.7725620671641298
1592296634.5862837,0.24441002685765445,9.740429722470905,1.29903133393017,-0.3723298517855366,-0.6491158858052323,-0.07542405252163534,0.16811665267735756,-0.235866521703184,0.9292007155160528
1592296634.5962837,0.21008686506699908,9.627441570582736,1.504535680897476,-0.37777777777777777,-0.6488888888888888,-0.07111111111111111,0.11439441967147773,-0.27724225777145184,1.0314092713056715
1592296634.6062837,0.2879164107357458,9.975569501936173,1.1165140873280812,-0.37777777777777777,-0.6488888888888888,-0.07111111111111111,0.1987821998244762,-0.29448122571582935,1.2365999754743198
1592296634.6162837,0.7295331624709573,10.102659704424058,0.8293611823037678,-0.37777777777777777,-0.6488888888888888,-0.07111111111111111,0.10696373270219213,-0.3126878496240805,1.2377632772557856
1592296634.6262836,0.7043032355368374,10.038227426652627,0.9196209555789534,-0.37777777777777777,-0.6488888888888888,-0.07111111111111111,0.10248985500038554,-0.33438807515945973,1.294837216029443
1592296634.6362836,0.5518523447897911,9.661127378063101,1.0022281374774915,-0.4058419235018311,-0.6488888888888888,-0.06930052106439799,0.1521086793124834,-0.26103794982398787,1.4712833180267002
1592296634.6462836,0.9361538461538461,9.509140271493212,1.1049321266968326,-0.4122222222222222,-0.6488888888888888,-0.06888888888888889,0.14949811194684462,-0.22912875906908586,1.4950304783273825
1592296634.6562836,1.294308430684845,9.608809630547718,1.1758843384931832,-0.4122222222222222,-0.6488888888888888,-0.06888888888888889,0.14991379408354258,-0.35756748997703364,1.2848451670666718
1592296634.6662836,1.5325037993920974,9.468700607902736,1.0628685410334346,-0.4122222222222222,-0.6488888888888888,-0.06888888888888889,0.10083532825455793,-0.43411604490990463,1.3315222630947905
1592296634.6762836,1.7242145174287664,9.237344670124182,1.238136041490175,-0.4122222222222222,-0.6488888888888888,-0.06888888888888889,0.022395918763174233,-0.465903029969046,1.4433897166197207
1592296634.6862836,1.932254086181278,9.096438335809806,1.3613075780089154,-0.43948249958725444,-0.6232807495459799,-0.0639324748225194,-0.10338441939876868,-0.5274717111305963,1.5010809748989624
1592296634.6962836,2.137826086956522,8.99695652173913,0.9852173913043478,-0.4488888888888889,-0.6144444444444445,-0.06222222222222222,-0.10794482004182321,-0.5719273220054245,1.396595393572745
1592296634.7062836,2.3856991890593653,9.629340227741517,0.9584959452968268,-0.4488888888888889,-0.6144444444444445,-0.06222222222222222,-0.07426859013773786,-0.498944292360395,1.2519283440037456
1592296634.7162836,2.287227585215704,9.395771193139627,0.9581768749850288,-0.4488888888888889,-0.6144444444444445,-0.06222222222222222,-0.24307055463009725,-0.5422217579157954,1.191450783367799
1592296634.7262836,2.2863004689297197,9.217649452915326,0.9009248827675701,-0.4488888888888889,-0.6144444444444445,-0.06222222222222222,-0.3011785495549291,-0.59398774682076,1.172899496095257
1592296634.7362835,2.579757225890633,9.141699023367996,0.9812621090506505,-0.47782092004621757,-0.6007820963979281,-0.041326866386373715,-0.15961082936216678,-0.5866922365554356,1.3082132022455695
1592296634.7462835,2.583917704141122,9.233690525444766,1.1569481325459812,-0.4888888888888889,-0.5955555555555555,-0.03333333333333333,-0.13904258342229284,-0.5063738900052807,1.2928280507954357
1592296634.7562835,2.6252449860370652,8.780865701954811,1.106986544808327,-0.4888888888888889,-0.5955555555555555,-0.03333333333333333,-0.22995371990547592,-0.4326469166915342,1.2817909712619988
1592296634.7662835,2.934638346727899,9.031631745120551,1.2675731917336395,-0.4888888888888889,-0.5955555555555555,-0.03333333333333333,-0.24921929726375439,-0.5122203522681912,1.1968030831228256
1592296634.7762835,3.01,9.166581245254365,1.3992021007339914,-0.4888888888888889,-0.5955555555555555,-0.03333333333333333,-0.21891836314745916,-0.513885487942453,1.1275943820129102
1592296634.7862835,3.08234949548392,9.13315445372435,1.2740247912021467,-0.5261598411078778,-0.5648618301987411,-0.04283377213425209,-0.14125188868059244,-0.40407569524490705,0.9965652930174738
1592296634.7962835,3.1864660972106735,9.16907891752967,1.3152441605563536,-0.5455555555555556,-0.5488888888888889,-0.04777777777777778,-0.1670652406438347,-0.33948012026955876,1.0409416214043359
1592296634.8062835,3.252037809579131,9.307867666473042,1.2963970005808734,-0.5455555555555556,-0.5488888888888889,-0.04777777777777778,-0.21156961698832608,-0.27684872821232165,0.9960934798304206
1592296634.8162835,2.9489358458203303,9.117148676656264,1.4174045310527195,-0.5455555555555556,-0.5488888888888889,-0.04777777777777778,-0.28116517483438946,-0.4416752451527426,0.9515061703359463
1592296634.8262835,2.8886981272611196,9.19773799389941,1.6993816060154643,-0.5455555555555556,-0.5488888888888889,-0.04777777777777778,-0.2084019364821514,-0.47277085484659614,0.9928424019878803
1592296634.8362834,2.984567891916371,9.267242810778173,1.647791531436335,-0.5495976216234348,-0.5327206246173716,-0.040367323319998996,-0.05374998903478424,-0.3030594508240678,1.0438996179319229
1592296634.8462834,3.130484831528039,9.158020704264759,1.5612002877812863,-0.5522222222222222,-0.5222222222222223,-0.035555555555555556,-0.02376414470355043,-0.2508867199646621,1.0429903164075263
1592296634.8562834,3.5230476297461246,8.877013592451135,1.6401836665917773,-0.5522222222222222,-0.5222222222222223,-0.035555555555555556,-0.08650807665129247,-0.33714685146021556,0.8890285581872505
1592296634.8662834,3.5341941566811474,9.135091421205901,1.746062204611639,-0.5522222222222222,-0.5222222222222223,-0.035555555555555556,-0.007264254985132043,-0.16618195341623265,0.8735576470347186
1592296634.8762834,3.5555502580041645,9.078298681312049,1.6814991399861192,-0.5522222222222222,-0.5222222222222223,-0.035555555555555556,0.025749057493730125,-0.15231850967604751,0.8050324920626414
1592296634.8862834,4.147840886986968,8.495251507488815,1.2417984827854502,-0.5727897296245866,-0.49900084289697205,-0.00901683632669822,0.0748042142342557,-0.2478934489757805,0.5734236226794673
1592296634.8962834,4.2843112846798475,8.88736636563339,1.3709665608982182,-0.5866666666666667,-0.48333333333333334,0.008888888888888889,0.11501355539129218,-0.16929452343341955,0.6070934362758513
1592296634.9062834,3.8607880442054,8.979921864547377,1.0505434695352012,-0.5866666666666667,-0.48333333333333334,0.008888888888888889,0.23794524701097453,-0.06355386039665639,0.4786664775361114
1592296634.9162834,3.9766499919315796,8.617766661287721,0.9104356946909795,-0.5866666666666667,-0.48333333333333334,0.008888888888888889,0.27795809987857795,-0.041724145411272576,0.48443210645600987
1592296634.9262834,4.108636619378692,9.090585540328739,1.5410103283366154,-0.5866666666666667,-0.48333333333333334,0.008888888888888889,0.17596315283592961,-0.15432938713149713,0.42810599434061336
1592296634.9362833,3.8876785714285713,9.09,1.3532142857142857,-0.6081944444444445,-0.4753373015873016,0.004583333333333333,0.16755939983990203,-0.09207780551537048,0.35640947905960096
1592296634.9462833,3.8901282355734983,8.713317501781049,1.2756732367608643,-0.6255555555555555,-0.4688888888888889,0.0011111111111111111,0.1667240688854088,-0.0697554034532007,0.3413269357403331
1592296634.9562833,4.193472811208331,8.638027806108756,1.2433855816200547,-0.6255555555555555,-0.4688888888888889,0.0011111111111111111,0.19928885228792423,-0.12054921523610312,0.2712075617566613
1592296634.9662833,4.524486230741235,8.87135913300174,1.40476242468357,-0.6255555555555555,-0.4688888888888889,0.0011111111111111111,0.20406850631369503,0.007292320014524817,0.29820421650143614
1592296634.9762833,4.6138282741690375,9.064026419358608,1.631769083895102,-0.6255555555555555,-0.4688888888888889,0.0011111111111111111,0.07869175393987082,0.26369377274630723,0.2973143608291335
1592296634.9862833,3.9576317661003557,8.947711576451994,1.5410059265112603,-0.6290361297686465,-0.4520661135256157,-0.0029495588041617282,0.21495460586363313,0.3181063402196111,0.1466578241778289
1592296634.9962833,3.8571776916343627,8.79571547663707,1.1428598224334123,-0.6322222222222222,-0.43666666666666665,-0.006666666666666667,0.2737932975482891,0.30215376118486625,0.09038149810923389
1592296635.0062833,4.819235148312587,8.795058698553646,1.1035289951788194,-0.6322222222222222,-0.43666666666666665,-0.006666666666666667,0.14359190359445742,0.16400336114328276,0.07158426591185034
1592296635.0162833,4.68350988700565,8.682302259887006,1.3770550847457628,-0.6322222222222222,-0.43666666666666665,-0.006666666666666667,0.18960272164519262,0.21684883966449675,0.03423174904732522
1592296635.0262833,4.5545005293473775,8.644035600854133,1.3560733190977767,-0.6322222222222222,-0.43666666666666665,-0.006666666666666667,0.3134805422994759,0.26530923258555844,-0.09645593241389022
1592296635.0362833,4.311368127989962,8.549184769821975,1.2730860324680418,-0.6290101865648882,-0.4463027736386688,-0.009878702324000732,0.3048212029275308,0.2523899350227873,-0.2781698483349778
1592296635.0462832,4.283862173820805,8.701893430450463,1.4952924121349267,-0.6255555555555555,-0.45666666666666667,-0.013333333333333334,0.13999711154460182,0.23831146603695327,-0.3574501512085356
1592296635.0562832,4.542329133050916,9.07936375165268,1.2882126763983703,-0.6255555555555555,-0.45666666666666667,-0.013333333333333334,0.191740978732847,0.4723348796638174,-0.4215141328149317
1592296635.0662832,4.767256763509172,8.988104075951174,0.9383724748376044,-0.6255555555555555,-0.45666666666666667,-0.013333333333333334,0.25029166421548277,0.38586124137001215,-0.7623516475255525
1592296635.0762832,4.753553452355345,8.914157883415788,0.7574360077436008,-0.6255555555555555,-0.45666666666666667,-0.013333333333333334,0.24921482806836542,0.34289440896173495,-0.8728185483446197
1592296635.0862832,4.4180135658914725,8.467290051679587,0.7859657622739018,-0.6255555555555555,-0.4537148291702555,-0.003212747631352283,0.23241178640817256,0.4232423436086249,-0.8124790241123901
1592296635.0962832,4.588910728910729,8.65028392028392,1.0378678678678679,-0.6255555555555555,-0.4488888888888889,0.013333333333333334,0.0956363479321886,0.41884804958009153,-0.9409110855263745
1592296635.1062832,3.833131781705724,9.166556026553627,0.5675024660748087,-0.6255555555555555,-0.4488888888888889,0.013333333333333334,0.050640646352150584,0.36759348429733124,-1.16766462894812
1592296635.1162832,3.5915397323245624,9.079705269710537,0.7062980343333254,-0.6255555555555555,-0.4488888888888889,0.013333333333333334,-0.045713036374039354,0.404175565923076,-1.2603606996865562
1592296635.1262832,3.5653124466935804,8.905313015295388,0.8653124466935805,-0.6255555555555555,-0.4488888888888889,0.013333333333333334,-0.08811893193926451,0.4301450875549506,-1.2854587620107993
1592296635.1362832,3.284871762948207,9.242519090305445,0.9403374003984064,-0.6207282444296887,-0.4545938929467316,0.013333333333333334,-0.2983095791972852,0.22788254518114698,-1.281837081427738
1592296635.1462831,2.8982215173532992,8.915509165345037,1.178897207981411,-0.6133333333333333,-0.4633333333333333,0.013333333333333334,-0.20581586637522822,0.1788225419157599,-1.4540026806023945
1592296635.1562831,2.8854524064171123,9.255933689839573,1.2747401069518716,-0.6133333333333333,-0.4633333333333333,0.013333333333333334,-0.2783550490848117,0.24074763702730018,-1.536816772920541
1592296635.1662831,3.1158846153846156,9.729111378205129,1.141028846153846,-0.6133333333333333,-0.4633333333333333,0.013333333333333334,-0.37835928944346886,0.35375310132371807,-1.4506144823649132
1592296635.1762831,2.7587662245333227,8.707532449066646,1.2495206272470598,-0.6133333333333333,-0.4633333333333333,0.013333333333333334,-0.28414704976875704,0.24868712806840684,-1.3801842664858688
1592296635.186283,2.767139491372739,8.99550446954473,1.23,-0.6064668653130991,-0.4751589171459589,0.01600362645231331,-0.1275440154058628,0.25823848405601074,-1.5553165603982162
1592296635.196283,2.36,8.7,1.23,-0.5933333333333334,-0.49777777777777776,0.021111111111111112,-0.09817477042468103,0.33488505022641196,-1.6133387273122584
1592296635.206283,2.5096296296296297,8.91905982905983,1.4659544159544158,-0.5933333333333334,-0.49777777777777776,0.021111111111111112,-0.18235520747733489,0.12983683313714228,-1.8205499592864782
1592296635.216283,1.8257907925825159,8.870949380683038,1.3714083196105105,-0.5933333333333334,-0.49777777777777776,0.021111111111111112,-0.08000513939703689,0.15770787373443357,-1.7558164414990232
1592296635.226283,1.34,8.89,1.5,-0.5933333333333334,-0.49777777777777776,0.021111111111111112,-0.01090830782496456,0.1265363707695889,-1.7911441448591805
1592296635.236283,1.3159288093255619,9.427961698584513,1.7254246461282265,-0.5828809788139514,-0.5093601165695254,0.019133638634471276,-0.17992913156493498,0.1941511217257205,-1.7809208079206604
1592296635.246283,1.04,9.07,1.8,-0.5522222222222222,-0.5433333333333333,0.013333333333333334,0.02181661564992912,0.33488505022641196,-1.8533214994614786
1592296635.256283,0.6337510637090826,9.319531117036364,1.5704688829636353,-0.5522222222222222,-0.5433333333333333,0.013333333333333334,-0.025566172415769035,-0.05045069162513889,-1.8381352376030535
1592296635.266283,0.39,9.35,1.54,-0.5522222222222222,-0.5433333333333333,0.013333333333333334,-0.06544984694978735,-0.10362892433716332,-1.804234114249138
1592296635.276283,0.24359814630916915,9.626282687851704,1.9637173121482954,-0.5522222222222222,-0.5433333333333333,0.013333333333333334,0.05974871248277758,0.21520563958909972,-1.689170062453888
1592296635.286283,-0.03558684521465143,9.670581922016542,1.6627254824734148,-0.5373229836768632,-0.5480159511618747,0.018867336221609556,0.16178257839063476,0.07202340204533167,-1.687088812663952
1592296635.296283,-0.27,9.43,1.49,-0.5133333333333333,-0.5555555555555556,0.027777777777777776,0.12544553998709243,0.09490227807719166,-1.5511613727099605
1592296635.306283,-0.3779961187559857,9.475587731236454,1.8628323000151217,-0.5133333333333333,-0.5555555555555556,0.027777777777777776,0.09714068329698251,-0.011082772569803577,-1.5853701812467331
1592296635.316283,-0.39503403310166946,9.544026175634688,1.733557593561176,-0.5133333333333333,-0.5555555555555556,0.027777777777777776,0.1916938080634631,0.03148074956742351,-1.587927223601019
1592296635.326283,-0.6372847059764462,9.320543058804711,1.8299550116969587,-0.5133333333333333,-0.5555555555555556,0.027777777777777776,0.31015137338552407,0.10305161043913882,-1.4505879654413734
1592296635.336283,-0.7448772115130711,9.372725112226036,1.7613625561130182,-0.4924431534782736,-0.5751923246193117,0.030702402957486136,0.34635533609643876,0.025909463441978798,-1.3629885980139458
1592296635.346283,-0.671881387235789,9.511254258157193,1.8234151446747384,-0.4577777777777778,-0.6077777777777778,0.035555555555555556,0.44064804519395734,0.02916912403971141,-1.3590859275844887
1592296635.356283,-0.7943454065955337,9.642144879146404,1.3100556483027268,-0.4577777777777778,-0.6077777777777778,0.035555555555555556,0.4905031422646806,0.09952992266774466,-1.2793105378485796
1592296635.366283,-0.8,9.740844642687673,1.1623744898927588,-0.4577777777777778,-0.6077777777777778,0.035555555555555556,0.42352392847418346,-0.013991351531287707,-1.2892124964748306
1592296635.376283,-0.7339527728943583,10.095558973949176,1.2537480022374938,-0.4577777777777778,-0.6077777777777778,0.035555555555555556,0.5268420228021469,0.031821309554560154,-1.3904295838286451
1592296635.386283,-1.249623252800148,13.471722669628807,1.7822132740905303,-0.4479344215084287,-0.6137541012270255,0.042234975881185265,0.5483658749531752,0.20861333441201363,-1.3021371148691454
1592296635.396283,-2.61,19.59,2.5,-0.4266666666666667,-0.6266666666666667,0.056666666666666664,-0.01090830782496456,0.1832595714594046,-0.8159414253073491
1592296635.406283,-1.9867845139441211,6.995765451420068,1.8603861251507299,-0.4266666666666667,-0.6266666666666667,0.056666666666666664,0.5307945589441787,-0.32856594477420537,-0.13191123885692269
1592296635.416283,0.7375068387963718,8.58250419926093,1.7433205355857369,-0.4266666666666667,-0.6266666666666667,0.056666666666666664,0.6262273311000864,-0.07908546730898036,0.021090197838443722
1592296635.426283,-0.26,7.97,3.61,-0.4266666666666667,-0.6266666666666667,0.056666666666666664,0.6904958853202566,-0.044724062082354694,-0.09599310885968812
1592296635.4362829,-0.5862274422824881,10.273600497361965,1.5709903552105386,-0.41424441681322416,-0.6354187063361375,0.06570103019644304,0.7282549725112061,-0.10300317303638655,-0.14252209869812635
1592296635.4462829,-0.81,10.93,0.84,-0.37777777777777777,-0.6611111111111111,0.09222222222222222,0.7014041931452212,-0.08835729338221293,-0.27270769562411395
1592296635.4562829,-0.5257442404365709,10.097111750315868,0.6100241941987689,-0.37777777777777777,-0.6611111111111111,0.09222222222222222,0.7358632616235959,-0.16580100058410632,-0.5820517226621331
1592296635.4662828,-0.4322914314540345,10.382291431454034,0.7147243508131351,-0.37777777777777777,-0.6611111111111111,0.09222222222222222,0.6401448826099141,-0.22631731870619437,-0.6106585701929816
1592296635.4762828,-0.59,10.54,1.15,-0.37777777777777777,-0.6611111111111111,0.09222222222222222,0.6883142237552637,-0.27379852640661045,-0.8246680715673207
1592296635.4862828,-0.03634277047522751,10.017561172901921,0.4353670374115268,-0.37363138973149085,-0.6611111111111111,0.09539298955173577,0.6410087861791226,0.009924023304944503,-0.8016814323642346
1592296635.4962828,-0.45,10.08,0.81,-0.35888888888888887,-0.6611111111111111,0.10666666666666667,0.44178646691106466,0.04908738521234052,-0.9992009967667536
1592296635.5062828,-0.2792479685316495,10.154623984265825,-0.05700584855856322,-0.35888888888888887,-0.6611111111111111,0.10666666666666667,0.5971644464781666,-0.03280085988617972,-1.0211179388128577
1592296635.5162828,-0.39,10.21,-0.59,-0.35888888888888887,-0.6611111111111111,0.10666666666666667,0.4461497900410505,0.01854412330243975,-1.126828198318839
1592296635.5262828,-0.41,9.792688780157166,0.6739541632246722,-0.35888888888888887,-0.6611111111111111,0.10666666666666667,0.5433989335572231,-0.020764602001460623,-1.2787236872217098
1592296635.5362828,-0.4026838799720865,10.574651779483602,-0.21500976971388694,-0.3552308288749321,-0.6623304644490967,0.11560859114522758,0.3798367937372696,-0.05957488964821642,-1.3391802191352065
1592296635.5462828,-0.5167649647887324,9.904771126760563,0.09146236795774648,-0.3388888888888889,-0.6677777777777778,0.15555555555555556,0.3343646010326505,0.10710282668168493,-1.425068031915965
1592296635.5562828,-0.73,9.81,0.05,-0.3388888888888889,-0.6677777777777778,0.15555555555555556,0.34470252726888007,0.10581058590215622,-1.509709802975095
1592296635.5662827,-1.0984999601265317,9.950897684680614,0.18294319359897926,-0.3388888888888889,-0.6677777777777778,0.15555555555555556,0.1003266812684203,0.1029781490573428,-1.4457846369943512
1592296635.5762827,-1.0320347863769772,9.621836232198081,0.13260543266295036,-0.3388888888888889,-0.6677777777777778,0.15555555555555556,0.04200374278918396,0.11848641475787222,-1.4862610129388674
1592296635.5862827,-1.6949101568689589,9.560375534780542,-0.15313547773728414,-0.3335722459902463,-0.6700816563671895,0.15555555555555556,-0.06954712559547298,0.07313851871838715,-1.6643732221371519
1592296635.5962827,-1.51,8.93,0.41,-0.3055555555555556,-0.6822222222222222,0.15555555555555556,0.06981317007977318,0.1308996938995747,-1.6918785436520032
1592296635.6062827,-2.354127548109342,9.891422013589915,-0.18084547953732039,-0.3055555555555556,-0.6822222222222222,0.15555555555555556,0.0801161146316463,0.11362918725249073,-1.6625091172840738
1592296635.6162827,-2.93,9.51,-0.48,-0.3055555555555556,-0.6822222222222222,0.15555555555555556,0.05890486225480862,0.0818123086872342,-1.6918785436520032
1592296635.6262827,-2.74,9.013824241593566,0.6391668951023391,-0.3055555555555556,-0.6822222222222222,0.15555555555555556,0.030277954998779614,-0.14936671946715874,-1.6015500749899707
1592296635.6362827,-2.817849799275433,8.930668102744868,0.067233917556056,-0.29939572295295397,-0.6836638851717672,0.15830782118650522,0.2277262973070296,0.12544436509836165,-1.5011460034137474
1592296635.6462827,-3.4,9.16,0.57,-0.25333333333333335,-0.6944444444444444,0.17888888888888888,0.22580197197676635,-0.062177354602297986,-1.600248757922301
1592296635.6562827,-3.209278801907577,8.666189028641549,0.12510723150291436,-0.25333333333333335,-0.6944444444444444,0.17888888888888888,0.22226365484255606,0.05455954876933399,-1.3536731781707172
1592296635.6662827,-3.4789443078668683,8.520607743948563,0.21543825642965203,-0.25333333333333335,-0.6944444444444444,0.17888888888888888,0.14859861931555765,-0.19280209746571159,-1.4263676907547682
1592296635.6762826,-3.6364786612535895,8.79441311020893,0.2322065551044658,-0.25333333333333335,-0.6944444444444444,0.17888888888888888,0.27687646440164587,-0.08832653106843384,-1.328360843396002
1592296635.6862826,-3.733294222391809,8.801764444020478,0.25894177875290153,-0.24820898739051941,-0.6944444444444444,0.1795294321317406,0.25082684204581884,-0.10201187670194488,-1.1568836404530705
1592296635.6962826,-3.77,8.71,0.47,-0.19111111111111112,-0.6944444444444444,0.18666666666666668,0.22580197197676635,-0.0839939702522271,-1.102829921103917
1592296635.7062826,-3.83790202148971,8.847286468767072,0.3635804042979421,-0.19111111111111112,-0.6944444444444444,0.18666666666666668,0.18352338921193695,-0.002424222917283601,-1.0084127657313064
1592296635.7162826,-3.9418750438750436,9.097847197847198,0.3751388791388791,-0.19111111111111112,-0.6944444444444444,0.18666666666666668,0.2745332514152305,-0.07369179013900143,-1.0300472459561263
1592296635.7262826,-3.9735090774435036,8.950527232330511,0.40225264717067993,-0.19111111111111112,-0.6944444444444444,0.18666666666666668,0.16974350141250005,-0.1955753979443117,-0.9957623218878768
1592296635.7362826,-3.8399819217210522,8.500466720901503,0.5543089577872187,-0.18926093317397666,-0.6948144800318713,0.1884111201502506,0.19951035032002712,0.011482136943998142,-0.9969615217290315
1592296635.7462826,-4.269791966998603,8.654999445541042,0.15687617822528777,-0.15222222222222223,-0.7022222222222222,0.22333333333333333,0.36472374417342507,-0.04404230796381691,-1.1243283525747472
1592296635.7562826,-4.366679832767422,8.428497909592775,0.44541473217379257,-0.15222222222222223,-0.7022222222222222,0.22333333333333333,0.32476571947146593,-0.05922825894927059,-1.1019761891055957
1592296635.7662826,-4.4015375882946515,8.295097628657922,-0.06969248234106963,-0.15222222222222223,-0.7022222222222222,0.22333333333333333,0.2286983698665267,-0.12511204406748913,-1.0195577869328116
1592296635.7762825,-4.683328895897762,8.69999201261597,-0.01833555205111926,-0.15222222222222223,-0.7022222222222222,0.22333333333333333,0.13526563089487179,-0.20034625261389913,-0.9773922227127583
1592296635.7862825,-4.605510498276402,8.542915073644625,-0.05212785960513945,-0.15034165535011665,-0.7016974128625648,0.22416428148612416,0.1791551625364582,-0.14300213838684467,-1.1157158767643245
1592296635.7962825,-4.74,8.37,0.14,-0.10444444444444445,-0.6888888888888889,0.24444444444444444,0.05235987755982988,-0.11890055529211369,-0.8977537339945831
1592296635.8062825,-4.764556059966216,8.464684596706082,0.21620328336148648,-0.10444444444444445,-0.6888888888888889,0.24444444444444444,-0.011433339237274668,-0.10183337794383583,-1.1567661884925589
1592296635.8162825,-4.826577162104464,8.360537027373216,0.18479861473504436,-0.10444444444444445,-0.6888888888888889,0.24444444444444444,0.0004758897422001713,-0.10850845018337865,-0.9779116065075961
1592296635.8262825,-4.935192803598201,8.17208455772114,0.25194362818590704,-0.10444444444444445,-0.6888888888888889,0.24444444444444444,-0.033542245201820864,0.009624888987075624,-0.7766407710824378
1592296635.8362825,-5.40471964017991,8.247544227886056,0.20163718140929537,-0.10444444444444445,-0.6888888888888889,0.24444444444444444,0.015845993429932023,-0.03244657355108424,-0.7492028607314639
1592296635.8462825,-4.92,8.08,0.12,-0.05333333333333334,-0.6844444444444444,0.24,0.12326387842209952,0.011999138607461015,-0.7613998861825263
1592296635.8562825,-5.4108480750655445,8.138303849868912,0.10096922864633642,-0.05333333333333334,-0.6844444444444444,0.24,0.1264499412076585,-0.04956315421155603,-0.7394500588253377
1592296635.8662825,-5.4639465811965815,8.036485042735043,0.14497435897435898,-0.05333333333333334,-0.6844444444444444,0.24,0.18622043116668077,-0.08167106008591093,-0.8881728367051565
1592296635.8762825,-5.421328654549817,8.203446104012956,-0.033738827904744764,-0.05333333333333334,-0.6844444444444444,0.24,0.054118973880184676,-0.057256281991777125,-0.7758263866482005
1592296635.8862824,-5.781944694379461,7.876375742307,0.15076240177553835,-0.05333333333333334,-0.6844444444444444,0.24,0.03582264472166635,-0.16063054173740565,-0.7392337283311637
1592296635.8962824,-5.68,7.88,-0.1,-0.024444444444444446,-0.6855555555555556,0.27,0.15598880189699318,0.009817477042468103,-0.7875798249624412
1592296635.9062824,-5.878355308813324,7.835530881332408,-0.0728383067314365,-0.024444444444444446,-0.6855555555555556,0.27,0.0008750870121900772,-0.05556878226975527,-0.5578225505300579
1592296635.9162824,-6.060537634408602,7.523279569892473,0.04126344086021506,-0.024444444444444446,-0.6855555555555556,0.27,0.18212182322389756,0.011424399808081161,-0.5220622290122017
1592296635.9262824,-6.372019942679723,7.988124552185335,0.04805230475280631,-0.024444444444444446,-0.6855555555555556,0.27,0.14493297008574046,-0.01921491779903224,-0.5742255556962558
1592296635.9362824,-6.046453307857655,7.629166467637926,0.031356579890136134,-0.024444444444444446,-0.6855555555555556,0.27,0.08756450664442056,-0.11847146565782385,-0.4658629025293182
1592296635.9462824,-6.24,7.8,0.18,0.015555555555555555,-0.68,0.27,0.10035643198967394,-0.19198621771937624,-0.4112432050011639
1592296635.9562824,-6.003875345359988,7.544985372988786,-0.037234682268811964,0.015555555555555555,-0.68,0.27,0.13229536517134513,-0.09204826550575998,-0.4297883920098762
1592296635.9662824,-6.481910509204033,7.919675578321989,0.290230393188782,0.015555555555555555,-0.68,0.27,-0.08193847897281521,-0.31208351539266116,-0.0010354383274921337
1592296635.9762824,-6.739321415541773,9.887795208561354,1.812368965097896,0.015555555555555555,-0.68,0.27,0.19630651606719138,-0.20547596825589626,0.20087961264693854
1592296635.9862823,-6.356769427216345,9.020677368357049,-0.6104602942964852,0.015555555555555555,-0.68,0.27,0.2677110945723833,0.2934287490920685,0.41787534472765187
1592296635.9962823,-7.17,7.32,1.04,-0.0011111111111111111,-0.6488888888888888,0.3,-0.032724923474893676,0.39051742013373125,0.7548549014875475
1592296636.0062823,-5.729114991209845,8.064618427361355,0.15999640402748927,-0.0011111111111111111,-0.6488888888888888,0.3,-0.15403539192253626,-0.17700459747350095,0.6567516530907583
1592296636.0162823,-5.864330289909639,7.96072171498494,0.7485565700301204,-0.0011111111111111111,-0.6488888888888888,0.3,0.193087701146233,-0.17963813441930282,0.8528161826516387
1592296636.0262823,-5.909896716633846,7.9376694932283085,0.7219173733070771,-0.0011111111111111111,-0.6488888888888888,0.3,0.11602629092469899,-0.13159352417705616,0.8713408818220949
1592296636.0362823,-5.74133585178636,7.398274725716353,0.5870686814290881,-0.0011111111111111111,-0.6488888888888888,0.3,0.23186526038761252,-0.10677088786357472,0.7582599830606793
1592296636.0462823,-5.94,7.96,0.42,-0.0011111111111111111,-0.6433333333333333,0.3022222222222222,-0.004363323129985824,-0.12217304763960307,0.8072147790473774
1592296636.0562823,-5.662436954607317,7.942652309662957,0.6281722840445121,-0.0011111111111111111,-0.6433333333333333,0.3022222222222222,0.07133025536946404,-0.12974240548954805,0.8535770958782906
1592296636.0662823,-6.133089563321915,8.268921599156826,-0.22181282487364362,-0.0011111111111111111,-0.6433333333333333,0.3022222222222222,0.00853464624584407,0.2784295730184623,0.7420860644021121
1592296636.0762823,-5.293795648871316,8.243327620123484,-0.7456849034921995,-0.0011111111111111111,-0.6433333333333333,0.3022222222222222,-0.31396252786709306,0.05095524410398997,0.5722842724308855
1592296636.0862823,-5.016043667101649,8.128959157041855,-0.15750423621525822,-0.0011111111111111111,-0.6433333333333333,0.3022222222222222,-0.5349600045735908,0.008181538934990414,0.8458577617409453
1592296636.0962822,-5.606699296778263,8.65109688573231,-0.03833165899586478,0.0044444444444444444,-0.6355555555555555,0.3088888888888889,-0.5373027020562451,0.10122146643235969,0.6590758149373097
1592296636.1062822,-5.397317424689899,7.792682575310101,0.42256538688718254,0.0044444444444444444,-0.6355555555555555,0.3088888888888889,-0.38658983654396195,0.006052184331313886,0.5149070513870049
1592296636.1162822,-5.129344343401027,8.06965391320737,0.2527321773547566,0.0044444444444444444,-0.6355555555555555,0.3088888888888889,-0.4179689839890056,0.11600956845671405,0.47140185704501397
1592296636.1262822,-5.383843089609019,8.05903798275141,0.05634931384069951,0.0044444444444444444,-0.6355555555555555,0.3088888888888889,-0.3605607347861791,0.1559672707697509,0.566224584791224
1592296636.1362822,-5.116514629434143,8.017267910849085,0.3320317883960404,0.0044444444444444444,-0.6355555555555555,0.3088888888888889,-0.29130333285459764,0.10766934573851644,0.522483067781804
1592296636.1462822,-5.1,8.2,-0.03,0.0,-0.6288888888888889,0.31777777777777777,-0.15817046346198613,0.2716168648416175,0.6250460383704692
1592296636.1562822,-4.912628207647266,8.315992061932644,-0.0032326010924666956,0.0,-0.6288888888888889,0.31777777777777777,-0.09490660762130422,0.10810412974570127,0.6046069464834798
1592296636.1662822,-4.928028816820762,8.193326371614962,0.0670432252311447,0.0,-0.6288888888888889,0.31777777777777777,-0.20953586090026,0.12189083030781016,0.6042933756619135
1592296636.1762822,-4.770548176655558,8.459074951893745,-0.16917773501666122,0.0,-0.6288888888888889,0.31777777777777777,-0.13008542330326334,0.09934408450325705,0.6021460665376703
1592296636.1862822,-4.786493173388052,8.57545221371636,-0.09578071975376845,0.0,-0.6288888888888889,0.31777777777777777,-0.14959925047308995,0.09386822283735612,0.5859464568285796
1592296636.1962821,-4.59,8.5,0.05,-0.04,-0.6444444444444445,0.30333333333333334,-0.2683443724941282,0.1679879405044542,0.7101308394051928
1592296636.2062821,-4.642911239749156,8.641096639331082,0.16464101945650428,-0.04,-0.6444444444444445,0.30333333333333334,-0.31644204670948584,0.013113429531002502,0.6774244209387495
1592296636.2162821,-4.903646482078988,8.60146619644331,0.033665491108276435,-0.04,-0.6444444444444445,0.30333333333333334,-0.1877357400939152,0.013647676101270594,0.42189739217111305
1592296636.2262821,-4.284714047221559,8.47298879084188,0.40126353446219887,-0.04,-0.6444444444444445,0.30333333333333334,-0.18008739495969261,0.050416362071225546,0.59785008944556
1592296636.236282,-4.425645490164721,8.412656924676156,0.45915120742043813,-0.04,-0.6444444444444445,0.30333333333333334,-0.014672158121078444,0.0333971634269727,0.6602222128267161
1592296636.246282,-4.58,8.52,0.44,-0.06666666666666667,-0.6311111111111111,0.2822222222222222,-0.039269908169872414,-0.014180800172453926,0.5977752688080579
1592296636.256282,-4.452066674575869,8.639404437062522,0.3376533396606952,-0.06666666666666667,-0.6311111111111111,0.2822222222222222,-0.05229491172131841,-0.017902229758581353,0.6266163481005455
1592296636.266282,-4.206445263827082,8.669719771137952,0.20336274634456453,-0.06666666666666667,-0.6311111111111111,0.2822222222222222,-0.1054341417941013,0.03234847936683876,0.7429185914044948
1592296636.276282,-4.139392282958199,8.662424035369774,0.29848754019292606,-0.06666666666666667,-0.6311111111111111,0.2822222222222222,-0.03748301510831993,0.05695522144950105,0.8527350862198012
1592296636.286282,-4.051112153118207,8.66,0.3759252312545292,-0.06666666666666667,-0.6311111111111111,0.2822222222222222,0.00476703142333312,0.18709582323427737,0.9845339052637507
1592296636.296282,-3.9814119236084937,8.57254146249529,0.4580233069481091,-0.06666666666666667,-0.6311111111111111,0.2822222222222222,-0.0950944309553246,0.1377888953944328,1.1745367632799406
1592296636.306282,-4.0652070825277296,8.74696855601913,0.4665543909636715,-0.06666666666666667,-0.6311111111111111,0.2822222222222222,0.03481023405594366,0.053041105657131285,1.034763501120141
1592296636.316282,-3.933941752667483,8.765870211649466,0.24761063494839952,-0.06666666666666667,-0.6311111111111111,0.2822222222222222,0.009705665456226559,0.036097969928098564,1.0649730175448155
1592296636.326282,-3.5457173371306516,8.741285866856533,0.2393570665717337,-0.06666666666666667,-0.6311111111111111,0.2822222222222222,0.0062644520651191984,-0.01693859436432891,1.234647714731501
1592296636.336282,-3.3533743199789674,8.85108378668069,0.24793455619147775,-0.06666666666666667,-0.6311111111111111,0.2822222222222222,0.03943496562360345,0.08313731280190856,1.217166401751884
1592296636.346282,-3.3697720636714705,9.248594392640733,0.25,-0.10651470911431353,-0.6443937919269934,0.2877566725621732,-0.08892598024112956,0.17863517636762888,1.2977529672199097
1592296636.356282,-3.3258133581568536,9.1689911566209,0.28682220153595533,-0.10666666666666667,-0.6444444444444445,0.2877777777777778,-0.13684493744406523,0.15961618869035876,1.35351880263308
1592296636.366282,-2.819778133636387,9.07645272102694,0.16382725934344086,-0.10666666666666667,-0.6444444444444445,0.2877777777777778,-0.037944834880836845,0.06656228754735664,1.269376963091481
1592296636.376282,-2.8893763909162695,8.886344013974968,0.342838785326282,-0.10666666666666667,-0.6444444444444445,0.2877777777777778,-0.1313571803264821,0.12693050448862772,1.495217094477004
1592296636.386282,-3.006823499491353,9.07347333236448,0.20230816741752652,-0.10666666666666667,-0.6444444444444445,0.2877777777777778,-0.19898035171162398,0.12031894443884984,1.4491134079260803
1592296636.396282,-2.7341225806451614,8.89412258064516,0.11417419354838709,-0.15352401433691756,-0.6322207885304659,0.2877777777777778,-0.1742507167195742,0.1769953877206943,1.5212704979841718
1592296636.406282,-2.8611106560733885,9.427109509378328,-0.11844377098861494,-0.15777777777777777,-0.6311111111111111,0.2877777777777778,-0.211887692258419,0.03914911177230215,1.417716734588203
1592296636.416282,-2.1879275151010207,9.367623672151636,-0.12876119558425325,-0.15777777777777777,-0.6311111111111111,0.2877777777777778,-0.31700554187765895,0.10606003306844101,1.400953508181589
1592296636.426282,-1.7099178938826167,9.59982218297253,-0.35590973100699336,-0.15777777777777777,-0.6311111111111111,0.2877777777777778,-0.3447592337023783,-0.012111067421790273,1.4801141217112777
1592296636.436282,-1.6004671332017464,9.62724295711466,-0.21140139960523954,-0.15777777777777777,-0.6311111111111111,0.2877777777777778,-0.35245049886305546,0.057890726943621726,1.466418031266133
1592296636.446282,-1.5382112518031736,9.58268312229524,0.2667462734412566,-0.1820594468486759,-0.6311111111111111,0.26855478976331676,-0.4265232283070616,-0.004858646676517725,1.3827924544406305
1592296636.456282,-1.5780620037807185,9.547375425330813,0.33349943289224954,-0.18444444444444444,-0.6311111111111111,0.26666666666666666,-0.4484812397875945,0.016239232914078246,1.3943269604400255
1592296636.466282,-1.5931214689265538,9.418728813559323,0.3362429378531073,-0.18444444444444444,-0.6311111111111111,0.26666666666666666,-0.3758073821451932,-0.05401769383379343,1.4938765790537323
1592296636.476282,-1.439428239907174,9.30154923378546,0.48636298163485775,-0.18444444444444444,-0.6311111111111111,0.26666666666666666,-0.3296513931375672,-0.09456428769669903,1.5337153253350535
1592296636.4862819,-1.2504734465036598,9.370700825416602,0.5877651456159476,-0.18444444444444444,-0.6311111111111111,0.26666666666666666,-0.30894889624214916,-0.16289122436901174,1.5471575259755146
1592296636.4962819,-1.1031414419372592,9.532643918547056,0.620357732526142,-0.22211166146884362,-0.6131743410994924,0.26666666666666666,-0.3186006336192483,-0.10918309608583927,1.2928022142536935
1592296636.5062819,-0.7824753142721181,9.578068366578103,0.6131589800531387,-0.2311111111111111,-0.6088888888888889,0.26666666666666666,-0.31335596886728884,-0.12571105608111485,1.4040986785766105
1592296636.5162818,-0.5827599649932373,9.706469886228021,0.624569973744928,-0.2311111111111111,-0.6088888888888889,0.26666666666666666,-0.33262918543769127,-0.1495376343772773,1.47106719410476
1592296636.5262818,-0.23815820233295965,9.629473772095132,0.9650874263495623,-0.2311111111111111,-0.6088888888888889,0.26666666666666666,-0.23855233991298086,-0.037782073373909014,1.1583572958487311
1592296636.5362818,-0.18314636494944633,9.721744102070293,1.0595793211362543,-0.2311111111111111,-0.6088888888888889,0.26666666666666666,0.054645790405672856,-0.0378731510846296,1.1049503974083605
1592296636.5462818,5.0124372730610744,11.319688303210803,-0.18560931826526872,-0.26226061768185716,-0.5839692836322921,0.24352703321411248,-0.0822343375032929,-0.022397878790975434,0.32387580795508863
1592296636.5562818,5.21090214126916,9.816493232965405,0.6109922383868325,-0.27,-0.5777777777777777,0.23777777777777778,-0.22038513069723584,-0.025786943579715258,-0.07633415896519116
1592296636.5662818,1.7864190617678992,10.556892463287813,0.7364530598251526,-0.27,-0.5777777777777777,0.23777777777777778,-0.02032603381186207,0.08905036765716692,-0.04987005832449454
1592296636.5762818,0.063422211917459,10.267324368189195,1.1438975191282172,-0.27,-0.5777777777777777,0.23777777777777778,0.009365261545342283,0.18831424305773128,0.009205670953235798
1592296636.5862818,-0.42269473684210523,9.177431578947369,2.026517894736842,-0.27,-0.5777777777777777,0.23777777777777778,0.06843527856504082,0.16767975210232575,-0.0548612099562407
1592296636.5962818,0.1865524126455907,9.376296173044926,1.7698003327787022,-0.29562839711591793,-0.5777777777777777,0.25299463856535404,0.17855756442922935,0.17974168756151004,-0.14151904954388464
1592296636.6062818,0.1,9.470634023854362,1.467308145009416,-0.3055555555555556,-0.5777777777777777,0.2588888888888889,0.1840810327760727,0.15230497972171927,-0.07836995180052132
1592296636.6162817,-0.05579185770314313,9.763861238468763,0.8480909241562171,-0.3055555555555556,-0.5777777777777777,0.2588888888888889,0.26749023084125917,0.10369520693456408,-0.011395786200393831
1592296636.6262817,-0.11842022613065327,9.741058417085428,0.796311243718593,-0.3055555555555556,-0.5777777777777777,0.2588888888888889,0.2660515380054794,0.07756786692707446,-0.0861127651562313
1592296636.6362817,-0.10846111199112941,9.740770830033265,0.8007680579756059,-0.3055555555555556,-0.5777777777777777,0.2588888888888889,0.2448501487793471,0.05361917975258043,-0.1396258865826726
1592296636.6462817,-0.10457375254184265,9.86829501016737,0.6406968559361802,-0.3104134730695031,-0.5777777777777777,0.24755374802301128,0.3023210298373769,0.0802225588983214,-0.16688900484753752
1592296636.6562817,-0.5246504511573166,9.96404472342095,0.5518709297763829,-0.31222222222222223,-0.5777777777777777,0.24333333333333335,0.19461927524724765,0.11638111705523987,-0.09106074779659695
1592296636.6662817,-3.632784222737819,9.24323568054119,0.3831523774914041,-0.31222222222222223,-0.5777777777777777,0.24333333333333335,0.34416517731083485,-0.1313643482328339,-0.05236750084263045
1592296636.6762817,-2.485807853034879,9.27488476974637,0.4151164715130953,-0.31222222222222223,-0.5777777777777777,0.24333333333333335,0.30307286087020036,-0.12585106419499223,-0.03921899761822957
1592296636.6862817,-0.05168706007529855,9.590242265509904,0.6287045752168932,-0.31222222222222223,-0.5777777777777777,0.24333333333333335,0.023622137905161225,0.0021196338447326823,0.07145602302041136
1592296636.6962817,-0.5073861550091794,9.897147845494798,0.28232189783649514,-0.31222222222222223,-0.5725380883241137,0.24932154985180655,0.08712886689570022,-0.010186440865224008,0.04785895872582781
1592296636.7062817,-0.18809251856082232,9.982529982866934,0.28210051399200453,-0.31222222222222223,-0.57,0.25222222222222224,0.017733631670213662,-0.04017372159034406,0.0630474027295593
1592296636.7162817,-0.6469793838925112,9.720975635509332,0.47902436449066865,-0.31222222222222223,-0.57,0.25222222222222224,0.021137175184712892,-0.02130697771155557,0.15411823860230867
1592296636.7262816,-0.8479404318333812,9.708887694659404,0.5349228527753893,-0.31222222222222223,-0.57,0.25222222222222224,0.05312154152981893,-0.032501431871467326,0.11069173318906661
1592296636.7362816,-0.91,9.693727230555126,0.568136384722437,-0.31222222222222223,-0.57,0.25222222222222224,0.04367297147804845,-0.044396964656435854,0.09992489008864737
1592296636.7462816,-0.9520640350540032,9.728027443594573,0.5479817042702848,-0.31222222222222223,-0.57,0.24754844054955522,0.04411347021221226,-0.006795082923736526,0.20142324357529812
1592296636.7562816,-0.8351317853780985,9.76228741763414,0.5009970191402573,-0.31222222222222223,-0.57,0.24444444444444444,0.07177731581097993,-0.0426064059633382,0.19389273287857078
1592296636.7662816,-0.16244279095886566,9.905960971500772,0.34048855819177315,-0.31222222222222223,-0.57,0.24444444444444444,0.03466492689377127,-0.08339702256302717,0.12929721554662751
1592296636.7762816,0.10055895618556702,9.939569909793814,0.31417203608247424,-0.31222222222222223,-0.57,0.24444444444444444,-0.0024631549466873895,-0.08596213964571017,0.12693049664670544
1592296636.7862816,0.44274586153469786,9.877278194569028,0.3345443610861943,-0.31222222222222223,-0.57,0.24444444444444444,-0.0025845297549893613,-0.08935790357259107,0.0838945652616506
1592296636.7962816,-0.3547736943907157,9.714918375241778,0.6101632495164411,-0.31679019987105095,-0.5667371588222652,0.24444444444444444,-0.05748648684818307,-0.06138115362728278,-0.019983007171745906
1592296636.8062816,-0.7238221300475783,9.64226668293278,0.7876296205928999,-0.32,-0.5644444444444444,0.24444444444444444,-0.10431573386119214,-0.08226157606819162,-0.08247649515001812
1592296636.8162816,-0.1213164840438295,9.716248100455891,0.7000151963528753,-0.32,-0.5644444444444444,0.24444444444444444,-0.05372631695161262,-0.09517954435142775,0.007891532107363791
1592296636.8262815,-0.15743968086128998,9.713302412765549,0.6566048255310968,-0.32,-0.5644444444444444,0.24444444444444444,0.11200340726126894,0.04533118601109204,0.0034607112511307325
1592296636.8362815,-0.24579652372717414,9.708067825424276,0.6538643491514494,-0.32,-0.5644444444444444,0.24444444444444444,0.18035700941509206,0.09457711029989621,-0.01822237666105095
1592296636.8462815,-0.2150061981500906,9.745828168208257,0.6379202822542195,-0.30981596262038713,-0.5710640687411928,0.2546284818240573,0.057868328570477814,-0.009540374610450313,-0.008547320211623799
1592296636.8562815,-0.21971860562788748,9.840669186616267,0.5651406971860563,-0.29777777777777775,-0.5788888888888889,0.26666666666666666,0.036074536016301666,-0.04422468973757471,-0.08965214907376935
1592296636.8662815,-0.32752871572102443,9.850823761426325,0.37380593236148496,-0.29777777777777775,-0.5788888888888889,0.26666666666666666,0.03287958114519939,-0.13152309222326558,-0.07416050416489657
1592296636.8762815,-0.41929674238137576,9.835058604801551,0.282470697599224,-0.29777777777777775,-0.5788888888888889,0.26666666666666666,-0.007520745218712127,-0.15229134318007195,-0.02451172864540274
1592296636.8862815,-0.6267066325556532,9.806646683722173,0.29,-0.29777777777777775,-0.5788888888888889,0.26666666666666666,-0.09001213728570615,-0.11584590421357147,-0.05408869585981453
1592296636.8962815,-0.655491809017082,9.803524572948753,0.3080327639316718,-0.29777777777777775,-0.5823952596533807,0.2601548352468963,-0.14516992020240552,-0.1688105692631389,-0.051215436919498605
1592296636.9062815,-0.6910539483971853,9.825864849771026,0.3769187981682118,-0.29777777777777775,-0.5866666666666667,0.25222222222222224,-0.06225713523408384,-0.19156153328114664,0.032070303165701565
1592296636.9162815,-0.7320179510193614,9.805964097961276,0.38596409796127706,-0.29777777777777775,-0.5866666666666667,0.25222222222222224,-0.028821430487302437,-0.1958603384202225,0.05758411640111487
1592296636.9262815,-0.6552795276563156,9.783483040588946,0.40910175646631586,-0.29777777777777775,-0.5866666666666667,0.25222222222222224,-0.08050152778623837,-0.1538681238064139,0.11420730698437881
1592296636.9362814,-0.5860829478486788,9.781649451872504,0.4440203409162917,-0.29777777777777775,-0.5866666666666667,0.25222222222222224,-0.09947932966414974,-0.13292413509736728,0.1318783725405972
1592296636.9462814,-0.21891599317861646,9.790372951731296,0.6385081930748128,-0.3143576942405444,-0.5786441264427473,0.25222222222222224,-0.0964292147082253,-0.025569697936589093,-0.03191887175261595
1592296636.9562814,-0.09922961319640748,9.771383690557126,0.6993866962464665,-0.3322222222222222,-0.57,0.25222222222222224,-0.1253443687204724,-0.04959160219621318,0.0013788488289429891
1592296636.9662814,-0.14204399508129528,9.712652001639569,0.753591200983741,-0.3322222222222222,-0.57,0.25222222222222224,-0.08879729210281492,0.03988434442945976,0.07829878730006
1592296636.9762814,-0.33718641801380167,9.67788700780821,0.8066214570548484,-0.3322222222222222,-0.57,0.25222222222222224,-0.05613896194363276,0.08042813431314111,0.021846205271670707
1592296636.9862814,-0.41723798302063503,9.67157829541678,0.847237983020635,-0.3322222222222222,-0.57,0.25222222222222224,-0.046503554154649816,0.0439493181313312,-0.007577976629676729
1592296636.9962814,-0.3365008644766591,9.720124351642506,0.78,-0.32059796663267864,-0.5707499519735189,0.25447207814277906,-0.05222423096033073,0.04349569870485802,0.012923421479556364
1592296637.0062814,-0.3824617988621938,9.714120786120645,0.7489449433447741,-0.29777777777777775,-0.5722222222222222,0.2588888888888889,-0.020380518384393212,0.020912573419308737,0.0664038943528622
1592296637.0162814,-0.454958107670231,9.69,0.715041892329769,-0.29777777777777775,-0.5722222222222222,0.2588888888888889,0.03127765263806946,-0.035979136845238034,0.018662936653882335
1592296637.0262814,-0.450553642135845,9.704169536796233,0.7336158946603875,-0.29777777777777775,-0.5722222222222222,0.2588888888888889,0.06284167747499146,0.018495001286461726,-0.008001930398851487
1592296637.0362813,-0.4469639271371199,9.73392785427424,0.76348196356856,-0.29777777777777775,-0.5722222222222222,0.2588888888888889,0.031187050774254935,-0.016561927155380726,0.00021313600594604493
1592296637.0462813,-0.4460514210319866,9.756014691723424,0.754058766893699,-0.30065605597752654,-0.5722222222222222,0.25756045279669715,-0.01697048427288178,-0.19027935130936502,0.04145156973486533
1592296637.0562813,-0.38070073724142867,9.753948894137856,0.6574525803450003,-0.31222222222222223,-0.5722222222222222,0.25222222222222224,-0.11885831497622144,-0.14226663317657448,0.09876472943925002
1592296637.0662813,-0.37464404682592556,9.765355953174074,0.5828476253925954,-0.31222222222222223,-0.5722222222222222,0.25222222222222224,-0.09421857520119181,-0.09321630239504156,0.05681243349247639
1592296637.0762813,-0.38,9.76461109529233,0.5538332858769932,-0.31222222222222223,-0.5722222222222222,0.25222222222222224,0.038397119303467224,-0.03164625789901675,-0.05656567420580201
1592296637.0862813,-0.39383522471809074,9.773458806179523,0.57,-0.31222222222222223,-0.5722222222222222,0.25222222222222224,0.05053769989423926,0.02287644967620119,-0.03533269234697115
1592296637.0962813,-0.4159915110967231,9.786012733354914,0.5639872666450847,-0.3146718543297803,-0.5722222222222222,0.25222222222222224,-0.0052332097688817785,0.08265441545511805,-0.0008328468108798164
1592296637.1062813,-0.39554988713318284,9.81,0.5489002257336344,-0.3244444444444444,-0.5722222222222222,0.25222222222222224,-0.02232987246325544,-0.005978540647110828,0.046992300645795855
1592296637.1162813,-0.3942051070840198,9.81,0.5179489291598023,-0.3244444444444444,-0.5722222222222222,0.25222222222222224,-0.07219610519936182,-0.030045469279338134,-0.0070930957141902996
1592296637.1262813,-0.4,9.792883190883192,0.507071225071225,-0.3244444444444444,-0.5722222222222222,0.25222222222222224,-0.07079647167402356,0.05506613239002338,0.01550657912348808
1592296637.1362813,-0.41255659331961375,9.763721703340194,0.6013914832990344,-0.3244444444444444,-0.5722222222222222,0.25222222222222224,-0.013294769976951422,0.1120167689515345,0.051399766882185394
1592296637.1462812,-0.4341156435326174,9.751176871293476,0.667646257413047,-0.323006046196862,-0.5722222222222222,0.2554913091485459,0.022459242439649543,0.05255430035677428,-0.029905836629361186
1592296637.1562812,-0.39950708593787276,9.750492914062127,0.673767714844682,-0.31222222222222223,-0.5722222222222222,0.28,0.019780800716255337,0.08556871828360793,-0.011779691998738157
1592296637.1662812,-0.41445717732207477,9.744457177322074,0.6687997587454765,-0.31222222222222223,-0.5722222222222222,0.28,-0.07996158070703965,0.09471542889611266,0.0966786611367456
1592296637.1762812,-0.42408129229009817,9.75,0.6340812922900981,-0.31222222222222223,-0.5722222222222222,0.28,-0.12362404074421512,0.11355815617722825,0.041143022535546775
1592296637.1862812,-0.42383036294104914,9.746915181470525,0.6677633667652789,-0.31222222222222223,-0.5722222222222222,0.28,-0.05117652411445554,0.10177256788971552,-0.00905195137751677
1592296637.1962812,-0.411346821456568,9.738653178543432,0.732693642913136,-0.31222222222222223,-0.5731201031932676,0.27236801174611475,-0.05729636632102329,0.08214270552807096,0.011165572705468222
1592296637.2062812,-0.41550890463423973,9.74347328609728,0.75,-0.31222222222222223,-0.5788888888888889,0.22333333333333333,-0.1372420539566711,0.03573651048968713,0.07212528431111405
1592296637.2162812,-0.4141912627593384,9.751617474481323,0.7206611606846313,-0.31222222222222223,-0.5788888888888889,0.22333333333333333,-0.0951662966606221,0.05669100447979716,0.05158972875814085
1592296637.2262812,-0.41629329872581405,9.736293298725814,0.6985335063709297,-0.31222222222222223,-0.5788888888888889,0.22333333333333333,-0.02672658965671201,0.0038014860766509284,-0.02849897089436948
1592296637.2362812,-0.40186346765170755,9.73271217744943,0.7381365323482925,-0.31222222222222223,-0.5788888888888889,0.22333333333333333,-0.028033551037145422,-0.0784110103962399,-0.09134600196275935
1592296637.2462811,-0.38149221773861486,9.739253891130693,0.7618652721732686,-0.3115175638456541,-0.5778940770631457,0.22494990255016606,-0.1338557078770785,-0.08710485471223305,0.04991150458964617
1592296637.2562811,-0.41560316445202394,9.711206328904048,0.8275873421919041,-0.29333333333333333,-0.5522222222222222,0.26666666666666666,0.008972566992054386,0.07220264215623294,-0.09631669692951417
1592296637.2662811,-0.4059576913724883,9.695957691372488,0.837873074117465,-0.29333333333333333,-0.5522222222222222,0.26666666666666666,0.001812449138953752,0.097594114440391,-0.02659530275920901
1592296637.276281,-0.40708107980444486,9.693540539902221,0.8341621596088897,-0.29333333333333333,-0.5522222222222222,0.26666666666666666,-0.008467212945223776,0.09254372781914426,-0.037966816108308675
