time,acc_x,acc_y,acc_z,mag_x,mag_y,mag_z,gyr_x,gyr_y,gyr_z
1592296658.5862608,-0.49,9.78150853193856,0.27452559581568176,-0.3088888888888889,-0.5688888888888889,0.29444444444444445,-0.025972940904875143,-0.03347099875436177,0.028558168294590194
1592296658.5962608,-0.49893686789602637,9.787765783025993,0.30893686789602637,-0.3088888888888889,-0.5688888888888889,0.29444444444444445,-0.0370882466048795,-0.16244546794176706,0.09759313333445799
1592296658.6062608,-0.5607506954295083,9.772312326142622,0.37075069542950834,-0.3088888888888889,-0.5688888888888889,0.29444444444444445,-0.0370882466048795,-0.04865999930732173,-0.027149454501822795
1592296658.6162608,-0.6,9.79,0.38,-0.3022222222222222,-0.5822222222222222,0.2611111111111111,0.06981317007977318,0.007635815477475192,0.06544984694978735
1592296658.6262608,-0.49260346085687484,9.799347701448974,0.4115201188366517,-0.3022222222222222,-0.5822222222222222,0.2611111111111111,0.05458855867330213,0.014797057592003551,-0.023997026392592474
1592296658.6362607,-0.15891224752067118,9.787054387623966,0.3091464804442181,-0.3022222222222222,-0.5822222222222222,0.2611111111111111,0.0301032900557739,-0.009242397804015158,0.05567524560622149
1592296658.6462607,-0.5168046624506208,9.754395670581566,0.4440066606437441,-0.3022222222222222,-0.5822222222222222,0.2611111111111111,0.05654619744863898,-0.017234763081682637,-0.0222518581176436
1592296658.6562607,-0.6208244318081168,9.657805884749607,0.5926063311544525,-0.3022222222222222,-0.5822222222222222,0.2611111111111111,0.0014331851955890484,-0.009129908338587059,0.002062706111643133
1592296658.6662607,-0.35,9.75,0.57,-0.3088888888888889,-0.5755555555555556,0.29444444444444445,-0.002181661564992912,-0.05999569303730508,0.06326818538479445
1592296658.6762607,-0.5306399324163785,9.720426621610919,0.5093600675836215,-0.3088888888888889,-0.5755555555555556,0.29444444444444445,0.08127433751989038,-0.01469270935668944,-0.042371140170903154
1592296658.6862607,-0.5544942931404679,9.735595434512375,0.48991027234715784,-0.3088888888888889,-0.5755555555555556,0.29444444444444445,0.02804572908294956,-0.040821626976958965,0.10145438787322457
1592296658.6962607,-0.5114053699349265,9.701405369934927,0.5737476531598038,-0.3088888888888889,-0.5755555555555556,0.29444444444444445,0.19623371924005778,-0.06570330240966746,-0.00230772319640735
1592296658.7062607,-0.5343413353748565,9.724341335374856,0.6349102276662839,-0.3088888888888889,-0.5755555555555556,0.29444444444444445,0.10533041834111091,-0.12324759380441366,0.17366105193825132
1592296658.7162607,-0.98,9.67,0.79,-0.2822222222222222,-0.5955555555555555,0.2677777777777778,0.07853981633974483,-0.18980455615438332,0.16907877128695067
1592296658.7262607,-0.98,9.745771657851542,0.7047568849170162,-0.2822222222222222,-0.5955555555555555,0.2677777777777778,0.19942137444667346,-0.023463266793567028,0.07712613306885965
1592296658.7362607,-1.026641092859376,9.786641092859377,0.5133589071406239,-0.2822222222222222,-0.5955555555555555,0.2677777777777778,0.14864716101640904,-0.09570575539854947,0.12116126332642192
1592296658.7462606,-1.1332892736410953,9.89,0.4012286036237457,-0.2822222222222222,-0.5955555555555555,0.2677777777777778,0.19056967320415347,-0.140426205990794,0.1787664818243054
1592296658.7562606,-1.1557953102362768,9.89,0.3412125060365952,-0.2822222222222222,-0.5955555555555555,0.2677777777777778,0.2331234875548473,-0.041406753367064175,0.24505223110134766
1592296658.7662606,-1.16,9.94,0.26,-0.31555555555555553,-0.5822222222222222,0.2966666666666667,0.30543261909900765,-0.20943951023931953,0.19962203319685143
1592296658.7762606,-1.242668760435716,10.05941043174048,0.14058956825952135,-0.31555555555555553,-0.5822222222222222,0.2966666666666667,0.036903680499675406,-0.1082401714388249,0.41204044731274114
1592296658.7862606,-1.1711597178607662,10.2365208464177,-0.19724310353157157,-0.31555555555555553,-0.5822222222222222,0.2966666666666667,0.14131191323857228,-0.14309642997642896,0.5210632092978185
1592296658.7962606,-1.1942443512860594,10.217596987352566,-0.10284887025721189,-0.31555555555555553,-0.5822222222222222,0.2966666666666667,-0.03232320570129135,-0.3844714242534258,0.7832923034883656
1592296658.8062606,-1.3060009592155748,10.27720051158164,-0.12520019184311498,-0.31555555555555553,-0.5822222222222222,0.2966666666666667,0.005061775708958882,-0.43973617938162174,0.5784876227191688
1592296658.8162606,-1.34,10.15,-0.01,-0.3022222222222222,-0.5822222222222222,0.2822222222222222,-0.06981317007977318,-0.42978732830360367,0.7832165018324554
1592296658.8262606,-1.3117742273912654,10.09354845478253,0.09584664728275534,-0.3022222222222222,-0.5822222222222222,0.2822222222222222,-0.037484151377352365,-0.4267083741414683,0.8347889840482219
1592296658.8362606,-1.3194102663064455,10.088378232342725,0.10324353531455037,-0.3022222222222222,-0.5822222222222222,0.2822222222222222,3.216498332023513e-05,-0.4691642566143138,1.0643397190742157
1592296658.8462605,-1.2688611116096267,9.97148202652501,0.330483659661528,-0.3022222222222222,-0.5822222222222222,0.2822222222222222,-0.002249749170411384,-0.33209416316382767,0.9079745684326931
1592296658.8562605,-1.1408966098957305,9.87362681933203,0.4509208377451948,-0.3022222222222222,-0.5822222222222222,0.2822222222222222,-0.053158174389546516,-0.350158443080295,1.0253923878897306
1592296658.8662605,-0.94,9.87,0.46,-0.3088888888888889,-0.5822222222222222,0.30333333333333334,0.01308996938995747,-0.3217950808364545,1.335176877775662
1592296658.8762605,-0.922528254836504,9.878735872581748,0.3988488919277642,-0.3088888888888889,-0.5822222222222222,0.30333333333333334,0.016901712879612465,-0.3818300407985207,1.2760948536860097
1592296658.8862605,-0.7519338203695746,9.829331757627846,0.249331757627847,-0.3088888888888889,-0.5822222222222222,0.30333333333333334,0.06442417537604338,-0.39692177344291324,1.418233539841554
1592296658.8962605,-0.36,9.82,0.24,-0.3088888888888889,-0.5822222222222222,0.30333333333333334,0.019634954084936207,-0.4254240051736178,1.4660765716752369
1592296658.9062605,-0.2469291385948027,9.686975457170355,0.2533024542829644,-0.3088888888888889,-0.5822222222222222,0.30333333333333334,-0.013739717128665362,-0.3905982612985553,1.4377806547767487
1592296658.9162605,0.03,9.66,0.28,-0.36777777777777776,-0.5555555555555556,0.2822222222222222,0.1341721862470641,-0.33488505022641196,1.3799009398580167
1592296658.9262605,0.26534429841819474,9.524224443220271,0.017500590225859758,-0.36777777777777776,-0.5555555555555556,0.2822222222222222,0.04234512900259221,-0.4385607600185576,1.5833028085930836
1592296658.9362605,0.2633989674630808,9.52339896746308,-0.1433497418657702,-0.36777777777777776,-0.5555555555555556,0.2822222222222222,0.06746910844630918,-0.49005648210136643,1.3384356185044501
1592296658.9462605,0.6152615844544096,9.862765321375186,-0.23591928251121078,-0.36777777777777776,-0.5555555555555556,0.2822222222222222,0.05910704912630274,-0.4407673798571629,1.475471739042568
1592296658.9562604,0.7346807601964552,9.698563954729874,-0.3702658552210122,-0.36777777777777776,-0.5555555555555556,0.2822222222222222,-0.03533588274053595,-0.4423957062686601,1.3916129288504613
1592296658.9662604,1.06,9.86,-0.39,-0.38666666666666666,-0.5422222222222223,0.2677777777777778,-0.14944381720201447,-0.4232423436086249,1.2784536770858463
1592296658.9762604,0.8869049370764762,9.332846853823813,-0.08314966118102618,-0.38666666666666666,-0.5422222222222223,0.2677777777777778,-0.1872073017890426,-0.5167927940628537,1.1342658268444663
1592296658.9862604,1.5521008143244917,9.56063193485404,-0.3023058240868613,-0.38666666666666666,-0.5422222222222223,0.2677777777777778,-0.27842547952950875,-0.3401929219595757,0.7951067080073768
1592296658.9962604,1.31,9.58,0.24,-0.38666666666666666,-0.5422222222222223,0.2677777777777778,-0.2530727415391778,-0.5028729907308661,0.4908738521234052
1592296659.0062604,1.6286635045480473,9.608969409504368,0.04300801537029811,-0.38666666666666666,-0.5422222222222223,0.2677777777777778,-0.3282824637978794,-0.45673593421922565,0.5566033572906739
1592296659.0162604,1.93,9.7,0.01,-0.42444444444444446,-0.5244444444444445,0.2822222222222222,-0.36760997370130566,-0.3687008044838021,0.36760997370130566
1592296659.0262604,1.9941592626728109,9.571681474654378,-0.31881622119815667,-0.42444444444444446,-0.5244444444444445,0.2822222222222222,-0.23813421109561608,-0.39494589149846887,0.3002475836969942
1592296659.0362604,1.892067019589928,9.579310993470024,-0.6850047026576733,-0.42444444444444446,-0.5244444444444445,0.2822222222222222,-0.22546375668725882,-0.386417153340029,0.43477379067993643
1592296659.0462604,2.305085544734512,9.619531956641381,-0.5121061951137805,-0.42444444444444446,-0.5244444444444445,0.2822222222222222,-0.40476107404321593,-0.36351469252545965,0.46545288265895646
1592296659.0562603,2.1387763091731915,9.672111558077724,-0.14521909345592993,-0.42444444444444446,-0.5244444444444445,0.2822222222222222,-0.4312419783033353,-0.22113442138373604,0.42355711031024756
1592296659.0662603,1.94,9.85,0.1,-0.4444444444444444,-0.51,0.28888888888888886,-0.42215151282612845,-0.20725784867432664,0.5999569303730508
1592296659.0762603,1.7618306154655443,9.383365897647856,0.4224017434433005,-0.4444444444444444,-0.51,0.28888888888888886,-0.4971161060691723,-0.11933641215470736,0.5555334677105063
1592296659.0862603,1.5569083253005935,9.55963751204911,0.5280810207498351,-0.4444444444444444,-0.51,0.28888888888888886,-0.4937253638122546,-0.07006203954498988,0.6619342541365616
1592296659.0962603,1.8891778523489933,10.02546740172579,0.578453978906999,-0.4444444444444444,-0.51,0.28888888888888886,-0.5099691430407784,-0.09409278332584722,0.918087844721992
1592296659.1062603,1.5838992834394903,9.781958598726115,0.7993351910828026,-0.4444444444444444,-0.51,0.28888888888888886,-0.42395385883040854,-0.01608801705013084,1.0570033035451456
1592296659.1162603,1.63,9.5,1.09,-0.4633333333333333,-0.5044444444444445,0.26666666666666666,-0.4974188368183839,0.24216443371421323,1.2162763224835484
1592296659.1262603,2.033299856527977,9.540329985652798,1.1383959827833572,-0.4633333333333333,-0.5044444444444445,0.26666666666666666,-0.2765730239836689,0.20169069909111803,1.3834504437528548
1592296659.1362603,2.290746037390774,8.973205395244868,1.6227824629140417,-0.4633333333333333,-0.5044444444444445,0.26666666666666666,-0.20917999182058195,0.22705556286941284,1.3595841888254554
1592296659.1462603,2.5302518982764854,9.131876581897071,1.65,-0.4633333333333333,-0.5044444444444445,0.26666666666666666,-0.139278068405559,0.1830273902900797,1.35799571146283
1592296659.1562603,2.9546083181909952,9.073903021737667,1.4577178814186689,-0.4633333333333333,-0.5044444444444445,0.26666666666666666,-0.05311040643154752,0.22106098016379025,1.373815368248499
1592296659.1662602,2.7483390229902422,8.493811365215551,1.4572312014742757,-0.4744408191763257,-0.5105030730860766,0.23435398057796172,-0.005749064781415568,0.3774842315491344,1.2524159374789616
1592296659.1762602,2.9293316365007542,8.669331636500754,0.7728318250377074,-0.47555555555555556,-0.5111111111111111,0.2311111111111111,0.015469272052608583,0.23041373469673257,1.3782738456393664
1592296659.1862602,3.3898750625879215,8.882445339882215,0.9482656589017906,-0.47555555555555556,-0.5111111111111111,0.2311111111111111,-0.020533190462330594,0.2849599508757956,1.3158359260074408
1592296659.1962602,3.834077985377742,9.39591389114541,0.4006173842404549,-0.47555555555555556,-0.5111111111111111,0.2311111111111111,0.05013302316794233,0.1229537315708617,1.2058141830574358
1592296659.2062602,3.4352553848590435,8.837459217611658,0.6245755464048146,-0.47555555555555556,-0.5111111111111111,0.2311111111111111,0.03509152871309888,0.0980083988625106,1.1966413683986121
1592296659.2162602,3.862456402749491,8.602334203156822,0.557469450101833,-0.5136881930300973,-0.4602675944783888,0.2035708729350532,0.09283579524617035,0.06162527425718522,0.8399534837029181
1592296659.2262602,3.954937850842021,8.794813552526062,0.4850621491579792,-0.5155555555555555,-0.4577777777777778,0.20222222222222222,-0.018918959702038565,0.3661655195476591,0.922444168271775
1592296659.2362602,4.319195328031809,8.956973161033797,0.2947509940357853,-0.5155555555555555,-0.4577777777777778,0.20222222222222222,-0.13252547633867617,0.5962790089703174,0.8718412981510916
1592296659.2462602,3.9418930178303615,8.672946175637394,0.9165289118480253,-0.5155555555555555,-0.4577777777777778,0.20222222222222222,-0.006613332032792213,0.12222848896415922,0.8079724165580331
1592296659.2562602,4.353186361197767,8.78287559361774,0.5586530093190534,-0.5155555555555555,-0.4577777777777778,0.20222222222222222,-0.08379046497241986,-0.03290575684899441,0.7530236790922131
1592296659.2662601,4.421661553890626,8.614989381157454,0.9400259571706684,-0.5637059760486107,-0.4253688409074522,0.18462879934975976,-0.28725999990295403,0.024729702067370546,0.676130491430642
1592296659.2762601,4.394798849426711,8.783247173504854,0.8991666333746156,-0.5733333333333334,-0.41888888888888887,0.1811111111111111,-0.24864984565222367,0.03686882536761892,0.5190724227069243
1592296659.2862601,4.031484999582161,8.704860581074682,0.7933502325970083,-0.5733333333333334,-0.41888888888888887,0.1811111111111111,-0.039379358919992224,-0.046581746996104456,0.47146448448180317
1592296659.29626,4.427410134257254,8.459573649006304,1.0077378374476686,-0.5733333333333334,-0.41888888888888887,0.1811111111111111,-0.1459282093755235,0.06623318113809373,0.5831117021322297
1592296659.30626,4.528178719670637,8.533321972125671,0.9742496541018459,-0.5733333333333334,-0.41888888888888887,0.1811111111111111,-0.09568691203692951,0.1368936862835351,0.43383812305835256
1592296659.31626,4.3429106380160905,8.65,1.2386594046948978,-0.5733333333333334,-0.42660762175942785,0.1888298439816501,-0.00011593440425830721,0.06250276550023173,0.5006728735644478
1592296659.32626,4.627191054118006,8.90771773147088,1.0372383787497137,-0.5733333333333334,-0.42777777777777776,0.19,-0.01619968224124193,0.10038957073110083,0.42317606612577113
1592296659.33626,4.252333975378947,8.53648717304525,1.1248234374563828,-0.5733333333333334,-0.42777777777777776,0.19,0.02982517655934857,0.06741217305637863,0.30543261909900765
1592296659.34626,4.551856277467633,8.66973631072574,1.0444363938710062,-0.5733333333333334,-0.42777777777777776,0.19,0.042202855304318644,0.17566042365165818,0.24854302752062063
1592296659.35626,4.844911819586284,8.743922272827591,1.072650227724163,-0.5733333333333334,-0.42777777777777776,0.19,0.02322735721968407,0.09886464577018113,0.3308687111301674
1592296659.36626,4.212683770452358,8.37925228585178,1.2531349254090471,-0.6055722649983959,-0.4134493637044166,0.1497013354186718,0.14451116098225902,0.025316933098286365,0.15305735821360542
1592296659.37626,4.4001706470873,8.446595933516218,1.3735178312086493,-0.6133333333333333,-0.41,0.14,0.08508933369450238,-0.015619809636211963,0.16925369674928822
1592296659.38626,4.579810617005069,8.250097712169367,1.220763573323527,-0.6133333333333333,-0.41,0.14,0.2944910170246338,-0.05897749643919118,0.01764185487395581
1592296659.39626,4.7265728888039735,8.387132212457011,0.9085321933511654,-0.6133333333333333,-0.41,0.14,0.36577922660517564,-0.2568481331373672,-0.03573043946923479
1592296659.40626,4.93479816014041,8.295801609877142,1.0834640601989145,-0.6133333333333333,-0.41,0.14,0.3478588483056551,-0.26770480310536315,-0.11355460640611037
1592296659.41626,5.059252812830236,8.632231304780259,1.0586591657860385,-0.6014761746890174,-0.4054395543675708,0.13452746524108494,0.09677914170799412,-0.13020187954123125,-0.14765293439002256
1592296659.42626,4.982606910167819,8.591480750246792,1.1585192497532084,-0.5988888888888889,-0.40444444444444444,0.13333333333333333,0.18943369522497389,-0.055402617038855836,-0.2050215701919712
1592296659.43626,4.758545267282958,8.752909465434083,0.7290710409967845,-0.5988888888888889,-0.40444444444444444,0.13333333333333333,0.22248549893680547,-0.19985402107377606,-0.400114829300038
1592296659.44626,4.6948683145211225,8.63059056055627,0.8577653950564366,-0.5988888888888889,-0.40444444444444444,0.13333333333333333,0.09492316267854249,-0.0009741471640039578,-0.4788677519821606
1592296659.45626,4.5562662865632095,8.642787536889442,0.5651671317580454,-0.5988888888888889,-0.40444444444444444,0.13333333333333333,0.21410938110561634,-0.1633088061939183,-0.6498557976806194
1592296659.46626,4.721750976242287,8.874868393597042,0.396882582645244,-0.612319498680127,-0.40444444444444444,0.13412336920340617,0.24226767357871457,-0.05149100435688808,-0.816224058662387
1592296659.47626,4.772023991096089,8.905222391689682,0.48076961127828843,-0.6177777777777778,-0.40444444444444444,0.13444444444444445,0.24612162371309276,-0.00036687779192829534,-0.9057962221954559
1592296659.48626,4.741864761043949,8.968102474296689,0.4375245734945204,-0.6177777777777778,-0.40444444444444444,0.13444444444444445,0.18487859431354092,-0.15799320808147255,-1.0193831532778885
1592296659.49626,4.757528884423664,8.826305112253177,0.31595849916921054,-0.6177777777777778,-0.40444444444444444,0.13444444444444445,0.15576708660985183,-0.07740628639643579,-1.1269313422936744
1592296659.50626,4.78021978492781,8.654913671222312,0.33767662053896574,-0.6177777777777778,-0.40444444444444444,0.13444444444444445,0.19126870240282304,0.01579734773967694,-1.254914333005071
1592296659.51626,4.511942550614293,8.762927496106592,0.37178750648901193,-0.6169286112553114,-0.4248244409836381,0.14038861010170925,0.267149083197177,-0.01854412330243975,-1.421047590394743
1592296659.52626,4.292392350111463,8.795521529977707,0.3727607649888537,-0.6166666666666667,-0.4311111111111111,0.14222222222222222,0.23740392514150213,-0.060303629076573696,-1.423023205524414
1592296659.53626,3.6583161735957255,8.872616968591164,0.049064251270689474,-0.6166666666666667,-0.4311111111111111,0.14222222222222222,0.2093682856567533,-0.2887241281520474,-1.371969563687617
1592296659.5462599,3.506646774922137,8.846023870093436,0.12255129454839403,-0.6166666666666667,-0.4311111111111111,0.14222222222222222,0.06829877712947918,-0.17819438309876087,-1.6203361652021546
1592296659.5562599,3.4293832989082325,9.08372676305695,0.13354775253270385,-0.6166666666666667,-0.4311111111111111,0.14222222222222222,0.09591714660985953,-0.1993413591212135,-1.6715650793016485
1592296659.5662599,3.0730577062666344,9.091630776675538,0.010815388337769169,-0.5822066967766217,-0.45237364572411753,0.14222222222222222,-0.007452184817682783,-0.21387653636858242,-1.5899408293188422
1592296659.5762599,2.9958498646519334,9.08095632499697,0.07765787240919557,-0.5644444444444444,-0.4633333333333333,0.14222222222222222,-0.09878966562396149,-0.1447447080540156,-1.577236595965686
1592296659.5862598,3.0315705018777743,9.3,0.03959827017184475,-0.5644444444444444,-0.4633333333333333,0.14222222222222222,-0.04465354974771739,-0.15836288268502804,-1.6394501400204835
1592296659.5962598,2.987091657585664,9.166786132300118,-0.035816684828671744,-0.5644444444444444,-0.4633333333333333,0.14222222222222222,0.023767229067586135,-0.19768608041811647,-1.604180186554313
1592296659.6062598,2.9968138370505235,8.955170687300866,0.251279016841147,-0.5644444444444444,-0.4633333333333333,0.14222222222222222,0.009580642138849169,0.01453431474557066,-1.6006395106878104
1592296659.6162598,2.806114864864865,9.143222972972973,0.22743918918918918,-0.5554084084084084,-0.5047484984984986,0.13695120120120122,0.05600531610728088,0.007111037425355279,-1.5588384628656922
1592296659.6262598,2.667167044235126,9.279893088509997,0.19540757521561147,-0.5511111111111111,-0.5244444444444445,0.13444444444444445,0.15311668402891065,-0.059972368568445206,-1.5545674821820334
1592296659.6362598,2.0347239890668507,9.608319411449154,0.30383784198022834,-0.5511111111111111,-0.5244444444444445,0.13444444444444445,0.12871892401427731,-0.04114692179389835,-1.6592411719772118
1592296659.6462598,1.8294775193177724,9.642369379829443,0.3157472875045041,-0.5511111111111111,-0.5244444444444445,0.13444444444444445,0.042469509594673445,0.012979956068056981,-1.6027869692133738
1592296659.6562598,1.7992150873231956,9.437252805631184,-0.02,-0.5511111111111111,-0.5244444444444445,0.13444444444444445,-0.04535824917982176,0.02364152433599282,-1.4914368118606416
1592296659.6662598,1.8322778902879282,9.43762525314784,0.026138945143964077,-0.5325273693170145,-0.553922103841977,0.14277508731766017,-0.046139154969430524,0.013084686683869836,-1.4036824340249425
1592296659.6762598,1.8540676632572777,9.983705743509047,0.40777340676632573,-0.5188888888888888,-0.5755555555555556,0.14888888888888888,-0.11565724331174068,0.04513087072980026,-1.2698694996770898
1592296659.6862597,1.295323068067348,9.675125917398187,-0.12290257591020304,-0.5188888888888888,-0.5755555555555556,0.14888888888888888,-0.06004984998362271,0.1283576139324215,-1.3284917129268814
1592296659.6962597,1.0918536447617895,9.373102182419622,-0.2530771713259914,-0.5188888888888888,-0.5755555555555556,0.14888888888888888,-0.047385770160165944,0.18593091655126914,-1.326751531219904
1592296659.7062597,1.183660113586719,9.570297946701617,0.3605076452599388,-0.5188888888888888,-0.5755555555555556,0.14888888888888888,-0.11908774547619609,0.2176140217047956,-1.1935695050417
1592296659.7162597,0.7059651352231997,9.831844248941023,0.10178690127077225,-0.49131921364179426,-0.5998431266065675,0.13510405126534158,-0.10357237458887553,0.14339864555569865,-1.1569972579974552
1592296659.7262597,0.5394687715595958,9.702656142202022,0.33729718761413907,-0.4722222222222222,-0.6166666666666667,0.12555555555555556,-0.1352579261022448,0.11979620434821808,-1.1221019142057076
1592296659.7362597,0.6291627454991817,9.90497647299509,0.5906792144026187,-0.4722222222222222,-0.6166666666666667,0.12555555555555556,-0.15528053180780577,0.11045395327890661,-1.1847275067372969
1592296659.7462597,0.465343584356048,9.660064944367509,0.5964376104293014,-0.4722222222222222,-0.6166666666666667,0.12555555555555556,-0.020756362092461317,0.11451149936968466,-0.9531358603089932
1592296659.7562597,0.49957549874448864,9.704888981157442,0.6902951934673863,-0.4722222222222222,-0.6166666666666667,0.12555555555555556,-0.04154204633752212,0.15017032598878302,-0.8721393009409285
1592296659.7662597,0.2808390354677743,9.68163683628649,0.5284181432455852,-0.46297875519168136,-0.6357313174171572,0.12959957238141717,-0.10978378880518117,0.17156802451221845,-0.9840959222793252
1592296659.7762597,-0.02540997464074387,9.372578191039729,0.36764158918005074,-0.45444444444444443,-0.6533333333333333,0.13333333333333333,-0.09695669141903622,0.15271630954950383,-1.0508268918220465
1592296659.7862597,0.2784951211305518,9.744379205921938,0.5590368438761777,-0.45444444444444443,-0.6533333333333333,0.13333333333333333,-0.08756770733885981,0.2453753557845277,-0.9035985976540263
1592296659.7962596,0.38953122016421615,9.819071987779262,0.27838075233912546,-0.45444444444444443,-0.6533333333333333,0.13333333333333333,-0.0707247646796578,0.12829040667170896,-0.7839271977709464
1592296659.8062596,0.05888259109311739,9.494404858299596,0.6416275303643725,-0.45444444444444443,-0.6533333333333333,0.13333333333333333,-0.1626132803332065,0.03936795045072837,-0.9587519314352352
1592296659.8162596,-0.3731728883315649,9.207076621330504,1.1544027523230764,-0.4335789131467727,-0.6628718619265547,0.12141017259180661,-0.07644752286046624,0.12469695951087553,-1.147633705972311
1592296659.8262596,-0.28505421251305113,9.258873182876878,0.9516360131716328,-0.41555555555555557,-0.6711111111111111,0.1111111111111111,-0.01688628128997646,0.17145483920535776,-1.1357808781037355
1592296659.8362596,-0.06137344471645258,9.759873810665523,0.8349963405093002,-0.41555555555555557,-0.6711111111111111,0.1111111111111111,-0.16775712695473688,0.23347828444036206,-1.0628238817906892
1592296659.8462596,-0.2534069627851141,9.66123025210084,0.6457570228091236,-0.41555555555555557,-0.6711111111111111,0.1111111111111111,-0.022554713923934294,0.218906847624376,-1.1186891340181784
1592296659.8562596,-0.37132507698034045,9.605335160558996,0.417280140764051,-0.41555555555555557,-0.6711111111111111,0.1111111111111111,0.035924295131416796,0.1987226597712666,-1.1562713278742476
1592296659.8662596,-0.022793313069908838,11.727800911854104,1.2513449848024316,-0.40438466734211415,-0.6802509287402905,0.108064505234718,-0.1494615556357116,0.46216693255054286,-0.836701692363651
1592296659.8762596,0.4498129857512953,13.233940252590674,1.4134383095854923,-0.39111111111111113,-0.6911111111111111,0.10444444444444445,-0.1644490989309278,0.6601879750971558,-0.5508001318677179
1592296659.8862596,-1.6212597011773402,10.666453988701758,0.28033129190644634,-0.39111111111111113,-0.6911111111111111,0.10444444444444445,0.054303889939248035,0.32854068371583883,0.0048314802194168865
1592296659.8962595,0.09993055275164534,10.795416481608592,0.7748613073848266,-0.39111111111111113,-0.6911111111111111,0.10444444444444445,-0.11636280026095679,0.39636545702307246,-0.05304924984584089
1592296659.9062595,-0.0742425629290618,9.653052631578948,1.8088466819221967,-0.39111111111111113,-0.6911111111111111,0.10444444444444445,0.29068019364236225,0.28663138922769577,-0.24145252309826815
1592296659.9162595,-0.48762216344145903,9.828737296394264,1.1126451343449812,-0.38183921914396646,-0.7034736337339706,0.09105171160301329,0.26594554706738255,0.4150927761421221,-0.15652062556402682
1592296659.9262595,-0.7001627486437614,9.737200723327305,0.9436962025316455,-0.3711111111111111,-0.7177777777777777,0.07555555555555556,0.25482753912346146,0.38185310706133085,-0.09851247427633274
1592296659.9362595,-1.116177415738734,10.011529033704505,0.5569419325909872,-0.3711111111111111,-0.7177777777777777,0.07555555555555556,0.23810355301775718,0.3367642693578751,-0.2536531701447659
1592296659.9462595,-1.2597891868636168,10.057213537932023,0.654472967159042,-0.3711111111111111,-0.7177777777777777,0.07555555555555556,0.1906194331866541,0.3658702448712263,-0.4004838245969561
1592296659.9562595,-1.2325979448306614,10.255711303431363,0.6125979448306613,-0.3711111111111111,-0.7177777777777777,0.07555555555555556,0.18255109191127636,0.30459146407051374,-0.6145830479135309
1592296659.9662595,-1.1853535766423358,10.39643094890511,0.5653535766423358,-0.3492031792376318,-0.7168649472830494,0.07875046228710463,0.16272481733747307,0.25948545703007747,-0.7421283937294105
1592296659.9762595,-1.15,10.42,0.53,-0.31777777777777777,-0.7155555555555555,0.08333333333333333,0.12544553998709243,0.2999784651865254,-0.8693921336496755
1592296659.9862595,-1.0348281104823043,10.37049328490582,0.31510713179604133,-0.31777777777777777,-0.7155555555555555,0.08333333333333333,0.03654038953648488,0.2870711148193661,-1.04755354465325
1592296659.9962595,-1.004797489880482,10.264882757299226,0.23995736629062778,-0.31777777777777777,-0.7155555555555555,0.08333333333333333,-0.09420222969544727,0.3087004608302415,-1.227575412709265
1592296660.0062594,-1.1,10.32,0.26,-0.31777777777777777,-0.7155555555555555,0.08333333333333333,-0.16689710972195776,0.3108867730114899,-1.3002702927357754
1592296660.0162594,-1.184596925704526,10.378627668659266,0.2506861656703672,-0.3244177815732043,-0.7173432488850934,0.08282256381060821,-0.3132762140863341,0.3030955304494208,-1.4471246676938578
1592296660.0262594,-1.207292994790718,10.231248406251138,0.3191665148810608,-0.3466666666666667,-0.7233333333333334,0.0811111111111111,-0.4216291252458327,0.15673948071787916,-1.579682478892941
1592296660.0362594,-1.6864056674123789,9.739761372110365,0.2840119313944817,-0.3466666666666667,-0.7233333333333334,0.0811111111111111,-0.557805797272826,0.2989665386440753,-1.649434570073256
1592296660.0462594,-1.89,9.62,0.29,-0.3466666666666667,-0.7233333333333334,0.0811111111111111,-0.6446809924554054,0.22907446432425577,-1.5893404500973365
1592296660.0562594,-1.8519052996692749,9.412857949503913,0.5735710252480438,-0.3466666666666667,-0.7233333333333334,0.0811111111111111,-0.6072162741635928,0.09824010412283411,-1.6119747268786964
1592296660.0662594,-1.9821234223604705,9.442725517537273,0.5872744824627266,-0.33417470135586624,-0.7301685596354694,0.07404018735028066,-0.6368803959683822,0.14088241996865936,-1.5449464180511463
1592296660.0762594,-2.25,9.23,0.8,-0.2877777777777778,-0.7555555555555555,0.04777777777777778,-0.6970408700152353,0.13744467859455345,-1.4813482026301872
1592296660.0862594,-2.495379310344828,9.00903448275862,1.1424137931034481,-0.2877777777777778,-0.7555555555555555,0.04777777777777778,-0.6828675928136951,0.2662906014346693,-1.5345130380777903
1592296660.0962594,-2.423573411111634,9.069058192595381,1.1760664722209155,-0.2877777777777778,-0.7555555555555555,0.04777777777777778,-0.6475636861189863,0.2661808512444014,-1.494135995934021
1592296660.1062593,-2.5776433467522577,8.830744206288761,1.1941602292097342,-0.2877777777777778,-0.7555555555555555,0.04777777777777778,-0.5643237182348393,0.20367416512765266,-1.5540612347618585
1592296660.1162593,-2.958095183133272,8.681427746999077,1.1057156048014773,-0.27931192503676344,-0.7606350672001642,0.04375649772579597,-0.387660494360891,0.2633060369639549,-1.5077345397552975
1592296660.1262593,-2.95,8.56,1.3,-0.24333333333333335,-0.7822222222222223,0.02666666666666667,-0.3894265893512348,0.3021601267515183,-1.3046336158657614
1592296660.1362593,-3.0319546669596105,8.729585118459116,1.2161847742502472,-0.24333333333333335,-0.7822222222222223,0.02666666666666667,-0.47842494404028013,0.23678026169528008,-1.2972124195173043
1592296660.1462593,-3.210443134271586,8.895851797261317,1.3363712438189426,-0.24333333333333335,-0.7822222222222223,0.02666666666666667,-0.4948738329632246,0.05477571090986328,-1.224946305914028
1592296660.1562593,-3.1282608387895947,8.932929039108123,1.4422654397451777,-0.24333333333333335,-0.7822222222222223,0.02666666666666667,-0.44399063615067075,0.046206788928313244,-1.2304845719813025
1592296660.1662593,-3.2379246145059963,9.033153626499143,1.4973314296592424,-0.23772688622374516,-0.781404615352074,0.02152742348287751,-0.27579196618952556,0.06688173626591642,-1.256422467007851
1592296660.1762593,-3.05,9.06,1.73,-0.19,-0.7744444444444445,-0.022222222222222223,-0.3763366199612773,0.08835729338221293,-1.1617347833587257
1592296660.1862593,-3.2176344907603927,8.768597787022102,1.7075354444350115,-0.19,-0.7744444444444445,-0.022222222222222223,-0.18719643429960384,0.09617085466848951,-1.2025342686085057
1592296660.1962593,-3.4,8.63,1.62,-0.19,-0.7744444444444445,-0.022222222222222223,-0.2301652951067522,-0.062177354602297986,-1.353721001078102
1592296660.2062593,-3.473738622736834,8.836424738052646,1.8560980164736873,-0.19,-0.7744444444444445,-0.022222222222222223,-0.12882291454884176,0.06710684011643667,-1.2364318706219684
1592296660.2162592,-3.4318948505581566,8.931343896290961,1.867779618293122,-0.18762381466810707,-0.7754628095866843,-0.022222222222222223,-0.04855198645233235,0.0037505409835348093,-1.105040729101773
1592296660.2262592,-3.84,8.77,1.64,-0.14333333333333334,-0.7944444444444444,-0.022222222222222223,-0.05890486225480862,0.2159844949342983,-1.2479104151759455
1592296660.2362592,-3.869718105361203,8.790845683916391,1.9232011067583488,-0.14333333333333334,-0.7944444444444444,-0.022222222222222223,-0.08446251080612026,0.08213439109617995,-1.2089370690608494
1592296660.2462592,-3.730380734273241,8.79159736634939,1.4664638946539754,-0.14333333333333334,-0.7944444444444444,-0.022222222222222223,-0.0960303468388802,-0.008166671365328617,-1.3654088863877876
1592296660.2562592,-3.667269349074551,8.67487651796668,1.5048765179666803,-0.14333333333333334,-0.7944444444444444,-0.022222222222222223,-0.10002729950422751,-0.01932996832573494,-1.4012054315669786
1592296660.2662592,-4.050216196988261,8.78551480178649,1.622865499387376,-0.1424925672678726,-0.7941802036810138,-0.02246244109806815,-0.010247971701304794,-0.0029423242856594853,-1.2970277647135633
1592296660.2762592,-4.06,8.13,1.3,-0.10444444444444445,-0.7822222222222223,-0.03333333333333333,0.019634954084936207,0.011999138607461015,-1.0515608743265834
1592296660.2862592,-4.39283851802954,8.420581731165939,1.3963891410182359,-0.10444444444444445,-0.7822222222222223,-0.03333333333333333,0.07181976226016706,-0.0027516946820446532,-1.0142953980979121
1592296660.2962592,-4.386730782763717,8.59015387863292,1.5529999296286738,-0.10444444444444445,-0.7822222222222223,-0.03333333333333333,0.17635377409608632,-0.05109707160224586,-0.8464301341636438
1592296660.3062592,-4.446155341506129,8.648600175131348,1.4037775831873904,-0.10444444444444445,-0.7822222222222223,-0.03333333333333333,0.12878388336273006,-0.09788188904593406,-0.8432822869562926
1592296660.3162591,-4.526956217162873,8.582490367775831,1.47723292469352,-0.10444444444444445,-0.7822222222222223,-0.03333333333333333,-0.02265680370271711,0.06477662669102771,-0.921005814180358
1592296660.3262591,-4.85,7.94,0.84,-0.03888888888888889,-0.7944444444444444,-0.042222222222222223,0.1908953869368798,-0.06872233929727672,-0.7592182246175333
1592296660.3362591,-5.335662508960573,8.277805591397849,1.1316843010752689,-0.03888888888888889,-0.7944444444444444,-0.042222222222222223,0.033426245562496126,-0.2230582706030085,-0.632303542785169
1592296660.346259,-5.0668944323065475,7.978850927948908,1.4297870399270125,-0.03888888888888889,-0.7944444444444444,-0.042222222222222223,0.07660884340767923,-0.28509690490633677,-0.6042592574911178
1592296660.356259,-5.289179943933856,7.975690358752351,1.4582342713175545,-0.03888888888888889,-0.7944444444444444,-0.042222222222222223,0.10196939528787582,-0.351148922630513,-0.3062450617835759
1592296660.366259,-5.058486746389411,8.124524679748768,1.778228061459849,-0.03888888888888889,-0.7944444444444444,-0.042222222222222223,0.14986354764415635,-0.3828077691033086,-0.09924491176914324
1592296660.376259,-5.21,8.63,1.82,-0.03111111111111111,-0.7944444444444444,-0.04888888888888889,0.1341721862470641,-0.29343348049154666,-0.1341721862470641
1592296660.386259,-4.989136073632466,8.181827214726493,1.4109632883589582,-0.03111111111111111,-0.7944444444444444,-0.04888888888888889,0.11065971150802009,-0.2784662462030224,0.041335652563542616
1592296660.396259,-4.9408865606427215,8.1121362963659,0.9684768258591934,-0.03111111111111111,-0.7944444444444444,-0.04888888888888889,0.22983788443447994,-0.26950464703665106,0.11894273404820355
1592296660.406259,-5.323595114372957,7.9983355654363315,0.3774832592275138,-0.03111111111111111,-0.7944444444444444,-0.04888888888888889,-0.022905985524429517,-0.33103298645872653,0.1822268263788314
1592296660.416259,-5.645651684791343,7.95339743933144,0.7145192050141962,-0.03111111111111111,-0.7944444444444444,-0.04888888888888889,-0.05231792028218311,-0.4086478142916874,0.2328807140171848
1592296660.426259,-4.95,7.88,1.08,-0.012222222222222223,-0.7822222222222223,-0.042222222222222223,-0.17562375598192942,-0.2716168648416175,0.35779249665883756
1592296660.436259,-5.382724445308378,8.201159923356752,1.4,-0.012222222222222223,-0.7822222222222223,-0.042222222222222223,-0.09457440180633717,-0.3764400354812974,0.15412156713276431
1592296660.446259,-4.692891736866105,8.328880888952888,1.4655057959536322,-0.012222222222222223,-0.7822222222222223,-0.042222222222222223,-0.16901431679331047,-0.4493285589574952,0.2156270369098615
1592296660.456259,-4.281050110801344,8.622051254557151,1.6792796125527198,-0.012222222222222223,-0.7822222222222223,-0.042222222222222223,-0.16327432181490947,-0.20320885386546764,0.5181353033443692
1592296660.466259,-4.850724140396026,8.307231396096933,1.7167581671313175,-0.012222222222222223,-0.7822222222222223,-0.042222222222222223,-0.11339735337318418,-0.18685574945834457,0.5753711687692997
1592296660.476259,-4.878856748698322,8.089595033598862,1.462575764318455,-0.0044444444444444444,-0.8011111111111111,-0.056666666666666664,-0.11030342425299117,-0.1818261661216112,0.7046971224897036
1592296660.486259,-4.764875350497069,7.769924802447107,1.9543925567167983,-0.0044444444444444444,-0.8011111111111111,-0.056666666666666664,0.02813108830853529,-0.21116014773156735,0.8691080949944829
1592296660.496259,-4.394733238904627,8.517842304060435,2.213248347497639,-0.0044444444444444444,-0.8011111111111111,-0.056666666666666664,0.051620811378110136,-0.18121722515723762,0.8362546721876336
1592296660.506259,-4.275576012532342,8.41655694999384,2.067050675021562,-0.0044444444444444444,-0.8011111111111111,-0.056666666666666664,0.1198470568719272,-0.04236216661745694,0.8532070641569522
1592296660.516259,-4.120540545297731,8.446087515181384,1.9636936968651542,-0.0044444444444444444,-0.8011111111111111,-0.056666666666666664,0.20762707184415408,-0.13980603644901154,0.9522615764650615
1592296660.526259,-3.94,8.65,2.5,-0.04555555555555556,-0.7555555555555555,-0.04888888888888889,0.16907877128695067,-0.23780111058422737,1.0842857978014773
1592296660.536259,-3.5710481366459628,8.553467819661599,2.25,-0.04555555555555556,-0.7555555555555555,-0.04888888888888889,0.13857067108892945,-0.13403142258322726,1.2003098388618616
1592296660.546259,-3.8365624705771584,8.500937764805574,2.2706251765370493,-0.04555555555555556,-0.7555555555555555,-0.04888888888888889,0.1865833650003651,-0.17710686886345095,1.0969838959127776
1592296660.556259,-3.818785369096168,8.591697716616064,2.365141476384672,-0.04555555555555556,-0.7555555555555555,-0.04888888888888889,0.30011623247181274,-0.30747651337871323,1.2043622546848258
1592296660.566259,-3.811250202109121,8.230009701237806,2.335000808436484,-0.04555555555555556,-0.7555555555555555,-0.04888888888888889,0.4160124810919929,-0.19158026475853307,1.3605345045985437
1592296660.576259,-3.96,7.95,2.13,-0.09,-0.7744444444444445,-0.021111111111111112,0.4483314516060434,-0.21162117180431245,1.3864459245529954
1592296660.586259,-3.830504334954536,8.258400296045675,1.9615130048636076,-0.09,-0.7744444444444445,-0.021111111111111112,0.46717901916612203,-0.07332636488476625,1.5466725659797043
1592296660.5962589,-3.805542542279894,8.104607733225198,1.965592634114925,-0.09,-0.7744444444444445,-0.021111111111111112,0.5432774430557179,-0.2514046340412634,1.7423317375756482
1592296660.6062589,-3.519871259256603,8.488917179179143,1.8427392372379912,-0.09,-0.7744444444444445,-0.021111111111111112,0.5983103080946977,-0.3058147453115129,1.6896828386504243
1592296660.6162589,-2.963348693765577,8.481396603969806,2.000671316634093,-0.09,-0.7744444444444445,-0.021111111111111112,0.6171787604576771,-0.3008925403472575,1.6289756440912733
1592296660.6262589,-2.21,9.121388665733239,1.9294443041751785,-0.13777777777777778,-0.7688888888888888,-0.03,0.737704618909298,-0.19259218752675292,1.7022717946673014
1592296660.6362588,-2.19291722940382,8.86270692649045,1.6706012444530194,-0.13777777777777778,-0.7688888888888888,-0.03,0.740282060983221,-0.11765385019970281,1.7628825408437216
1592296660.6462588,-2.075891666266852,9.236476514897088,1.1064765148970879,-0.13777777777777778,-0.7688888888888888,-0.03,0.7097969383164663,0.0022556640946887335,1.6065330590243412
1592296660.6562588,-2.2405738610052364,9.376552203184554,1.2281608663128272,-0.13777777777777778,-0.7688888888888888,-0.03,0.44675189770286694,0.20424857321568532,1.5140728735349926
1592296660.6662588,-2.0015228155166884,9.511018416271861,1.213220175969793,-0.13777777777777778,-0.7688888888888888,-0.03,0.5225365046642381,0.1798019258087914,1.4431775960550004
1592296660.6762588,-1.58,9.45,0.96,-0.19,-0.7477777777777778,-0.03,0.48323803664593,0.1287180323345818,1.4791665410651942
1592296660.6862588,-1.7652702389236836,9.607479703085131,0.7191486893992113,-0.19,-0.7477777777777778,-0.03,0.4529232646911659,0.08526685919941998,1.5458590393656753
1592296660.6962588,-1.83,9.38,0.75,-0.19,-0.7477777777777778,-0.03,0.4886921905584123,0.05126904677733343,1.313360262125733
1592296660.7062588,-1.7092946560266253,9.329647328013312,0.8526097727014863,-0.19,-0.7477777777777778,-0.03,0.5998338246261059,0.06597131365266376,1.5548937788868538
1592296660.7162588,-1.6299803335728604,9.28999016678643,1.1460727657804166,-0.19,-0.7477777777777778,-0.03,0.5859908639180392,0.0019476203778554108,1.483948605258012
1592296660.7262588,-1.35,9.47,1.02,-0.21666666666666667,-0.7211111111111111,-0.013333333333333334,0.6359543461954338,0.020725784867432664,1.3177235852557188
1592296660.7362587,-1.259754938833683,9.433901975533473,1.0290245061166317,-0.21666666666666667,-0.7211111111111111,-0.013333333333333334,0.5877177217580718,-0.022588735035504716,1.4594801958471502
1592296660.7462587,-0.9117903707480516,9.851819506154854,0.8696748974190885,-0.21666666666666667,-0.7211111111111111,-0.013333333333333334,0.6412343623364126,-0.05231646891990681,1.2315786493589813
1592296660.7562587,-0.32,9.88,0.4,-0.21666666666666667,-0.7211111111111111,-0.013333333333333334,0.4526947747360292,0.1679879405044542,1.1813697374436618
1592296660.7662587,-0.2526399383648917,10.007984117106707,0.3528479568554242,-0.21666666666666667,-0.7211111111111111,-0.013333333333333334,0.4571034804605753,0.1694575090793029,1.1549175030963854
1592296660.7762587,-0.01,10.06,0.06,-0.26222222222222225,-0.7144444444444444,0.021111111111111112,0.34470252726888007,0.2454369260617026,1.1857330605736476
1592296660.7862587,-0.10431368670886075,10.02570411392405,0.017130142405063296,-0.26222222222222225,-0.7144444444444444,0.021111111111111112,0.25023973145117123,0.22392559632103623,1.0445065044501423
1592296660.7962587,-0.12,10.11,-0.21,-0.26222222222222225,-0.7144444444444444,0.021111111111111112,0.23889194136672384,0.23780111058422737,1.1181015520588673
1592296660.8062587,-0.14810016855285335,10.02569949434144,-0.19126655429809777,-0.26222222222222225,-0.7144444444444444,0.021111111111111112,0.19189139712884382,0.3389544557918388,1.0373832260851168
1592296660.8162587,-0.17319161160586038,10.012269462798047,-0.1281557023843723,-0.26222222222222225,-0.7144444444444444,0.021111111111111112,0.12378187419442546,0.3955463349276132,0.9282036125166115
1592296660.8262587,-0.5668827531012406,9.899675870348139,0.10623449379751901,-0.29444444444444445,-0.6944444444444444,0.042222222222222223,-0.02466758781909486,0.31472774286561045,0.9926397158135863
1592296660.8362586,-0.62,9.82,0.0,-0.29444444444444445,-0.6944444444444444,0.042222222222222223,0.13853550937704992,0.394880743263717,0.9588402578143849
1592296660.8462586,-0.8409467290093114,10.00559525236782,0.10605442992446948,-0.29444444444444445,-0.6944444444444444,0.042222222222222223,0.5877883888794138,0.19049960494933693,1.1092339256306267
1592296660.8562586,-0.22537434447208748,15.152340391258434,1.262890408261889,-0.29444444444444445,-0.6944444444444444,0.042222222222222223,-0.3997865238843668,0.20643687995042348,0.13556210666026453
1592296660.8662586,0.2175454171215836,10.377815503570726,1.653260367632582,-0.29444444444444445,-0.6944444444444444,0.042222222222222223,-0.11890410867763418,0.3137126711809831,-0.1526904010737584
1592296660.8762586,-0.9078458903337766,11.142669311036487,-0.2406973022920376,-0.3477777777777778,-0.6666666666666666,0.027777777777777776,-0.047645785377880855,0.44487678946075143,0.32006859792278614
1592296660.8862586,-1.8342198733406956,9.204846183317933,0.7612990466746299,-0.3477777777777778,-0.6666666666666666,0.027777777777777776,-0.255936077078998,0.3221711225675191,0.28707211606914385
1592296660.8962586,-0.1242232567068196,9.821385756106926,0.1309238374046168,-0.3477777777777778,-0.6666666666666666,0.027777777777777776,-0.0942361420551215,0.3324154600102826,0.11935014279319732
1592296660.9062586,-0.7601918194640339,10.029808180535966,0.2718222849083216,-0.3477777777777778,-0.6666666666666666,0.027777777777777776,-0.1561721968607077,0.28892368755832576,0.3512265877062538
1592296660.9162586,-0.7749813117066291,10.01501868829337,0.41232246121297605,-0.3477777777777778,-0.6666666666666666,0.027777777777777776,-0.0021036379316257126,0.277630704181325,0.34961330436668225
1592296660.9262586,-1.12,10.14,0.5,-0.3477777777777778,-0.6466666666666666,0.006666666666666667,-0.006544984694978735,0.3174317577064687,0.5846852994181004
1592296660.9362586,-1.3103341349657485,10.206203177379392,0.34276745372394696,-0.3477777777777778,-0.6466666666666666,0.006666666666666667,-0.053485686154911866,0.2443125881246498,0.6830802313244987
1592296660.9462585,-1.0652005306663945,10.333919787733443,0.11064037146647618,-0.3477777777777778,-0.6466666666666666,0.006666666666666667,-0.07569490650430453,0.40926192055715205,0.7139414556431392
1592296660.9562585,-1.3487907661134697,9.973740351215747,0.495174884214589,-0.3477777777777778,-0.6466666666666666,0.006666666666666667,-0.09948868262781635,0.22121814609790652,0.8206843131333381
1592296660.9662585,-1.258039724127996,9.68325067977599,0.5901116453280032,-0.3477777777777778,-0.6466666666666666,0.006666666666666667,-0.0828787822376291,0.26703022125053283,0.9422449880810769
1592296660.9762585,-0.62,10.18,0.64,-0.39555555555555555,-0.64,0.015555555555555555,-0.08072147790473774,0.39051742013373125,1.014472627721704
1592296660.9862585,-0.7635455607476636,10.04363171728972,0.6758863901869159,-0.39555555555555555,-0.64,0.015555555555555555,-0.0869848345589084,0.3795565459889326,1.1420885195504311
1592296660.9962585,-0.7436723652285467,9.522493237024849,0.3465256435284603,-0.39555555555555555,-0.64,0.015555555555555555,-0.11650779757296001,0.2618033121980379,1.0684280015924024
1592296661.0062585,-0.5502361256124007,9.963023853505742,0.6867560838486868,-0.39555555555555555,-0.64,0.015555555555555555,-0.21882585899645593,0.18430913798211823,1.1899813519136233
1592296661.0162585,-0.5863176632723375,9.738489013092412,0.7862403338182375,-0.39555555555555555,-0.64,0.015555555555555555,-0.19010273689101972,0.09615177249792774,1.2694817379686514
1592296661.0262585,-0.16283249383774512,9.450918086664522,0.5693166148680028,-0.39555555555555555,-0.6277864704271306,-0.00988929772125571,-0.2084977709644797,-0.28118685621625317,1.3960949819676298
1592296661.0362585,-0.03228870821241055,9.86101420058043,1.2078346884069209,-0.39555555555555555,-0.6266666666666667,-0.012222222222222223,-0.19166280363483404,-0.0930086273512912,1.4481792765418815
1592296661.0462584,1.0050053280560207,9.984639975643173,1.1984228954178717,-0.39555555555555555,-0.6266666666666667,-0.012222222222222223,-0.25821769665168925,0.13626151992119567,1.3321936573452238
1592296661.0562584,0.1004209137786305,9.62590958148459,0.6485321981052884,-0.39555555555555555,-0.6266666666666667,-0.012222222222222223,-0.05419855335773974,0.007090596302340851,1.4249414331267078
1592296661.0662584,0.2603914558122479,9.283776433198875,0.673244713360225,-0.39555555555555555,-0.6266666666666667,-0.012222222222222223,-0.027443174427558434,-0.004258053492682199,1.2854122067841147
1592296661.0762584,0.9940100882723835,9.079712326607819,0.6270389344262295,-0.45861251226005323,-0.5898834419223763,-0.017476968614263698,-0.000708764893671247,-0.11998029550312986,1.0648907955382583
1592296661.0862584,1.2956916184431584,9.448399103976106,0.5993231286167631,-0.4622222222222222,-0.5877777777777777,-0.017777777777777778,0.015036645193703247,-0.10322957071934885,0.8850367688658497
1592296661.0962584,1.6170895621818957,9.547289684760305,0.1689450262477683,-0.4622222222222222,-0.5877777777777777,-0.017777777777777778,0.04527021870484852,-0.16210419221633532,0.814805452088601
1592296661.1062584,1.6222579344275518,9.60505424043231,0.5517235955962414,-0.4622222222222222,-0.5877777777777777,-0.017777777777777778,0.08412325813663882,-0.1972646298495432,0.7991683128720515
1592296661.1162584,2.0467414584395716,9.531455889852117,0.7439342172361041,-0.4622222222222222,-0.5877777777777777,-0.017777777777777778,0.06008080120136523,-0.03290654318447306,0.692978206772011
1592296661.1262584,1.958231525794174,9.339883935637035,0.5513042167539661,-0.47366184739964745,-0.5544122043436208,0.00033496208647883566,0.09980002073475168,-0.14997523598922152,0.6752622363392681
1592296661.1362584,2.2910995222929937,9.739716560509553,0.7684753184713375,-0.47555555555555556,-0.5488888888888889,0.0033333333333333335,-0.030769635352144165,-0.10802121180361114,0.5340118670919103
1592296661.1462584,2.234238673717307,10.092967843361441,0.8653351436329855,-0.47555555555555556,-0.5488888888888889,0.0033333333333333335,-0.16856991439484428,0.21098594254800834,0.45998782895033496
1592296661.1562583,1.5667233691964717,9.48072598623631,0.39671028399728603,-0.47555555555555556,-0.5488888888888889,0.0033333333333333335,-0.16849661423660411,0.04518209047721508,0.4599688831177479
1592296661.1662583,1.8152678008821677,9.511915563957151,0.48239445494643984,-0.47555555555555556,-0.5488888888888889,0.0033333333333333335,-0.18237769628993833,0.05854537611791785,0.45610817465151593
1592296661.1762583,1.5993974502886465,9.74129890955741,0.671087636305324,-0.5171465861307106,-0.5310641614995367,-0.0035985050958591684,-0.3386449266771295,0.22681343065093093,0.3119647905555615
1592296661.1862583,1.6271998150930314,9.867919796602335,0.7128799260372125,-0.5222222222222223,-0.5288888888888889,-0.0044444444444444444,-0.28954151022134983,0.17040534153128328,0.35825489898290974
1592296661.1962583,1.8774669438669438,9.588764241164242,0.6422594594594595,-0.5222222222222223,-0.5288888888888889,-0.0044444444444444444,-0.34625744871942243,-0.08419716866825971,0.48303683392862623
1592296661.2062583,2.3320126491073574,9.576633576174846,0.8143479305099671,-0.5222222222222223,-0.5288888888888889,-0.0044444444444444444,-0.32799721054367553,-0.09467461048853038,0.46652730550166255
1592296661.2162583,2.723960448022401,9.480109866604442,0.778140629253685,-0.5222222222222223,-0.5288888888888889,-0.0044444444444444444,-0.2533211088559485,-0.06828792451826363,0.5418513870692945
1592296661.2262583,2.9825200074446307,9.626361436813697,0.5943699981388423,-0.5275203176375706,-0.5191757139607502,-0.032700953326302296,-0.25961102654760854,0.12504396483582164,0.5549358488537349
1592296661.2362583,2.1908162783375316,9.08502597607053,0.9574149874055415,-0.5288888888888889,-0.5166666666666667,-0.04,-0.10729862883829161,0.16242422266891893,0.6239966804522632
1592296661.2462583,3.2291134252009606,9.575496920346591,1.26,-0.5288888888888889,-0.5166666666666667,-0.04,-0.15698742052518058,0.05066717670809974,0.6276964189563157
1592296661.2562582,3.3391221034938168,9.128878376755914,0.8568457197742827,-0.5288888888888889,-0.5166666666666667,-0.04,-0.3283506477294433,0.2099733087869602,0.5931086504534225
1592296661.2662582,3.2607187959784207,9.09756191760667,0.8844681829328102,-0.5288888888888889,-0.5166666666666667,-0.04,-0.25841829385830706,0.2599244722370569,0.5951231563753073
1592296661.2762582,3.24,9.30361893697357,0.7876183560848098,-0.5531640688030465,-0.4978729789911899,-0.039216929680188466,-0.0921908839916254,0.2217917510562178,0.6056084666780673
1592296661.2862582,3.2762756882512605,9.287255137650252,0.6907859635517642,-0.5633333333333334,-0.49,-0.03888888888888889,-0.10447705690213496,0.15440466520459925,0.6241055722033965
1592296661.2962582,3.5976330263494503,9.338639038117165,0.6137279355333844,-0.5633333333333334,-0.49,-0.03888888888888889,-0.12399967992267448,0.2525239774732327,0.6627023039208007
1592296661.3062582,3.1239657865020063,9.095812930972345,0.7741870690276543,-0.5633333333333334,-0.49,-0.03888888888888889,-0.09524217823380002,0.2560967495482599,0.6308790385134838
1592296661.3162582,3.0896741394857123,9.056749790118467,0.8239501259289201,-0.5633333333333334,-0.49,-0.03888888888888889,-0.10828929967302284,0.19054393055902374,0.6308819372677777
1592296661.3262582,3.7442679676930015,9.250601861342298,0.8101504653355746,-0.5742210013711797,-0.4657121251463427,-0.06568930252051075,-0.14656081463701706,0.2325975825462525,0.696196237562354
1592296661.3362582,3.595720097640358,9.219525359370762,0.7803580146460537,-0.5777777777777777,-0.4577777777777778,-0.07444444444444444,-0.09647447085673769,0.26500738296448956,0.6272685284269144
1592296661.3462582,3.1673572008852284,8.937588032607781,0.7656318458133737,-0.5777777777777777,-0.4577777777777778,-0.07444444444444444,-0.1647519344710613,0.1474761842332791,0.5565490341486927
1592296661.3562582,3.7704358785342307,9.251796066868,0.6293092050507693,-0.5777777777777777,-0.4577777777777778,-0.07444444444444444,-0.13134481449091515,0.13072117875332734,0.500090831398418
1592296661.3662581,3.678852798272449,9.17544718373223,0.5743179773258952,-0.5777777777777777,-0.4577777777777778,-0.07444444444444444,-0.21008788419551638,0.10335498977589397,0.47297417680709747
1592296661.3762581,3.7072360170554304,9.148618008527716,0.5249836970152997,-0.5899250341387287,-0.4577777777777778,-0.07444444444444444,-0.3041910364325996,0.04658287932245525,0.286354434676068
1592296661.3862581,3.7266336633663366,9.19180198019802,0.5352475247524753,-0.5966666666666667,-0.4577777777777778,-0.07444444444444444,-0.32735723779670867,0.05252188213148777,0.18973327414285385
1592296661.396258,3.624867104484343,8.793146931987938,0.9399160066518222,-0.5966666666666667,-0.4577777777777778,-0.07444444444444444,-0.3208018987634822,0.1607365707020075,0.08081762006931019
1592296661.406258,4.053177702524197,9.117667459230972,0.7317494055767706,-0.5966666666666667,-0.4577777777777778,-0.07444444444444444,-0.3282287477132708,0.07338147073153921,-0.0514248498050133
1592296661.416258,3.998114207627645,9.264842850635636,0.6359836846246221,-0.5966666666666667,-0.4577777777777778,-0.07444444444444444,-0.3742400151010523,0.04987724264174683,-0.09436510636550804
1592296661.426258,2.234989669749849,8.383071739614126,0.45923587934267823,-0.6031715104061819,-0.42037492627556516,-0.07444444444444444,-0.2851851063721222,0.09522001665164251,-0.8437207360822735
1592296661.436258,1.8849914760337787,8.765560401221107,0.5029778376878247,-0.6055555555555555,-0.4066666666666667,-0.07444444444444444,-0.36896578169525024,0.020954736941434016,-1.0549853815097576
1592296661.446258,3.011828121753584,8.702364689382922,2.1864666008726363,-0.6055555555555555,-0.4066666666666667,-0.07444444444444444,-0.6445291985811946,-0.03599939894503977,-0.8611005278399431
1592296661.456258,3.5241279907754395,9.562247045258,0.8455693283366963,-0.6055555555555555,-0.4066666666666667,-0.07444444444444444,-0.5387334631096697,-0.2135059915536015,-0.832132825659475
1592296661.466258,3.2277422963490285,10.06118722668565,0.5682444828638258,-0.6055555555555555,-0.4066666666666667,-0.07444444444444444,-0.6438109680991757,-0.2492028160485931,-0.7994621926473297
1592296661.476258,2.8019343721038,9.273222312326228,1.4678090245597777,-0.6185878771496242,-0.4204230061270724,-0.08240864097415303,-0.7936042892689696,-0.17191471649146808,-0.7843425900047011
1592296661.486258,2.7426294917449012,9.002733085140823,1.8335059889932017,-0.6255555555555555,-0.42777777777777776,-0.08666666666666667,-0.7760300493108645,-0.1718088940235411,-0.7386549696522191
1592296661.496258,2.509160241132763,8.708045703070237,2.1248885461937475,-0.6255555555555555,-0.42777777777777776,-0.08666666666666667,-0.36917640854009875,-0.0675925120407109,-0.5880493952478154
1592296661.506258,2.3192122082585276,8.575086535008976,2.0688251346499102,-0.6255555555555555,-0.42777777777777776,-0.08666666666666667,-0.4801269950878643,-0.030946614706961743,-0.7435139431482757
1592296661.516258,2.468354175309666,8.771916671605524,2.204791679013809,-0.6255555555555555,-0.42777777777777776,-0.08666666666666667,-0.5725869238491545,-0.017198508894398418,-0.789037800177688
1592296661.526258,2.846665747922983,9.18025711698232,2.2278158837657993,-0.6065668298530448,-0.43206555454931245,-0.09830491790368942,-0.36468641663266815,0.09346100872500634,-0.6939499322496893
1592296661.536258,2.7473922957895596,9.237389445394575,1.6878288134212884,-0.5911111111111111,-0.43555555555555553,-0.10777777777777778,-0.3335128723400662,0.0231464626568988,-0.6645057914285406
1592296661.546258,2.8283618390928433,9.12,2.4353376249090957,-0.5911111111111111,-0.43555555555555553,-0.10777777777777778,-0.49462646044624337,0.05568046670994124,-0.6450010697723046
1592296661.556258,2.668854151728094,9.297728380897748,2.4972034992112433,-0.5911111111111111,-0.43555555555555553,-0.10777777777777778,-0.2812752460995167,0.1166957411449023,-0.589171425095664
1592296661.566258,2.544366241046403,9.292996989515208,2.385532025329596,-0.5911111111111111,-0.43555555555555553,-0.10777777777777778,-0.12626074717106336,0.2037079209051497,-0.6134667897808113
1592296661.576258,2.6378841753756723,9.07986364479624,2.5061774163626245,-0.6110959605329156,-0.4497383519194168,-0.12260524670363271,0.050855743938649625,0.2719295570741488,-0.7508042705900929
1592296661.586258,2.725584919384168,9.20087404533883,2.399540550369742,-0.6255555555555555,-0.46,-0.13333333333333333,0.02627210862539925,0.23868022842178788,-0.7419443789847094
1592296661.596258,2.455046105108333,9.203611755388359,1.9809619844996322,-0.6255555555555555,-0.46,-0.13333333333333333,0.07667672771782132,0.12329340619997044,-0.8073234795295501
1592296661.606258,2.319306355629612,9.120657938586051,1.8173206379433469,-0.6255555555555555,-0.46,-0.13333333333333333,0.231997194933106,0.13094077207852994,-0.8111102990976808
1592296661.616258,2.64643292376375,9.189445572827639,1.6786506324531945,-0.6255555555555555,-0.46,-0.13333333333333333,0.3017527899566146,0.2770025333497329,-0.8644531558171281
1592296661.626258,2.4158363602204407,9.079194326152304,2.0006519288577156,-0.605325268592741,-0.4652207192162102,-0.14899549098196394,0.12147399507213774,0.38317678751016176,-0.9644721977433655
1592296661.636258,2.0920427236315087,9.077263017356476,2.0520872274143303,-0.5911111111111111,-0.4688888888888889,-0.16,0.1001467128539203,0.3538845359115761,-1.042358476323467
1592296661.6462579,2.212216871173502,9.53123293285857,1.6388915644132491,-0.5911111111111111,-0.4688888888888889,-0.16,0.39256911643578407,0.11585630553066913,-0.9679070045291497
1592296661.6562579,2.477452830188679,9.065351629502572,1.7677958833619212,-0.5911111111111111,-0.4688888888888889,-0.16,0.22171463090581695,-0.00863683514923437,-1.0228381584739197
1592296661.6662579,2.241307156958542,9.101291203860649,1.659793407382296,-0.5911111111111111,-0.4688888888888889,-0.16,0.1634256892729682,0.049057475300961315,-1.0999986162637678
1592296661.6762578,1.3242992707703085,9.615245677164602,1.5442155208101138,-0.580886221061682,-0.4767079224560994,-0.1521809664327895,0.2590991100642787,0.34616580296587285,-0.9706825610563402
1592296661.6862578,1.15,9.783288182334333,1.4959501987184687,-0.5722222222222222,-0.48333333333333334,-0.14555555555555555,0.29753517764831144,0.4919359279375902,-0.8547268343803807
1592296661.6962578,1.0028316846635958,9.509098643308414,1.5809013566915855,-0.5722222222222222,-0.48333333333333334,-0.14555555555555555,0.43945080021483207,0.3376000873805407,-0.839476808511294
1592296661.7062578,1.5538159064639459,9.420415444118431,1.7173352894105096,-0.5722222222222222,-0.48333333333333334,-0.14555555555555555,0.49296747228688564,0.2477118179182999,-0.9081286045203809
1592296661.7162578,1.7269281374559808,9.519228745017607,1.821941488332495,-0.5722222222222222,-0.48333333333333334,-0.14555555555555555,0.4907099383457482,0.2714282985668831,-0.9210325297708276
1592296661.7262578,1.0553495073433725,9.735653467187209,1.8019858090103489,-0.5699324533680361,-0.4877856616609173,-0.14262973979742896,0.4976608718693059,0.3529064035061439,-0.9379332086014563
1592296661.7362578,0.8864026770775237,9.60569436698271,1.7716620189626324,-0.5612685133544029,-0.5046322116874264,-0.13155914978000868,0.4820668993027589,0.301399039574216,-0.8835905769301563
1592296661.7462578,0.717455846811675,9.475735266778212,1.741338228914916,-0.5526045733407696,-0.5214787617139356,-0.12048855976258839,0.466472926736212,0.24989167564228806,-0.8292479452588561
1592296661.7562578,0.7376812583469358,9.633840629173468,1.3712562694761834,-0.5522222222222222,-0.5222222222222223,-0.12,0.34140106048748853,-0.04637479547305048,-0.7547883412237454
1592296661.7662578,0.87,9.7,1.68,-0.5522222222222222,-0.5222222222222223,-0.12,0.3534291735288517,-0.04036073895236887,-0.7144941625351786
1592296661.7762578,0.7206295441232211,9.758842906860549,1.4717866372626718,-0.5346196432468442,-0.5368072162303925,-0.12905275490162296,0.3228166000182851,-0.0971421253026134,-0.7258504398052276
1592296661.7862577,0.54,9.83,1.22,-0.5133333333333333,-0.5544444444444444,-0.14,0.28579766501407144,-0.16580627893946132,-0.7395832705325971
1592296661.7962577,0.5205539433731835,9.807902208378618,1.241213879956527,-0.5133333333333333,-0.5544444444444444,-0.14,0.30344248938455426,-0.14160490780836194,-0.7488395718417028
1592296661.8062577,0.4171661942163113,9.690416129791263,1.3540005154003876,-0.5133333333333333,-0.5544444444444444,-0.14,0.39725372890428556,-0.012934847046326081,-0.7980520253602504
1592296661.8162577,0.30943664022126793,9.58413348860907,1.449436640221268,-0.5133333333333333,-0.5544444444444444,-0.14,0.4798837260350035,0.10543718338595558,-0.8411217203746923
1592296661.8262577,0.13389820947667225,9.652822439769999,1.2738982094766722,-0.5133333333333333,-0.5544444444444444,-0.14,0.3878887652685267,0.06297797072450476,-0.7882558379432781
1592296661.8362577,-0.04164022126792344,9.721511390930926,1.0983597787320765,-0.5133333333333333,-0.5544444444444444,-0.14,0.29589380450204994,0.02051875806305392,-0.7353899555118639
1592296661.8462577,-0.28398032479700186,10.004766552154903,1.0383947532792006,-0.5133333333333333,-0.5629766118398223,-0.12986805121798878,0.27052245700627403,-0.0666192877269937,-0.656032428993778
1592296661.8562577,-0.44,10.27,1.08,-0.5133333333333333,-0.5722222222222222,-0.11888888888888889,0.29888763440402893,-0.13526301702956053,-0.6021385919380438
1592296661.8662577,-0.7096853741496598,10.426907854050711,1.0358696660482376,-0.5133333333333333,-0.5722222222222222,-0.11888888888888889,0.2170517989860962,-0.24865646218382031,-0.32614322543050583
1592296661.8762577,-0.9388197424892704,10.491995251575199,1.054247557300703,-0.5097035278361185,-0.5751260666199941,-0.11792094075629826,0.1690514781051039,-0.370795406775313,-0.04212075074087493
1592296661.8862576,-0.52,9.69,1.58,-0.48,-0.5988888888888889,-0.11,0.4723297288209654,-0.40578905108868163,-0.06544984694978735
1592296661.8962576,-0.2043615751789976,9.440471360381862,1.8085202863961816,-0.48,-0.5988888888888889,-0.11,0.46106996000402706,-0.4554251059607146,-0.013324276717940004
1592296661.9062576,0.17184972889233152,9.758625096824167,0.9931750580945004,-0.48,-0.5988888888888889,-0.11,0.4233369217074533,-0.33438512132402853,-0.033421218817131663
1592296661.9162576,0.03938977440362679,9.731720577123737,0.9022818695354945,-0.48,-0.5988888888888889,-0.11,0.42577076478802994,-0.30066397774174014,-0.05990318455839513
1592296661.9262576,-0.6181347130619361,9.804827533924646,0.8977586991130315,-0.4827377252166881,-0.5988888888888889,-0.1074904185513692,0.48101018987951,-0.2874937410772207,-0.05435001732266513
1592296661.9362576,-0.34,9.63,1.16,-0.49333333333333335,-0.5988888888888889,-0.09777777777777778,0.409061543436171,-0.2476185876266955,0.039269908169872414
1592296661.9462576,-0.25158518322178786,9.639823868530913,0.9733464979126631,-0.49333333333333335,-0.5988888888888889,-0.09777777777777778,0.32333211786243055,-0.19564512337261536,0.022124023055124332
1592296661.9562576,-0.1744718609907006,9.665787484717129,0.7365844170278982,-0.49333333333333335,-0.5988888888888889,-0.09777777777777778,0.2342415936649441,-0.12559111341818252,-0.011136003746886128
1592296661.9662576,-0.14265657260839645,9.813564856739232,0.4466488571739052,-0.49333333333333335,-0.5988888888888889,-0.09777777777777778,0.22284257931850446,-0.01488859355119334,-0.07104225626517308
1592296661.9762576,0.10816928513943805,9.896338570278877,0.44549214458168584,-0.4884514270385015,-0.6023469058477281,-0.09513341186807718,0.2087781566241365,0.003946785240997969,-0.0008890314771653144
1592296661.9862576,0.1,9.88,0.47,-0.4666666666666667,-0.6177777777777778,-0.08333333333333333,0.2301652951067522,0.05563236990731925,-0.06326818538479445
1592296661.9962575,0.07249550030657252,9.907504499693427,0.46312387507664315,-0.4666666666666667,-0.6177777777777778,-0.08333333333333333,0.09290269133514792,0.003127548792497943,-0.11952335086496013
1592296662.0062575,-0.007140174917756564,9.90741121720292,0.44741121720292065,-0.4666666666666667,-0.6177777777777778,-0.08333333333333333,0.10057764403490234,-0.006078070958935601,-0.2659241338171294
1592296662.0162575,-0.2575882541720154,9.83173207408766,0.48164657069503025,-0.4666666666666667,-0.6177777777777778,-0.08333333333333333,0.19975166062158234,-0.020199623549688066,-0.36531016213981327
1592296662.0262575,-1.2606693529790152,9.457954073768402,0.8224856480526258,-0.46633524692631656,-0.6181644341415196,-0.0815657613847994,0.21109767417744255,-0.24597921034375392,0.07474382636538555
1592296662.0362575,-0.9603238139162307,9.539403711480343,0.8479386598376075,-0.46294151202165235,-0.6221237915302945,-0.06346584189325684,0.17222677391021818,-0.2515321960962145,0.03587292609816116
1592296662.0462575,-0.6560392021142712,9.653960797885729,0.8084548829599799,-0.46,-0.6255555555555555,-0.04777777777777778,0.14966078901824095,-0.23351922910560274,0.015608723200913137
1592296662.0562575,-0.4687968488899499,9.83744378133206,0.5387968488899498,-0.46,-0.6255555555555555,-0.04777777777777778,0.16366591738929387,-0.09495993143962775,0.01456677042449886
1592296662.0662575,-0.49713422928342127,9.782805375700528,0.5728657707165786,-0.46,-0.6255555555555555,-0.04777777777777778,0.12192632129089868,-0.07098964582767267,-0.07412378861566483
1592296662.0762575,-0.4865801426580307,9.738290071329015,0.5791450356645076,-0.46061747424230004,-0.6266955080028787,-0.04806276588960856,0.1714735906847715,-0.1375645742858722,-0.026906038391043274
1592296662.0862575,-0.4315593998524227,9.710779699926212,0.5653898499631057,-0.4705517750266459,-0.645035755604748,-0.05264782779007588,0.10470320976467397,-0.06929373536757023,0.03161182353892985
1592296662.0962574,-0.4893909771792257,9.771522557051936,0.43421428320264427,-0.47444444444444445,-0.6522222222222223,-0.05444444444444444,0.17491553489229844,-0.15423363027435333,0.08005713706459433
1592296662.1062574,-0.45597273289298146,9.82935151140468,0.24766212214883024,-0.47444444444444445,-0.6522222222222223,-0.05444444444444444,0.07627254374272181,-0.11956514109797266,0.03646284594800944
1592296662.1162574,-0.4150300979403247,9.856646601373116,0.24083834965672077,-0.47444444444444445,-0.6522222222222223,-0.05444444444444444,0.05691923291614337,-0.08011416133610125,-0.02904066761887142
1592296662.1262574,-0.33065918168380665,9.84,0.27024719313142753,-0.47454515275724823,-0.6520574268012705,-0.05422471721650889,-0.04253667140012818,-0.0911926232092962,0.05360676675128242
1592296662.1362574,-0.40754360293597036,9.84245639706403,0.30736919119208894,-0.4866666666666667,-0.6322222222222222,-0.027777777777777776,0.08194548627657253,0.07557172991074305,-0.05300993248555823
1592296662.1462574,-0.40226416806570175,9.845471663868596,0.32886791596714915,-0.4866666666666667,-0.6322222222222222,-0.027777777777777776,0.04334496965108745,0.01747383314223723,-0.03589451472901174
1592296662.1562574,-0.41177979944643583,9.826440401107128,0.32411010027678205,-0.4866666666666667,-0.6322222222222222,-0.027777777777777776,-0.02204867518637517,-0.005362042832749714,-0.04004649217900937
1592296662.1662574,-0.4244445309307439,9.803333203603884,0.3377781237229757,-0.4866666666666667,-0.6322222222222222,-0.027777777777777776,-0.07247952739847845,-0.019998465286754724,-0.03563364989738661
1592296662.1762574,-0.4570919846659791,9.75436202300103,0.46836793866391635,-0.4866666666666667,-0.6322222222222222,-0.027777777777777776,-0.027963468017824164,0.017395024592994867,0.023127548485077025
1592296662.1862574,-0.4873123635896777,9.727312363589679,0.5361258184619335,-0.48,-0.6377777777777778,-0.051111111111111114,0.005097788780996787,0.09157441090733755,-0.03514981971738561
1592296662.1962574,-0.4859110164841195,9.72,0.5711334752738207,-0.48,-0.6377777777777778,-0.051111111111111114,-0.04803122426397244,0.04110259678429824,0.06226979951222181
1592296662.2062573,-0.4867095269306396,9.716202721980183,0.5632904730693604,-0.48,-0.6377777777777778,-0.051111111111111114,0.07289175891788599,0.010287799772184643,0.03483645509695514
1592296662.2162573,-0.43011065273547444,9.700031615067278,0.6198893472645256,-0.48,-0.6377777777777778,-0.051111111111111114,0.12316559135965227,-0.06203595917912827,0.12744614643705093
1592296662.2262573,-0.48208535523205176,9.708680892538675,0.6026382149226494,-0.48,-0.6377777777777778,-0.051111111111111114,0.012472076253548972,-0.007254922758059258,-0.03240540158026545
1592296662.2362573,-0.4805283892778236,9.776301275055234,0.5526419463891181,-0.46737118570376485,-0.6325157718210132,-0.02269627894458198,0.055561839176340375,0.06101599308882264,-0.08565258938942145
1592296662.2462573,-0.48,9.720606168235365,0.5660599064701355,-0.4666666666666667,-0.6322222222222222,-0.021111111111111112,0.15883169043249248,-0.04221139959443058,-0.01471036290537605
1592296662.2562573,-0.48,9.737158586396733,0.45846918842123957,-0.4666666666666667,-0.6322222222222222,-0.021111111111111112,0.17688757768766672,0.02640097197523166,-0.11853171462262813
1592296662.2662573,-0.4400773895820146,9.780232168746043,0.3993808833438834,-0.4666666666666667,-0.6322222222222222,-0.021111111111111112,0.1244578384089118,0.030992508761271343,-0.07715534575152581
1592296662.2762573,-0.44864190472301063,9.805925714169032,0.3308647622159149,-0.4666666666666667,-0.6322222222222222,-0.021111111111111112,0.015151328399332725,-0.04001001056119027,0.07606061699694397
1592296662.2862573,-0.4243417991469562,9.827105467235363,0.31144726638231873,-0.45051150316660205,-0.6369737408987118,-0.041067489552367414,0.016477508644325102,-0.015816623379629205,0.11714968517806015
1592296662.2962573,-0.45475374990942247,9.81262312504529,0.2665578126132219,-0.4477777777777778,-0.6377777777777778,-0.044444444444444446,0.0480677992412223,-0.040145845209173275,0.05364808070994262
1592296662.3062572,-0.4329506617937574,9.77393421572501,0.24196710786250492,-0.4477777777777778,-0.6377777777777778,-0.044444444444444446,0.054326960943931676,0.0378934400499206,-0.1520915654182701
1592296662.3162572,-0.467101713689972,9.76381638105167,0.2523672378966573,-0.4477777777777778,-0.6377777777777778,-0.044444444444444446,0.06128682102088806,-0.00031124962510926946,-0.072937394165564
1592296662.3262572,-0.49,9.781417829875839,0.2742785532505591,-0.4477777777777778,-0.6377777777777778,-0.044444444444444446,0.1316456599644924,-0.03412507675197172,-5.468034307261685e-06
