time,acc_x,acc_y,acc_z,mag_x,mag_y,mag_z,gyr_x,gyr_y,gyr_z
1592296663.9862556,-0.3830717564888087,9.758464121755596,0.5864162840963898,-0.4533333333333333,-0.6444444444444445,-0.035555555555555556,0.021027443489890774,0.06788098434601411,-0.13564250166701108
1592296663.9962556,-0.3895226429621334,9.757064464198223,0.6331742143207112,-0.4533333333333333,-0.6444444444444445,-0.022222222222222223,0.09748226428642648,-0.02979601190162101,0.0447109296616513
1592296664.0062556,-0.30006192176003493,9.80331682086399,0.580049537408028,-0.4533333333333333,-0.6444444444444445,-0.022222222222222223,0.09018795330327148,0.03167191854309062,-0.11380145579328291
1592296664.0162556,-0.12081267545320457,9.843771708616833,0.45868487414949805,-0.4533333333333333,-0.6444444444444445,-0.022222222222222223,0.06680864934241035,-0.021189999099656496,-0.1396452845015367
1592296664.0262556,0.027445285298088536,9.847007567682796,0.3748905705961771,-0.4533333333333333,-0.6444444444444445,-0.022222222222222223,0.06888945584435711,0.01906934673612098,-0.17479553691627356
1592296664.0362556,0.019872316654696354,9.78033197669779,0.35989785332375707,-0.45336028870623074,-0.6444444444444445,-0.02223924666826271,0.0915657165049064,0.09046931448547117,-0.21044120123079563
1592296664.0462556,-0.08,10.04,0.28,-0.47444444444444445,-0.6444444444444445,-0.035555555555555556,0.04145156973486533,0.03599741582238304,-0.1407171709420428
1592296664.0562556,0.08376050538665464,10.008802526933273,0.38307772576005417,-0.47444444444444445,-0.6444444444444445,-0.035555555555555556,0.045012813216781675,0.03487908200193883,-0.22317343219115912
1592296664.0662556,0.11881006864988558,10.105675057208238,0.3068649885583524,-0.47444444444444445,-0.6444444444444445,-0.035555555555555556,0.00039190030400902687,-0.00831976887428075,-0.2502096227576596
1592296664.0762556,0.17853345554537123,10.151583409715858,0.3,-0.47444444444444445,-0.6444444444444445,-0.035555555555555556,-0.11144446193485275,0.026320167026702417,-0.4012854997119083
1592296664.0862556,0.2376789113727702,10.188549319607981,0.3,-0.47444444444444445,-0.6444444444444445,-0.035555555555555556,0.016784434739503307,0.14164552692879623,-0.2859601398098145
1592296664.0962555,0.35,10.23,0.34,-0.4477777777777778,-0.6377777777777778,-0.03,-0.07635815477475191,0.19416787928436915,-0.5454153912482279
1592296664.1062555,0.4357626633050653,10.22,0.2888133165253266,-0.4477777777777778,-0.6377777777777778,-0.03,-0.07692519676757839,0.12614202906624428,-0.6445887981278681
1592296664.1162555,0.36507448330870107,10.259309827104888,0.18807844793206185,-0.4477777777777778,-0.6377777777777778,-0.03,-0.11578377893006761,0.21151852976362012,-0.824146211897453
1592296664.1262555,0.24432696013539554,10.342980880406186,0.28080114617021634,-0.4477777777777778,-0.6377777777777778,-0.03,-0.1546251583151141,0.30629276998011656,-0.9383242966068591
1592296664.1362555,0.22324195251101764,10.279725857533052,0.3581128407929353,-0.4477777777777778,-0.6377777777777778,-0.03,-0.21442561426630818,0.2648924543215976,-0.9107240861678465
1592296664.1462555,0.21171433294759465,10.223265238646293,0.48669390454148265,-0.4533333333333333,-0.6588888888888889,-0.03666666666666667,-0.1484109246485012,0.23005851255489126,-1.0994105351229628
1592296664.1562555,0.2305954878710012,10.127390556118721,0.4837478488413211,-0.4533333333333333,-0.6588888888888889,-0.03666666666666667,-0.2127234717522535,0.3152615653069203,-1.1322995559794882
1592296664.1662555,0.0017708750300216153,10.048399647746377,0.2949715795372668,-0.4533333333333333,-0.6588888888888889,-0.03666666666666667,-0.2103443295282032,0.3098093036179713,-1.10486897385714
1592296664.1762555,-0.14749663526244955,9.988083445491252,0.3410820995962315,-0.4533333333333333,-0.6588888888888889,-0.03666666666666667,-0.3800087410288145,0.42950720648220353,-1.2649526274548404
1592296664.1862555,-0.37330013458950206,9.98055666218035,0.42387671601615073,-0.4533333333333333,-0.6588888888888889,-0.03666666666666667,-0.4029979924292087,0.31702408355884604,-1.400425001778592
1592296664.1962554,-0.46,9.9,0.63,-0.4088888888888889,-0.6588888888888889,-0.051111111111111114,-0.3556108350938446,0.47342055960346185,-1.401717555507946
1592296664.2062554,-0.5449125194401244,9.814197122861586,0.6191096423017107,-0.4088888888888889,-0.6588888888888889,-0.051111111111111114,-0.3797253205647558,0.6005048904706345,-1.5352775278224542
1592296664.2162554,-0.44194717444717446,9.743716216216216,0.43371621621621625,-0.4088888888888889,-0.6588888888888889,-0.051111111111111114,-0.44378520660651116,0.46275413747412464,-1.4775068433697127
1592296664.2262554,-0.5566213821618429,9.649551629705202,0.35348279009826555,-0.4088888888888889,-0.6588888888888889,-0.051111111111111114,-0.504522328279786,0.5614263480978607,-1.5733579018247057
1592296664.2362554,-0.8869462492616658,9.604507329646136,0.36849755678462115,-0.4088888888888889,-0.6588888888888889,-0.051111111111111114,-0.4693084034388063,0.653965266866017,-1.5749957587940535
1592296664.2462554,-0.86,9.66,0.39,-0.36777777777777776,-0.6977777777777778,-0.057777777777777775,-0.6490443155853912,0.6981317007977318,-1.600248757922301
1592296664.2562554,-1.2348938223938224,9.607203530060673,0.31559293987865417,-0.36777777777777776,-0.6977777777777778,-0.057777777777777775,-0.6589747564885399,0.6618524017863805,-1.6486565549554744
1592296664.2662554,-1.3709489698298993,9.497133490444968,0.48012436708122364,-0.36777777777777776,-0.6977777777777778,-0.057777777777777775,-0.716513766102828,0.6320857491993207,-1.7059515512033248
1592296664.2762554,-1.7203148849772492,9.207212986965901,0.8308703297500136,-0.36777777777777776,-0.6977777777777778,-0.057777777777777775,-0.6509068137831001,0.5918272224382467,-1.808263126605437
1592296664.2862554,-2.0092465964505193,9.306058046154126,0.663594075739173,-0.36777777777777776,-0.6977777777777778,-0.057777777777777775,-0.6741302794083738,0.6391035631754108,-1.8439277345299643
1592296664.2962554,-2.3933492896849904,8.990058678196418,0.9391306361951822,-0.3088888888888889,-0.7033333333333334,-0.057777777777777775,-0.5427979700732415,0.61811767954625,-1.852029380416925
1592296664.3062553,-2.8055049185002137,8.866514755500642,1.224006558000285,-0.3088888888888889,-0.7033333333333334,-0.057777777777777775,-0.6075076275620283,0.4657243008102812,-1.7927786026157795
1592296664.3162553,-2.8064645259792926,8.75030321103106,1.226756286082351,-0.3088888888888889,-0.7033333333333334,-0.057777777777777775,-0.47233222702591604,0.477884357413805,-1.7667689509723352
1592296664.3262553,-2.9996993859407937,8.53814829071579,1.4309258546421042,-0.3088888888888889,-0.7033333333333334,-0.057777777777777775,-0.412278509487574,0.36481972233653553,-1.589042703581304
1592296664.3362553,-3.268786545687838,8.661159563743011,1.3694202181284942,-0.3088888888888889,-0.7033333333333334,-0.057777777777777775,-0.4340834880095512,0.32372572435280916,-1.7718690619578825
1592296664.3462553,-3.43,8.27,1.47,-0.25,-0.7211111111111111,-0.10666666666666667,-0.43305982065109305,0.25634523388666713,-1.6046120810522868
1592296664.3562553,-4.255631521285475,8.840344063021703,1.244276137312187,-0.25,-0.7211111111111111,-0.10666666666666667,-0.2720631732938154,0.15376457243627267,-1.592367124228789
1592296664.3662553,-3.6521474773609315,8.158344113842174,1.466257007330746,-0.25,-0.7211111111111111,-0.10666666666666667,-0.22688621732116238,0.20337620330254536,-1.5208053253974867
1592296664.3762553,-3.8031753197893154,8.366134042781898,1.2520907234225518,-0.25,-0.7211111111111111,-0.10666666666666667,-0.2735446089542299,0.1342281758954186,-1.467673009502141
1592296664.3862553,-4.329172310007524,8.553990110716972,1.267119208857358,-0.25,-0.7211111111111111,-0.10666666666666667,-0.35797131176614777,0.01701440403032875,-1.4791484836707511
1592296664.3962553,-3.89,8.53,1.27,-0.17,-0.7355555555555555,-0.10666666666666667,-0.27052603405912107,-0.03381575425739013,-1.2348204457859882
1592296664.4062552,-4.159612329579135,8.502109069353883,1.6790669828097213,-0.17,-0.7355555555555555,-0.10666666666666667,-0.2948654626201279,-0.017589468550052216,-1.1121091601242452
1592296664.4162552,-4.4062030138233395,8.356532665724348,1.6917929613569391,-0.17,-0.7355555555555555,-0.10666666666666667,-0.19208905232154494,-0.1071200218808766,-0.9772736542529392
1592296664.4262552,-4.319842690194535,8.536893891941228,1.3583945093687924,-0.17,-0.7355555555555555,-0.10666666666666667,-0.2369025714997031,-0.17298315172377635,-1.040471714695526
1592296664.4362552,-4.590069796159422,8.146565849991948,1.2533061903824472,-0.17,-0.7355555555555555,-0.10666666666666667,-0.21888872427767123,-0.33674539919679336,-1.038834092220796
1592296664.4462552,-4.97,8.56,1.99,-0.10222222222222223,-0.7422222222222222,-0.10222222222222223,-0.33815754257390135,-0.17016960206944715,-1.0624691821515482
1592296664.4562552,-4.660208376209097,8.22011576456061,1.9600308705494958,-0.10222222222222223,-0.7422222222222222,-0.10222222222222223,-0.06332150341542686,-0.09705307130866055,-1.1856050973001298
1592296664.4662552,-5.4076180490274055,8.621728252223589,2.0725735772651674,-0.10222222222222223,-0.7422222222222222,-0.10222222222222223,-0.26039982090538744,0.01982907763369055,-0.6989264951403766
1592296664.4762552,-4.620729450190528,7.997893304300489,1.9842787152966794,-0.10222222222222223,-0.7422222222222222,-0.10222222222222223,-0.1312939843947177,-0.02336705613610127,-0.8353358859426875
1592296664.4862552,-4.510795983789996,7.735744269037682,2.0350172382507714,-0.10222222222222223,-0.7422222222222222,-0.10222222222222223,-0.0971632463984031,-0.08055910358938517,-0.8842258619914625
1592296664.4962552,-5.89,8.1,2.23,-0.06333333333333334,-0.7377777777777778,-0.12444444444444444,-0.24107360293171679,0.10799224746714915,-0.7744898555724837
1592296664.5062551,-4.7560880850028395,7.854319085083948,2.201652202125071,-0.06333333333333334,-0.7377777777777778,-0.12444444444444444,-0.03183033429151938,0.1182997976464692,-0.670383598761351
1592296664.5162551,-5.548179895197346,7.876945339166387,2.231506177587616,-0.06333333333333334,-0.7377777777777778,-0.12444444444444444,-0.0007256822445164156,0.2217283868436698,-0.7692000001476492
1592296664.5262551,-5.52,7.52,2.1,-0.06333333333333334,-0.7377777777777778,-0.12444444444444444,0.02181661564992912,0.10799224746714915,-0.7548549014875475
1592296664.5362551,-5.745254017094017,7.680895726495726,1.8667011965811966,-0.06333333333333334,-0.7377777777777778,-0.12444444444444444,-0.030836387720171613,0.15274730033173478,-0.6785080466009015
1592296664.546255,-5.93,7.38,2.49,-0.03,-0.7566666666666667,-0.11888888888888889,0.14944381720201447,0.3327033886614191,-0.56941366846315
1592296664.556255,-6.3926189035459275,7.633986849005607,2.2995098632457944,-0.03,-0.7566666666666667,-0.11888888888888889,0.035652683547984024,0.023983095617440775,-0.5733716209380727
1592296664.566255,-5.869658898456694,7.4234470338477685,1.905396560360661,-0.03,-0.7566666666666667,-0.11888888888888889,0.1716195069830518,-0.019071389838148267,-0.48228060970909964
1592296664.576255,-6.357127977061268,7.28297618350986,2.0371279770612674,-0.03,-0.7566666666666667,-0.11888888888888889,-0.03311991796737937,0.1821342924931474,-0.5581118130119727
1592296664.586255,-6.28349640119375,7.872028790449997,1.9634964011937504,-0.03,-0.7566666666666667,-0.11888888888888889,0.0686182287579677,0.09735250355535817,-0.3242925635203854
1592296664.596255,-6.19,7.87,1.45,0.0011111111111111111,-0.7377777777777778,-0.11888888888888889,0.16471544815696484,0.1636246173744684,-0.2945243112740431
1592296664.606255,-6.0587317514657855,7.457442647463896,1.675031283201511,0.0011111111111111111,-0.7377777777777778,-0.11888888888888889,0.21380965830514204,0.0930516902864637,-0.28020516664749145
1592296664.616255,-5.956603066195434,7.421015856337759,1.6393227624414939,0.0011111111111111111,-0.7377777777777778,-0.11888888888888889,0.2782577101077966,0.10266854728851782,-0.14032698194856175
1592296664.626255,-6.335570165941615,7.475875671738746,1.5995417413043052,0.0011111111111111111,-0.7377777777777778,-0.11888888888888889,0.09599426838139548,0.04800546556889125,-0.24084691643793094
1592296664.636255,-6.096136493376115,7.252954666246727,1.5747727406940808,0.0011111111111111111,-0.7377777777777778,-0.11888888888888889,0.21397631070029863,0.10744679986696459,-0.051715398216788416
1592296664.646255,-6.94,7.53,1.65,0.04888888888888889,-0.7588888888888888,-0.11,0.07635815477475191,0.14398966328953217,0.030543261909900768
1592296664.656255,-6.246471441230968,7.369304358334005,1.776864980262628,0.04888888888888889,-0.7588888888888888,-0.11,0.21382379229475654,-0.03037950108148038,0.09881478658426547
1592296664.666255,-6.19753051261188,7.310926057770545,1.1797558991049633,0.04888888888888889,-0.7588888888888888,-0.11,0.20294855672732248,0.19048349624525876,0.04149228727932995
1592296664.676255,-6.539918210649307,7.407119488756945,0.9172012781076377,0.04888888888888889,-0.7588888888888888,-0.11,0.23146715457843467,0.025847489910632765,0.1314385154571352
1592296664.686255,-6.313679544589278,7.328764843452564,1.2497106546529126,0.04888888888888889,-0.7588888888888888,-0.11,0.0865369612326734,0.10047821331200779,0.39598571396915416
1592296664.696255,-6.67,8.03,1.03,0.04,-0.7511111111111111,-0.10444444444444445,-0.04799655442984406,-0.0839939702522271,0.5061454830783556
1592296664.706255,-6.302121848739495,7.79400269541779,1.0230589028064057,0.04,-0.7511111111111111,-0.10444444444444445,-0.07222555437567624,-0.0128212829113451,0.6235047015659803
1592296664.716255,-6.65566753159789,7.737746993666471,0.8099132278675261,0.04,-0.7511111111111111,-0.10444444444444445,-0.2026960875347463,-0.08979036886070482,0.6960578105505263
1592296664.726255,-6.1986064809181975,7.301716348298657,0.9652544916250964,0.04,-0.7511111111111111,-0.10444444444444445,-0.21618627451814734,-0.21403372300932033,0.8012808843308479
1592296664.736255,-6.171306618679775,7.529425912921349,0.9839123946629214,0.04,-0.7511111111111111,-0.10444444444444445,-0.13295366736340372,-0.0746955762216896,0.8337424009883918
1592296664.746255,-6.03,7.39,1.15,0.09333333333333334,-0.7533333333333333,-0.08444444444444445,-0.04145156973486533,-0.1832595714594046,0.9130253649495337
1592296664.756255,-5.922590089173012,7.4283606824382105,1.15,0.09333333333333334,-0.7533333333333333,-0.08444444444444445,-0.012996960730869252,-0.23263668708398602,1.166606145191028
1592296664.766255,-5.760868491406748,7.827394525779758,0.6888160407383832,0.09333333333333334,-0.7533333333333333,-0.08444444444444445,-0.05668298368222679,-0.13593623529402732,1.117778677256919
1592296664.776255,-5.257847200668497,7.6371383550196965,1.0121501730929927,0.09333333333333334,-0.7533333333333333,-0.08444444444444445,0.0503362998637579,-0.31190343198860143,1.2864826968883576
1592296664.786255,-5.344092945463234,7.844918463652112,0.9314186727196703,0.09333333333333334,-0.7533333333333333,-0.08444444444444445,0.12404898206574684,-0.17641153115428362,1.2080532919644473
1592296664.7962549,-5.236274125054913,8.008811539024746,1.2413489529945818,0.05839996095084688,-0.755329526040904,-0.09642160068986838,0.10076404393736386,-0.04979165712916976,1.2391825868764674
1592296664.8062549,-5.3101866091522885,8.083130626406602,1.1086454426106527,0.05444444444444444,-0.7555555555555555,-0.09777777777777778,0.02122557849114587,-0.1593985175654427,1.2516314533768902
1592296664.8162549,-4.579595848479051,7.945530897264205,1.234469102735795,0.05444444444444444,-0.7555555555555555,-0.09777777777777778,0.11256950553226154,-0.061052376663347355,1.3153102760594706
1592296664.8262548,-4.897884183892682,7.966171289444789,1.1867002434716187,0.05444444444444444,-0.7555555555555555,-0.09777777777777778,0.19823171476313345,-0.023440493832513117,1.4661040676724277
1592296664.8362548,-4.824849128771781,8.023737073239834,1.4103017424564386,0.05444444444444444,-0.7555555555555555,-0.09777777777777778,0.24552485391483198,-0.009002174137176803,1.543315859347254
1592296664.8462548,-4.929832609094804,8.021355652120693,1.3308452169655427,0.004726183432958629,-0.7617703381819914,-0.10606415461302542,0.23608134465352676,-0.08883925111639751,1.5457994176658683
1592296664.8562548,-4.720176275572087,8.08182542249535,1.6703440608069864,0.0011111111111111111,-0.7622222222222222,-0.10666666666666667,0.2697478457694328,0.057214811053383566,1.511645196282246
1592296664.8662548,-4.270079856258734,8.169742463565582,1.719049710521062,0.0011111111111111111,-0.7622222222222222,-0.10666666666666667,0.21783579309401127,-0.09503795138074433,1.3066989860277092
1592296664.8762548,-4.071697579678888,8.456604840642223,1.7345756050802779,0.0011111111111111111,-0.7622222222222222,-0.10666666666666667,0.3428880048924844,-0.017104242353667837,1.275976160673111
1592296664.8862548,-4.115574810739171,8.551002630574912,1.4121259463041427,0.0011111111111111111,-0.7622222222222222,-0.10666666666666667,0.24909305684218544,-0.09030991969224524,1.2508387632148383
1592296664.8962548,-4.131551857355126,8.392589004457651,0.7662151560178306,-0.03737487204886908,-0.7622222222222222,-0.12450163447251114,0.19510842502949105,-0.2450776812851313,1.07917273516666
1592296664.9062548,-4.36311130727871,8.400794478773774,0.8156945670491935,-0.044444444444444446,-0.7622222222222222,-0.12777777777777777,0.09327019003378711,-0.16426812087195108,1.2083073313413446
1592296664.9162548,-3.8843935890279884,8.337770512718285,0.7606945219679451,-0.044444444444444446,-0.7622222222222222,-0.12777777777777777,0.13065484192184346,0.2771330363243032,1.2114194682268673
1592296664.9262547,-4.193203467304549,8.387953485067381,0.8828953414016057,-0.044444444444444446,-0.7622222222222222,-0.12777777777777777,0.19610093074065443,0.24512553692731065,1.2429109829223393
1592296664.9362547,-3.9420340811044,8.53955996548749,1.1612079378774807,-0.044444444444444446,-0.7622222222222222,-0.12777777777777777,0.22986552840767965,0.1302227482219987,1.3200188946351952
1592296664.9462547,-4.601278375149343,8.86415770609319,0.768100358422939,-0.06792512943050577,-0.7680923934687375,-0.08375149342891278,0.2919803427108017,-0.10470411596865623,1.2206500717142033
1592296664.9562547,-4.103761025194795,8.596880512597398,0.9912324486809319,-0.07111111111111111,-0.7688888888888888,-0.07777777777777778,0.35529298711794577,-0.12960301912454214,1.1941096296683629
1592296664.9662547,-3.8422642893272636,8.678500758725342,0.6851236722306525,-0.07111111111111111,-0.7688888888888888,-0.07777777777777778,0.4305055551268589,-0.07888966017264411,1.2324980024940584
1592296664.9762547,-3.985649986888216,9.058823038596325,0.6900307530931891,-0.07111111111111111,-0.7688888888888888,-0.07777777777777778,0.31460694104307296,-0.0683136970840994,1.2453201113977754
1592296664.9862547,-3.489136529410566,9.09527576862737,0.7269448462745257,-0.07111111111111111,-0.7688888888888888,-0.07777777777777778,0.27519175207972946,-0.18462981636544268,1.3510303177447767
1592296664.9962547,-3.2362104581702615,8.897613512638673,0.6031224435747284,-0.1116414416358506,-0.7565535709030986,-0.0892320016217259,0.15893946658284852,-0.30395540894656414,1.541811261591429
1592296665.0062547,-3.2744804937880825,8.93087362506924,0.6104368125346206,-0.12222222222222222,-0.7533333333333333,-0.09222222222222222,0.17127199978435276,-0.30591558168728555,1.6161340405376745
1592296665.0162547,-3.2483199318084957,9.279200170478761,0.9603202159397642,-0.12222222222222222,-0.7533333333333333,-0.09222222222222222,0.12150537675690556,-0.2658572659124709,1.5475528133593568
1592296665.0262547,-2.610445170366485,8.620138296096712,0.4645065452204392,-0.12222222222222222,-0.7533333333333333,-0.09222222222222222,0.11613803979558424,-0.3009537858351353,1.4108465234862144
1592296665.0362546,-2.5136946610903883,8.458951056855431,0.3610606231867676,-0.12222222222222222,-0.7533333333333333,-0.09222222222222222,0.12808743753047333,-0.2664411212271885,1.4295134165920473
1592296665.0462546,-2.677698786724155,9.438076138908386,0.8077409004311642,-0.15313810250639692,-0.7701162397733139,-0.08780566789591156,0.044011972239347316,-0.2959119221150148,1.5418779174754147
1592296665.0562546,-2.4752706317362914,9.500226575407128,0.6353335693493825,-0.16111111111111112,-0.7744444444444445,-0.08666666666666667,-0.008690946031388647,-0.3855365946124738,1.4874226051053705
1592296665.0662546,-2.453488372093023,9.416744186046511,0.7495348837209302,-0.16111111111111112,-0.7744444444444445,-0.08666666666666667,-0.06631236431269152,-0.43963017350380423,1.2890829351757536
1592296665.0762546,-2.215987801391404,9.556404269513008,1.3056170780520346,-0.16111111111111112,-0.7744444444444445,-0.08666666666666667,-0.08796506003213582,-0.36141096106809645,1.3765029702633653
1592296665.0862546,-2.005303396845073,9.265026291061039,1.0258178219405403,-0.16111111111111112,-0.7744444444444445,-0.08666666666666667,-0.024902006866142384,-0.43576821802708726,1.361479122552103
1592296665.0962546,-1.8884881563485683,9.212459026532253,1.032841548642464,-0.2109876581386879,-0.7572738298939672,-0.060501920684987054,-0.05112797885932984,-0.48152926631539245,1.3422782070836567
1592296665.1062546,-1.741083429206173,9.363133256635061,1.1758638473439917,-0.2288888888888889,-0.7511111111111111,-0.051111111111111114,-0.01980104320872013,-0.4135646012667035,1.423582898712169
1592296665.1162546,-1.5195751241181081,9.579239090671544,1.300424875881892,-0.2288888888888889,-0.7511111111111111,-0.051111111111111114,0.11443695668021457,-0.39984657439162313,1.4094709196174309
1592296665.1262546,-1.2906650393663102,9.759524971881207,1.3947624859406036,-0.2288888888888889,-0.7511111111111111,-0.051111111111111114,0.06921527149307641,-0.4341299244218082,1.4486291265742344
1592296665.1362545,-1.1273701049398515,9.717370104939851,1.440136933708728,-0.2288888888888889,-0.7511111111111111,-0.051111111111111114,0.05943380490068513,-0.4159039449448314,1.4967542679393153
1592296665.1462545,-0.76,9.516800911555539,1.4666237083022278,-0.2540943599683924,-0.7370257008019767,-0.051111111111111114,0.15347574653174634,-0.30577279920669204,1.4405154889586775
1592296665.1562545,-0.6744072788896062,9.553062056165267,1.3488851678502258,-0.26666666666666666,-0.73,-0.051111111111111114,0.16018997926347364,-0.2692653551492177,1.4122087473175087
1592296665.1662545,-0.2093851466124586,9.423316254072569,1.357298599314973,-0.26666666666666666,-0.73,-0.051111111111111114,0.18085589206730393,-0.29838211782464363,1.4506428546448389
1592296665.1762545,-0.255021978021978,9.82896751075012,1.3006282847587196,-0.26666666666666666,-0.73,-0.051111111111111114,0.25452542794149613,-0.10976363574404785,1.4285627290756193
1592296665.1862545,-1.2012980256859522,13.041902422282835,1.8936935748992973,-0.26666666666666666,-0.73,-0.051111111111111114,-0.0803796339487845,-0.11171170438301967,0.8934317497671043
1592296665.1962545,0.12946615824594865,10.446970306817782,3.340283162094411,-0.2935258349123406,-0.7155877633803701,-0.051111111111111114,0.030773883479847053,-0.24575813245671796,0.3395264826343841
1592296665.2062545,1.2643667175327284,7.810328487671673,3.0216103124247047,-0.31222222222222223,-0.7055555555555556,-0.051111111111111114,0.21935029181823923,-0.1823443985131386,0.24724677123918326
1592296665.2162545,-0.43247621720218893,9.498258453767363,1.1395170478462187,-0.31222222222222223,-0.7055555555555556,-0.051111111111111114,0.02686783408914073,-0.00307529487587882,0.12580525241939539
1592296665.2262545,-0.6660296166553878,9.062862943354165,1.435562676645038,-0.31222222222222223,-0.7055555555555556,-0.051111111111111114,0.04244526312392822,-0.07641855625631923,0.12019234801328271
1592296665.2362545,-0.057707318102229815,10.243150644473978,0.3348378794591059,-0.31222222222222223,-0.7055555555555556,-0.051111111111111114,-0.09372255251350449,-0.06267441058824663,0.19750485083892463
1592296665.2462544,-0.3432719443524346,9.978940046372971,0.6329493209672077,-0.32952125427845863,-0.6900460785396194,-0.04753200103051047,-0.04560879485944009,-0.07696640404247451,0.06659343072805873
1592296665.2562544,-0.41980293569053606,9.891192928391858,0.6943775849485038,-0.34444444444444444,-0.6766666666666666,-0.044444444444444446,-0.10777949521413607,-0.0810088924868747,0.025250905864678725
1592296665.2662544,-0.20202204707636595,9.801911811694536,0.7327867717541804,-0.34444444444444444,-0.6766666666666666,-0.044444444444444446,-0.1991837083662344,-0.1333287936218817,0.3025122156519715
1592296665.2762544,-0.22364857962359042,9.78898707319948,0.65890181132372,-0.34444444444444444,-0.6766666666666666,-0.044444444444444446,-0.1838106229454192,-0.15821105191631107,0.4020559847916929
1592296665.2862544,-0.18370108705548172,10.124590578852493,0.5903559788051495,-0.34444444444444444,-0.6766666666666666,-0.044444444444444446,-0.3245513060687625,-0.2697108754562031,0.5439131278316953
1592296665.2962544,-0.18227755487373143,9.9300259617654,0.7522775548737315,-0.3577806624183778,-0.6808580494584743,-0.03682374845933968,-0.3502110038849514,-0.3238111997549652,0.621799291380131
1592296665.3062544,0.06360618005767348,9.926299372999287,0.7534487684859388,-0.38333333333333336,-0.6888888888888889,-0.022222222222222223,-0.39069256370946,-0.3252049406943194,0.5956279491206589
1592296665.3162544,0.1708948226661231,9.81,0.8364329392580514,-0.38333333333333336,-0.6888888888888889,-0.022222222222222223,-0.4537473619607211,-0.33831051680511975,0.6280283688404295
1592296665.3262544,0.22802849371843026,9.756128221732936,0.9780284937184303,-0.38333333333333336,-0.6888888888888889,-0.022222222222222223,-0.3737506686194172,-0.276324828900346,0.7795346901036619
1592296665.3362544,0.3474847348687734,9.814433136939833,1.0361031958578826,-0.38333333333333336,-0.6888888888888889,-0.022222222222222223,-0.38205404562019396,-0.32688266419031964,0.8097022861151077
1592296665.3462543,0.5132722965859527,9.864146488193713,1.1891258083922396,-0.3900564412359419,-0.6868202403034709,-0.025842357246703765,-0.41277539651649403,-0.3641667365595791,0.8588671915685818
1592296665.3562543,0.563404052443385,9.823404052443385,1.237092570520461,-0.3977777777777778,-0.6844444444444444,-0.03,-0.3517774121616174,-0.3816282543888823,0.963833939853048
1592296665.3662543,0.6657202406078514,9.679749894470241,1.1172024060785142,-0.3977777777777778,-0.6844444444444444,-0.03,-0.38070903718495425,-0.5265271888819553,1.1064848834044292
1592296665.3762543,0.6931479820627803,9.545243783122707,1.1663130860171218,-0.3977777777777778,-0.6844444444444444,-0.03,-0.3865562769302394,-0.5947985859332618,1.136252833977998
1592296665.3862543,0.8429239100576855,9.828001805124986,1.161154887572107,-0.3977777777777778,-0.6844444444444444,-0.03,-0.31736575052259675,-0.457435049397258,0.9947446985373061
1592296665.3962543,0.8848920265780731,9.61453488372093,1.1888538205980068,-0.4057013658176449,-0.675640457733481,-0.024277408637873754,-0.1959200941791766,-0.46753967703769406,1.1522760845470454
1592296665.4062543,1.0622485605324161,9.553609885590369,1.3610057578703358,-0.4177777777777778,-0.6622222222222223,-0.015555555555555555,-0.1555691668891002,-0.4004963234918024,1.2888389196006518
1592296665.4162543,1.258191072826938,9.668723570869224,1.3307293880747288,-0.4177777777777778,-0.6622222222222223,-0.015555555555555555,-0.24720880915397786,-0.5608922775310852,1.1802590156870578
1592296665.4262543,1.4331185298130165,9.596881470186982,1.3879315464248456,-0.4177777777777778,-0.6622222222222223,-0.015555555555555555,-0.35215787988959285,-0.6629561503795273,1.1862467866347246
1592296665.4362543,1.5780591032341729,9.384869729241169,1.6484402876566984,-0.4177777777777778,-0.6622222222222223,-0.015555555555555555,-0.08935733233866594,-0.36031824981384497,1.2827338386754525
1592296665.4462543,1.8060191497510532,9.028641133665262,1.8910670241286862,-0.4352480105536406,-0.6549784671688157,-0.02365151708583344,-0.039778266230439896,-0.32220843509773445,1.2945937948392088
1592296665.4562542,1.8855276039159043,8.932162975445353,2.1346188412774834,-0.4633333333333333,-0.6433333333333333,-0.03666666666666667,-0.03514826244242813,-0.23280860340155463,1.2805247412592742
1592296665.4662542,2.2153994670147386,9.096654157828901,1.6441447762005765,-0.4633333333333333,-0.6433333333333333,-0.03666666666666667,0.061401783230155924,-0.24540797487761284,1.2893742654335703
1592296665.4762542,2.417216706934909,9.152744779082841,1.7518426907159774,-0.4633333333333333,-0.6433333333333333,-0.03666666666666667,0.08309994462155201,-0.35645864726338533,1.2783090610488013
1592296665.4862542,2.44881401907773,9.216490559936767,1.765304579014497,-0.4633333333333333,-0.6433333333333333,-0.03666666666666667,0.10170776727973338,-0.2968071255596649,1.3701552024727013
1592296665.4962542,2.4418734587472697,9.301094905939548,1.7910949059395478,-0.4745005362580928,-0.6282035745320463,-0.027660857856376776,0.11023827673314542,-0.1315472906143859,1.4184038156027983
1592296665.5062542,2.55,9.22,1.71,-0.49777777777777776,-0.5966666666666667,-0.008888888888888889,0.07853981633974483,-0.13744467859455345,1.421352509592882
1592296665.5162542,2.5301535575119067,8.873282147496031,1.4671052099870112,-0.49777777777777776,-0.5966666666666667,-0.008888888888888889,0.09523480120878194,-0.13526301702956053,1.5717476433272202
1592296665.5262542,2.8411795399602675,8.88376145910625,1.2125819191459823,-0.49777777777777776,-0.5966666666666667,-0.008888888888888889,0.12531687213730802,-0.02204251545438013,1.5985503318613279
1592296665.5362542,2.933696814865188,8.823650315205205,1.2515159256740613,-0.49777777777777776,-0.5966666666666667,-0.008888888888888889,0.10633279490051467,-0.09643111323589797,1.4677106626116287
1592296665.5462542,2.8818356839853525,8.85827344911352,1.4016848555164787,-0.5040365146699217,-0.5837580218266198,-0.006150691498575911,0.039924541109645495,-0.3193116521538644,1.4464937841470646
1592296665.5562541,2.83,9.26,1.46,-0.5155555555555555,-0.56,-0.0011111111111111111,-0.06326818538479445,-0.2585268954516601,1.5489797111449675
1592296665.5662541,2.712559968541093,9.350853322847032,1.3984304252570081,-0.5155555555555555,-0.56,-0.0011111111111111111,0.09547909905104927,-0.10194258242920759,1.447100307556092
1592296665.5762541,2.787151762682717,9.163399971338492,1.1494482659787906,-0.5155555555555555,-0.56,-0.0011111111111111111,0.27056441166833617,-0.01854412330243975,1.6235534243344232
1592296665.5862541,3.0168028000623774,9.071523920087328,1.225129520212084,-0.5155555555555555,-0.56,-0.0011111111111111111,0.22974805653790967,-0.07755819527189264,1.5094104307580214
1592296665.596254,3.2058697347893914,9.102398595943837,1.3823985959438376,-0.5252743109724389,-0.5552591436990814,7.410296411856465e-05,0.07539835982728234,-0.12188076965692948,1.3528071537610962
1592296665.606254,3.67,8.89,1.17,-0.5611111111111111,-0.5377777777777778,0.0044444444444444444,0.09599310885968812,0.08835729338221293,1.7235126363444004
1592296665.616254,3.647651192796552,9.539167375847587,1.0241104126060339,-0.5611111111111111,-0.5377777777777778,0.0044444444444444444,0.037412348550111316,-0.008561256345574968,1.3939746543281564
1592296665.626254,3.77,9.27,0.81,-0.5611111111111111,-0.5377777777777778,0.0044444444444444444,0.1341721862470641,-0.05126904677733343,1.263182046130896
1592296665.636254,4.137794843227757,8.228859024351424,0.6571102578386122,-0.5611111111111111,-0.5377777777777778,0.0044444444444444444,0.03450854812715049,-0.05452083538921677,1.2126099817149076
1592296665.646254,4.428920980293469,8.24661659375121,0.8589697626698672,-0.5675163145645936,-0.523899836961899,0.003110027058302253,0.06096924335664028,-0.09630854558253708,1.3106547872425587
1592296665.656254,4.9,9.09,1.52,-0.5877777777777777,-0.48,-0.0011111111111111111,-0.22580197197676635,-0.13526301702956053,1.1399181677087964
1592296665.666254,4.070861370933966,8.891300851598492,0.6052184838754712,-0.5877777777777777,-0.48,-0.0011111111111111111,0.10988983312237395,-0.05719958444715277,0.9255460860545586
1592296665.676254,4.515489294438856,8.895250754418738,0.8693792211524645,-0.5877777777777777,-0.48,-0.0011111111111111111,0.13461602693691013,0.12650118015158768,0.9384867567676776
1592296665.686254,4.46,8.64,1.28,-0.5877777777777777,-0.48,-0.0011111111111111111,0.20180369476184434,0.19853120241435498,0.9457502884244272
1592296665.696254,5.081796473181484,9.050415135929464,0.41155767817781047,-0.5891750346967098,-0.4738121479304433,0.0012841864642011592,0.07701617980960099,0.1989764312899441,0.6725340460468276
1592296665.706254,5.09,8.55,0.51,-0.5955555555555555,-0.44555555555555554,0.012222222222222223,-0.1341721862470641,0.33052172709642613,0.789761486527434
1592296665.716254,4.779193404994746,8.72483957003152,1.0488695816158842,-0.5955555555555555,-0.44555555555555554,0.012222222222222223,0.04510265991556415,0.22916245019032958,0.6026481987862689
1592296665.726254,4.715054976036087,8.868534912132318,0.8737176957052909,-0.5955555555555555,-0.44555555555555554,0.012222222222222223,0.09199544623164431,0.27652155413665963,0.551880314027867
1592296665.736254,4.811502704685064,8.884026771797927,1.0911176308792518,-0.5955555555555555,-0.44555555555555554,0.012222222222222223,0.002669320031615515,0.3606330372185207,0.638936903781902
1592296665.746254,4.9903596604805065,9.154853977844914,0.9029157675154653,-0.6032590434629709,-0.4401810291085215,0.010968166051247622,-0.04779066031581222,0.380675461778924,0.43563800885681
1592296665.756254,4.42,8.92,0.71,-0.6433333333333333,-0.4122222222222222,0.0044444444444444444,0.032724923474893676,0.2159844949342983,0.2901609881440573
1592296665.766254,4.805125906040269,8.456066040268455,0.9881589261744966,-0.6433333333333333,-0.4122222222222222,0.0044444444444444444,-0.20285118515351946,0.23843900499859305,0.0794139451681346
1592296665.776254,4.997765765765766,8.501646846846846,0.9373405405405405,-0.6433333333333333,-0.4122222222222222,0.0044444444444444444,-0.2348360163167064,0.27224345376677045,0.10709874895593673
1592296665.786254,4.9565994484043125,8.944476521365377,0.9775504136967657,-0.6433333333333333,-0.4122222222222222,0.0044444444444444444,-0.22789248026923647,0.2812258185169814,0.08067537380633358
1592296665.796254,4.7281646695013535,8.46934518747584,1.1716567452647855,-0.6426890435081389,-0.41047343555383753,0.0044444444444444444,-0.11786112469221728,0.2402608981577764,0.05890486225480862
1592296665.806254,5.04,9.68,1.19,-0.6355555555555555,-0.39111111111111113,0.0044444444444444444,-0.1908953869368798,0.062177354602297986,0.05890486225480862
1592296665.816254,4.807243218942005,8.807608871572006,0.7979046905439832,-0.6355555555555555,-0.39111111111111113,0.0044444444444444444,-0.2759909442529593,0.16657487899537946,-0.2732369765933283
1592296665.826254,4.67,8.83806186355596,1.1208581536549218,-0.6355555555555555,-0.39111111111111113,0.0044444444444444444,-0.29027879599115103,0.132811033651637,-0.331632609723636
1592296665.836254,4.67,9.21,0.89,-0.6355555555555555,-0.39111111111111113,0.0044444444444444444,-0.2748893571891069,0.1810779098944117,-0.4974188368183839
1592296665.8462539,4.945179481497895,8.552942610237093,1.1261164044611862,-0.6363658484542597,-0.39098041870809436,0.004967214056511641,-0.3119267241397175,0.23426028143777913,-0.25412352926835413
1592296665.8562539,4.33,8.26,1.38,-0.67,-0.38555555555555554,0.02666666666666667,-0.21925698728178766,-0.0032724923474893677,-0.56941366846315
1592296665.8662539,4.415879415870289,8.277195586814132,1.2667897025663053,-0.67,-0.38555555555555554,0.02666666666666667,-0.22312654930755207,0.19788713436267963,-0.6247321009491457
1592296665.8762538,4.653786798884413,8.364937903744845,1.1975735977688255,-0.67,-0.38555555555555554,0.02666666666666667,-0.20954437831268627,0.33171742595228937,-0.5202214151774427
1592296665.8862538,4.630426747548847,8.575368554701276,1.4048642166890033,-0.67,-0.38555555555555554,0.02666666666666667,-0.17991090485257463,0.2534586526479886,-0.6128776236311403
1592296665.8962538,4.304989066798335,8.294308739507652,1.5084125696550752,-0.67,-0.38555555555555554,0.02666666666666667,-0.23800139502570572,0.1671297297518077,-0.7419676017936538
1592296665.9062538,4.63,8.51,1.26,-0.6288888888888889,-0.40444444444444444,0.02666666666666667,-0.18216874067690814,0.2159844949342983,-0.8737554567796613
1592296665.9162538,4.35617381294964,8.234459856115107,1.7668074820143884,-0.6288888888888889,-0.40444444444444444,0.02666666666666667,-0.14721739233642187,0.4476566746707759,-0.8469468227792617
1592296665.9262538,4.271171518264841,8.602866010273972,1.806234303652968,-0.6288888888888889,-0.40444444444444444,0.02666666666666667,-0.08361059179656376,0.45934934060550525,-0.9582491576579165
1592296665.9362538,4.252036771728749,8.814477077363897,1.8510458452722063,-0.6288888888888889,-0.40444444444444444,0.02666666666666667,0.001282924312126614,0.3646577240584675,-1.1021313518205704
1592296665.9462538,3.9616646751776616,8.795065404691528,1.9576932268410792,-0.6298718459356155,-0.4024785303509912,0.02764962371339329,0.15280580006933067,0.3838193857264231,-1.211066012229728
1592296665.9562538,3.74,8.94,2.06,-0.6355555555555555,-0.39111111111111113,0.03333333333333333,-0.004363323129985824,0.47123889803846897,-1.1115565673638887
1592296665.9662538,3.2874132563966287,9.180481613646142,2.074893832409587,-0.6355555555555555,-0.39111111111111113,0.03333333333333333,0.033386991751810896,0.46524977794009303,-1.316795165768073
1592296665.9762537,3.222517642571047,8.956258821285523,1.5955388136563036,-0.6355555555555555,-0.39111111111111113,0.03333333333333333,0.07199072256447726,0.30859114948557537,-1.4814226341984569
1592296665.9862537,3.324148889770024,9.086768041237113,1.9374670896114194,-0.6355555555555555,-0.39111111111111113,0.03333333333333333,0.1437658526676437,0.34939958752486683,-1.5458547750708518
1592296665.9962537,3.1306417736289385,9.241327151016396,1.964461094392925,-0.6317784738002142,-0.39420145072911766,0.03101557861982845,0.11908337646790641,0.22703281604523087,-1.585379480936501
1592296666.0062537,2.78,8.66,1.54,-0.5866666666666667,-0.4311111111111111,0.0033333333333333335,0.16035212502697901,0.15053464798451094,-1.538071403320003
1592296666.0162537,2.8141115140525836,8.693118766999094,2.0676881233000906,-0.5866666666666667,-0.4311111111111111,0.0033333333333333335,0.2405548896539113,0.24171000330210338,-1.6119254932341194
1592296666.0262537,2.3532786690715777,8.854725175621796,1.9761716821720143,-0.5866666666666667,-0.4311111111111111,0.0033333333333333335,0.35620621496701377,0.2838358471695304,-1.6601045504102272
1592296666.0362537,2.4779079281855734,8.830920718144265,1.7851048617731173,-0.5866666666666667,-0.4311111111111111,0.0033333333333333335,0.37506333412535325,0.3109414532008572,-1.6930201550857977
1592296666.0462537,2.445702034639314,8.90928535395998,1.8714242475197578,-0.586110830857762,-0.4334138594622872,0.004842030528931488,0.4105394017873689,0.2759790874192753,-1.8935993301384668
1592296666.0562537,2.13,8.9,1.76,-0.5788888888888889,-0.4633333333333333,0.024444444444444446,0.34470252726888007,0.2476185876266955,-1.7649642060792656
1592296666.0662537,1.783552560922597,8.76350269772675,1.5508719666555861,-0.5788888888888889,-0.4633333333333333,0.024444444444444446,0.38806128660975997,0.04998092532757542,-1.7171540638548946
1592296666.0762537,1.7620152515577048,9.29580419417837,1.4001843671533525,-0.5788888888888889,-0.4633333333333333,0.024444444444444446,0.36597268772327185,-0.024213947841127507,-1.9332926444467768
1592296666.0862536,1.419367915154219,9.221912477440027,1.7148946525257032,-0.5788888888888889,-0.4633333333333333,0.024444444444444446,0.3655255540830581,-0.07526732399225547,-2.0957670411509515
1592296666.0962536,1.2607776083641908,9.277137878457852,1.6836397299063384,-0.5773694910331809,-0.46481739635518765,0.02490379728454222,0.2598952453702828,-0.07478166550403444,-2.028347924015136
1592296666.1062536,0.98,9.19,1.49,-0.5311111111111111,-0.51,0.03888888888888889,0.2683443724941282,-0.05999569303730508,-1.8773197766764007
1592296666.1162536,0.9778260163921123,9.568461413616815,1.4901671670859369,-0.5311111111111111,-0.51,0.03888888888888889,0.2879428563784323,0.0894517534807917,-2.023706293418636
1592296666.1262536,0.6507083383612887,9.159127549173405,1.283527211294799,-0.5311111111111111,-0.51,0.03888888888888889,0.32702309171957405,0.010551191388025634,-1.8347635548446717
1592296666.1362536,0.2428611094583606,9.332888875666885,1.268597211479344,-0.5311111111111111,-0.51,0.03888888888888889,0.3066840424302134,-0.04564824266914756,-1.8389437608583499
1592296666.1462536,0.2594982249459551,9.46598579956764,1.3767384621487078,-0.5311111111111111,-0.51,0.03888888888888889,0.32664714790661165,-0.0002775484046061566,-1.6665351226530922
1592296666.1562536,0.13,9.71,1.33,-0.4722222222222222,-0.5422222222222223,0.06,0.3850632662212489,-0.10144726277217041,-1.6395186660921732
1592296666.1662536,0.001725193499415148,9.464884646972449,1.3078736218610787,-0.4722222222222222,-0.5422222222222223,0.06,0.35758242601363316,-0.11937977046775958,-1.6141855796909745
1592296666.1762536,-0.3056895529467568,9.572827463536107,1.3200519388118108,-0.4722222222222222,-0.5422222222222223,0.06,0.36338386784797966,-0.22625706042203841,-1.4579762250100348
1592296666.1862535,-0.2340214310126455,9.495705956856517,1.4754624957278704,-0.4722222222222222,-0.5422222222222223,0.06,0.3092117651842187,-0.174974775154314,-1.4797294896626627
1592296666.1962535,-0.3352087814881084,9.681216099394865,1.2983846323958104,-0.4722222222222222,-0.5422222222222223,0.06,0.38371710195529607,-0.11518654194295566,-1.5625131971860822
1592296666.2062535,-0.36,9.81,1.12,-0.43666666666666665,-0.6022222222222222,0.07444444444444444,0.3534291735288517,-0.0818123086872342,-1.4748032179352084
1592296666.2162535,-0.4101077785640411,9.751437047520549,1.1099281476239726,-0.43666666666666665,-0.6022222222222222,0.07444444444444444,0.23930342998044657,-0.10353486979688384,-1.4771024476755508
1592296666.2262535,-0.5735432919194838,10.689309448136378,1.2004300298564963,-0.43666666666666665,-0.6022222222222222,0.07444444444444444,0.24333390138784888,-0.11820944890716162,-1.37790363111163
1592296666.2362535,-1.5916822411364402,13.064514612225462,2.1255006646429777,-0.43666666666666665,-0.6022222222222222,0.07444444444444444,-0.35802073508576077,-0.4294396683291969,-0.3665084300398668
1592296666.2462535,-2.4071920322203044,3.6778304862805786,3.407016050631907,-0.43666666666666665,-0.6022222222222222,0.07444444444444444,0.7076636092792999,-0.6817908163134276,0.4858574978637039
1592296666.2562535,-1.43,9.96,0.95,-0.41,-0.6144444444444445,0.11666666666666667,0.3425208657038872,-0.17235126363444003,0.4745113903859583
1592296666.2662535,-0.1082733401004659,12.317803024387704,2.8839566903516305,-0.41,-0.6144444444444445,0.11666666666666667,0.3159950613662727,-0.25464094742323057,-0.08026000205718829
1592296666.2762535,0.44141646431462167,10.24652668666381,0.15160548493072418,-0.41,-0.6144444444444445,0.11666666666666667,0.457472450481487,-0.36212377471941426,-0.20369575615337632
1592296666.2862535,-1.5391754004350406,9.026035989717224,0.6830179948586118,-0.41,-0.6144444444444445,0.11666666666666667,0.40668673773776953,-0.4136159614821571,-0.03193043110034534
1592296666.2962534,-0.8756515720783072,9.4573264781491,0.8986632390745501,-0.41,-0.6144444444444445,0.11666666666666667,0.4048772571955409,-0.13947965933453205,0.03682982950433952
1592296666.3062534,-0.23,10.04,0.94,-0.38222222222222224,-0.6344444444444445,0.12444444444444444,0.2596177262341565,-0.3327033886614191,0.0370882466048795
1592296666.3162534,0.15439736384587402,9.825452634132535,0.7790894755994016,-0.38222222222222224,-0.6344444444444445,0.12444444444444444,0.32007673457369445,-0.22641255141932815,-0.15696566725912128
1592296666.3262534,-0.2452464152307507,10.085483311242317,0.7122289432461743,-0.38222222222222224,-0.6344444444444445,0.12444444444444444,0.3830408062761813,-0.35161118356393245,-0.34873028093414565
1592296666.3362534,-0.5602047116165719,9.848822502030869,0.3255375710804224,-0.38222222222222224,-0.6344444444444445,0.12444444444444444,0.4124205889085022,-0.18134224362505239,-0.14611454582740205
1592296666.3462534,0.2575304630381804,9.55920796100731,0.6747786352558895,-0.38222222222222224,-0.6344444444444445,0.12444444444444444,0.33901554168450426,-0.21479264489168437,-0.10058483299226409
1592296666.3562534,0.02,10.23,0.56,-0.3622222222222222,-0.6288888888888889,0.15222222222222223,0.17562375598192942,-0.18980455615438332,-0.20616701789183017
1592296666.3662534,0.1800286944045911,10.19014825442372,0.5198756575801052,-0.3622222222222222,-0.6288888888888889,0.15222222222222223,0.203948838797055,-0.2846708383807896,-0.22365108947258996
1592296666.3762534,0.2308756369579848,10.483898182867032,0.2777119988462648,-0.3622222222222222,-0.6288888888888889,0.15222222222222223,0.12300192066928917,-0.2068634044311799,-0.291726389572722
1592296666.3862534,0.07,10.2,0.59,-0.3622222222222222,-0.6288888888888889,0.15222222222222223,0.04145156973486533,-0.16144295580947549,-0.35779249665883756
1592296666.3962533,0.3364535716722385,9.714114075185918,0.5586525209797367,-0.3622222222222222,-0.6288888888888889,0.15222222222222223,0.13463238629779523,-0.03064786467068395,-0.30821004380883815
1592296666.4062533,-0.11183217295712716,10.05617185782338,0.6608893367533895,-0.35787362078091284,-0.6245402874475795,0.1804881315907333,0.07283292065233675,-0.02443045245934679,-0.37350505668530565
1592296666.4162533,-0.21556368433677142,10.24573398896618,0.6649148476852963,-0.35555555555555557,-0.6222222222222222,0.19555555555555557,-0.0639529309251622,0.009713077550451768,-0.3815563329092317
1592296666.4262533,-0.6596224395118122,10.203764899007924,0.3773677824566412,-0.35555555555555557,-0.6222222222222222,0.19555555555555557,-0.0799412898188483,-0.05390258057568651,-0.5037990796722548
1592296666.4362533,-0.65,9.79,0.82,-0.35555555555555557,-0.6222222222222222,0.19555555555555557,-0.1712604328519436,-0.009817477042468103,-0.4996004983833768
1592296666.4462533,-0.7400648148148148,9.842537808641975,0.5873325617283951,-0.35555555555555557,-0.6222222222222222,0.19555555555555557,-0.031260634653667546,-0.07531445865569666,-0.4529338989839515
1592296666.4562533,-0.8,9.82,0.64,-0.3511111111111111,-0.6233333333333333,0.16666666666666666,-0.1112647398146385,0.0032724923474893677,-0.6250460383704692
1592296666.4662533,-1.001137471044013,9.79376467768991,0.7012157520568735,-0.3511111111111111,-0.6233333333333333,0.16666666666666666,-0.05784391844079178,0.041430221900237034,-0.5439608630708804
1592296666.4762533,-0.9303518413888747,9.341583286249936,0.3612314448610611,-0.3511111111111111,-0.6233333333333333,0.16666666666666666,-0.05670017272476326,0.07516753614369487,-0.523629479551702
1592296666.4862533,-1.2492744803226654,9.798957065463831,0.7990024104436648,-0.3511111111111111,-0.6233333333333333,0.16666666666666666,0.021638546330526823,0.11662491269743623,-0.6531133297013649
1592296666.4962533,-1.5842902789725943,9.551425177174224,0.7828569087706362,-0.3511111111111111,-0.6233333333333333,0.16666666666666666,0.01246650983986159,0.04565808957060756,-0.4103048876536214
1592296666.5062532,-1.22,9.06,1.01,-0.33555555555555555,-0.6233333333333333,0.22555555555555556,0.002181661564992912,-0.011999138607461015,-0.15598880189699318
1592296666.5162532,-2.1183618463524856,9.500197304712719,0.767442301484829,-0.33555555555555555,-0.6233333333333333,0.22555555555555556,0.06685907144922132,-0.12077478250366334,-0.123650096954879
1592296666.5262532,-1.9776532494037227,9.171939069069808,1.1277548009540435,-0.33555555555555555,-0.6233333333333333,0.22555555555555556,0.1344504126039166,0.10272713620029461,0.05554318619609447
1592296666.5362532,-3.6950283771163104,10.319764841112095,0.3213424650973443,-0.33555555555555555,-0.6233333333333333,0.22555555555555556,0.18738338149174177,-0.14391064408128837,-0.009079084989765035
1592296666.5462532,-2.569300847457627,9.712619350282486,0.9633961864406779,-0.33555555555555555,-0.6233333333333333,0.22555555555555556,0.14259858441559647,-0.2150958453233175,-0.08682092447608879
1592296666.5562532,-2.026602600678699,9.95697318237785,0.3000138142286555,-0.29813467871908067,-0.616918325875652,0.21807138018826056,0.16084550327903402,-0.3505669507005667,-0.13812373295926017
1592296666.5662532,-1.2532974111736823,8.677650204594256,0.32276384556172266,-0.2966666666666667,-0.6166666666666667,0.21777777777777776,0.03330659972005098,-0.197906923532795,0.0009613877098581247
1592296666.5762532,-1.3443286333774767,9.052290774064552,1.414660486614214,-0.2966666666666667,-0.6166666666666667,0.21777777777777776,-0.08309960287778018,-0.101990086409982,0.5766480312471007
1592296666.5862532,-0.856540255722331,7.618348439803737,-0.3405186957677715,-0.2966666666666667,-0.6166666666666667,0.21777777777777776,0.5981641374714624,0.2122937624615402,0.7965365388850929
1592296666.5962532,-1.737697745318101,8.350874066132869,0.5899269657274949,-0.2966666666666667,-0.6166666666666667,0.21777777777777776,0.478492233869403,0.06357125281349368,1.0101007896139191
1592296666.6062531,-3.08,8.47,1.61,-0.27,-0.6133333333333333,0.24666666666666667,0.5126904677733343,-0.19853120241435498,1.0537425358915764
1592296666.6162531,-2.357016467002498,8.962943317952844,0.9691736866613047,-0.27,-0.6133333333333333,0.24666666666666667,0.6677324176534334,-0.187776847509377,1.1460507488259708
1592296666.6262531,-2.181368888888889,9.13520888888889,0.6902666666666667,-0.27,-0.6133333333333333,0.24666666666666667,0.5804800255481563,-0.2240556730974098,1.3195396973051552
1592296666.636253,-4.179430372163243,16.236569771621653,1.721956672817465,-0.27,-0.6133333333333333,0.24666666666666667,0.2531429819550173,-0.6057589403382224,0.3498574470763698
1592296666.646253,-1.6145813238142255,13.929868226180078,0.4279227585159304,-0.27,-0.6133333333333333,0.24666666666666667,0.4197954542082244,-0.5809736661779955,-0.026407524862740117
1592296666.656253,0.4076956338958621,10.550609572998619,-0.3030436610413789,-0.3079532760795147,-0.6133333333333333,0.2682077152523372,-0.003423889256885193,-0.394275352160417,-0.1355840230252504
1592296666.666253,-0.8806675593714308,10.224888740104761,1.7184529951557639,-0.3111111111111111,-0.6133333333333333,0.27,0.2208046687019537,-0.06312095695379072,0.08801025186903871
1592296666.676253,-0.26668888483870123,10.850663160361393,-1.0655953341838726,-0.3111111111111111,-0.6133333333333333,0.27,0.22872935315082088,0.11044668063198312,0.19187394511065364
1592296666.686253,-0.21035079311832078,8.672195092730147,1.4435060142809224,-0.3111111111111111,-0.6133333333333333,0.27,0.10746606942328955,0.09088344983658389,0.01665925532385712
1592296666.696253,-1.4960157050848113,10.153354544223738,-0.05135562733303667,-0.3111111111111111,-0.6133333333333333,0.27,0.16398906452331552,0.06915843531248284,0.1730079183212942
1592296666.706253,-1.5530256479209386,10.354096608289355,-0.20838044976301717,-0.28587239160233213,-0.5996623602660781,0.2563290269327447,0.13296310176617268,0.12928458672028728,-0.020362040157951178
1592296666.716253,-1.5087792601080374,9.658009903421183,0.3575920772630545,-0.28444444444444444,-0.5988888888888889,0.25555555555555554,0.14215458914454673,-0.00503645446773604,0.11247051941301842
1592296666.726253,-1.1381128804576637,9.716038039575027,0.07163476064290841,-0.28444444444444444,-0.5988888888888889,0.25555555555555554,0.12846417421865225,-0.024581391765559388,0.02399814214090057
1592296666.736253,-1.0090733761026462,9.709985164394547,-0.015455894145950281,-0.28444444444444444,-0.5988888888888889,0.25555555555555554,0.1290164143553593,0.0016908314510724921,-0.014283497473067466
1592296666.746253,-0.9432181234075551,9.809201285033788,-0.20311066799601193,-0.28444444444444444,-0.5988888888888889,0.25555555555555554,0.13199052468207118,0.03629903470275428,-0.017302483079757677
1592296666.756253,-1.0164063661134506,9.846041615060688,-0.21359363388654945,-0.3004803484435637,-0.5894560041835246,0.2810243442600391,0.056978750160349784,-0.03862235405289131,0.05358716351823933
1592296666.766253,-1.0928935223339376,9.884025465633757,-0.23773611340036263,-0.30333333333333334,-0.5877777777777777,0.28555555555555556,0.05461022172889625,-0.09667260815666352,0.1182766133895328
1592296666.776253,-1.1548851616802658,9.835344514959202,-0.21022967663946812,-0.30333333333333334,-0.5877777777777777,0.28555555555555556,0.010414923095095605,-0.1257924476913678,0.047195765739661444
1592296666.786253,-1.2762304678279752,9.712071708445452,-0.13358258981258556,-0.30333333333333334,-0.5877777777777777,0.28555555555555556,0.08694018663135045,-0.256041023772538,-0.04264770896990416
1592296666.796253,-1.2746830831997669,9.72164614600029,-0.06936616639953375,-0.30333333333333334,-0.5877777777777777,0.28555555555555556,0.0784841065642436,-0.24041005261709825,0.00817550889463485
1592296666.806253,-1.26,9.747560899437852,-0.07024359775140537,-0.31005413283364563,-0.5827371781525436,0.27463425636754807,-0.0010635770465190209,-0.17309665331342264,0.1225181480714172
1592296666.816253,-1.1810378660125709,9.793867852215238,-0.08877357044304768,-0.31222222222222223,-0.5811111111111111,0.27111111111111114,-0.02851595214810335,-0.13389952035853725,0.07021978590801786
1592296666.826253,-1.0088069433174915,9.85791033963139,-0.20283441520806772,-0.31222222222222223,-0.5811111111111111,0.27111111111111114,-0.07332938287855059,-0.07556073686240534,0.018234146292669257
1592296666.836253,-0.9160350877192982,9.86,-0.21694736842105264,-0.31222222222222223,-0.5811111111111111,0.27111111111111114,-0.08954763855188451,-0.06112862606052947,0.015355835436406251
1592296666.846253,-0.6224719835636907,9.815396899514381,-0.09805005603287263,-0.31222222222222223,-0.5811111111111111,0.27111111111111114,-0.13362300164224167,-0.062390060492646573,0.02204908444388288
1592296666.856253,-0.43800708940527766,9.877991335171327,-0.02400157542339504,-0.31222222222222223,-0.5748895015535426,0.27822152203404665,-0.13461040893243092,0.02028068810072675,0.10951227870325488
1592296666.866253,-0.5341394784718011,9.796730948049323,0.08326905195067717,-0.31222222222222223,-0.5733333333333334,0.28,-0.15589601402691547,0.08167312688211761,0.07011689159176239
1592296666.876253,-0.5691266787478589,9.763264156095623,0.11673584390437655,-0.31222222222222223,-0.5733333333333334,0.28,-0.0607710242431348,0.04149449024203354,0.02181661564992912
1592296666.8862529,-0.4494479952124476,9.818673847995212,0.030387073608617587,-0.31222222222222223,-0.5733333333333334,0.28,-0.06112250622119662,0.13244800775350954,0.0640032395206957
1592296666.8962529,-0.34837532388775566,9.841937446018708,0.015968723009353696,-0.31222222222222223,-0.5733333333333334,0.28,-0.11691981250127154,0.1052552177850409,0.012551660224932579
1592296666.9062529,-0.42581140568629394,9.816891735345713,0.09945983517029094,-0.30780778693498384,-0.5828979431223498,0.28,-0.16026374076339872,0.1763171103110944,0.13197655216981397
1592296666.9162529,-0.41591797194145524,9.829632811223417,0.12518359438829105,-0.3055555555555556,-0.5877777777777777,0.28,-0.2242728889335368,0.12595921512832592,0.12842594055125314
1592296666.9262528,-0.6170095200706645,9.703794287957601,0.30917460005888703,-0.3055555555555556,-0.5877777777777777,0.28,-0.1758354129116571,0.15356625611759092,0.10973078913727966
1592296666.9362528,-0.6617905819295559,9.65373124042879,0.4264188361408882,-0.3055555555555556,-0.5877777777777777,0.28,-0.14320799867406564,0.11401524541058028,0.07583654388373427
1592296666.9462528,-0.5266301537304311,9.628712331343143,0.6233698462695689,-0.3055555555555556,-0.5877777777777777,0.28,-0.08674645770410677,-0.019775416945791727,0.09749932816826333
1592296666.9562528,-0.5080184481470655,9.589585241482347,0.8396774822176751,-0.29964157473267866,-0.5767946705352922,0.28,-0.02293256576156228,-0.06883294937564738,0.08905599336797448
1592296666.9662528,-0.5119016653449643,9.58,0.8697541633624107,-0.29777777777777775,-0.5733333333333334,0.28,0.027077516908319645,-0.08841092661656247,0.04695226345392835
1592296666.9762528,-0.5560634838038246,9.58,0.7138571614413945,-0.29777777777777775,-0.5733333333333334,0.28,0.05691193555916921,-0.06585328547127003,-0.08772269012225141
1592296666.9862528,-0.5725674454942747,9.6097302180229,0.5931070094484728,-0.29777777777777775,-0.5733333333333334,0.28,0.05392255211227897,-0.10615049345060718,0.06147303782518182
1592296666.9962528,-0.5617282092834819,9.650329899293899,0.5203692557008913,-0.29777777777777775,-0.5733333333333334,0.28,0.09371800884359585,-0.10239844095072646,0.1162741772071587
1592296667.0062528,-0.5149342422109436,9.761332197236321,0.36493424221094356,-0.3026516751256499,-0.5705482491345493,0.28,0.08084182370069501,-0.06933231224696744,0.1456599158391325
1592296667.0162528,-0.4879498465066391,9.78,0.3469874616266598,-0.3055555555555556,-0.5688888888888889,0.28,0.022501204055351314,-0.06559142054211564,0.18829380575121066
1592296667.0262527,-0.3676693751430533,9.760214866102082,0.30702477683680474,-0.3055555555555556,-0.5688888888888889,0.28,0.07811792773486423,-0.025785077511313856,0.18449103177686124
1592296667.0362527,-0.28419394054968894,9.728516364329813,0.3544509070105599,-0.3055555555555556,-0.5688888888888889,0.28,0.14582595967960393,0.010225248211954151,-0.05966936169072623
1592296667.0462527,-0.26460128173927155,9.72539871826073,0.3817995727535762,-0.3055555555555556,-0.5688888888888889,0.28,0.16864150686685042,0.03294122541718963,-0.1245580029433528
1592296667.0562527,-0.27165395095367845,9.722868042039703,0.39,-0.3055555555555556,-0.5688888888888889,0.2769853380044116,0.16581460135415066,0.006569951939046775,-0.012977362023854683
1592296667.0662527,-0.4101605251808903,9.743418946763141,0.22306579136518281,-0.3055555555555556,-0.5688888888888889,0.2733333333333333,0.08754485470032389,-0.04250037512327835,0.011717244390679976
1592296667.0762527,-0.45313468968552845,9.783730620628942,0.050750965911869714,-0.3055555555555556,-0.5688888888888889,0.2733333333333333,0.13672433122620317,0.0094898063491589,0.0505682518852283
1592296667.0862527,-0.4526578407307553,9.79531568146151,0.007342159269244699,-0.3055555555555556,-0.5688888888888889,0.2733333333333333,0.1747395382328405,0.02031255880061758,0.03236946302353734
1592296667.0962527,-0.4645824953589109,9.828329981435644,-0.004582495358910891,-0.3055555555555556,-0.5688888888888889,0.2733333333333333,0.15085893135431516,-0.02290305880860984,0.0545706282269473
1592296667.1062527,-0.39995047972763853,9.828446301454658,0.016942123181677503,-0.29477870628288455,-0.5790670243130781,0.2769256164242237,0.08069987060975792,0.0950896538383447,0.01634456819629168
1592296667.1162527,-0.3319111372664411,9.81,0.05819994115050758,-0.28555555555555556,-0.5877777777777777,0.28,0.07373282663653384,0.19806827738976898,-0.0755777060333542
1592296667.1262527,-0.28950513006529177,9.804752565032647,0.08802052026116697,-0.28555555555555556,-0.5877777777777777,0.28,0.12139590560347743,0.09300171825752754,-0.010388894203845277
1592296667.1362526,-0.3468444780135483,9.8,0.061140746335591384,-0.28555555555555556,-0.5877777777777777,0.28,0.07897937219970139,0.04949784675869873,-0.06205291848050968
1592296667.1462526,-0.4210518666545554,9.791579253338178,0.07842074666182215,-0.28555555555555556,-0.5877777777777777,0.28,0.0980587612794229,0.04747911083711512,-0.011484231600074231
1592296667.1562526,-0.43105322550310327,9.783789354899378,0.10136806469813804,-0.29018698932146364,-0.5806201074122834,0.28294727603285064,0.13256497008191884,0.0645201070701339,0.022001422941422974
1592296667.1662526,-0.41815274803711633,9.808152748037116,0.03528717582679039,-0.29777777777777775,-0.5688888888888889,0.2877777777777778,0.13476958674555334,0.06274698472397852,-0.1015718920707083
1592296667.1762526,-0.44713735124413995,9.825712450414713,-0.048562252073566535,-0.29777777777777775,-0.5688888888888889,0.2877777777777778,0.13853831217882606,0.05688423886204236,-0.12576341212888148
1592296667.1862526,-0.4815479352245752,9.813839048581569,-0.03767809716313724,-0.29777777777777775,-0.5688888888888889,0.2877777777777778,0.09496991179059627,0.01064159307115558,-0.0619039226260053
1592296667.1962526,-0.4919906684611933,9.791990668461194,-0.00599533423059668,-0.29777777777777775,-0.5688888888888889,0.2877777777777778,0.05627872507299446,0.030382098880160205,-0.011771811234161215
1592296667.2062526,-0.42901314402193014,9.788997680466718,0.020994587755675833,-0.30011050975063064,-0.5725546105605148,0.2854450458049249,0.02749365879307965,0.07614707322950606,0.005888968094497982
1592296667.2162526,-0.3359803227633069,9.778823612684032,0.1011763873159683,-0.3055555555555556,-0.5811111111111111,0.28,0.0017324505306947555,0.019934376634095412,0.028703797543946946
1592296667.2262526,-0.35489122973132914,9.74489122973133,0.07380352704462068,-0.3055555555555556,-0.5811111111111111,0.28,0.08042597624833131,0.09358713561266073,-0.0019213804835024606
1592296667.2362525,-0.3752713583355105,9.745054271667103,0.045271358335510534,-0.3055555555555556,-0.5811111111111111,0.28,0.06408153480775507,0.12014015339173945,-0.006189777464424465
1592296667.2462525,-0.4036798271596334,9.753679827159633,0.06264034568073318,-0.3055555555555556,-0.5811111111111111,0.28,0.02040142834699351,0.0647264403002529,-0.045671891665988854
1592296667.2562525,-0.4146766210196337,9.764676621019634,0.04766168949018314,-0.3071144292287668,-0.5811111111111111,0.28337755962529104,0.08386915732570321,0.03673549485868365,-0.15556005554629163
1592296667.2662525,-0.3964309143582254,9.785594847606962,0.017620609572150264,-0.31222222222222223,-0.5811111111111111,0.29444444444444445,0.10830442455296282,0.008288271593747044,-0.04046956869524393
1592296667.2762525,-0.38030823117338003,9.79515411558669,-0.10823642732049037,-0.31222222222222223,-0.5811111111111111,0.29444444444444445,0.1345850208041525,-0.016026233685398895,0.015271630954950384
1592296667.2862525,-0.40405117169949634,9.814051171699496,-0.19126510440067157,-0.31222222222222223,-0.5811111111111111,0.29444444444444445,0.1151566911524481,-0.037130885193719786,-0.007208629954314941
1592296667.2962525,-0.43401306907166387,9.844013069071664,-0.18050980180374793,-0.31222222222222223,-0.5811111111111111,0.29444444444444445,0.03597603160387863,-0.08378578339769654,-0.030432040409800677
1592296667.3062525,-0.4531817652312352,9.87,-0.2022727449229216,-0.3089393684446688,-0.5811111111111111,0.2992424615039456,-0.016461705185720404,-0.0798287951593833,-0.00783400587204285
1592296667.3162525,-0.30362778587296657,9.84893796431216,-0.14681389293648328,-0.29777777777777775,-0.5811111111111111,0.31555555555555553,-0.02720309912450338,0.02521470349634673,-0.043677085495853314
1592296667.3262525,-0.317878612716763,9.775897510004446,-0.07032636727434416,-0.29777777777777775,-0.5811111111111111,0.31555555555555553,0.007404408022460048,0.020079968421503794,-0.11213946581494676
1592296667.3362525,-0.4771127210739399,9.715481213154344,-0.027406065771716743,-0.29777777777777775,-0.5811111111111111,0.31555555555555553,0.013929844784677379,0.041656502430348186,-0.05712516319422594
1592296667.3462524,-0.4966215783291211,9.736756843341759,0.0,-0.29777777777777775,-0.5811111111111111,0.31555555555555553,0.020416276727779393,0.12151345476941237,-0.09480671923492764
1592296667.3562524,-0.48260709478185126,9.784596959379206,0.0,-0.2991785660868724,-0.5797103228020165,0.31315420416853623,0.03625014928263996,0.1431721664219308,-0.22714000821492086
1592296667.3662524,-0.5349681272068059,9.780127491172777,-0.015095618379582454,-0.3055555555555556,-0.5733333333333334,0.3022222222222222,-0.0425771683413021,-0.037158221697374996,-0.022358114814168467
1592296667.3762524,-0.5114898638960581,9.8,-0.07627534025985486,-0.3055555555555556,-0.5733333333333334,0.3022222222222222,-0.06414969543014717,-0.04272472299412211,0.02995233207166928
1592296667.3862524,-0.4311519525835285,9.791593136083362,-0.09637254433344486,-0.3055555555555556,-0.5733333333333334,0.3022222222222222,-0.09207360541425896,0.021827304446373444,-0.029818717932386753
1592296667.3962524,-0.3725304778194257,9.78,-0.033906801557553046,-0.3055555555555556,-0.5733333333333334,0.3022222222222222,-0.11490162974456995,0.0041029512422754155,-0.0659268447547467
1592296667.4062524,-0.4317673716012084,9.78,0.011767371601208458,-0.3055555555555556,-0.5748587333557122,0.2993893364663757,-0.12843818425619208,0.07286925390344401,-0.055049055561392155
1592296667.4162524,-0.48,9.78,0.06,-0.3055555555555556,-0.5811111111111111,0.2877777777777778,-0.09599310885968812,0.0272707695624114,0.05017821599483697
1592296667.4262524,-0.43489983514013086,9.762449917570065,-0.003775041214967278,-0.3055555555555556,-0.5811111111111111,0.2877777777777778,-0.007771944532512218,-0.05402890260731547,-0.01531533611993825
