time,acc_x,acc_y,acc_z,mag_x,mag_y,mag_z,gyr_x,gyr_y,gyr_z
1592260359.1311057,-0.3665939334637965,9.781877690802348,0.5069432485322897,-0.4476855838225701,-0.6045754511850402,-0.1568752989780387,-0.0006478809050639439,-0.03161509387837723,0.030071707076528037
1592260359.1411057,-0.22394549490928578,9.871721656587308,0.2240029089795606,-0.4533333333333333,-0.6022222222222222,-0.16111111111111112,0.017938458779325095,-0.038348092277047,-0.07087894924818795
1592260359.1511056,-0.23570152050154933,9.897616920083593,0.01574619874612669,-0.4533333333333333,-0.6022222222222222,-0.16111111111111112,-0.016719573811013275,-0.12563498310778254,-0.05221657680919999
1592260359.1611056,-0.25395025111717484,9.888149246648476,0.0037015067030489943,-0.4533333333333333,-0.6022222222222222,-0.16111111111111112,-0.029169143835568415,-0.09058450868257645,-0.07652967149050333
1592260359.1711056,-0.2993110061965182,9.841920709859629,0.09615858028074022,-0.4533333333333333,-0.6022222222222222,-0.16111111111111112,-0.12101377266287544,-0.036083907948247215,-0.058688631940148187
1592260359.1811056,-0.27712044877979064,9.835108443205774,0.1928795512202094,-0.44745782764219894,-0.6022222222222222,-0.1720227645375035,-0.21125319619358074,0.004279251168080464,0.065365774987882
1592260359.1911056,-0.2788445636383953,9.844711140909599,0.23355570454799418,-0.44555555555555554,-0.6022222222222222,-0.17555555555555555,-0.20486762621215512,-0.01807897521147914,0.032729433558584854
1592260359.2011056,-0.22864197530864197,9.798103254769922,0.2924354657687991,-0.44555555555555554,-0.6022222222222222,-0.17555555555555555,-0.16890002684896585,0.014129380539608966,-0.05840658152700161
1592260359.2111056,-0.23818642117376296,9.749348676639816,0.41325661680092063,-0.44555555555555554,-0.6022222222222222,-0.17555555555555555,-0.15216323700316559,0.08184293730759427,0.03586636549592431
1592260359.2211056,-0.2713850097562842,9.711537475609289,0.6250826414661208,-0.44555555555555554,-0.6022222222222222,-0.17555555555555555,-0.1730401434942513,0.03807649246701875,0.022838124401215923
1592260359.2311056,-0.29318223458758863,9.683408882706205,0.769773351881383,-0.44555555555555554,-0.6102780322479708,-0.18947013650912134,-0.07226379195747268,0.08228605191038604,0.005108025270066954
1592260359.2411056,-0.290873887181125,9.689126112818874,0.7936891692283126,-0.44555555555555554,-0.6144444444444445,-0.19666666666666666,-0.041022318306741745,0.0794987841492923,0.014752757995014049
1592260359.2511055,-0.10028022252965588,9.700035027816208,0.7667951019927589,-0.44555555555555554,-0.6144444444444445,-0.19666666666666666,-0.08119334818936282,0.014742446540082,-0.03449202888550482
1592260359.2611055,-0.005955780564015346,9.697022109717992,0.7194668354230115,-0.44555555555555554,-0.6144444444444445,-0.19666666666666666,-0.06013612946482657,0.07136927472844223,-0.07283317887154649
1592260359.2711055,0.06203707895224182,9.741527809214181,0.6947453651309697,-0.44555555555555554,-0.6144444444444445,-0.19666666666666666,-0.08083258332611179,0.01957428379120406,-0.12531676992599688
1592260359.2811055,0.05171254115917011,9.878646782391867,0.6537844058693776,-0.44555555555555554,-0.603043238884804,-0.17990018790248963,-0.04734856307405783,0.04568562239041893,-0.21670045180253888
1592260359.2911055,0.024497221222662027,9.956745831833992,0.6198812522490105,-0.44555555555555554,-0.5955555555555555,-0.1688888888888889,-0.03613990289472785,0.10743084752982979,-0.2816735648996385
1592260359.3011055,0.07186075150932629,10.027791127263988,0.48662661820803177,-0.44555555555555554,-0.5955555555555555,-0.1688888888888889,-0.08864798063485789,0.1581455951544165,-0.29055249197429334
1592260359.3111055,0.10088188027320209,10.041898352752108,0.44620329449578144,-0.44555555555555554,-0.5955555555555555,-0.1688888888888889,-0.03985367136886207,0.1843617970190585,-0.2674279694542728
1592260359.3211055,0.1993395660005146,10.06867913200103,0.5467445750064328,-0.44555555555555554,-0.5955555555555555,-0.1688888888888889,-0.0405609132777099,0.2840119079396981,-0.4613334266267636
1592260359.3311055,0.21,10.051868702971559,0.7181312970284403,-0.43889771004265327,-0.6058449531664045,-0.1688888888888889,-0.08960633705941594,0.29765358078125953,-0.557219346130674
1592260359.3411055,0.15552185899960613,9.985951161874754,0.8180976762504923,-0.43333333333333335,-0.6144444444444445,-0.1688888888888889,0.039751093863608554,0.22946284991991417,-0.5039775696760408
1592260359.3511055,0.10154916143390827,9.946722041173198,0.8474135601303553,-0.43333333333333335,-0.6144444444444445,-0.1688888888888889,0.07274621385294623,0.22649899039028587,-0.5217217940563321
1592260359.3611054,0.007736176935229067,9.898395734597157,0.7173617693522907,-0.43333333333333335,-0.6144444444444445,-0.1688888888888889,0.057010987010000395,0.27894352543381645,-0.5858908139108261
1592260359.3711054,0.029666346136400748,9.974277083295535,0.5510009615907978,-0.43333333333333335,-0.6144444444444445,-0.1688888888888889,0.043875871236600195,0.30740803671776995,-0.7045841221171687
1592260359.3811054,0.06,10.100739941753856,0.38913673462050125,-0.4299588921247858,-0.6110700032358969,-0.1688888888888889,0.025129465559536518,0.2582449808194886,-0.8761120011138323
1592260359.3911054,0.055963553530751706,10.182200455580865,0.30385421412300684,-0.4266666666666667,-0.6077777777777778,-0.1688888888888889,0.023958520284352684,0.19638929777993142,-0.9171968608895223
1592260359.4011054,0.0862656198164326,10.24108398761473,0.17638477275240516,-0.4266666666666667,-0.6077777777777778,-0.1688888888888889,-0.011118802098486213,0.2585931498813058,-1.0432155906143132
1592260359.4111054,0.06297414714051705,10.181982764760345,0.2313792939724141,-0.4266666666666667,-0.6077777777777778,-0.1688888888888889,0.005030982110455485,0.28710478188007127,-1.1143823740487404
1592260359.4211054,-0.016538164454743348,10.104154202654307,0.36911487957306366,-0.4266666666666667,-0.6077777777777778,-0.1688888888888889,-0.05686954098965136,0.21414311956769316,-1.1648141723846313
1592260359.4311054,-0.14451741554427028,10.003534030691101,0.5012224000883198,-0.4224387281960698,-0.611124895733667,-0.16994587350653811,-0.13152382360636822,0.15435404601149463,-1.2192319705178618
1592260359.4411054,-0.41655884301170243,9.8704073746964,0.651713402517112,-0.4070037535879885,-0.6233442506317314,-0.1738046171585584,-0.07406774732804182,0.23201445680527655,-1.3455090612394582
1592260359.4511054,-0.633564409505092,9.763217795247455,0.6907611220296588,-0.4,-0.6288888888888889,-0.17555555555555555,-0.08116700929097803,0.2015505253520779,-1.4015325995650143
1592260359.4611053,-0.730591697645601,9.693289962825279,0.6638816604708798,-0.4,-0.6288888888888889,-0.17555555555555555,-0.07802346273514305,0.19093796583359432,-1.5134185600500327
1592260359.4711053,-0.9198332438718912,9.614918947933441,0.6462297369833602,-0.4,-0.6288888888888889,-0.17555555555555555,-0.016023443474931842,0.2463483913961557,-1.6255338992777333
1592260359.4811053,-1.3269248799231508,9.532006532180596,0.5940130643611912,-0.3820065321805956,-0.634386892944818,-0.1820531967125627,0.036106855175816216,0.28176265994438515,-1.6924715532162975
1592260359.4911053,-1.6034593335059364,9.49375892295743,0.542781743536635,-0.36,-0.6411111111111111,-0.19,0.029394857597551796,0.2559180923586023,-1.692845674054312
1592260359.5011053,-1.950400972053463,9.334524098825435,0.36575941676792223,-0.36,-0.6411111111111111,-0.19,-0.010788135296475682,0.05175150413435495,-1.666920653452236
1592260359.5111053,-2.1665793701799485,9.261462082262211,0.2356137532133676,-0.36,-0.6411111111111111,-0.19,-0.026231115288348258,-0.025180770031358983,-1.735033309650413
1592260359.5211053,-2.3062053145853194,9.276252979027644,0.21747020972354625,-0.36,-0.6411111111111111,-0.19,-0.0618987975995704,0.13717392066796383,-1.7665705557944815
1592260359.5311053,-2.4037709587855622,9.285083835142249,0.3177095878556233,-0.33988821981033424,-0.6557759508327424,-0.18455305953196552,-0.10091409970806844,0.11210261805820175,-1.8268551354928664
1592260359.5411053,-2.418355953115361,9.292359654534238,0.4236366440468846,-0.30666666666666664,-0.68,-0.17555555555555555,-0.1452830480914805,0.0921341519675068,-1.8000921873729716
1592260359.5511053,-2.5348636879969706,9.025369989722508,0.9197273759939417,-0.30666666666666664,-0.68,-0.17555555555555555,-0.08587024994266979,0.1954159001574466,-1.7234908928953092
1592260359.5611053,-2.6925313802548527,8.852025485292366,1.0289872573538168,-0.30666666666666664,-0.68,-0.17555555555555555,-0.03371907731701454,0.1226978207763153,-1.8708990612116871
1592260359.5711052,-3.0085226393014675,8.718559906382211,1.06,-0.30666666666666664,-0.68,-0.17555555555555555,0.0016386126353396188,0.1053352511598834,-1.8035630996451892
1592260359.5811052,-3.3684563677829793,8.616102908814467,0.9937494498459569,-0.2858821803438296,-0.6960213748738536,-0.17815361634591018,0.06363716403622585,0.14265040259410133,-1.756093573473059
1592260359.5911052,-3.477321725308865,8.618660862654432,0.8588208944440431,-0.25333333333333335,-0.7211111111111111,-0.18222222222222223,0.09238405175122402,0.1753236415668043,-1.8476514412842286
1592260359.6011052,-3.6241981963304655,8.640246708821396,0.6260485124909299,-0.25333333333333335,-0.7211111111111111,-0.18222222222222223,0.1846733433339307,0.11320374326216097,-1.9329790583413893
1592260359.6111052,-3.806223186082693,8.588302767431992,0.5135856395266607,-0.25333333333333335,-0.7211111111111111,-0.18222222222222223,0.16393318296284135,0.1315776896386272,-1.9497874593715494
1592260359.6211052,-3.9658411231949953,8.548034045029643,0.46207943840250243,-0.25333333333333335,-0.7211111111111111,-0.18222222222222223,0.11730253759321481,0.1623379028552686,-1.9806909216663164
1592260359.6311052,-4.118023722976851,8.48918576621389,0.4472094891907404,-0.22461220585421848,-0.7248902068320473,-0.1841117700826903,0.04594812155655686,0.13606518564669465,-1.9775587153179695
1592260359.6411052,-4.257491886879926,8.404381084840056,0.501248647813321,-0.1688888888888889,-0.7322222222222222,-0.18777777777777777,0.054954878188133154,0.10942241411197992,-1.9253222311336575
1592260359.6511052,-4.43976239343227,8.259539259025365,0.510698347542364,-0.1688888888888889,-0.7322222222222222,-0.18777777777777777,0.01592973452776058,0.12126049151214517,-1.8678556916083062
1592260359.6611052,-4.561139159192025,8.20542718469701,0.5154271846970093,-0.1688888888888889,-0.7322222222222222,-0.18777777777777777,0.06731732142779918,0.133172787903642,-1.8515489870313162
1592260359.6711051,-4.671124443516972,8.152618948247078,0.5374867835281024,-0.1688888888888889,-0.7322222222222222,-0.18777777777777777,0.09299476590126107,0.17449832455691638,-1.7463954601704736
1592260359.6811051,-4.87306778619701,7.998466106901494,0.532897808724145,-0.1547727945024689,-0.7373800259403372,-0.18642046100985277,0.0724411719895189,0.19446543951420436,-1.6923121505634973
1592260359.6911051,-5.13,7.87,0.48,-0.1111111111111111,-0.7533333333333333,-0.18222222222222223,0.01308996938995747,0.15489797111449674,-1.8522306686789822
1592260359.701105,-5.383049152542373,7.780864406779661,0.3947779661016949,-0.1111111111111111,-0.7533333333333333,-0.18222222222222223,-0.02484690658638962,0.07782356575476326,-1.7348530240911775
1592260359.711105,-5.551013347797378,7.700759362324309,0.36405079709461374,-0.1111111111111111,-0.7533333333333333,-0.18222222222222223,-0.016514700596300107,0.05010937665953935,-1.7446523061391888
1592260359.721105,-5.760240271517589,7.644199903029432,0.41506006787939737,-0.1111111111111111,-0.7533333333333333,-0.18222222222222223,-0.047001649057979974,0.06931571739384114,-1.65502146220352
1592260359.731105,-5.956573242075479,7.563426757924521,0.4481619699460865,-0.09690547504641489,-0.7520179966606763,-0.18564209757113057,-0.01974373268321368,0.04019081410214555,-1.5836891766850612
1592260359.741105,-6.01,7.51,0.41,-0.051111111111111114,-0.7477777777777778,-0.19666666666666666,-0.07635815477475191,0.01854412330243975,-1.547888880362471
1592260359.751105,-6.206064510647938,7.491713015405527,0.32587987086542813,-0.051111111111111114,-0.7477777777777778,-0.19666666666666666,-0.0110092603339473,0.07468150288443764,-1.5031344831014684
1592260359.761105,-6.450466411250981,7.37627727672941,0.19860504961568665,-0.051111111111111114,-0.7477777777777778,-0.19666666666666666,-0.06377602664859666,0.07136049730804891,-1.411253570537359
1592260359.771105,-6.568438377590558,7.276540115886388,0.2442191887952792,-0.051111111111111114,-0.7477777777777778,-0.19666666666666666,-0.07133221330872047,0.06586867540528997,-1.2945582729563279
1592260359.781105,-6.656316599277203,7.264474898915805,0.3047336028911869,-0.038219208581322585,-0.7510519117535971,-0.19277863257038122,-0.07646432215330383,0.043810944562559295,-1.294907513026672
1592260359.791105,-6.64,7.24,0.37,0.01888888888888889,-0.7655555555555555,-0.17555555555555555,-0.25089107997418486,-0.06654067773228381,-1.189005552921137
1592260359.801105,-6.487860891663444,7.1285774266615105,0.48929396165957684,0.01888888888888889,-0.7655555555555555,-0.17555555555555555,-0.13519287024038723,-0.009194472311820715,-1.3199018117975305
1592260359.811105,-6.502361498134416,7.171180749067208,0.5776385018655835,0.01888888888888889,-0.7655555555555555,-0.17555555555555555,-0.22344939315295648,-0.03123975939956069,-1.3140225761636293
1592260359.821105,-6.529633251833741,7.0971312143439285,0.6496332518337408,0.01888888888888889,-0.7655555555555555,-0.17555555555555555,-0.24944730720256772,-0.0245912553175505,-1.2468098051443803
1592260359.831105,-6.666029138369313,6.956726106916569,0.7462074591190196,0.027738150944509786,-0.7655555555555555,-0.17681973584921568,-0.2556292015852682,0.007771977911531162,-1.0262684745735167
1592260359.841105,-6.82,6.9,0.73,0.06555555555555556,-0.7655555555555555,-0.18222222222222223,-0.2945243112740431,-0.12217304763960307,-0.9228428419920017
1592260359.851105,-6.990667603654252,6.65953835342451,0.6418465863019622,0.06555555555555556,-0.7655555555555555,-0.18222222222222223,-0.21388650756144345,-0.020792417592673,-0.9970921594634172
1592260359.861105,-7.206394186458702,6.64,0.7917001063452677,0.06555555555555556,-0.7655555555555555,-0.18222222222222223,-0.1712604328519436,0.0015514467442510754,-0.9893392059321289
1592260359.871105,-7.164885358431817,6.575076250796122,0.8838167857901069,0.06555555555555556,-0.7655555555555555,-0.18222222222222223,-0.16721352861499103,-0.08784101878923747,-1.000599986666349
1592260359.881105,-6.972524428770847,6.453388435823966,0.8689368892807288,0.0709892325651638,-0.7642561980097796,-0.18375782659450282,-0.15770659390287295,-0.07160717838674426,-1.091026652780228
1592260359.891105,-7.33,6.65,0.86,0.11666666666666667,-0.7533333333333333,-0.19666666666666666,-0.1538071403320003,0.014180800172453926,-0.9642944117268671
1592260359.901105,-7.074863514255178,6.4775409457234465,0.8425500447731015,0.11666666666666667,-0.7533333333333333,-0.19666666666666666,-0.22251955410582208,-0.05513558958100021,-0.8235732705754424
1592260359.911105,-7.3409718365727885,6.4397976993256645,0.7004046013486711,0.11666666666666667,-0.7533333333333333,-0.19666666666666666,-0.25392515591502784,0.058405961861227346,-0.8540941081379093
1592260359.921105,-7.4451075818752805,6.449491251682369,0.6513110812023328,0.11666666666666667,-0.7533333333333333,-0.19666666666666666,-0.2548018820597746,0.08036503218524958,-0.8800464330361711
1592260359.931105,-7.545293945598128,6.333117870722433,0.7921175782392513,0.11772545578629229,-0.7522745442137077,-0.1970784179909655,-0.19212085667527373,-0.015117529969882882,-0.8416080131866975
1592260359.941105,-7.64,6.21,0.83,0.13666666666666666,-0.7333333333333333,-0.20444444444444446,-0.2530727415391778,-0.07090400086226964,-0.8519388411297321
1592260359.9511049,-7.639660283011573,6.12060932546331,0.8187112405598371,0.13666666666666666,-0.7333333333333333,-0.20444444444444446,-0.1465407177153246,0.035960358447551743,-0.6753016024974466
1592260359.9611049,-7.567995807026845,5.963578726685624,0.7393659935418574,0.13666666666666666,-0.7333333333333333,-0.20444444444444446,-0.07027270797893947,0.06874234320651282,-0.6314638497239443
1592260359.9711049,-7.753256616800921,5.994752589182968,0.8677560414269275,0.13666666666666666,-0.7333333333333333,-0.20444444444444446,-0.0626681656908551,0.1155966811614685,-0.6227790183552925
1592260359.9811049,-7.908919400720652,6.051381756116062,1.0126129338137684,0.13947101586699537,-0.7333333333333333,-0.20396565311755907,-0.06444404014825166,0.01857987061122325,-0.533684853947043
1592260359.9911048,-7.74,5.92,0.9,0.18222222222222223,-0.7333333333333333,-0.19666666666666666,-0.11562806294462433,0.11890055529211369,-0.5377795757707527
1592260360.0011048,-8.088877468529853,5.78994860838434,1.0389288601455133,0.18222222222222223,-0.7333333333333333,-0.19666666666666666,-0.034416788287103796,0.16776826892840868,-0.4497092254321744
1592260360.0111048,-8.055868263473053,5.855179640718562,0.915748502994012,0.18222222222222223,-0.7333333333333333,-0.19666666666666666,-0.060433331734474315,0.06850025398826548,-0.3998515350330572
1592260360.0211048,-7.962258725189823,5.702687658185694,0.9617225589449847,0.18222222222222223,-0.7333333333333333,-0.19666666666666666,-0.09207577379140168,0.033734617633149236,-0.4500064043269691
1592260360.0311048,-8.025114559744239,5.6537997868655925,1.164258025842547,0.18222222222222223,-0.7333333333333333,-0.19666666666666666,-0.11797813704150927,0.12591655743500269,-0.2267889798481007
1592260360.0411048,-8.04690443246338,6.033663819838733,0.8660580180352117,0.2088888888888889,-0.7211111111111111,-0.19666666666666666,-0.04867450479831578,0.13119250433816076,-0.3406755770263066
1592260360.0511048,-7.811602611545782,5.82234933389723,0.907013110594206,0.2088888888888889,-0.7211111111111111,-0.19666666666666666,0.01606236217135932,0.03948235375047703,-0.39972088677460116
1592260360.0611048,-7.573543195266272,5.617590059171597,1.0958272189349112,0.2088888888888889,-0.7211111111111111,-0.19666666666666666,-0.028969780461179723,-0.06851630782640522,-0.37315340791783225
1592260360.0711048,-7.595219622479006,5.857756226225508,0.8698047800186607,0.2088888888888889,-0.7211111111111111,-0.19666666666666666,0.027723018468970705,0.03607713579972296,-0.39708370002521026
1592260360.0811048,-7.4619562419562415,5.700747974865622,0.9899136952078128,0.20898797957621487,-0.7211175040586806,-0.19672739966857614,0.08495927580273065,0.15496700999209284,-0.3838814296455576
1592260360.0911047,-8.14,5.96,0.96,0.24333333333333335,-0.7233333333333334,-0.21777777777777776,0.04145156973486533,0.17889624832941878,-0.3523383427463553
1592260360.1011047,-7.796782079810117,5.7585904168520985,1.0033508381545766,0.24333333333333335,-0.7233333333333334,-0.21777777777777776,-0.07093872750311281,-0.02757829290005511,-0.3434781623576615
1592260360.1111047,-7.9907402849434375,5.710037629573532,0.7953701424717187,0.24333333333333335,-0.7233333333333334,-0.21777777777777776,0.043438888181321925,-0.012686206587897441,-0.28435098599221464
1592260360.1211047,-8.057742079110938,5.599678711998433,0.8751584177812606,0.24333333333333335,-0.7233333333333334,-0.21777777777777776,0.06897106868708422,-0.009146725584802385,-0.31891053484412146
1592260360.1311047,-8.050272133074499,5.532449197670484,1.0245573385100357,0.24333333333333335,-0.7233333333333334,-0.21777777777777776,-0.056515016346991576,-0.122410139998676,-0.27327923119536657
1592260360.1411047,-8.06,5.638524707292339,0.8303152945514889,0.2222222222222222,-0.7088888888888889,-0.20444444444444446,0.012055605970268408,-0.14698572702879928,-0.29123821748252937
1592260360.1511047,-8.091219848380428,5.558731909028256,0.7666988283942109,0.2222222222222222,-0.7088888888888889,-0.20444444444444446,-0.02583562417041572,-0.07219856365169686,-0.17824370448434165
1592260360.1611047,-8.208220078599501,5.624660235798499,0.6684787424080029,0.2222222222222222,-0.7088888888888889,-0.20444444444444446,0.04668334849747533,-0.011642387446940381,-0.23206814983294627
1592260360.1711047,-8.186654813857011,5.624021335057378,0.8186832606001833,0.2222222222222222,-0.7088888888888889,-0.20444444444444446,0.021517711207292574,-0.13934295100846625,-0.16171276908044369
1592260360.1811047,-8.111330208501697,5.759605624696945,0.924137708097624,0.2222222222222222,-0.7088888888888889,-0.20444444444444446,-0.029425455677311863,-0.1869994619650317,-0.027781540012854627
1592260360.1911047,-7.870010823068598,5.662513528835747,0.9274972942328507,0.25555555555555554,-0.7022222222222222,-0.19666666666666666,-0.031604577351428784,-0.1996114076741028,-0.03305577639222562
1592260360.2011046,-7.847227216720668,5.664818144480446,0.8818863231871492,0.25555555555555554,-0.7022222222222222,-0.19666666666666666,-0.0032304032941146282,-0.17912434063286417,-0.10302143319244578
1592260360.2111046,-7.750866230384913,5.6108662303849135,0.8002887434616377,0.25555555555555554,-0.7022222222222222,-0.19666666666666666,-0.08401101088509702,-0.15666149751078096,0.08978302633232828
1592260360.2211046,-7.880844821044644,5.694430251675731,0.8578487416213482,0.25555555555555554,-0.7022222222222222,-0.19666666666666666,0.041985189750888635,-0.052337390470219805,0.003898268043632521
1592260360.2311046,-8.047558944154366,5.671696507615314,0.9715174619234312,0.25555555555555554,-0.7022222222222222,-0.19666666666666666,-0.009265390415608123,-0.1457457059349639,-0.02916662238636539
1592260360.2411046,-7.814259534193189,5.514380625405957,0.8433685162846802,0.27,-0.6766666666666666,-0.19666666666666666,0.14427482084933435,-0.019793107847360884,-0.2577442494167748
1592260360.2511046,-8.249853658536585,5.555294559099437,0.9314709193245778,0.27,-0.6766666666666666,-0.19666666666666666,0.0030637404904262557,-0.0702143010992278,-0.15347866314515096
1592260360.2611046,-8.071880483756225,5.4576924353806024,0.8565243063789424,0.27,-0.6766666666666666,-0.19666666666666666,0.0654995642076474,-0.055486348096382754,-0.04092014863940392
1592260360.2711046,-8.257077517715267,5.664679693651135,1.0240512490158185,0.27,-0.6766666666666666,-0.19666666666666666,0.06307650335981206,-0.1354839783862612,-0.06786777320219235
1592260360.2811046,-7.716691002791497,5.477045487080381,1.054072722067139,0.27,-0.6766666666666666,-0.19666666666666666,0.14249124468996271,-0.13712139573327461,-0.14237026249130275
1592260360.2911046,-8.160021953896818,5.685851516692993,0.9868340874407646,0.26222222222222225,-0.6977777777777778,-0.20444444444444446,-0.01431417877499901,-0.12089883953164557,0.021533240878636166
1592260360.3011045,-7.81,5.72,0.91,0.26222222222222225,-0.6977777777777778,-0.20444444444444446,-0.008726646259971648,-0.07526732399225547,-0.1265363707695889
1592260360.3111045,-7.808410754543683,5.539211222132539,0.9528074814216927,0.26222222222222225,-0.6977777777777778,-0.20444444444444446,0.0975660984458481,-0.02727714531637962,-0.05041117390054254
1592260360.3211045,-8.003754734533855,5.73046315369792,1.1029536846302082,0.26222222222222225,-0.6977777777777778,-0.20444444444444446,0.1192910696678662,-0.1604490378289059,-0.29825563536139577
1592260360.3311045,-7.927109608611868,5.591108379294305,1.1168891620705697,0.26222222222222225,-0.6977777777777778,-0.20444444444444446,0.018202772059003544,-0.19693203245466087,-0.09455891536759728
1592260360.3411045,-8.117764175888748,5.571807854274802,1.1664890804034864,0.27555555555555555,-0.7111111111111111,-0.19666666666666666,0.007242364319710578,-0.2702354592154828,-0.06925584325651553
1592260360.3511045,-7.975762489044698,5.520018745739605,1.1528812445223486,0.27555555555555555,-0.7111111111111111,-0.19666666666666666,0.08940722730510658,-0.24999931598362513,-0.04160973966719927
1592260360.3611045,-8.081559395868739,5.617137796500634,1.2735965437181358,0.27555555555555555,-0.7111111111111111,-0.19666666666666666,-0.02982665927086207,-0.3768869831117654,-0.06264978075367765
1592260360.3711045,-7.832516204209453,5.840194450513437,1.459740732648751,0.27555555555555555,-0.7111111111111111,-0.19666666666666666,0.032739064315275616,-0.32017651071318726,-0.11153504436182692
1592260360.3811045,-7.847789308863156,6.023471706357876,1.2153710581894983,0.27555555555555555,-0.7111111111111111,-0.19666666666666666,0.04606736247571516,-0.3368368834137367,0.019248881337486146
1592260360.3911045,-7.689659304674981,5.833193757402634,1.417721730648645,0.29444444444444445,-0.7111111111111111,-0.18222222222222223,0.04119453707922518,-0.14708256717892645,-0.06877341142755176
1592260360.4011045,-7.578768687406261,5.827705742899995,1.0955735642750013,0.29444444444444445,-0.7111111111111111,-0.18222222222222223,0.01225008932451412,-0.25946641693746014,0.06750637620139795
1592260360.4111044,-7.854863423945238,5.677431711972619,1.1313964764474866,0.29444444444444445,-0.7111111111111111,-0.18222222222222223,-0.08147784851510695,-0.15312958026523144,0.05390241505350557
1592260360.4211044,-7.711690552223693,5.597874445050238,1.1431883324246435,0.29444444444444445,-0.7111111111111111,-0.18222222222222223,-0.04222103067276385,-0.20428057902809743,0.02789760006366252
1592260360.4311044,-7.891366928888543,5.565206012929355,1.192190980605966,0.29444444444444445,-0.7111111111111111,-0.18222222222222223,0.013014352955934429,-0.1249910767223854,0.2051853636460973
1592260360.4411044,-8.13590991964346,5.631737456951854,1.338522520089135,0.2877777777777778,-0.7,-0.20444444444444446,0.003073978676152481,-0.21412376994296578,-0.043130354552467914
1592260360.4511044,-7.881743701926469,5.496559875802696,1.3814233293345564,0.2877777777777778,-0.7,-0.20444444444444446,0.05372112599379131,-0.10194683879209857,-0.035236582327626505
1592260360.4611044,-7.791063904907614,5.45886901259268,1.13,0.2877777777777778,-0.7,-0.20444444444444446,0.013936496185271303,-0.247033439138215,-0.07685895869172481
1592260360.4711044,-8.138400099527246,5.613866633490918,1.1303222194575764,0.2877777777777778,-0.7,-0.20444444444444446,0.031243792949866765,-0.09517613930126206,0.0448646568435722
1592260360.4811044,-7.870041232716027,5.703319589094658,1.1377766324245546,0.2877777777777778,-0.7,-0.20444444444444446,0.09792211861439606,-0.2529273000197826,0.04811725809550046
1592260360.4911044,-7.851475358702433,5.376316281971304,1.2161041796631316,0.2822222222222222,-0.7055555555555556,-0.19,0.18464811806681822,-0.04061320197189862,-0.02088468005627417
1592260360.5011044,-7.985513131180824,5.415171043726941,1.1151710437269413,0.2822222222222222,-0.7055555555555556,-0.19,0.09493525994969493,-0.025953876024915952,0.14267276975203672
1592260360.5111043,-7.890113235740468,5.383111764843221,1.0792220587891947,0.2822222222222222,-0.7055555555555556,-0.19,-0.02060386833604627,-0.020181171726182067,0.13074769936034053
1592260360.5211043,-8.137379728436205,5.458758818732939,1.059724181940653,0.2822222222222222,-0.7055555555555556,-0.19,0.06287705330643911,-0.1145974063280287,0.07242374660235351
1592260360.5311043,-7.996117453114476,5.391845109370014,1.044854468748892,0.2822222222222222,-0.7055555555555556,-0.19,0.04179061016703275,-0.11784147450332197,0.03673899667412736
1592260360.5411043,-7.949165912877887,5.345382527969531,1.075511544870269,0.2877777777777778,-0.72,-0.20444444444444446,0.0727920910674219,-0.1780276343961631,0.09293073321517331
1592260360.5511043,-8.039881943187986,5.651191423918943,1.2642862312285146,0.2877777777777778,-0.72,-0.20444444444444446,0.059183910268668254,-0.4036405713448045,0.026680281169543373
1592260360.5611043,-7.618620219862821,5.240146105421404,1.0418993704782487,0.2877777777777778,-0.72,-0.20444444444444446,0.12466459616042404,-0.09549376397832735,-0.13500622133985418
1592260360.5711043,-8.199902987879357,5.249998355726769,1.169978624447994,0.2877777777777778,-0.72,-0.20444444444444446,0.07200362040165785,-0.28249396361149703,0.02942498868241572
1592260360.5811043,-7.854278647980214,5.054977698860634,1.0193009491195806,0.2877777777777778,-0.72,-0.20444444444444446,0.06232499849221544,-0.19839762423939142,-0.04017036757096039
1592260360.5911043,-8.11,5.06,0.78,0.3211111111111111,-0.7266666666666667,-0.17333333333333334,0.12544553998709243,-0.07526732399225547,-0.20289452554434081
1592260360.6011043,-8.392392499191724,5.1217733591981895,1.1153410927901715,0.3211111111111111,-0.7266666666666667,-0.17333333333333334,0.13314660075870338,-0.13591317756869153,-0.24236246199884684
1592260360.6111042,-8.194265543426672,5.236177028951116,0.8612743236829615,0.3211111111111111,-0.7266666666666667,-0.17333333333333334,0.23554619199231314,-0.08261930084775454,-0.22801650860331055
1592260360.6211042,-8.137251364161388,5.1859457521806664,0.8958553391484446,0.3211111111111111,-0.7266666666666667,-0.17333333333333334,0.07471697733507289,-0.12761733902021669,-0.1437588713543499
1592260360.6311042,-8.5966581033178,5.286179949814793,1.163146532839447,0.3211111111111111,-0.7266666666666667,-0.17333333333333334,0.0838285230215844,-0.14584043039323966,-0.06631073301900216
1592260360.6411042,-8.236494689638896,5.4006138777436865,1.3255248996931792,0.29444444444444445,-0.72,-0.16666666666666666,0.08005861219416573,-0.2594362472115977,-0.01712720182626616
1592260360.6511042,-8.03,5.407923293690596,1.40532741080384,0.29444444444444445,-0.72,-0.16666666666666666,0.23557761221747947,-0.22950559699489426,-0.06455595652922606
1592260360.6611042,-8.018286094098656,5.368935099463514,1.3173377486587856,0.29444444444444445,-0.72,-0.16666666666666666,0.21152494792386436,-0.04904028315676057,-0.11728525775111459
1592260360.6711042,-7.825052977712824,5.347491170381196,1.2741813826980068,0.29444444444444445,-0.72,-0.16666666666666666,0.1535411747703686,-0.2463151083881625,-0.27258179817294537
1592260360.6811042,-8.131541834124954,5.296409694312508,1.3593171761458207,0.29444444444444445,-0.72,-0.16666666666666666,0.19254604732812547,-0.33082566559663584,-0.07012793584934995
1592260360.6911042,-7.91,5.33,1.62,0.30666666666666664,-0.7266666666666667,-0.17222222222222222,-0.006544984694978735,-0.2999784651865254,-0.18980455615438332
1592260360.7011042,-8.117930307539682,5.230193452380952,1.703172123015873,0.30666666666666664,-0.7266666666666667,-0.17222222222222222,0.15767036408166749,-0.332640081517792,-0.011072933452729722
1592260360.7111042,-8.04200396030268,5.19966172414606,1.59083284222437,0.30666666666666664,-0.7266666666666667,-0.17222222222222222,0.16734423179937338,-0.20090232771677594,-0.04421306542245112
1592260360.7211041,-8.43104753823464,5.517376002586015,1.9415105966018142,0.30666666666666664,-0.7266666666666667,-0.17222222222222222,0.1817646460201036,0.0082347729699836,-0.02760751510974853
1592260360.7311041,-7.9395644180455385,5.373320605289209,1.4754490171121482,0.30666666666666664,-0.7266666666666667,-0.17222222222222222,0.15958016671335828,-0.07865443764810218,-0.04609458119870295
1592260360.7411041,-8.19406326364377,5.407267988053218,1.7149739342926962,0.2865168190183124,-0.7065168190183124,-0.17858533200591303,0.0008557527504390317,-0.20204256389735437,-0.01993486590963235
1592260360.751104,-7.695784299551828,5.351786901836055,1.6135738036721123,0.28555555555555556,-0.7055555555555556,-0.17888888888888888,0.11198954222556141,-0.19667440877070697,-0.027010875225335476
1592260360.761104,-7.802575217453301,5.040119777555968,1.5010181092257238,0.28555555555555556,-0.7055555555555556,-0.17888888888888888,0.06768377133282087,-0.1297959529566694,-0.07740978844371792
1592260360.771104,-8.230271481098063,5.060480312711955,1.669770285224717,0.28555555555555556,-0.7055555555555556,-0.17888888888888888,0.07657000873084986,-0.3084158055064493,-0.07084021687548746
1592260360.781104,-8.327593974226252,5.2326662620926,1.5874204833470176,0.28555555555555556,-0.7055555555555556,-0.17888888888888888,0.15251693591560592,-0.20470333504984695,-0.04797447535749638
1592260360.791104,-8.2,4.95,1.85,0.3,-0.72,-0.18666666666666668,0.1090830782496456,-0.2650718801466388,-0.025089107997418484
1592260360.801104,-8.142192929898142,5.152324745356501,1.9583882564409827,0.3,-0.72,-0.18666666666666668,0.10593019167399376,-0.25403677713185735,0.015898417486055295
1592260360.811104,-7.767849994561079,5.201447296856304,1.4194283694115086,0.3,-0.72,-0.18666666666666668,0.1431333617185667,-0.30378693954690894,-0.03688747583538271
1592260360.821104,-8.008216989667158,5.1139276701109475,1.6099626208275797,0.3,-0.72,-0.18666666666666668,0.0918759641256664,-0.32530151927433787,-0.06122526049996191
1592260360.831104,-7.910640904464156,5.387043042024139,1.6127093936309438,0.3,-0.72,-0.18666666666666668,0.14750369447285788,-0.10188894058427764,-0.0017359389390200902
1592260360.841104,-8.16,5.45,1.78,0.29333333333333333,-0.7266666666666667,-0.18666666666666668,0.09817477042468103,-0.038179077387375956,-0.09926560120717749
1592260360.851104,-7.833274680843099,5.286637340421549,1.7108850286398862,0.29333333333333333,-0.7266666666666667,-0.18666666666666668,0.18658989078409494,-0.09917865655007237,-0.09652404708750574
1592260360.861104,-8.207507681399196,5.237292306783266,1.8213353817064524,0.29333333333333333,-0.7266666666666667,-0.18666666666666668,0.09341405204596667,-0.2198671796132633,0.018591110754604706
1592260360.871104,-7.9724216144096065,5.24,2.0402401601067375,0.29333333333333333,-0.7266666666666667,-0.18666666666666668,0.060066280486205784,-0.11525511379450462,-0.09374886460804098
1592260360.881104,-7.974363633105772,5.318999982081743,1.827363686860542,0.29333333333333333,-0.7266666666666667,-0.18666666666666668,0.16153218232351615,0.01360560677591742,-0.13608609008679012
1592260360.891104,-8.229710707355794,5.35,2.063699065090845,0.3108028066874424,-0.731804747064934,-0.16611434507359715,0.1311835138685608,-0.10125792117930105,-0.07487016845599286
1592260360.901104,-7.931084265175719,5.274325079872204,2.0305411341853032,0.31222222222222223,-0.7322222222222222,-0.16444444444444445,0.18205024787625357,-0.14342921848055387,-0.07815645727880358
1592260360.911104,-7.7580316165221825,5.071121876593574,1.653227944926058,0.31222222222222223,-0.7322222222222222,-0.16444444444444445,0.21056037919736664,-0.03520919184543378,-0.1209298009293126
1592260360.921104,-8.289660801741338,5.185617371926097,1.771122800653002,0.31222222222222223,-0.7322222222222222,-0.16444444444444445,0.19028262671550802,-0.06502062082369038,-0.03837555751924952
1592260360.931104,-7.911620573234681,5.020357014582286,1.7278158896630988,0.31222222222222223,-0.7322222222222222,-0.16444444444444445,0.16459555942072324,-0.1847115964443231,0.009739588543236623
1592260360.941104,-8.13345060840493,5.084226956420324,1.728845391284065,0.2865818744141646,-0.7322222222222222,-0.16444444444444445,0.20415184552530094,-0.022703299972567148,-0.08600481712251506
1592260360.951104,-8.180617353736826,5.034888763273711,1.7606173537368273,0.28555555555555556,-0.7322222222222222,-0.16444444444444445,0.19681547935011023,-0.07830563588710487,0.013663903089101953
1592260360.961104,-8.37955308813324,5.1705754337265795,1.7351117279666899,0.28555555555555556,-0.7322222222222222,-0.16444444444444445,0.12136436428892623,-0.04643160210973957,-0.08097622209275003
1592260360.971104,-8.10795167059234,5.14827881008462,1.704967286050772,0.28555555555555556,-0.7322222222222222,-0.16444444444444445,0.1471243624787685,-0.21294038903695212,-0.05557527329478346
1592260360.981104,-8.001406139482247,5.200742325647192,1.827558883859103,0.28555555555555556,-0.7322222222222222,-0.16444444444444445,0.21807895098988983,-0.158830725480745,0.01802868299670573
1592260360.991104,-7.883748962383677,5.265875311284896,1.7202477172440909,0.3085558322532415,-0.7322222222222222,-0.15294430609560147,0.18905376109354846,-0.03935097344843533,-0.009627419234761528
1592260361.0011039,-7.798635588402502,5.127271176805003,1.7078411028993745,0.31222222222222223,-0.7322222222222222,-0.1511111111111111,0.1432610345274461,-0.07761995111230777,-0.030456596985594983
1592260361.0111039,-7.891785690821891,4.9932823073385455,1.5568707706458182,0.31222222222222223,-0.7322222222222222,-0.1511111111111111,0.09091369735320243,-0.07417835653019424,-0.12091709800007541
1592260361.0211039,-8.123989670755325,5.104751452550032,1.4142220787604907,0.31222222222222223,-0.7322222222222222,-0.1511111111111111,-0.003167564144395771,-0.024666578320531547,-0.07835390328191458
1592260361.0311038,-8.234420780573808,5.060315154672224,1.4435093765026448,0.31222222222222223,-0.7322222222222222,-0.1511111111111111,-0.008481344835409618,-0.00044785431148656324,-0.08097049469300037
1592260361.0411038,-8.318019385079845,5.134333042027489,1.3475101294986893,0.2880131175904593,-0.738274498380163,-0.14405012226018027,0.19830631118685216,-0.07279464711244384,-0.08442607339686264
1592260361.0511038,-8.345851518026565,5.25567678684377,1.372270714737508,0.28555555555555556,-0.7388888888888889,-0.14333333333333334,0.13477719715307396,-0.07847789220139628,-0.020716297882448914
1592260361.0611038,-8.401675461008665,5.283319262386136,1.4933509220173296,0.28555555555555556,-0.7388888888888889,-0.14333333333333334,-0.051293221487520954,-0.0047115843684766845,0.17292603403091594
1592260361.0711038,-8.282001329313742,5.27,1.6038656918365894,0.28555555555555556,-0.7388888888888889,-0.14333333333333334,0.09151170971270173,-0.07954245262357812,0.06015714127546268
1592260361.0811038,-8.22789356506751,5.263578713013501,1.7997960356219478,0.28555555555555556,-0.7388888888888889,-0.14333333333333334,0.09757686604863874,-0.06268140553985775,0.11374778216247139
1592260361.0911038,-8.080585381986552,5.203381104619116,1.819115863741594,0.30712465855779714,-0.7388888888888889,-0.11906809245581156,0.1494933621565276,-0.10472107792184338,0.1835489043733817
1592260361.1011038,-7.941548983071007,5.181657614082385,1.7791440352059629,0.31222222222222223,-0.7388888888888889,-0.11333333333333333,0.12148982420456841,-0.06156972773419842,0.1538590372887063
1592260361.1111038,-7.925523397032571,5.289579467969916,1.5267849931228235,0.31222222222222223,-0.7388888888888889,-0.11333333333333333,-0.05891916362704119,-0.08406943552891849,0.08101915713703353
1592260361.1211038,-7.844822951667098,5.089645903334195,1.53581545619023,0.31222222222222223,-0.7388888888888889,-0.11333333333333333,-0.035602979982447,0.11328343932424681,0.05911378073757674
1592260361.1311038,-8.108187017339356,5.171563638350576,1.5312051945213463,0.31222222222222223,-0.7388888888888889,-0.11333333333333333,0.04160797035995297,0.030913859071963756,0.07066713497656144
1592260361.1411037,-8.249225468379873,5.196144569664776,1.7354217213408945,0.31222222222222223,-0.7457276736933617,-0.12017211813780616,0.0589011037394429,0.07058859878116305,-0.002615378577716182
1592260361.1511037,-8.161144113562722,5.184380882579849,1.8175235303193953,0.31222222222222223,-0.7477777777777778,-0.12222222222222222,0.053315637874350195,0.07044745426490477,-0.005288282328444284
1592260361.1611037,-8.095440940396665,5.026971674175341,1.542296100668013,0.31222222222222223,-0.7477777777777778,-0.12222222222222222,0.1279956697409013,-0.0027461414992007264,0.0043506134346794345
1592260361.1711037,-8.362394991542944,5.23402884796091,1.5570144239804549,0.31222222222222223,-0.7477777777777778,-0.12222222222222222,0.01736383353052179,0.11718627914907984,-0.0048457507824777955
1592260361.1811037,-8.140944971000142,5.244283491300043,1.6738110057999718,0.31222222222222223,-0.7477777777777778,-0.12222222222222222,0.08878442870629699,0.02819386331554391,-0.013574971674493664
1592260361.1911037,-8.038848562198382,5.2216719179994415,1.7485015753998325,0.30057308215566103,-0.7477777777777778,-0.11674027395560518,0.15387596712966747,-0.0935568055458039,-0.0018891694280039756
1592260361.2011037,-7.906728974160025,5.374033293362489,1.3646845830100398,0.29333333333333333,-0.7477777777777778,-0.11333333333333333,0.08646968497659369,0.17762254802870736,-0.03993893360923241
1592260361.2111037,-8.094827264697223,5.230852144469526,1.3101013347727943,0.29333333333333333,-0.7477777777777778,-0.11333333333333333,0.07247718890166448,-0.005599862097287245,0.0803119747402418
1592260361.2211037,-8.04247398228375,5.211881504429062,1.186533230069219,0.29333333333333333,-0.7477777777777778,-0.11333333333333333,0.16676304614885362,0.03816946747390415,0.09455642679565085
1592260361.2311037,-8.116055061979843,5.367298697194227,1.2560550619798434,0.29333333333333333,-0.7477777777777778,-0.11333333333333333,0.10027302137658668,-0.008403078200845057,0.06007797363290161
1592260361.2411036,-8.037805392731537,5.158363423212192,1.6053997655334116,0.29333333333333333,-0.7606619773348964,-0.11977543311189266,0.027601471602685237,-0.11514518169788264,0.04036073895236887
1592260361.2511036,-8.030846084608461,5.111184518451846,1.6015283528352835,0.29333333333333333,-0.7655555555555555,-0.12222222222222222,0.006249645451616957,-0.15375117511633665,0.060327949686087075
1592260361.2611036,-8.273178920526988,5.47192732681683,1.475907352316192,0.29333333333333333,-0.7655555555555555,-0.12222222222222222,-0.0361707990406804,-0.04689622002174576,0.10238928068548651
1592260361.2711036,-7.9168717322444,5.479077968171583,1.416300805251307,0.29333333333333333,-0.7655555555555555,-0.12222222222222222,0.0016140782009293822,0.004242387991904223,0.06367411947478883
1592260361.2811036,-7.729143305234269,5.36472652421094,1.295273475789061,0.29333333333333333,-0.7655555555555555,-0.12222222222222222,0.022208382361070762,-0.03433582884335982,-0.052309195949272816
1592260361.2911036,-8.001863657767958,5.133914224653168,1.4291918716267613,0.3019461247751174,-0.7590959619742175,-0.12365768746251957,0.125858132989984,0.1365289686882125,0.04914076704981481
1592260361.3011036,-7.946015594078999,5.0296236048444545,1.5152628037679094,0.30666666666666664,-0.7555555555555555,-0.12444444444444444,0.20437892924749101,0.2126143433122895,0.08793190132569675
1592260361.3111036,-8.091718571971136,5.191283073806811,1.7104354981643246,0.30666666666666664,-0.7555555555555555,-0.12444444444444444,0.1364174416309378,0.09796610536424906,-0.05730169039077503
1592260361.3211036,-8.00059954357328,5.237730630874561,1.66950179863072,0.30666666666666664,-0.7555555555555555,-0.12444444444444444,0.08517737376271634,0.05710155057673969,-0.035099789470825024
1592260361.3311036,-7.906151824280857,5.202057715283522,1.5243826854149436,0.30666666666666664,-0.7555555555555555,-0.12444444444444444,0.11390641297126484,-0.07937238057855345,0.019199443829874988
1592260361.3411036,-7.969093649435822,5.2332274227056095,1.6454214020937716,0.2918706804078917,-0.7512400595634129,-0.116429951887608,0.17610240803248348,-0.10587297241153033,-0.01965757141632611
1592260361.3511035,-8.013431105914648,5.142335358259411,1.43832041277991,0.28,-0.7477777777777778,-0.11,0.2496411841432889,0.01601233563823312,-0.013018130878470091
1592260361.3611035,-8.254024899504351,5.037912032158608,1.5191004175935683,0.28,-0.7477777777777778,-0.11,0.23151756256080588,0.10802302726091821,-0.06777616928826204
1592260361.3711035,-8.09369957440142,5.001716232799812,1.5025629912008145,0.28,-0.7477777777777778,-0.11,0.08293145054306941,0.11568716302226814,-0.12266980159342747
1592260361.3811035,-8.176184939295014,5.232941532479918,1.369030187433518,0.28,-0.7477777777777778,-0.11,0.07974343925721752,-0.009058020670001207,-0.08891917346432412
1592260361.3911035,-8.142159285584109,5.261079642792054,1.5052349188992165,0.29262912338254055,-0.7477777777777778,-0.08193528137213212,0.14501651934160995,0.09567323520759466,-0.08261634659806501
1592260361.4011035,-8.051663794960156,5.282901859429966,1.5808123339794673,0.3,-0.7477777777777778,-0.06555555555555556,0.14086263854046963,0.17031506966787394,-0.03350535811937415
1592260361.4111035,-8.375930455191156,5.502781792353777,1.3205731579272435,0.3,-0.7477777777777778,-0.06555555555555556,0.0051486188869359,-0.05143828690614766,0.16943348835630057
1592260361.4211035,-8.064729568739576,5.1206814391231825,1.2385370502740052,0.3,-0.7477777777777778,-0.06555555555555556,0.13350539416402984,-0.05987548592820223,0.04107561387904424
1592260361.4311035,-8.180076756774875,5.260811811828587,1.3085298898925741,0.3,-0.7477777777777778,-0.06555555555555556,0.11826988475406944,0.035773615349116855,-0.02153597841213222
1592260361.4411035,-8.312230805498134,5.472074855837232,1.3939313821492039,0.30266250800904265,-0.7508840371216609,-0.06821806356459822,0.04491637080587826,0.02695419799161619,-0.012897660666433906
1592260361.4511034,-8.084154845246868,5.212955047899779,1.4249290714812084,0.30666666666666664,-0.7555555555555555,-0.07222222222222222,0.07236359997304188,0.023861621921610024,0.03240257775361065
1592260361.4611034,-8.201000216966804,5.010857018876112,1.4288095754682866,0.30666666666666664,-0.7555555555555555,-0.07222222222222222,0.02138018866730307,0.07345960745575993,0.14558453094693788
1592260361.4711034,-8.239365062870206,5.118234178530604,1.3170832900342928,0.30666666666666664,-0.7555555555555555,-0.07222222222222222,0.07299262497898924,0.04712648567051209,0.13462450751172755
1592260361.4811034,-8.009672290545042,5.069770603381529,1.2149590363181302,0.30666666666666664,-0.7555555555555555,-0.07222222222222222,0.12544553998709243,0.13377244214699804,0.028266869321194293
1592260361.4911034,-8.16469770756622,5.087643425584986,1.3532735479273073,0.302913251771786,-0.7474231566166476,-0.06033640838843357,0.08675402219767663,0.11259643702125433,-0.06015998492852796
1592260361.5011034,-8.298644500359453,5.198381739755572,1.4219086987778575,0.3,-0.7411111111111112,-0.051111111111111114,0.061792623055286655,0.022623799060729696,-0.07174286620233898
1592260361.5111034,-7.962493265015055,5.175764618879088,1.3294347894987057,0.3,-0.7411111111111112,-0.051111111111111114,0.10482491418035683,0.04824023534364563,-0.05332739853964595
1592260361.5211034,-8.300188278595696,5.149905860702152,1.4087738297470744,0.3,-0.7411111111111112,-0.051111111111111114,0.11633816845896605,0.04075199059344831,-0.1076731362253557
1592260361.5311034,-8.233148667871285,5.087749798162316,1.2798992733843375,0.3,-0.7411111111111112,-0.051111111111111114,0.0925786587943582,0.03215797328656683,-0.1153716164321886
1592260361.5411034,-8.30937611620431,5.12743779021312,1.278562924157638,0.29250691219854213,-0.748604198912569,-0.051111111111111114,0.044833028271962325,0.043742197489465874,-0.02448881988255973
1592260361.5511034,-8.509232728430437,5.192038363578479,1.3435012734797835,0.28555555555555556,-0.7555555555555555,-0.051111111111111114,0.02941839692916023,0.02165703693469285,0.07425489341642841
1592260361.5611033,-8.361806463765776,5.294451710126208,1.4407098840181911,0.28555555555555556,-0.7555555555555555,-0.051111111111111114,0.016116092082230547,-0.03959371415899323,0.10831238418343521
1592260361.5711033,-7.70793628318584,5.265419469026549,1.1449295575221239,0.28555555555555556,-0.7555555555555555,-0.051111111111111114,0.053272803173291944,-0.13937339612960392,0.020672343812460095
1592260361.5811033,-7.900686246107047,5.176681936698776,1.008993083218657,0.28555555555555556,-0.7555555555555555,-0.051111111111111114,0.14116396755120578,-0.06570450185814411,-0.056126589648023716
1592260361.5911033,-8.392553689134594,5.264407824792685,1.24597703593451,0.28555555555555556,-0.7519717910553547,-0.051111111111111114,0.1340991240109411,-0.02647705854014839,-0.07349341928791081
1592260361.6011033,-8.195308058737846,5.381075154521476,1.3678835478918154,0.28555555555555556,-0.7477777777777778,-0.051111111111111114,0.07340323628799879,-0.11720382192663852,-0.025831788504189625
1592260361.6111033,-8.160395691740582,5.08975866835618,1.118243289943555,0.28555555555555556,-0.7477777777777778,-0.051111111111111114,0.16326661980514084,-0.08719804221484499,-0.10064387300049765
1592260361.6211033,-8.022165974712209,5.290555765238724,0.8717776939045103,0.28555555555555556,-0.7477777777777778,-0.051111111111111114,0.03556993016967466,0.10521990792960936,-0.012753420611785388
1592260361.6311033,-8.171783122648742,5.284957833366021,1.1309337279583505,0.28555555555555556,-0.7477777777777778,-0.051111111111111114,0.017490089849814455,0.10884848554726408,0.054822789752342206
1592260361.6411033,-8.43654432369626,5.2474184949764195,1.4300724489098489,0.28846870040021566,-0.7477777777777778,-0.04029085883094495,0.039626584710331925,0.054505975849363106,0.039543603734259296
1592260361.6511033,-8.193245697040997,5.40232295849211,1.4388304646939976,0.29333333333333333,-0.7477777777777778,-0.022222222222222223,-0.08954877932604151,-0.09093278779435816,0.055326889304052426
1592260361.6611032,-8.25724515820515,5.364849764884036,1.4713170478998965,0.29333333333333333,-0.7477777777777778,-0.022222222222222223,-0.07951945141244508,-0.16730820347783842,0.035892653640753315
1592260361.6711032,-8.144676294820718,5.2302878486055775,1.2707913346613546,0.29333333333333333,-0.7477777777777778,-0.022222222222222223,0.029240566582995137,-0.013694272259703016,-0.02554423649820311
1592260361.6811032,-8.12868995794289,5.229276359477606,1.2606550210285545,0.29333333333333333,-0.7477777777777778,-0.022222222222222223,0.048395323788058386,0.002234058144304149,-0.01053199414359791
1592260361.6911032,-8.178288383107487,5.179236942507565,1.3943296934613867,0.29039863175897906,-0.7423276177111199,-0.01970676372991858,-0.03794501015855716,-0.030758959668891986,-0.07403025500855338
1592260361.7011032,-8.300259686632563,5.331115367851162,1.539442316074419,0.28555555555555556,-0.7333333333333333,-0.015555555555555555,-0.09540473939447612,-0.13806880767042334,-0.014707409862226031
1592260361.7111032,-8.170784435690097,5.325392217845048,1.3479024120533554,0.28555555555555556,-0.7333333333333333,-0.015555555555555555,-0.10637722382884386,-0.04426643938211601,0.04617428123586232
1592260361.7211032,-8.213343653250774,5.1553173374613,1.3466873065015479,0.28555555555555556,-0.7333333333333333,-0.015555555555555555,-0.13234935059736608,0.009964384593671187,0.002543020369101645
1592260361.7311032,-8.20391998596245,5.031189682400421,1.5113212844358659,0.28555555555555556,-0.7333333333333333,-0.015555555555555555,-0.09679089491012596,0.003849011441519782,-0.0027533954739799166
1592260361.7411032,-8.11834455282319,5.208344552823189,1.3927565599670284,0.279536413732045,-0.7333333333333333,-0.010665002823953228,-0.12553133482470463,-0.027202133692321637,0.034657367895870705
1592260361.7511032,-8.196316620701035,5.350484642764538,1.4804200551587583,0.2677777777777778,-0.7333333333333333,-0.0011111111111111111,-0.09493927936177815,-0.039543059418074095,0.05142060033629989
1592260361.7611032,-8.148107068705173,5.441931153265383,1.3790057568893923,0.2677777777777778,-0.7333333333333333,-0.0011111111111111111,-0.03718836296350331,-0.10524743781911061,0.0843109968089181
1592260361.7711031,-8.283729855296908,5.585266418235493,1.1863320911774669,0.2677777777777778,-0.7333333333333333,-0.0011111111111111111,-0.07547548088018963,-0.11675674523324525,0.08478066919820601
1592260361.7811031,-8.22368655612642,5.485464736104624,1.3101796278997353,0.2677777777777778,-0.7333333333333333,-0.0011111111111111111,-0.10054500917013705,-0.05414820826817298,0.07234897377293062
1592260361.7911031,-8.01604246284501,5.331684359518754,1.3557480537862703,0.2677777777777778,-0.728856176771251,0.0009239600534717309,-0.09541874360690866,-0.005821624154851928,0.09075480511478264
1592260361.801103,-8.007545414776782,5.318012110607142,1.3225756912946376,0.2677777777777778,-0.7211111111111111,0.0044444444444444444,-0.17378717799282353,-0.07995784863800956,0.1464787104356955
1592260361.811103,-8.111451808230237,5.32283855341581,1.5286457863367606,0.2677777777777778,-0.7211111111111111,0.0044444444444444444,-0.23284335163566985,-0.08201903631231681,0.2000793931362179
1592260361.821103,-7.992059719997934,5.2722611974996125,1.4813059874980627,0.2677777777777778,-0.7211111111111111,0.0044444444444444444,-0.20429755359578547,-0.001507619771872075,0.15736455495237814
1592260361.831103,-8.039507753229696,5.18201681990159,1.5270827860657505,0.2677777777777778,-0.7211111111111111,0.0044444444444444444,-0.12890529400681566,-0.00992486862839461,0.12849803141144123
1592260361.841103,-8.144091383399209,5.088560632411067,1.7170456916996049,0.27243826086956524,-0.7240768730786122,0.0023260430390865173,-0.12388367726259529,0.021210682863965005,0.13328520716178674
1592260361.851103,-7.81,5.07,1.55,0.28,-0.7288888888888889,-0.0011111111111111111,-0.11780972450961724,-0.038179077387375956,0.1265363707695889
1592260361.861103,-8.002927613941019,5.394107238605899,1.2858927613941018,0.28,-0.7288888888888889,-0.0011111111111111111,-0.23196209519459624,-0.08149880450524058,0.04081578793294917
1592260361.871103,-7.650734220289718,5.280358012146419,1.475273058109034,0.28,-0.7288888888888889,-0.0011111111111111111,-0.1803875341584942,-0.1403061213010548,0.12320629125930213
1592260361.881103,-7.784215279031967,5.40151164890735,1.5921076395159834,0.28,-0.7288888888888889,-0.0011111111111111111,-0.19303587392474758,-0.07063764666000573,0.14471110492317893
1592260361.891103,-7.971585377837466,5.415393232664025,1.6607989125094174,0.2697461430115628,-0.7288888888888889,-0.0011111111111111111,-0.2613908041574367,-0.07443386338651953,0.08797179194710683
1592260361.901103,-7.695657442861091,5.346055737575495,1.497330754352031,0.25333333333333335,-0.7288888888888889,-0.0011111111111111111,-0.1939983963980191,-0.040612810298073454,-0.11252501042380861
1592260361.911103,-8.098939632675169,5.229804273967207,1.8046981633758432,0.25333333333333335,-0.7288888888888889,-0.0011111111111111111,-0.19570534965383934,-0.010176915695108132,0.14480465767026043
1592260361.921103,-8.076809365565474,5.485058534784214,1.5553695619122088,0.25333333333333335,-0.7288888888888889,-0.0011111111111111111,-0.07010593948050968,0.10209245952873397,0.13566633608019885
1592260361.931103,-8.043472238479847,5.582397674509345,1.4740497093136682,0.25333333333333335,-0.7288888888888889,-0.0011111111111111111,-0.021725702444130517,0.12366975310866107,0.20040667034521162
1592260361.941103,-7.954607290492296,5.471858637103845,1.4804450081423024,0.2582896989435885,-0.7274432822525645,-7.853494230796007e-05,-0.09043045943908831,0.07752325168906433,0.1455802361338206
1592260361.951103,-7.961053435114504,5.490900763358779,1.482793893129771,0.28,-0.7211111111111111,0.0044444444444444444,-0.0511374809272308,-0.06254707129499144,0.08318792124653507
1592260361.961103,-7.739572106215463,5.513424128319233,1.326575871680767,0.28,-0.7211111111111111,0.0044444444444444444,-0.0795032617288919,-0.010059285245170246,0.13588698141231084
1592260361.971103,-7.953571869362954,5.4449907433779545,1.4342998196145447,0.28,-0.7211111111111111,0.0044444444444444444,-0.004520790917395474,0.17164535123330157,0.12769853067972653
1592260361.981103,-7.913879577901924,5.255231998758535,1.7005330540037245,0.28,-0.7211111111111111,0.0044444444444444444,0.0049684938387730415,0.04828839059822146,0.03855165940976496
1592260361.991103,-7.883546716316858,5.208879485443466,1.7788964116452268,0.27308715113217485,-0.7185434815316332,0.005827014218009479,0.06477348755194696,-0.02669551695815514,0.08180953914394755
1592260362.001103,-8.129939704415632,5.403906972526975,1.6140706319702602,0.2411111111111111,-0.7066666666666667,0.012222222222222223,0.01835076269134349,0.20090622459044416,0.15618686052805214
1592260362.011103,-8.005519648462021,5.309348148148148,1.6539753923414942,0.2411111111111111,-0.7066666666666667,0.012222222222222223,0.09030260143001408,0.10944882497754704,0.11204170167217258
1592260362.021103,-8.15932511969078,5.615889664865815,1.3531901436289366,0.2411111111111111,-0.7066666666666667,0.012222222222222223,0.08618229169681624,0.03904917388714034,0.17042387531417452
1592260362.031103,-8.079987128864067,5.456658085909378,1.46945374026484,0.2411111111111111,-0.7066666666666667,0.012222222222222223,0.053625259353247426,-0.04066148546580045,0.16819649743147705
1592260362.041103,-7.826938911424593,5.3328552400557,1.4663346854755706,0.24451232063934128,-0.7110882390533659,0.01868452032585955,-0.09728385153772352,-0.061840535749556454,0.13031950691499933
1592260362.0511029,-7.82,5.43,1.05,0.25222222222222224,-0.7211111111111111,0.03333333333333333,-0.11999138607461016,-0.20943951023931953,0.20071286397934787
1592260362.0611029,-7.980976767934644,5.150779678325249,1.5575777380648455,0.25222222222222224,-0.7211111111111111,0.03333333333333333,-0.1767757423528446,-0.05185865794217936,0.2004271370498505
1592260362.0711029,-8.340795733632728,5.185712581573223,1.6524901176525626,0.25222222222222224,-0.7211111111111111,0.03333333333333333,-0.13660432580873016,-0.07298202163858104,0.1663719912896943
1592260362.0811028,-8.146229444085959,5.175575565593164,1.563604153223441,0.25222222222222224,-0.7211111111111111,0.03333333333333333,0.01135612840490069,-0.04976691214902092,0.09354386409987271
1592260362.0911028,-8.068540415850345,4.800634835366239,2.08,0.2536402002710541,-0.7196931330622792,0.03451498170735989,-0.10220604612599378,-0.07609477115568299,-0.06848322240610002
1592260362.1011028,-7.73,4.84,2.08,0.2588888888888889,-0.7144444444444444,0.03888888888888889,0.08072147790473774,-0.1679879405044542,-0.148352986419518
1592260362.1111028,-7.941281358861494,5.512734465717912,1.437265534282088,0.2588888888888889,-0.7144444444444444,0.03888888888888889,0.0648503922652311,0.12296270767542122,-0.05841348615686842
1592260362.1211028,-7.65,5.27,1.68,0.2588888888888889,-0.7144444444444444,0.03888888888888889,0.02399827721492203,0.05563236990731925,-0.09926560120717749
1592260362.1311028,-7.964320520004483,5.500069707497479,1.443031267510927,0.2588888888888889,-0.7144444444444444,0.03888888888888889,0.03602399282699077,-0.03322279610122955,0.02218529518302929
1592260362.1411028,-7.9010562461155995,5.497637041640771,1.2304536979490366,0.24858721773358194,-0.7144444444444444,0.04240653269801809,-0.0672917848944515,0.05948017549410414,0.03960447932659212
1592260362.1511028,-8.11,5.25,1.54,0.21333333333333335,-0.7144444444444444,0.05444444444444444,-0.09599310885968812,0.00545415391248228,0.0818123086872342
1592260362.1611028,-8.142486382235658,5.556515416091115,1.3634845839088847,0.21333333333333335,-0.7144444444444444,0.05444444444444444,-0.0030289893723771145,-0.03264375581652293,0.09287305818791994
1592260362.1711028,-8.046788510031796,5.403211489968205,1.5778068194276944,0.21333333333333335,-0.7144444444444444,0.05444444444444444,-0.08868199523228178,-0.042861385701341015,0.15822459239655007
1592260362.1811028,-7.994402514480004,5.394800838160002,1.7,0.21333333333333335,-0.7144444444444444,0.05444444444444444,-0.14830953604636424,-0.012299043217794906,0.23848553482437682
1592260362.1911027,-7.835611174390024,5.350520951981296,1.69088184161621,0.21465819395320027,-0.7138989136009698,0.05335338275749522,-0.12663701153298806,0.029225122944444196,0.295436094356613
1592260362.2011027,-7.946322041146007,5.474433410937426,1.6063220411460066,0.23222222222222222,-0.7066666666666667,0.03888888888888889,0.002181661564992912,-0.03389816129612104,0.02443739270904002
1592260362.2111027,-7.963663263622003,5.452853841982411,1.603348737415415,0.23222222222222222,-0.7066666666666667,0.03888888888888889,0.006613603668588255,-0.03759077513762178,0.1378296444105157
1592260362.2211027,-7.853095978148253,5.522425355561834,1.3433578223603655,0.23222222222222222,-0.7066666666666667,0.03888888888888889,0.0058775610571246365,-0.02574851761991658,0.10748715901214749
1592260362.2311027,-8.204043793573204,5.512375390656302,1.5354577690520073,0.23222222222222222,-0.7066666666666667,0.03888888888888889,0.004994163185245169,0.005471898815827644,0.22927534012665793
1592260362.2411027,-7.808841492815583,5.450426564659745,1.6232016458259666,0.2326727527939396,-0.7071171972383841,0.03978995003232362,0.1798273940245293,0.081247064153053,0.06208429262998304
1592260362.2511027,-7.781362952836637,5.527871496924129,1.4478865345181136,0.24,-0.7144444444444444,0.05444444444444444,0.2083152760261629,-0.005818310955661549,0.06748611411793351
1592260362.2611027,-7.804710338577371,5.367065507866056,1.6403218460251434,0.24,-0.7144444444444444,0.05444444444444444,0.19798227622759224,0.0036458787585267743,0.16801602686857026
1592260362.2711027,-7.917494079857448,5.57450118402851,1.501252960071276,0.24,-0.7144444444444444,0.05444444444444444,0.18071841732732602,0.08988600636740385,0.11930025291863722
1592260362.2811027,-7.8227887258507876,5.5727887258507876,1.5193464710209454,0.24,-0.7144444444444444,0.05444444444444444,0.14491641967542024,0.09515423891378519,-0.004774459359325055
1592260362.2911026,-7.741595106275891,5.491595106275891,1.4219141275310696,0.24,-0.7144444444444444,0.05444444444444444,0.2830832790118022,0.024299439254102106,-0.011859939325293362
1592260362.3011026,-7.6956175166559975,5.36851364487754,1.440327903833843,0.21777777777777776,-0.68,0.05444444444444444,0.2645413490078345,0.10865985338953767,0.19770146029983637
1592260362.3111026,-7.766581704836855,5.550368290741887,1.3082719515430188,0.21777777777777776,-0.68,0.05444444444444444,0.27619786702089144,0.0836849465437274,0.21670519657892803
1592260362.3211026,-8.126351323407775,5.849586435070306,1.2478866832092639,0.21777777777777776,-0.68,0.05444444444444444,0.1526996177633366,-0.052222057541611244,0.29577089446665406
1592260362.3311026,-7.676874912815608,5.473737470357307,1.368918714254399,0.21777777777777776,-0.68,0.05444444444444444,0.26042083384977466,0.021884090167154147,0.15881338431296785
1592260362.3411026,-8.431296798697776,5.736623152787974,1.6688947049248348,0.2189971948265651,-0.6796247947542193,0.056695675919128725,0.39156459122450865,0.196299231236496,0.05418077219851249
1592260362.3511026,-8.12,5.7,1.44,0.23222222222222222,-0.6755555555555556,0.0811111111111111,0.20180369476184434,0.07744898555724837,0.13308135546456762
1592260362.3611026,-7.674799484497005,5.783400045485559,1.0583996664392388,0.23222222222222222,-0.6755555555555556,0.0811111111111111,0.2859504855194201,0.1307470387843834,0.12795434328323202
1592260362.3711026,-7.958319982987169,5.746914297866307,1.182891472318707,0.23222222222222222,-0.6755555555555556,0.0811111111111111,0.21807266997373378,0.12695771740131948,0.2714746632531146
1592260362.3811026,-7.989024763249221,5.726780189400624,1.0583900947003118,0.23222222222222222,-0.6755555555555556,0.0811111111111111,0.16156030946521255,0.168238688501513,0.4930985668885072
1592260362.3911026,-7.900587061065239,5.7642382723890755,1.1162571454495964,0.23057082942665014,-0.6755555555555556,0.08182671465585901,0.11019202191057384,0.025129094898437322,0.38187074767579726
1592260362.4011025,-7.733286733898983,5.309860201696949,1.520349495757627,0.1988888888888889,-0.6755555555555556,0.09555555555555556,0.26869267953767495,-0.058297150750173825,0.23603394496555735
1592260362.4111025,-7.790709303161781,5.4702286837500305,1.204507754632404,0.1988888888888889,-0.6755555555555556,0.09555555555555556,0.14994314612361842,-0.07284593434005764,0.3008122315247252
1592260362.4211025,-7.830223217493354,5.6374023423466575,1.3879045817067037,0.1988888888888889,-0.6755555555555556,0.09555555555555556,0.075028246740546,-0.1567337270065978,0.24781505368864012
1592260362.4311025,-7.59564181766766,5.726061212503534,0.932663635770377,0.1988888888888889,-0.6755555555555556,0.09555555555555556,0.1803682090422726,-0.06034251130788801,0.16098950088673053
1592260362.4411025,-7.9602270140176286,5.480553224704849,1.3374752008326016,0.19918203401957915,-0.6752135529030836,0.09594641572980923,0.005059607155655822,0.05860156397011215,0.08764249003210599
1592260362.4511025,-8.4,5.71,1.5,0.20555555555555555,-0.6677777777777778,0.10444444444444445,0.06763150851478027,-0.16144295580947549,0.3567016658763411
1592260362.4611025,-7.528513427486856,5.7726994082003165,0.9048749204253412,0.20555555555555555,-0.6677777777777778,0.10444444444444445,-0.012700785616097183,0.04274213625538709,0.20949665842498683
1592260362.4711025,-7.892347440164844,5.459633856395625,1.1892534474560152,0.20555555555555555,-0.6677777777777778,0.10444444444444445,-0.08424692403805564,0.04356355230075441,0.1026328431613887
1592260362.4811025,-7.973101222224409,5.687246944438977,0.9189716388828751,0.20555555555555555,-0.6677777777777778,0.10444444444444445,0.0513035049128194,-0.04900438511776808,0.11618894692566549
1592260362.4911025,-7.940081087996221,5.769797280009446,1.0097770080103918,0.20555555555555555,-0.6677777777777778,0.10444444444444445,0.004478312397065497,0.06625762722870307,0.06666230099554116
1592260362.5011024,-7.84,5.41,1.39,0.1988888888888889,-0.6622222222222223,0.12555555555555556,0.04363323129985824,-0.0643590161672909,0.15489797111449674
1592260362.5111024,-7.94379096596453,5.707320208919245,1.456470757045285,0.1988888888888889,-0.6622222222222223,0.12555555555555556,-0.13037929067027376,-0.1763580930219283,0.11333940316994959
1592260362.5211024,-7.65,5.84,1.03,0.1988888888888889,-0.6622222222222223,0.12555555555555556,0.017453292519943295,-0.20943951023931953,0.2498002491916884
1592260362.5311024,-7.302046592738329,5.769170094795207,1.059339116437131,0.1988888888888889,-0.6622222222222223,0.12555555555555556,0.00612307062466062,0.027921248873597804,0.06275574270008205
1592260362.5411024,-7.836555401538186,5.50660436415668,1.5282064925773564,0.1988888888888889,-0.6622222222222223,0.12555555555555556,-0.0041060287113814245,-0.06209482528357217,0.0238851652231223
1592260362.5511024,-7.846834597124406,5.976403033098576,1.0240285309272552,0.16444444444444445,-0.65,0.14666666666666667,0.15736189431796385,-0.0013106512376421086,0.12174936064800812
1592260362.5611024,-7.869889839446853,6.023859135122466,0.9102754013828664,0.16444444444444445,-0.65,0.14666666666666667,0.0067445378241803005,-0.06220138790677582,0.19524541504736725
1592260362.5711024,-7.664933618843683,5.456837259100642,1.4274175588865097,0.16444444444444445,-0.65,0.14666666666666667,0.20814476183945277,-0.10173270071996712,0.3341628128003994
1592260362.5811024,-7.858477274222193,6.076348089192922,0.9963743997895153,0.16444444444444445,-0.65,0.14666666666666667,-0.004627940897916294,0.009417680349705474,0.12313730961986814
1592260362.5911024,-7.68374926001447,5.717695849503388,1.2446721041899624,0.16444444444444445,-0.65,0.14666666666666667,-0.008640545033963902,-0.0628091940991515,0.2535469440414154
1592260362.6011024,-7.33,5.75,1.25,0.17888888888888888,-0.6377777777777778,0.13666666666666666,0.04145156973486533,0.007635815477475192,-0.04908738521234052
1592260362.6111023,-7.71634571050179,5.980645509393241,1.440251630941286,0.17888888888888888,-0.6377777777777778,0.13666666666666666,-0.018782814435059393,0.0486541455573705,0.14087710095670322
1592260362.6211023,-7.373285663549189,5.898719782171185,1.27512087131526,0.17888888888888888,-0.6377777777777778,0.13666666666666666,0.03260384345338679,-0.11499815239758263,0.2168379954442634
1592260362.6311023,-7.618155918397847,5.893822298610073,1.3128667239575549,0.17888888888888888,-0.6377777777777778,0.13666666666666666,0.07990221361094901,-0.06596646724509202,0.14032673552577749
1592260362.6411023,-7.7670344492602,5.925165147212674,1.3363738604095055,0.17888888888888888,-0.6377777777777778,0.13666666666666666,0.10896349606776529,-0.18648531508071242,0.07451147819710538
1592260362.6511023,-7.6092577024342924,5.83799528846598,1.2666335627511665,0.16,-0.6433333333333333,0.12777777777777777,0.16237955161459552,0.01632169855655905,0.18279797504393738
1592260362.6611023,-7.819504772004242,6.023218981972428,1.185542948038176,0.16,-0.6433333333333333,0.12777777777777777,-0.088961935216795,-0.1811932684307685,0.27052293970881014
1592260362.6711023,-7.753402646502836,6.270025992438564,0.8288917769376181,0.16,-0.6433333333333333,0.12777777777777777,-0.0368804938613322,-0.017813122333829177,0.19232620018679422
1592260362.6811023,-7.551773124317579,6.175704063328654,0.8729790594291061,0.16,-0.6433333333333333,0.12777777777777777,0.06192421414111267,-0.026883933845049723,0.2733277642684928
1592260362.6911023,-7.666264233348931,6.036679145219154,1.3881890500701917,0.16,-0.6433333333333333,0.12777777777777777,-0.014794190434643861,-0.0019058486343382953,0.3536144667314938
1592260362.7011023,-7.47,6.05,1.69,0.17,-0.6433333333333333,0.14222222222222222,0.15817046346198613,-0.07090400086226964,0.31525009614147576
1592260362.7111022,-7.348047693604721,6.115666626520535,1.3616668673973265,0.17,-0.6433333333333333,0.14222222222222222,0.24105796896048742,0.039612673135732135,0.23645580079104855
1592260362.7211022,-7.55,6.01,1.57,0.17,-0.6433333333333333,0.14222222222222222,0.16907877128695067,0.06654067773228381,0.23125612588924865
1592260362.7311022,-7.399873452117542,6.310063273941228,1.2191458017934087,0.17,-0.6433333333333333,0.14222222222222222,0.17751207760492688,-0.08127394361721907,0.3608648276341418
1592260362.7411022,-7.367310275222236,6.326344862388883,0.9993443577500873,0.17,-0.6433333333333333,0.14222222222222222,0.10203013167171095,0.05725762774256553,0.3093594998208885
1592260362.7511022,-7.7,6.04,1.5,0.17,-0.6311111111111111,0.15555555555555556,-0.017453292519943295,-0.1832595714594046,0.284706834231575
1592260362.7611022,-7.586058616271621,6.4103094971172325,0.9967588885329917,0.17,-0.6311111111111111,0.15555555555555556,-0.005024215642827606,-0.0993633025388737,0.43696302597624215
1592260362.7711022,-7.406568265682657,5.906586715867158,1.4865682656826569,0.17,-0.6311111111111111,0.15555555555555556,-0.05079407248827593,0.0037675926657442173,0.5316028974100856
1592260362.7811022,-7.351943130019535,6.170608204905578,1.4319431300195353,0.17,-0.6311111111111111,0.15555555555555556,0.07831061638370912,-0.05780541279627942,0.4332847112691124
1592260362.7911022,-7.206341646278904,6.315677334069923,1.3023036855812484,0.17,-0.6311111111111111,0.15555555555555556,0.006290850651104574,-0.004277664805577022,0.42978732830360367
1592260362.8011022,-7.431244844826395,6.213627168628896,1.476736170310808,0.14555555555555555,-0.6233333333333333,0.13666666666666666,0.17423341985567767,-0.05521464075413,0.5441095007001433
1592260362.8111022,-7.811625237589791,6.283505714497298,1.5877299992594605,0.14555555555555555,-0.6233333333333333,0.13666666666666666,0.186143052616977,-0.2061530967465968,0.4620514537932375
1592260362.8211021,-7.406282991202346,6.443191751016933,0.9868082489830668,0.14555555555555555,-0.6233333333333333,0.13666666666666666,0.05202486837097597,-0.15076383492689335,0.547427355412614
1592260362.8311021,-7.689973531387034,6.145570260340536,1.2777454272508197,0.14555555555555555,-0.6233333333333333,0.13666666666666666,-0.024744832442511355,-0.1552220357249488,0.5317785197344345
1592260362.8411021,-7.466281949986173,6.2698433611187925,1.004344605538656,0.14555555555555555,-0.6233333333333333,0.13666666666666666,0.15329184743579274,-0.16245195165909315,0.6899329307938417
1592260362.851102,-6.98,6.45,1.25,0.15222222222222223,-0.6233333333333333,0.15777777777777777,-0.015271630954950384,-0.009817477042468103,0.6566801310628665
1592260362.861102,-7.1327564789034055,6.356648818447919,1.4961076604554866,0.15222222222222223,-0.6233333333333333,0.15777777777777777,-0.026380395582524058,0.08645848306317042,0.7279613707564643
1592260362.871102,-7.0653232373740975,6.551182941638689,1.3488720622901638,0.15222222222222223,-0.6233333333333333,0.15777777777777777,0.05980813466217336,-0.09879370527041068,0.7998895608624967
1592260362.881102,-7.229990772316951,6.588570110330993,1.6316589769307923,0.15222222222222223,-0.6233333333333333,0.15777777777777777,0.08835628679814082,-0.1498807184538364,0.7407281067387887
1592260362.891102,-6.876609428284855,6.538087061183551,1.3371745235707122,0.15222222222222223,-0.6233333333333333,0.15777777777777777,0.04980836199512273,0.027256174093365754,0.8196595718116353
1592260362.901102,-7.14,6.41,1.43,0.1111111111111111,-0.6233333333333333,0.16444444444444445,0.09599310885968812,0.11017390903214205,0.6632251157578453
1592260362.911102,-7.269790046342938,6.741685673987508,1.2064726979649407,0.1111111111111111,-0.6233333333333333,0.16444444444444445,0.10543170738052265,0.08343121322311087,0.7395204538012577
1592260362.921102,-7.348753343523118,6.85027703477264,0.8808311043179213,0.1111111111111111,-0.6233333333333333,0.16444444444444445,-0.010923417727855463,-0.027618297328902197,0.7381088566291253
1592260362.931102,-7.169871967654986,6.888527628032345,1.0003200808625337,0.1111111111111111,-0.6233333333333333,0.16444444444444445,-0.013062037065338289,-0.07589175845972901,0.995900572094645
1592260362.941102,-7.154996453397645,6.717459214072918,1.0375088665058874,0.1111111111111111,-0.6233333333333333,0.16444444444444445,-0.009816703293863693,0.10503559929997973,0.9926552383231705
1592260362.951102,-7.16,6.66,1.04,0.09777777777777778,-0.6177777777777778,0.15777777777777777,0.1112647398146385,-0.10362892433716332,1.0722866591940161
1592260362.961102,-6.952505212084454,6.729164929305182,1.04,0.09777777777777778,-0.6177777777777778,0.15777777777777777,-0.026426462153753827,-0.05081586056846489,1.133587536782684
1592260362.971102,-6.949195728815279,6.798391457630558,1.1665148248662083,0.09777777777777778,-0.6177777777777778,0.15777777777777777,-0.04162703448801907,-0.021310667377945135,1.1134662336611025
1592260362.981102,-6.7261804117577055,6.907044150898489,1.1018809948827801,0.09777777777777778,-0.6177777777777778,0.15777777777777777,-0.003236897226632472,0.011119775556094724,1.1466159959314808
1592260362.991102,-6.401707352461098,6.932206463781784,1.0777935362182163,0.09777777777777778,-0.6177777777777778,0.15777777777777777,0.03657592925670713,-0.09377678634342868,1.1184857900699967
1592260363.001102,-6.4,7.05,1.14,0.10222222222222223,-0.6177777777777778,0.13111111111111112,-0.11562806294462433,-0.009817477042468103,1.0919216132789524
1592260363.011102,-6.354699296467206,7.140601407065588,1.0116480066570845,0.10222222222222223,-0.6177777777777778,0.13111111111111112,-0.07609574143877049,6.560333399536177e-05,0.9412046375378846
1592260363.021102,-6.4541670690487685,7.141458232737808,0.9129164654756157,0.10222222222222223,-0.6177777777777778,0.13111111111111112,-0.16185994005354903,0.01780180356183215,1.0656135067103327
1592260363.031102,-6.231192093885114,6.977927733168622,0.9958029647930822,0.10222222222222223,-0.6177777777777778,0.13111111111111112,-0.024422414322754965,0.08094180011960886,1.2221428225596425
1592260363.041102,-5.903753707865168,6.7400026966292135,0.8993761797752808,0.10222222222222223,-0.6177777777777778,0.13111111111111112,-0.2652053291978727,-0.11750056590672184,1.473982226821335
1592260363.051102,-7.3674422259527805,8.171690181090831,0.13672750651855547,0.04795069312981947,-0.6167340945260008,0.15094109289487367,0.15938270113515862,-0.09696007811925154,1.532818685102256
1592260363.061102,-5.909078341013825,7.870860215053764,0.8740245775729646,0.044444444444444446,-0.6166666666666667,0.15222222222222223,0.12388050780452456,0.11549568870220156,1.5918572363266905
1592260363.071102,-5.690681598971171,7.36465410995606,1.4513428357089273,0.044444444444444446,-0.6166666666666667,0.15222222222222223,0.37394689858649466,0.1292972914201321,1.7072261914021865
1592260363.081102,-5.551500628721915,7.911025647109065,1.3483060096324944,0.044444444444444446,-0.6166666666666667,0.15222222222222223,0.1977319913916908,0.1937918895904711,1.6493636539444303
1592260363.091102,-5.223070159698547,7.907742687959806,1.3681715413601292,0.044444444444444446,-0.6166666666666667,0.15222222222222223,0.18435040224190105,0.1862390486119546,1.6787762429612567
1592260363.1011019,-5.48,7.87,1.33,0.015555555555555555,-0.6233333333333333,0.13777777777777778,0.16471544815696484,0.14180800172453928,1.7420567596468401
1592260363.1111019,-5.19785247396823,7.935110967545793,1.7206658052747588,0.015555555555555555,-0.6233333333333333,0.13777777777777778,0.18207712647802857,0.12523549059988753,1.7752017818961436
1592260363.1211019,-5.099102271235394,7.605011421819614,1.1236137586976502,0.015555555555555555,-0.6233333333333333,0.13777777777777778,0.17481307265600632,0.16159541720517534,1.7481555018948898
1592260363.1311018,-4.783807424430739,8.103010341673897,0.8693185282461365,0.015555555555555555,-0.6233333333333333,0.13777777777777778,0.2374972905620969,0.12146037391588871,1.6447065010478146
1592260363.1411018,-4.583012520529076,8.079846009853956,1.010307980292087,0.015555555555555555,-0.6233333333333333,0.13777777777777778,0.11756615758193459,0.077373395821071,1.6573803627906836
1592260363.1511018,-4.437129327744139,9.036949231485794,0.7037944418568546,-0.025360278769687248,-0.6303189635839845,0.144763408028429,0.10548762140872031,0.14892914017235964,1.5523829473775814
1592260363.1611018,-4.274209648551904,8.838419297103806,0.625379921900423,-0.03,-0.6311111111111111,0.14555555555555555,0.0609118773033719,0.19828476269071418,1.5316093047258093
1592260363.1711018,-3.9058837068791896,9.00932560347556,0.42756394395373587,-0.03,-0.6311111111111111,0.14555555555555555,-0.19875001509138596,0.1249235845034863,1.3478736308674955
1592260363.1811018,-4.152501506931887,8.743435804701628,0.737001808318264,-0.03,-0.6311111111111111,0.14555555555555555,-0.19765840628374268,0.1554095240673492,1.2085921133077056
1592260363.1911018,-3.936984072615174,8.73591197122795,0.8641120054803905,-0.03,-0.6311111111111111,0.14555555555555555,-0.21618345619193807,0.24866140616204319,1.2331056426086402
1592260363.2011018,-3.75,8.613689634511683,1.2893612941881367,-0.0798566007589375,-0.6352658278410226,0.14036215964316626,-0.05593524047928383,0.20443332242529327,1.2426923356065656
1592260363.2111018,-3.58940243511695,8.765950817045818,1.2504077218840115,-0.08333333333333333,-0.6355555555555555,0.14,-0.11429108747178082,0.22364101907049277,1.195310509407247
1592260363.2211018,-3.255679717086211,8.977589663622188,1.0632693807083984,-0.08333333333333333,-0.6355555555555555,0.14,-0.10465970353642866,0.3062632567292747,1.092689465566509
1592260363.2311018,-3.091523732904264,9.086357200321801,0.9168769106999196,-0.08333333333333333,-0.6355555555555555,0.14,-0.128418075808872,0.28823470208808,1.1166337133084219
1592260363.2411017,-2.7552953519044,9.273242676152032,0.8342923943887135,-0.08333333333333333,-0.6355555555555555,0.14,-0.15240245755305318,0.3013136113722875,1.0991935060532227
1592260363.2511017,-2.4960999096018552,9.348761545415242,1.051515544550564,-0.11253848471747305,-0.6121914344482439,0.1322119596308961,-0.20078339090766636,0.3729894848282545,1.0411627184287078
1592260363.2611017,-2.4858628027547782,9.35,1.1151768165286697,-0.11666666666666667,-0.6088888888888889,0.13111111111111112,-0.2691042737646864,0.3808881774520901,1.070635767880539
1592260363.2711017,-2.6731087199701697,9.308384381824961,1.14,-0.11666666666666667,-0.6088888888888889,0.13111111111111112,-0.3319516666226849,0.3908698933413498,1.1385909602351374
1592260363.2811017,-2.81978181559746,9.055102103667204,1.3680083862408794,-0.11666666666666667,-0.6088888888888889,0.13111111111111112,-0.17292704304941217,0.4240191974649551,1.1364998246805431
1592260363.2911017,-2.846344350196367,9.022688700392733,1.3909669494108996,-0.11666666666666667,-0.6088888888888889,0.13111111111111112,-0.14566707750268945,0.39656838835575897,1.1773718112289469
1592260363.3011017,-2.7306689862407083,9.132283726079393,1.2606689862407086,-0.16686145816859085,-0.6183596042666104,0.12542868188447817,-0.2337321892777953,0.40346143936680245,1.0319448109534428
1592260363.3111017,-2.4963786764705884,9.295444305381727,1.1309167709637047,-0.17555555555555555,-0.62,0.12444444444444444,-0.22838173046101284,0.37475229576274766,0.9994987055120703
1592260363.3211017,-2.1688237288135594,9.54117627118644,0.8813728813559322,-0.17555555555555555,-0.62,0.12444444444444444,-0.1470484267582816,0.4478962286124846,0.900170941053966
1592260363.3311017,-2.1094764877041485,9.551895297540831,0.9310470245917026,-0.17555555555555555,-0.62,0.12444444444444444,-0.15320858610312155,0.42827507275099685,0.8872234900577703
1592260363.3411016,-2.0817689491817397,9.53176894918174,1.0229242032730406,-0.17555555555555555,-0.62,0.12444444444444444,-0.19794444632161678,0.4193489577709549,0.8046038553689021
1592260363.3511016,-2.1241767517151007,9.434865104447699,1.1551348955523009,-0.18071524619508894,-0.6148403093604665,0.10724547564599982,-0.3072012986715369,0.43456872055026047,0.8236949593615216
1592260363.3611016,-2.1174401132832474,9.413759981119458,1.164960075522165,-0.18222222222222223,-0.6133333333333333,0.10222222222222223,-0.28690617357977166,0.396268492152451,0.8429329545467267
1592260363.3711016,-2.0936937173462153,9.474774869384861,1.0304502612302764,-0.18222222222222223,-0.6133333333333333,0.10222222222222223,-0.12084620287725538,0.2522176383465558,0.8373551188989689
1592260363.3811016,-1.986337573571293,9.471584393392824,1.051039016517942,-0.18222222222222223,-0.6133333333333333,0.10222222222222223,-0.08163947817878664,0.17322105983318495,0.727404130348558
1592260363.3911016,-1.95057196686929,9.47057196686929,1.1117159006078703,-0.18222222222222223,-0.6133333333333333,0.10222222222222223,-0.0021775512218503157,0.18603498372439342,0.5969449794932516
1592260363.4011016,-1.915848543411352,9.496556796220743,1.1289621358528381,-0.20123187714233454,-0.6022954691861714,0.09486364612411424,0.032487799927084525,0.15299860134637705,0.5739062500828948
1592260363.4111016,-1.8940798698346613,9.51,1.162239609503984,-0.21666666666666667,-0.5933333333333334,0.08888888888888889,-0.017784720492956478,0.18579826588333967,0.6711658668951654
1592260363.4211016,-1.9347317485671334,9.46832190171944,1.1035901531523067,-0.21666666666666667,-0.5933333333333334,0.08888888888888889,-0.03678814771066268,0.028642328101485703,0.7165002539479197
1592260363.4311016,-1.9635917725234215,9.443204113738288,1.0767958862617109,-0.21666666666666667,-0.5933333333333334,0.08888888888888889,-0.0029031277060471775,-0.0007749716355395855,0.553025312012958
1592260363.4411016,-1.9036529894490035,9.42979276760754,1.100414464784922,-0.21666666666666667,-0.5933333333333334,0.08888888888888889,0.048674720848324596,0.05069814358233872,0.5085390150860701
1592260363.4511015,-1.757138056566788,9.467349681961835,1.1318374204904589,-0.2324498939872785,-0.5966215056917942,0.10467211620950069,0.04456613446696666,0.07139353719535142,0.5979119444895709
1592260363.4611015,-1.5019534120583273,9.573350588126544,1.0226390589975274,-0.24333333333333335,-0.5988888888888889,0.11555555555555555,0.03723783156232026,-0.0032894322011125937,0.7684853580821709
1592260363.4711015,-1.4450303958879058,9.645091187663718,0.9424240102802353,-0.24333333333333335,-0.5988888888888889,0.11555555555555555,-0.038344861238321266,0.018094862544739812,0.5743771021768341
1592260363.4811015,-1.3972726413757264,9.614805121179193,0.9827273586242736,-0.24333333333333335,-0.5988888888888889,0.11555555555555555,0.026576754437552905,0.06010906893948735,0.5820646154391571
1592260363.4911015,-1.2606931818181817,9.577274891774891,1.0795378787878787,-0.24333333333333335,-0.5988888888888889,0.11555555555555555,0.0009473936179149392,0.08979319974666146,0.6579648086142871
1592260363.5011015,-1.2606274206041828,9.532114639814097,1.2166847405112315,-0.2518538600568035,-0.5849462087959377,0.1054858421550908,-0.02624246509897361,0.0647460033852486,0.7074565718400485
1592260363.5111015,-1.303028227562453,9.526056455124905,1.256056455124906,-0.25555555555555554,-0.5788888888888889,0.10111111111111111,-0.01765298378001945,0.07168035245880706,0.7028328234597928
1592260363.5211015,-1.222722381635581,9.427785919245746,1.2263611908177905,-0.25555555555555554,-0.5788888888888889,0.10111111111111111,-0.04981194144484213,0.1287180323345818,0.744460289107681
1592260363.5311015,-1.2729289256198348,9.405031404958677,1.1807008264462808,-0.25555555555555554,-0.5788888888888889,0.10111111111111111,-0.049539223549685325,0.134331934358352,0.7590447735079859
1592260363.5411015,-1.3491823022765448,9.482751331260499,1.1124530931703656,-0.25555555555555554,-0.5788888888888889,0.10111111111111111,-0.026625923703676044,0.11181198748660498,0.8062420134171197
1592260363.5511014,-1.3134125524243985,9.521137517474799,1.0452843793687,-0.2738940802328338,-0.5846524252160336,0.10425485819864452,-0.07442698860172217,0.06444698250807643,0.8371714114091017
1592260363.5611014,-1.0065463703395992,9.686170422681483,0.9683959912763527,-0.29444444444444445,-0.5911111111111111,0.10777777777777778,-0.0696390211940745,0.10112329316678623,0.6669571810388575
1592260363.5711014,-0.8249049009549365,9.767399573830005,0.8919027701049641,-0.29444444444444445,-0.5911111111111111,0.10777777777777778,-0.07172038065158491,0.0876285519589762,0.6547798075925148
1592260363.5811014,-0.5162235006698715,9.684463708724092,0.8782402080542202,-0.29444444444444445,-0.5911111111111111,0.10777777777777778,-0.061479907196009556,0.10920463508836022,0.7883802604117142
1592260363.5911014,-0.40631962005797817,9.664817122062543,0.9046820452723123,-0.29444444444444445,-0.5911111111111111,0.10777777777777778,-0.026537202176883802,0.139264770763066,0.7950431313344873
1592260363.6011014,-0.323914258045292,9.996057061978545,0.9993999553039333,-0.297603173420739,-0.5841619073632631,0.09577460766785856,0.002181661564992912,0.10080522954716262,0.5712213726934403
1592260363.6111014,-0.36649152204268903,10.14842130460802,1.1015786953919808,-0.3,-0.5788888888888889,0.08666666666666667,-0.01971102718319289,0.09605068592432978,0.4835634362773174
1592260363.6211014,-0.39650655891642717,10.149432319380816,1.0882096007739805,-0.3,-0.5788888888888889,0.08666666666666667,-0.07217107548231595,0.09266822137345551,0.486741558032321
1592260363.6311014,0.14642050721365246,10.051227390487961,1.144885080693081,-0.3,-0.5788888888888889,0.08666666666666667,-0.13153871907715156,0.05398625847289099,0.3107608969520451
1592260363.6411014,0.33460085240153553,9.92640056826769,1.25862043950065,-0.3,-0.5788888888888889,0.08666666666666667,-0.15063013648150667,0.03347811537298534,0.22508544555127802
1592260363.6511014,-0.20751230949589683,9.655008206330598,1.5324876905041032,-0.31125205158264946,-0.5638861534453562,0.08291598280578351,-0.033267653350733645,-0.027696615577149156,0.23657370216096818
1592260363.6611013,-0.28835765117481016,9.647463523237784,1.5248996143601161,-0.32,-0.5522222222222222,0.08,0.004476773347733637,-0.05956773938717686,0.27222397095715717
1592260363.6711013,-0.5400552396425671,9.56540373679935,1.349889520714866,-0.32,-0.5522222222222222,0.08,0.07601787937225099,0.03246067835763906,0.2844184862733099
1592260363.6811013,-0.586779831691002,9.72639789973387,1.01029705818888,-0.32,-0.5522222222222222,0.08,0.0284449249720395,-0.11137066095082279,0.1978471872549071
1592260363.6911013,-0.541163730124624,9.80098782409397,0.944709067468844,-0.32,-0.5522222222222222,0.08,0.027047884441633148,-0.14683851140016374,0.20217714921968227
1592260363.7011013,-0.27517118914604943,9.904953312051077,0.9949740622505986,-0.31611514587212913,-0.5583269929945908,0.08,0.11727279722701174,-0.055584836498919966,0.17900150087658862
1592260363.7111013,0.10664656022077669,9.948847624679676,1.052266508969052,-0.31222222222222223,-0.5644444444444444,0.08,0.09978093435390152,-0.06511861971987261,0.07619193908485052
1592260363.7211013,0.7054292803970224,9.774906145088309,1.3626218070354692,-0.31222222222222223,-0.5644444444444444,0.08,-0.013866272785540555,0.0442703427132404,0.08268662922333761
1592260363.7311013,-0.9266507864307774,9.298510689234158,1.8135618012496706,-0.31222222222222223,-0.5644444444444444,0.08,0.07844008488111673,-0.12730570535225022,0.07786159541488749
1592260363.7411013,-1.2437119608953535,9.16033858901374,1.9805445441268514,-0.31222222222222223,-0.5644444444444444,0.08,0.15384696828671277,-0.1319420158588622,0.06197889759367356
1592260363.7511013,-0.13400163422968356,9.6589128658446,1.3983037438716388,-0.32674891464038697,-0.5564781937635154,0.07671977913138216,0.2089222529001377,0.03975349739212311,-0.003035316467206563
1592260363.7611012,-0.4176891949294641,9.688963983098214,1.1525900422544657,-0.3466666666666667,-0.5455555555555556,0.07222222222222222,0.23431981202243107,0.01071274405101837,-0.0160234259991503
1592260363.7711012,-0.45401914362812484,9.754019143628124,0.9118899241382822,-0.3466666666666667,-0.5455555555555556,0.07222222222222222,0.2766273775805047,-0.05699461711637546,-0.009801815198332675
1592260363.7811012,-0.4511592018374964,9.782560532108334,0.8011592018374964,-0.3466666666666667,-0.5455555555555556,0.07222222222222222,0.17461612858096703,-0.03568047044429336,0.016973907415797084
1592260363.7911012,-0.4435056993588221,9.79,0.7928045594870577,-0.3466666666666667,-0.5455555555555556,0.07222222222222222,0.11566821463573973,-0.0022342473281956638,0.03311977002445915
1592260363.8011012,-0.5020977666362808,9.753706700091158,0.8703258887876025,-0.3435302086498532,-0.5455555555555556,0.07804707282487593,0.12201755204834244,-0.05767183566383725,0.1154325437079713
1592260363.8111012,-0.5046458967150614,9.705971040166364,0.9206169368814264,-0.3388888888888889,-0.5455555555555556,0.08666666666666667,0.18060682827562954,-0.026981668108830292,0.0762809014220731
1592260363.8211012,-0.3494090568184757,9.751181886363048,0.7776592443168593,-0.3388888888888889,-0.5455555555555556,0.08666666666666667,0.21997360050590575,0.00032733104635235266,0.0952714740957742
1592260363.8311012,-0.35492805670407557,9.780719432959245,0.6995683402244537,-0.3388888888888889,-0.5455555555555556,0.08666666666666667,0.14516288948872424,-0.020663002498001796,0.10783920899847899
1592260363.8411012,-0.3759818332247786,9.800306476314539,0.681135071382048,-0.3388888888888889,-0.5455555555555556,0.08666666666666667,0.1004901575088759,0.0038816693106086576,0.008980482796205225
1592260363.8511012,-0.402705031971087,9.762353548592081,0.7172949680289129,-0.3375162723786577,-0.5485753118780642,0.08529405015643547,0.09551911149715213,0.0559669104094217,-0.05157577388881819
1592260363.8611012,-0.4133486449242076,9.784162838768948,0.780558107487368,-0.3333333333333333,-0.5577777777777778,0.0811111111111111,0.15186899909787244,0.02034046154554943,0.09694927690778131
1592260363.8711011,-0.4749234594047098,9.745382702976451,0.7801530811905804,-0.3333333333333333,-0.5577777777777778,0.0811111111111111,0.14954400860695818,-0.014882140007060077,0.15174236873944172
1592260363.8811011,-0.4941528901117146,9.72,0.7983057802234292,-0.3333333333333333,-0.5577777777777778,0.0811111111111111,0.12488735627936304,-0.0013011781239185352,0.11877359657079042
1592260363.8911011,-0.4788251866460065,9.723463868150445,0.8577109452035497,-0.3333333333333333,-0.5577777777777778,0.0811111111111111,0.07902599588557083,-0.06802918002697929,0.08676046094219277
1592260363.901101,-0.4086925601750547,9.728115426695842,0.9118845733041576,-0.33710247994164844,-0.5577777777777778,0.0848802577194262,0.015330707676759547,-0.12764391011986975,0.08847037458203956
1592260363.911101,-0.30439733581608536,9.740219150612333,0.8795616987753349,-0.35333333333333333,-0.5577777777777778,0.10111111111111111,0.03142776997546152,-0.046417220826825506,0.057612396132512456
1592260363.921101,-0.375970694298626,9.682479572739307,0.8351549732962067,-0.35333333333333333,-0.5577777777777778,0.10111111111111111,0.1498460009893986,0.09182910994672579,-0.04047108181145556
1592260363.931101,-0.4458447953410194,9.673320233895977,0.8025049122890083,-0.35333333333333333,-0.5577777777777778,0.10111111111111111,0.16090289889429005,0.09013873488927326,-0.050091421594610414
1592260363.941101,-0.3293559737697926,9.746451991256597,0.8004830196726556,-0.35333333333333333,-0.5577777777777778,0.10111111111111111,0.14613555895746078,0.05823554565429939,-0.028079951175017662
1592260363.951101,-0.24824875069405886,9.711243753470296,0.872258745141588,-0.3521658337960392,-0.5556373619594053,0.09974902831760134,0.1796549238642078,0.09068867919453129,-0.0039844093390198065
1592260363.961101,-0.24,9.67,0.943941234871407,-0.3466666666666667,-0.5455555555555556,0.09333333333333334,0.2004885041401246,0.058218528978104096,0.10689478980513534
1592260363.971101,-0.21289289476764603,9.656446447383823,0.910303640407351,-0.3466666666666667,-0.5455555555555556,0.09333333333333334,0.16816338256171165,0.1073163486419043,-0.006108575769728078
1592260363.981101,-0.17129417293233082,9.666117481203008,0.8151766917293233,-0.3466666666666667,-0.5455555555555556,0.09333333333333334,0.10724758117122217,0.1177068439936177,0.013808082568152621
1592260363.991101,-0.15672524136922178,9.726198069046225,0.7208786205383265,-0.3466666666666667,-0.5455555555555556,0.09333333333333334,0.18634037854102595,0.19609336875055428,0.07902601075759429
1592260364.001101,-0.17261215715934874,9.7841113013017,0.6097217467457505,-0.34392579913220017,-0.5494384512293832,0.09333333333333334,0.1892885598887727,0.24415716152917064,-0.005986868057606537
1592260364.011101,-0.26,9.8,0.57,-0.3333333333333333,-0.5644444444444444,0.09333333333333334,0.11562806294462433,0.15489797111449674,0.042542400517361786
1592260364.021101,-0.42817718874453226,9.803181432395379,0.5345485408369786,-0.3333333333333333,-0.5644444444444444,0.09333333333333334,0.07074931753919186,0.299141736658514,0.06015222800237181
1592260364.031101,-0.4951700983729721,9.839659803254056,0.4404535956612589,-0.3333333333333333,-0.5644444444444444,0.09333333333333334,0.10498456835871345,0.11592998589193612,0.00020019778430198365
1592260364.041101,-0.47275403490705065,9.891737895278848,0.389131052360576,-0.3333333333333333,-0.5644444444444444,0.09333333333333334,0.06789826536155721,0.019810022344430633,0.0906964176034388
1592260364.051101,-0.46802877410330707,9.91795683884504,0.37,-0.33734772038498684,-0.5619912079128784,0.09779376339072612,0.09806099009328667,-0.01986567531248591,0.07689338006927085
1592260364.061101,-0.4412847138899191,9.846513885555968,0.36608564759266127,-0.35333333333333333,-0.5522222222222222,0.11555555555555555,-0.010428036727158248,-0.04064758801653284,-0.04538461926860519
1592260364.071101,-0.3138764593941264,9.813612354060588,0.33471352157588846,-0.35333333333333333,-0.5522222222222222,0.11555555555555555,0.016665199118630344,-0.07569994221803493,0.009164145536930311
1592260364.081101,-0.2618143304475963,9.82,0.30181433044759626,-0.35333333333333333,-0.5522222222222222,0.11555555555555555,0.0015250332730057294,-0.08711154815261668,0.031054218380685165
1592260364.091101,-0.29701629161445,9.814327902795183,0.3313441944096333,-0.35333333333333333,-0.5522222222222222,0.11555555555555555,-0.036959389135449314,-0.04746002473586512,-0.04407311789176453
1592260364.101101,-0.34473780002275056,9.8037902400182,0.3666329200318507,-0.35143821332423314,-0.5533803511166723,0.1141868577712054,-0.09829314746557533,-0.05560631206812869,-0.043114432130068936
1592260364.111101,-0.39893200523987243,9.822135989520255,0.45679601571961737,-0.3333333333333333,-0.5644444444444444,0.10111111111111111,-0.16970397890491723,0.10417958371830738,-0.0038017983096231486
1592260364.121101,-0.41,9.8,0.49,-0.3333333333333333,-0.5644444444444444,0.10111111111111111,-0.05017821599483697,0.12108221685710661,-0.07744898555724837
1592260364.131101,-0.43168553459119496,9.764943396226416,0.6140083857442348,-0.3333333333333333,-0.5644444444444444,0.10111111111111111,-0.10049547289444498,-0.006925060326112722,0.05677579840050213
1592260364.141101,-0.3994633855493523,9.683047138959655,0.8243350136412091,-0.3333333333333333,-0.5644444444444444,0.10111111111111111,-0.1133995729347435,-0.016292219070114966,-0.02451798229204724
1592260364.1511009,-0.3021275818690906,9.62787241813091,1.0248930730836343,-0.3361701091587875,-0.5618440666044447,0.09496476348929378,-0.09265142978521576,-0.014412484963899224,-0.023279895006216304
1592260364.1611009,-0.31,9.62,1.08,-0.3466666666666667,-0.5522222222222222,0.07222222222222222,-0.04799655442984406,-0.05563236990731925,0.08835729338221293
1592260364.1711009,-0.2812806906383653,9.607520460425576,1.0535965468081736,-0.3466666666666667,-0.5522222222222222,0.07222222222222222,-0.03616076109400034,-0.031003865625388597,0.09063666836515322
1592260364.1811008,-0.36129519801033094,9.650647599005165,0.9205959441362158,-0.3466666666666667,-0.5522222222222222,0.07222222222222222,0.01908108668552056,-0.03276436617967497,-0.020940737173912732
1592260364.1911008,-0.44,9.69,0.87,-0.3466666666666667,-0.5522222222222222,0.07222222222222222,0.004363323129985824,-0.10144726277217041,0.07963064712224129
1592260364.2011008,-0.40068648015473046,9.709656759922636,0.7815445803481436,-0.3466666666666667,-0.5522222222222222,0.07222222222222222,0.10299743764564809,-0.04569754587201347,-0.008282367989544653
1592260364.2111008,-0.4,9.74,0.71,-0.3466666666666667,-0.5577777777777778,0.09333333333333334,0.06544984694978735,-0.09490227807719166,0.04908738521234052
1592260364.2211008,-0.33800576598071375,9.778167147165059,0.6608357358252974,-0.3466666666666667,-0.5577777777777778,0.09333333333333334,0.06836082560619586,-0.06617099464872378,0.05137467051549344
1592260364.2311008,-0.21743231782895164,9.766238719638158,0.6463289625328897,-0.3466666666666667,-0.5577777777777778,0.09333333333333334,0.05323952547637366,0.12034261427815518,0.047809518947642904
1592260364.2411008,-0.2600358792184725,9.748230017761989,0.7229559502664298,-0.3466666666666667,-0.5577777777777778,0.09333333333333334,0.0692917800911945,0.047272304791305564,0.008306143587280351
1592260364.2511008,-0.5133328596802842,9.710980461811724,0.8272547069271758,-0.3466666666666667,-0.5577777777777778,0.09333333333333334,0.012405632920370002,-0.0827531744562933,0.21065829566635613
1592260364.2611008,-0.21776602462898642,9.717294871216565,0.8222339753710136,-0.32666666666666666,-0.5522222222222222,0.08666666666666667,0.0983041309789317,0.061457826498529405,-0.06289688270606657
1592260364.2711008,-0.22114103748359182,9.695682337498177,0.8359059750109388,-0.32666666666666666,-0.5522222222222222,0.08666666666666667,0.03567280231566611,0.10418778353235741,-0.015518074177579638
1592260364.2811007,-0.34707444441842494,9.7217022223263,0.706116666276374,-0.32666666666666666,-0.5522222222222222,0.08666666666666667,0.027485906130104196,0.1027641376638468,-0.021822797441591633
1592260364.2911007,-0.33788182409012135,9.758472703639514,0.5872909445407279,-0.32666666666666666,-0.5522222222222222,0.08666666666666667,0.12856838575897178,0.0400810599594996,-0.08188881572056028
1592260364.3011007,-0.33030979202772964,9.78876083188908,0.5418587521663778,-0.32666666666666666,-0.5522222222222222,0.08666666666666667,0.007149242561279329,0.07807616599415167,0.10891269501867071
1592260364.3111007,-0.4,9.82,0.53,-0.3333333333333333,-0.5522222222222222,0.06555555555555556,-0.02181661564992912,-0.05781403147231216,0.13744467859455345
1592260364.3211007,-0.3994168303369089,9.805766732134764,0.46576673213476355,-0.3333333333333333,-0.5522222222222222,0.06555555555555556,0.059493868028587485,0.023161902200392718,0.09895461802443525
