time,acc_x,acc_y,acc_z,mag_x,mag_y,mag_z,gyr_x,gyr_y,gyr_z
1592260521.8809505,-0.4454818313953488,9.74,0.7627909399224806,-0.31777777777777777,-0.5633333333333334,0.15777777777777777,-0.013701738368774696,-0.11437754489423481,0.011622315764476535
1592260521.8909504,-0.3976239867944517,9.74847520264111,0.7923760132055483,-0.31777777777777777,-0.5633333333333334,0.15777777777777777,0.036724896136049213,0.09164591075050835,0.09453892760836138
1592260521.9009504,-0.48567933328236107,9.729497285725209,0.8546739047327777,-0.31777777777777777,-0.5633333333333334,0.15777777777777777,0.03744988298938173,0.040694226748363385,0.031150937808766835
1592260521.9109504,-0.47005229949050176,9.75425582886257,0.8543081283530721,-0.3006498633464925,-0.5528662745142146,0.16348708258820618,-0.02550770699493282,-0.027247949604752127,0.026308061800256757
1592260521.9209504,-0.46877380453508405,9.777547609070167,0.8236785863947478,-0.29777777777777775,-0.5511111111111111,0.16444444444444445,0.07419980611794758,-0.07183118417159928,-0.008562998786804832
1592260521.9309504,-0.48699457856447803,9.796994578564478,0.6585515036374588,-0.29777777777777775,-0.5511111111111111,0.16444444444444445,0.03197967492027955,-0.10154865782104153,-0.06423396564340897
1592260521.9409504,-0.4657177099027531,9.808094096699083,0.63,-0.29777777777777775,-0.5511111111111111,0.16444444444444445,-0.008202969792001493,-0.045771415018295,0.008143804062667348
1592260521.9509504,-0.5066241053195075,9.803339413525785,0.6633029323710768,-0.29777777777777775,-0.5511111111111111,0.16444444444444445,-0.008006058199396733,-0.07086818557238694,-0.011963323317578312
1592260521.9609504,-0.4811356262167424,9.8,0.7125762491888384,-0.2923484029129714,-0.5511111111111111,0.16444444444444445,0.008073988257725227,-0.04789674447505366,-0.008536228686648127
1592260521.9709504,-0.4451829268292683,9.758638211382113,0.8027235772357724,-0.2911111111111111,-0.5511111111111111,0.16444444444444445,0.05963651704794649,0.02137762277404639,-0.08629092287553265
1592260521.9809504,-0.4810268038284364,9.758205360765688,0.762562474640189,-0.2911111111111111,-0.5511111111111111,0.16444444444444445,0.03759079370285183,-0.04136979062209301,0.02347044914958203
1592260521.9909503,-0.41115076274680473,9.75211507627468,0.75,-0.2911111111111111,-0.5511111111111111,0.16444444444444445,0.01850169738579953,0.014435355672295272,0.0013825651774854245
1592260522.0009503,-0.4540423698946626,9.769212710968398,0.7435957630105338,-0.2911111111111111,-0.5511111111111111,0.16444444444444445,0.02924350864797485,0.01984387656436567,-0.04134008176281239
1592260522.0109503,-0.4662605718888442,9.795826285407438,0.7162605718888441,-0.3095751107531212,-0.5546280634238749,0.1591690159752987,-0.011250391421140121,-0.019075700123551597,0.07856998295824318
1592260522.0209503,-0.46,9.8,0.6772720610127568,-0.31444444444444447,-0.5555555555555556,0.15777777777777777,0.008132301750533664,-0.012990512244431091,-0.017555148029189976
1592260522.0309503,-0.43655043214417066,9.77655043214417,0.5996512964325119,-0.31444444444444447,-0.5555555555555556,0.15777777777777777,0.03744054001454471,0.06351045292388237,0.04688581468170531
1592260522.0409503,-0.4682594339622641,9.800607547169811,0.6641707547169811,-0.31444444444444447,-0.5555555555555556,0.15777777777777777,0.13294520743388433,0.032243105576436275,-0.022069153266933497
1592260522.0509503,-0.48,9.796913100400948,0.7488910481957287,-0.31444444444444447,-0.5555555555555556,0.15777777777777777,0.03115800900970836,-0.03931235068988527,0.07792506923993725
1592260522.0609503,-0.48,9.767427223841139,0.8401940697569622,-0.3085922432180731,-0.5655879005150493,0.15777777777777777,0.002308679923900485,-0.012910026714838416,0.09117978157476972
1592260522.0709503,-0.3882022879970946,9.721750953332123,0.9058988560014527,-0.30666666666666664,-0.5688888888888889,0.15777777777777777,0.05866379796167294,0.04717739141894628,0.1047953229321752
1592260522.0809503,-0.2012575079566393,9.732677498863337,0.7763758405321974,-0.30666666666666664,-0.5688888888888889,0.15777777777777777,-0.01705949814379787,0.04350415048386731,0.1128880779067841
1592260522.0909503,-0.14191425951398443,9.75617148097203,0.7219142595139844,-0.30666666666666664,-0.5688888888888889,0.15777777777777777,-0.1578311105569316,0.06993170602450113,0.09647925627857237
1592260522.1009502,-0.18889249558742977,9.76,0.7549232111338784,-0.30666666666666664,-0.5688888888888889,0.15777777777777777,0.03355479228487593,0.16659201968183895,0.028720489448390132
1592260522.1109502,-0.38859583907908146,9.768117992685413,0.8187079561124767,-0.32290265203749224,-0.5580648986416719,0.1631897729013863,-0.06276295918449554,0.2245579709986583,0.04182546982381144
1592260522.1209502,-0.4502432194575566,9.749756780542443,0.860364829186335,-0.32666666666666666,-0.5555555555555556,0.16444444444444445,-0.03844744322913743,0.10817591443104738,0.0645182029300138
1592260522.1309502,-0.41338538055044116,9.70169269027522,0.8829231725688051,-0.32666666666666666,-0.5555555555555556,0.16444444444444445,-0.05037853593959135,0.008709613848002295,0.0187798644040921
1592260522.1409502,-0.29734506907137376,9.711381907137376,0.9156365118956256,-0.32666666666666666,-0.5555555555555556,0.16444444444444445,0.135565391890077,0.11665584446134429,-0.08475589839184307
1592260522.1509502,-0.3701697047099346,9.714201594488951,1.0053792716436396,-0.32666666666666666,-0.5555555555555556,0.16444444444444445,0.14961688352783375,0.12102668112064721,-0.08888854515538278
1592260522.1609502,-0.4976801346801347,9.689565656565657,1.06,-0.3304508043396932,-0.5555555555555556,0.15990347923681256,0.0974791362489072,0.05329351117905749,0.005579030163677154
1592260522.1709502,-0.4519921347791688,9.67244357053102,1.052443570531019,-0.3322222222222222,-0.5555555555555556,0.15777777777777777,0.1319701924938462,-0.020586632488095252,0.08322322547911493
1592260522.1809502,-0.33696997974372395,9.705780777021644,0.9211892027220794,-0.3322222222222222,-0.5555555555555556,0.15777777777777777,0.11401606048936538,-0.12326616252051292,0.01746116272860687
1592260522.1909502,-0.32805372963703916,9.755067162046299,0.7788253786796228,-0.3322222222222222,-0.5555555555555556,0.15777777777777777,0.1935786623141153,-0.06756915751263701,-0.1725454870061163
1592260522.2009501,-0.3088190629705826,9.782472374811766,0.6901105007529322,-0.3322222222222222,-0.5555555555555556,0.15777777777777777,0.11194049084849197,-0.056662931878421974,-0.09372633061250038
1592260522.2109501,-0.34000241088341654,9.83166867573618,0.6183313242638195,-0.30351713449285345,-0.5620373495589615,0.16981539521267436,0.09745035509325012,0.1005466088596928,-0.1263603951751266
1592260522.2209501,-0.40415312093628086,9.856245936280883,0.5612621911573472,-0.29777777777777775,-0.5633333333333334,0.17222222222222222,0.07836569478116037,0.07914472030828948,-0.06488040562046561
1592260522.23095,-0.4344035810570222,9.846605371585532,0.49660537158553336,-0.29777777777777775,-0.5633333333333334,0.17222222222222222,-0.02079625412292737,0.03843931424428162,0.07228542022037696
1592260522.24095,-0.4036297804047442,9.83120992680158,0.5163702195952559,-0.29777777777777775,-0.5633333333333334,0.17222222222222222,-0.02802769433954041,0.04611382840750812,0.05026732876123108
1592260522.25095,-0.38642688655870283,9.825475628852901,0.5883294019703067,-0.29777777777777775,-0.5633333333333334,0.17222222222222222,-0.03360564894879099,0.01522360750219761,0.04549844836641043
1592260522.26095,-0.41762135922330096,9.8123786407767,0.637621359223301,-0.3023462783171521,-0.5633333333333334,0.1676537216828479,0.004024424246103428,-0.06633945651997865,0.025046745636933182
1592260522.27095,-0.46315850680311665,9.806631701360624,0.6234731945575067,-0.3055555555555556,-0.5633333333333334,0.16444444444444445,0.001675660189807207,-0.12387286112409424,0.038616424544689
1592260522.28095,-0.45339114847024053,9.82330442576488,0.5235212325282818,-0.3055555555555556,-0.5633333333333334,0.16444444444444445,-0.005122076917166447,-0.05181397331488441,0.06508939001550683
1592260522.29095,-0.3012743117542046,9.717698252372452,0.4733940148454383,-0.3055555555555556,-0.5633333333333334,0.16444444444444445,0.03677051895048328,0.1436705776056454,0.01968174204436584
1592260522.30095,-0.5692704364392103,9.951653533079321,0.45214366124004157,-0.3055555555555556,-0.5633333333333334,0.16444444444444445,0.003898104771499926,0.14526577850048955,0.08567815517052643
1592260522.31095,-1.1849245271001847,9.728063499140182,1.0025820011464237,-0.3104904853901733,-0.5542859619698675,0.16855688597329258,-0.04992268605292104,0.026507584023546124,0.10014519251485193
1592260522.32095,-1.077238262816924,9.658223226425658,1.1325661841158121,-0.31222222222222223,-0.5511111111111111,0.17,-0.026122705716384774,0.03328451626373894,0.08281702813786437
1592260522.33095,-0.6057897489539749,9.684210251046025,0.9981677126917713,-0.31222222222222223,-0.5511111111111111,0.17,0.11001663618396831,-0.01156554478178251,0.07662820005214818
1592260522.34095,-0.6603807316019017,9.576962791245924,1.0792385367961965,-0.31222222222222223,-0.5511111111111111,0.17,0.12663327731154106,-0.0435926428455333,0.08460121124576017
1592260522.35095,-0.5287842273378125,9.634084590813966,1.1287842273378126,-0.31222222222222223,-0.5511111111111111,0.17,0.09572786841080178,-0.017462207559491835,0.08450662107090272
1592260522.36095,-0.48409828511240577,9.663606859550377,1.133442283005826,-0.31222222222222223,-0.5542440633583124,0.17548266643260227,0.16979360457251474,0.031025717827230834,-0.011247646284046675
1592260522.37095,-0.4479877087929404,9.671509218405296,1.0864784903876457,-0.31222222222222223,-0.5555555555555556,0.17777777777777778,0.19470994276886372,0.02867968770119681,0.021345071126751762
1592260522.38095,-0.39029510288722286,9.80441537725315,0.7876391769022173,-0.31222222222222223,-0.5555555555555556,0.17777777777777778,0.12547529466308652,0.01777641786100182,0.0783120451650299
1592260522.39095,-0.4475300426664579,9.843168669511098,0.6783133048890281,-0.31222222222222223,-0.5555555555555556,0.17777777777777778,0.13260948906235334,0.07043213446005535,0.08527267653646484
1592260522.40095,-0.711806289640592,9.898541886892177,0.4643743393234673,-0.31222222222222223,-0.5555555555555556,0.17777777777777778,0.1727299122160492,0.16821029625063963,0.24506104011090707
1592260522.41095,-0.9990773147700538,9.987433691063199,0.22480389313223115,-0.30243431771711765,-0.5472734825127747,0.1822952721647491,0.11836268069183023,0.14756410367243558,0.28279818797022926
1592260522.42095,-1.1144277929155313,10.028293797082865,0.17784019874979967,-0.29777777777777775,-0.5433333333333333,0.18444444444444444,0.11194565670555572,0.13860859276654877,0.26772473724919027
1592260522.43095,-1.3821068828135732,10.086459403764254,0.24521582634977335,-0.29777777777777775,-0.5433333333333333,0.18444444444444444,0.09273575237001332,0.10632124876442232,0.32207759686766235
1592260522.44095,-1.4322414081345083,10.103879295932746,0.5059480308566788,-0.29777777777777775,-0.5433333333333333,0.18444444444444444,-0.035320241536375294,-0.0644200043180832,0.42189284074188377
1592260522.45095,-1.411406779661017,10.113437288135593,0.6065627118644068,-0.29777777777777775,-0.5433333333333333,0.18444444444444444,-0.07397237843283086,-0.1471072206885924,0.4954730905209275
1592260522.46095,-1.3340874598842267,10.106058306589485,0.6079562700578867,-0.3150690007964835,-0.5519789448426862,0.16715322142573874,-0.12698257064996699,-0.32666820646945044,0.6213273461426018
1592260522.47095,-1.1322772206132268,10.042151559395869,0.5243031187917375,-0.32666666666666666,-0.5577777777777778,0.15555555555555556,-0.05237274956671781,-0.3612996877282652,0.6034782467076435
1592260522.4809499,-1.0193290224723586,10.021533548876382,0.4539296691015048,-0.32666666666666666,-0.5577777777777778,0.15555555555555556,-0.015194998927760274,-0.36708025481335405,0.6331488738045586
1592260522.4909499,-0.6307141019410537,10.059633229467424,0.315926645893485,-0.32666666666666666,-0.5577777777777778,0.15555555555555556,-0.1356252136373961,-0.4291429520053415,0.7153449425654479
1592260522.5009499,-0.395484619140625,10.08,0.32563435872395835,-0.32666666666666666,-0.5577777777777778,0.15555555555555556,-0.08276043842132057,-0.5273560964222371,0.8307007528406045
1592260522.5109499,-0.2663424487259167,9.997245183343692,0.5082411435674332,-0.3309105034182722,-0.5535339410261723,0.15131171880395,-0.10979781308646777,-0.48270499394690086,0.9097528726020443
1592260522.5209498,-0.24068668157138295,9.953053337591824,0.6145800063877356,-0.3333333333333333,-0.5511111111111111,0.14888888888888888,-0.15107570841415544,-0.4212104927227995,0.9174134242614286
1592260522.5309498,-0.35267691177716887,9.882205147038052,0.698529901974632,-0.3333333333333333,-0.5511111111111111,0.14888888888888888,-0.12752726753621949,-0.3824352142295422,1.121462022086066
1592260522.5409498,-0.2858060432342052,9.709293920936343,0.8441939567657948,-0.3333333333333333,-0.5511111111111111,0.14888888888888888,-0.016230227980820314,-0.355738430898022,1.206786420374737
1592260522.5509498,-0.17354101687272183,9.635191086392846,0.895372214497764,-0.3333333333333333,-0.5511111111111111,0.14888888888888888,0.018585811886326072,-0.3564207085961475,1.1717014292868988
1592260522.5609498,0.5947752479123173,9.49,0.8267810542797495,-0.33655818690559036,-0.5427264918232428,0.16565812746462538,0.06732624242386699,-0.2754276559912209,1.008517608265954
1592260522.5709498,0.770374081496326,9.494074816299266,0.8181496325985305,-0.3388888888888889,-0.5366666666666666,0.17777777777777778,0.10344311147842143,-0.23757667779798228,1.0215415318105472
1592260522.5809498,0.8270738155668359,9.56158391497462,0.8328053616751269,-0.3388888888888889,-0.5366666666666666,0.17777777777777778,0.062468750388738975,-0.16979768599047412,0.9974981310100043
1592260522.5909498,0.6741658090611014,9.488862934686356,0.9805313165641529,-0.3388888888888889,-0.5366666666666666,0.17777777777777778,0.16805863839017326,-0.11650792267302332,0.9632487983513371
1592260522.6009498,0.631459002974705,9.492553255205735,1.0489057477689712,-0.3388888888888889,-0.5366666666666666,0.17777777777777778,0.2313672147075823,-0.1192901610478457,0.9951311519578547
1592260522.6109498,0.8799802459695406,9.628101701395527,0.91784744790671,-0.3641117412576025,-0.5366666666666666,0.16642749421185665,0.2784243912982409,-0.11365562846529473,1.031249233969577
1592260522.6209497,1.0421886671218024,9.653735994538371,0.8181133287819766,-0.38333333333333336,-0.5366666666666666,0.15777777777777777,0.29629436503082207,-0.09877571081560053,1.0244629660254763
1592260522.6309497,1.2655568934376882,9.613100541842263,0.5101745936183022,-0.38333333333333336,-0.5366666666666666,0.15777777777777777,0.22262175038481025,-0.11565006344505399,1.0590180588751972
1592260522.6409497,1.4340030499428136,9.724018299656882,0.3760121997712543,-0.38333333333333336,-0.5366666666666666,0.15777777777777777,0.23428949215975156,-0.0992522933211539,1.121777439701447
1592260522.6509497,1.2498889662720127,9.679987662919112,0.3549969157297781,-0.38333333333333336,-0.5366666666666666,0.15777777777777777,0.22960002965579662,-0.10252934607072803,1.1208013772382222
1592260522.6609497,1.2891332651353111,9.581738119594531,0.5013063021172386,-0.4013045799449594,-0.5366666666666666,0.16067636594094326,0.2503700619421099,-0.05420910608527654,1.1329944913639471
1592260522.6709497,1.5128517673431807,9.514032664825267,0.5956406869220607,-0.4177777777777778,-0.5366666666666666,0.16333333333333333,0.2814384465273567,-0.009124054328163482,1.153849545302906
1592260522.6809497,1.6867720685111989,9.427557312252963,0.28858234519104087,-0.4177777777777778,-0.5366666666666666,0.16333333333333333,0.30224808306757733,0.05743576182547018,0.8965760966517932
1592260522.6909497,1.8141415415367774,9.636638983413844,0.1137876876948338,-0.4177777777777778,-0.5366666666666666,0.16333333333333333,0.3187030481324917,0.08109493487991268,0.709704012892174
1592260522.7009497,1.6736468067376942,9.69653314286848,-0.004807848739162352,-0.4177777777777778,-0.5366666666666666,0.16333333333333333,0.29897325086684967,0.06410571609629634,0.6942535736940298
1592260522.7109497,1.5916999278672757,9.682535637000653,-0.05334283653350737,-0.43463332531858623,-0.5155972322406561,0.16333333333333333,0.29651120972951733,0.019091093651180287,0.7606674824692209
1592260522.7209496,1.718414862655982,9.821019016864012,-0.09169836144001914,-0.4488888888888889,-0.49777777777777776,0.16333333333333333,0.24507035855918444,0.024842091338941434,0.7415386596197633
1592260522.7309496,1.5897149657165526,9.827422791409305,-0.2302850342834476,-0.4488888888888889,-0.49777777777777776,0.16333333333333333,0.10403312575875023,-0.0433559957323682,0.8106738258971377
1592260522.7409496,1.7471953744021702,9.711693197230352,-0.20867727889214077,-0.4488888888888889,-0.49777777777777776,0.16333333333333333,-0.016771961279537534,-0.07666409196830096,0.7218069880714878
1592260522.7509496,1.9972240295379702,9.727854904700129,-0.22365931543758108,-0.4488888888888889,-0.49777777777777776,0.16333333333333333,-0.07339879323545827,-0.11236247197141001,0.7357705551527385
1592260522.7609496,2.2078259926231287,9.765181167281405,-0.22108700368843567,-0.45263686989223983,-0.48546298305248187,0.1595853523299824,-0.09575193798371419,-0.08433004742973742,0.8277034164980036
1592260522.7709496,2.2389676746611054,9.727997914494265,-0.14248175182481754,-0.45666666666666667,-0.4722222222222222,0.15555555555555556,-0.13685547072663565,-0.002863004253955767,0.8317351535815548
1592260522.7809496,2.019770150325791,9.54960597198707,0.08570596685649787,-0.45666666666666667,-0.4722222222222222,0.15555555555555556,-0.15336657699918965,-0.10729102309234592,0.7930769606634903
1592260522.7909496,2.1654712256200335,9.707735612810017,0.0748504695400915,-0.45666666666666667,-0.4722222222222222,0.15555555555555556,-0.20388885470644497,-0.09197712852449481,0.6364609665694476
1592260522.8009496,2.158221151008362,9.641304082636498,0.2634585341859321,-0.45666666666666667,-0.4722222222222222,0.15555555555555556,-0.13199052468207118,-0.039157809612529,0.6204631110975124
1592260522.8109496,2.2016539465101106,9.574477495107631,0.0575502283105023,-0.46776393418859175,-0.47575317097919834,0.15555555555555556,-0.22657647606366027,-0.029466022039306254,0.7996182064385615
1592260522.8209496,2.36,9.64,-0.21,-0.4811111111111111,-0.48,0.15555555555555556,-0.3403392041388943,-0.016362461737446838,0.8573929950422143
1592260522.8309495,2.2181369362593677,9.318283864729109,0.11553923017002873,-0.4811111111111111,-0.48,0.15555555555555556,-0.1913983311572873,-0.07420309812395243,0.8778568914481264
1592260522.8409495,2.3248133814521106,9.29763616506007,0.018880288712664423,-0.4811111111111111,-0.48,0.15555555555555556,-0.1222179830925598,-0.21988548793706192,0.9107435763176066
1592260522.8509495,2.696581352833638,9.353714331134249,0.14009856132262935,-0.4811111111111111,-0.48,0.15555555555555556,-0.23829172865773157,-0.2420220213813104,0.9825080603828172
1592260522.8609495,2.784428044280443,9.473579335793357,0.4130258302583026,-0.4919557195571956,-0.470569905699057,0.14612546125461254,-0.3134266778961957,-0.12315922307027329,0.9910741061768631
1592260522.8709495,2.184661219206343,9.177365397839893,0.38675741272602243,-0.5066666666666667,-0.4577777777777778,0.13333333333333333,-0.28294586684077894,-0.09625080279479509,1.0177962617251506
1592260522.8809495,2.6845056533636225,9.077450565336362,0.4313041457999897,-0.5066666666666667,-0.4577777777777778,0.13333333333333333,-0.21944123287551665,-0.18939061603092064,1.0703411124545494
1592260522.8909495,2.8653318077803203,9.194805491990847,0.5402974828375287,-0.5066666666666667,-0.4577777777777778,0.13333333333333333,-0.26353672927424676,-0.11097518290212229,1.0650577211022318
1592260522.9009495,2.84732713845155,9.233313382567765,0.5288386625547801,-0.5066666666666667,-0.4577777777777778,0.13333333333333333,-0.16694086423536864,-0.015576252665920219,1.135922807421486
1592260522.9109495,3.1424222122012497,9.371122205759196,0.5063666816981254,-0.5149253079659574,-0.45000493890785714,0.12993271632774306,-0.19710341784701857,-2.4243807251259075e-05,1.1649975781833144
1592260522.9209495,3.3,9.63,0.27,-0.5255555555555556,-0.44,0.12555555555555556,-0.3272492347489368,0.04908738521234052,1.1846422297911512
1592260522.9309494,3.3895995727315054,9.089599572731505,0.35733285859056174,-0.5255555555555556,-0.44,0.12555555555555556,-0.17454735567977986,-0.1250772490321519,1.0888911825293317
1592260522.9409494,3.297556345538571,9.050636331318877,0.401970849626733,-0.5255555555555556,-0.44,0.12555555555555556,-0.13409602586111233,-0.09550721800634009,0.8783429179090366
1592260522.9509494,3.4988057968693704,9.196100724608671,0.6279244565434965,-0.5255555555555556,-0.44,0.12555555555555556,-0.1785054462687854,-0.05951582618701234,0.7649466474250662
1592260522.9609494,3.8282854847183163,9.126563861676814,0.5240387527426682,-0.5375984356060997,-0.4275418482235751,0.12306392520027058,-0.28225050134745044,-0.07892404605200092,0.8337163138489561
1592260522.9709494,4.06,8.97,0.38,-0.5577777777777778,-0.4066666666666667,0.11888888888888889,-0.35124751196385884,0.044724062082354694,1.0133817969392076
1592260522.9809494,3.8506798645480593,8.481359729096118,0.7330593904662672,-0.5577777777777778,-0.4066666666666667,0.11888888888888889,-0.01774505210511322,0.0025667342079830763,1.389089264121479
1592260522.9909494,3.9419097329560318,8.54073906736737,1.0683779991914963,-0.5577777777777778,-0.4066666666666667,0.11888888888888889,0.06930237085572447,0.06701147835774003,1.3051351806532996
1592260523.0009494,4.130898582851714,8.568084078853614,0.9651492360066503,-0.5577777777777778,-0.4066666666666667,0.11888888888888889,0.02510871203412395,0.16495035115184967,1.2978406012438306
1592260523.0109494,4.352653966597077,8.726581745824635,0.6839277792275574,-0.5668931222454188,-0.40248880045233126,0.11888888888888889,0.05366143054659121,0.028627903110311152,1.3848942590411113
1592260523.0209494,4.3,8.72,0.73,-0.5844444444444444,-0.39444444444444443,0.11888888888888889,0.09817477042468103,0.07744898555724837,1.3209960776032081
1592260523.0309494,4.626871664408373,8.756310040649282,0.3418983491413876,-0.5844444444444444,-0.39444444444444443,0.11888888888888889,0.1237173983406581,0.05298249842041969,1.1546312165651855
1592260523.0409493,4.700553575671181,8.524325255405083,0.35380612972202424,-0.5844444444444444,-0.39444444444444443,0.11888888888888889,0.08762126120775583,-0.05160881374237332,1.0906873339723144
1592260523.0509493,4.940287590981715,8.43738939187723,0.5576769828589463,-0.5844444444444444,-0.39444444444444443,0.11888888888888889,0.13383190006000803,0.03226156191698964,1.0856879533288688
1592260523.0609493,5.253526139452557,8.222947721094885,0.6447107908211644,-0.5877119638128552,-0.38333487859184806,0.11398760983627285,0.21001647345805322,-0.0007016374746761159,1.0407156621565898
1592260523.0709493,5.31,8.11,0.56,-0.5955555555555555,-0.3566666666666667,0.10222222222222223,0.21925698728178766,-0.07308566242726255,1.0591966898040588
1592260523.0809493,5.341223659608874,8.083670978826621,0.8752458436505128,-0.5955555555555555,-0.3566666666666667,0.10222222222222223,0.28678888837709393,0.1380693334243705,1.1093486947706943
1592260523.0909493,5.314868829741482,8.22615950685717,0.5522979882448511,-0.5955555555555555,-0.3566666666666667,0.10222222222222223,0.3604777950098237,0.11396718746210488,0.8907520254827062
1592260523.1009493,5.25,8.35,0.34,-0.5955555555555555,-0.3566666666666667,0.10222222222222223,0.3643374813538163,-0.11890055529211369,0.6894050545377601
1592260523.1109493,5.52050783922887,8.285166155951567,0.2621191205783477,-0.6057715103614012,-0.35024520936013515,0.0987196091459323,0.3243111669161776,-0.06600585812988172,0.6470363730332417
1592260523.1209493,5.55,8.44,0.24,-0.6344444444444445,-0.3322222222222222,0.08888888888888889,0.24870941840919195,-0.0032724923474893677,0.7363107781851077
1592260523.1309493,5.65727117194183,8.200248075278015,-0.021266039349871688,-0.6344444444444445,-0.3322222222222222,0.08888888888888889,0.3006307241403021,0.010534122073227098,0.54112765177383
1592260523.1409492,5.887945459737293,8.207809109080525,-0.06684537407195888,-0.6344444444444445,-0.3322222222222222,0.08888888888888889,0.2701372971040795,-0.16471443582114442,0.5020370349591572
1592260523.1509492,5.857012519156897,8.197092331270028,0.18282785661684214,-0.6344444444444445,-0.3322222222222222,0.08888888888888889,0.20190441255337754,-0.004538640260106613,0.5536855616368944
1592260523.1609492,5.834415656863048,8.162145535686614,0.24816096941147303,-0.6375936543355268,-0.325351218823497,0.08888888888888889,0.10560264279795889,0.21241109191042123,0.5680553615238646
1592260523.1709492,6.02,8.37,0.07,-0.6466666666666666,-0.3055555555555556,0.08888888888888889,0.16471544815696484,0.1832595714594046,0.5421428989007386
1592260523.1809492,5.915690221014307,8.135898928260088,0.23292933695707915,-0.6466666666666666,-0.3055555555555556,0.08888888888888889,0.03489780290395243,0.14282614215259984,0.3935438728321354
1592260523.1909492,6.093412223541097,8.283677236501052,0.10425934449262372,-0.6466666666666666,-0.3055555555555556,0.08888888888888889,-0.035033581303074934,0.029412160152560568,0.345305508486045
1592260523.2009492,6.2573317098625845,8.247134960669488,0.04162926885835218,-0.6466666666666666,-0.3055555555555556,0.08888888888888889,-0.02867412765438636,-0.024819504703192153,0.33840905706405777
1592260523.2109492,6.084718727169413,8.136916686960522,0.009812484779608735,-0.6499374949265362,-0.302284727295686,0.08416435918018839,-0.0619262011231665,0.008665282047594827,0.14403057276445008
1592260523.2209492,6.138068300442412,8.061775612665905,0.04903415022120594,-0.6666666666666666,-0.28555555555555556,0.06,-0.20322442634867088,0.04602240936356437,0.15580893980495458
1592260523.2309492,6.009798607284204,7.931506938530133,0.01042708281148239,-0.6666666666666666,-0.28555555555555556,0.06,-0.2816646289898138,0.08822018129197279,0.196491953805586
1592260523.2409492,5.997191067470626,7.745730355823542,-0.08387211325341404,-0.6666666666666666,-0.28555555555555556,0.06,-0.2862464345502247,0.10412391749950589,0.16794457660766915
1592260523.2509491,6.150245557479155,7.783056732931367,-0.13198137424631365,-0.6666666666666666,-0.28555555555555556,0.06,-0.27009376525521617,0.2228864693224085,0.24639382601563153
1592260523.2609491,5.92428689252633,7.718983631518843,0.13102461616546124,-0.6662131145229736,-0.28600910769924853,0.05863934356892103,-0.2942998750205451,0.2623072241322264,0.3426960962292825
1592260523.2709491,5.98,7.91,0.33,-0.6644444444444444,-0.2877777777777778,0.05333333333333334,-0.2083486794568231,0.0643590161672909,0.20725784867432664
1592260523.280949,5.753641250188736,7.880145855352559,0.5347812169711611,-0.6644444444444444,-0.2877777777777778,0.05333333333333334,-0.3472601738120223,0.38300595574198526,0.20360406789840918
1592260523.290949,6.07,8.03,0.31,-0.6644444444444444,-0.2877777777777778,0.05333333333333334,-0.35997415822383044,0.3239767424014474,0.1854412330243975
1592260523.300949,5.908380715838027,7.890042577726526,0.4463068257417838,-0.6644444444444444,-0.2877777777777778,0.05333333333333334,-0.2315505200574968,0.3328815249518857,0.1367474216097067
1592260523.310949,6.034336646499567,7.692116001975553,0.5117736757624398,-0.6662096486534689,-0.2862841434470648,0.05333333333333334,-0.19918632044448992,0.13369448479283277,0.16425535704040625
1592260523.320949,5.85,7.42,0.74,-0.6788888888888889,-0.27555555555555555,0.05333333333333334,-0.16471544815696484,0.41233403578366035,0.13744467859455345
1592260523.330949,6.021901782070467,7.61257053462114,0.6728874982995511,-0.6788888888888889,-0.27555555555555555,0.05333333333333334,-0.04976331151002401,0.16327886363712427,0.07050049289549445
1592260523.340949,5.809463452007566,7.601873249215888,0.56,-0.6788888888888889,-0.27555555555555555,0.05333333333333334,-0.06654169629719194,0.22107789404996434,0.19286312375411901
1592260523.350949,5.884578030441959,7.761445076104897,0.5439768934531451,-0.6788888888888889,-0.27555555555555555,0.05333333333333334,-0.00583371421446445,0.27264084148006296,0.1878448215415455
1592260523.360949,5.899961489088575,7.799903722721438,0.4901347881899871,-0.6788888888888889,-0.27555555555555555,0.05333333333333334,-0.09141554040271647,0.33472961734212814,0.26923146017154986
1592260523.370949,5.921978032250526,7.790109838747371,0.46,-0.6644444444444444,-0.27555555555555555,0.017777777777777778,0.0063931504313529145,0.1902960035912837,0.1558769401191574
1592260523.380949,5.919251822745134,7.878341699411725,0.47443886705885024,-0.6644444444444444,-0.27555555555555555,0.017777777777777778,0.0031500721304335844,0.21288618071388887,0.12170650793364063
1592260523.390949,5.982017637436883,7.842282198990114,0.4796472512623569,-0.6644444444444444,-0.27555555555555555,0.017777777777777778,-0.005837779417029966,0.11875742302600845,0.13832503900418078
1592260523.400949,5.965924200966409,7.912218082319381,0.37457181114280724,-0.6644444444444444,-0.27555555555555555,0.017777777777777778,-0.08457332923393027,0.13748398838406065,0.13935682360596222
1592260523.410949,5.843833614717354,7.619200675321651,0.6513104733073296,-0.6644444444444444,-0.27555555555555555,0.017777777777777778,-0.10410642079484456,0.060239489938626836,0.12692667443083494
1592260523.420949,5.869439603960396,7.788334653465347,0.8472217821782178,-0.6844444444444444,-0.27,0.017777777777777778,0.002908306070402432,0.16712434813446986,0.15325524475788574
1592260523.430949,5.79,7.81,0.84,-0.6844444444444444,-0.27,0.017777777777777778,-0.006544984694978735,-0.0818123086872342,0.04690572364734761
1592260523.440949,6.0669101608473905,7.773441088008369,0.830379233686413,-0.6844444444444444,-0.27,0.017777777777777778,-0.1193403396915431,0.06838529013121387,0.15594132857615958
1592260523.450949,5.99173016496465,7.659114296936371,0.7530587195600943,-0.6844444444444444,-0.27,0.017777777777777778,0.04647770324211824,0.06492521132796218,0.13468557508646958
1592260523.460949,6.066594356548687,7.801135214483771,0.6251084651769695,-0.6836876347885971,-0.27,0.01670563076532739,0.05833302566453891,0.0822421646928632,0.20527652562851348
1592260523.470949,6.024417910447761,7.82,0.6937798507462686,-0.6711111111111111,-0.27,-0.0011111111111111111,0.053629799963333225,-0.013757899731030858,0.17235126363444003
1592260523.480949,6.178871310624412,7.811112868937559,0.613334651703169,-0.6711111111111111,-0.27,-0.0011111111111111111,-0.09429530223020509,0.15029746630747431,0.1762290060868366
1592260523.490949,6.4164737531580425,7.799606999157856,0.5801965004210723,-0.6711111111111111,-0.27,-0.0011111111111111111,-0.06688480947956431,0.058883427384000694,0.18285348272840785
1592260523.500949,6.180986020503262,7.831155265610438,0.5445916123019572,-0.6711111111111111,-0.27,-0.0011111111111111111,0.05762058945805921,0.04762491966670389,0.18209168105592657
1592260523.510949,6.1418965517241375,7.706068965517241,0.5211379310344828,-0.6711111111111111,-0.27,-0.0011111111111111111,0.0047469946465880375,-0.0154822741405359,0.27163567226890195
1592260523.520949,6.228374885232007,7.604722791157568,0.5978586058337454,-0.6788888888888889,-0.26222222222222225,-0.024444444444444446,-0.02811136951070004,0.06028336604682848,0.1692518835666505
1592260523.5309489,6.342234432234433,7.638021978021978,0.6887179487179487,-0.6788888888888889,-0.26222222222222225,-0.024444444444444446,-0.11367815297444751,-0.12263655082923525,0.13603818615704888
1592260523.5409489,6.077448938152457,7.55711951458398,0.49744893815245694,-0.6788888888888889,-0.26222222222222225,-0.024444444444444446,-0.1279862602786332,0.06375732765607896,0.014477188441251012
1592260523.5509489,6.365640021363717,7.667520028484956,0.8118044428619469,-0.6788888888888889,-0.26222222222222225,-0.024444444444444446,-0.06730378240704074,-0.0465784938327657,0.11005900637717018
1592260523.5609488,6.141625422823571,7.368833897098095,0.8283981168278836,-0.6788888888888889,-0.26222222222222225,-0.024444444444444446,0.015960313234026927,0.15705652268071504,0.12906494125176168
1592260523.5709488,6.302598436191008,7.700878246299916,0.7156632225635298,-0.6844444444444444,-0.26222222222222225,-0.024444444444444446,-0.019630994073717982,-0.002334274305018244,0.19018380338259
1592260523.5809488,6.401278857220229,7.566394286101144,0.5956394286101144,-0.6844444444444444,-0.26222222222222225,-0.024444444444444446,-0.05696409771862239,0.10263948890124919,0.1983284117211903
1592260523.5909488,6.365206510138741,7.318689434364995,0.5515349519743863,-0.6844444444444444,-0.26222222222222225,-0.024444444444444446,-0.03959698277856225,0.07001288408269449,0.2388185111088733
1592260523.6009488,6.459621484792153,7.3511830083455285,0.42700312462919754,-0.6844444444444444,-0.26222222222222225,-0.024444444444444446,-0.09746590083814397,-0.027050558340884604,0.24721427740786173
1592260523.6109488,6.310316813669264,7.160404817466282,0.5597183878495432,-0.6844444444444444,-0.26222222222222225,-0.024444444444444446,-0.1047043955595376,0.05981137831583908,0.15944752891096384
1592260523.6209488,6.5,7.41,0.6,-0.6966666666666667,-0.27,-0.06,-0.017453292519943295,0.15053464798451094,0.28907015736156083
1592260523.6309488,6.4221607890017935,7.583741781231321,0.5495322773460849,-0.6966666666666667,-0.27,-0.06,-0.18019328068690896,-0.21925617225579955,0.37230305634608385
1592260523.6409488,6.622156337427095,7.627814263360046,0.5156432263265209,-0.6966666666666667,-0.27,-0.06,-0.011479249556540068,0.23395446954852567,0.01447027973403776
1592260523.6509488,6.150097693409436,7.2709136578379185,0.29229996365890676,-0.6966666666666667,-0.27,-0.06,-0.07055517472927482,0.07252167360096315,0.1498531323375488
1592260523.6609488,6.517712007524744,7.037792385472113,0.6868128861241155,-0.6966666666666667,-0.27,-0.06,-0.15955872571225105,-0.14754205135694515,0.08823528934933447
1592260523.6709487,6.546974396792109,7.128036088770078,0.9142887101606251,-0.6911111111111111,-0.26222222222222225,-0.022222222222222223,0.014764438507605223,-0.08415143721744171,0.039696079539809095
1592260523.6809487,6.409645130892459,7.193143487554299,0.84674917833092,-0.6911111111111111,-0.26222222222222225,-0.022222222222222223,0.015295047626233375,-0.04802355630882884,0.0926666127542292
1592260523.6909487,6.796018583492632,7.508714157814504,0.826003097248772,-0.6911111111111111,-0.26222222222222225,-0.022222222222222223,-0.03609119765436239,-0.05184361556948827,0.10566356512981599
1592260523.7009487,6.636297625287264,7.182813369350482,0.802468249808491,-0.6911111111111111,-0.26222222222222225,-0.022222222222222223,0.10813861221512913,-0.07291128255173948,0.10113043235016078
1592260523.7109487,6.610931943716486,7.681671773575777,0.8193787041890094,-0.6911111111111111,-0.26222222222222225,-0.022222222222222223,-0.11506336241455725,0.19732912474783942,-0.02061609926603178
1592260523.7209487,6.571098161218425,7.2856073551263005,0.758901838781575,-0.7033333333333334,-0.25222222222222224,-0.057777777777777775,0.10479603628414898,-0.03280657369876925,0.11827080514729674
1592260523.7309487,6.57749547920434,7.27003616636528,0.7633574442435201,-0.7033333333333334,-0.25222222222222224,-0.057777777777777775,0.059189898508101094,-0.05453167627868811,0.059556138861235834
1592260523.7409487,6.542639319612818,7.484337938163707,0.8969772577765248,-0.7033333333333334,-0.25222222222222224,-0.057777777777777775,0.1287987605782822,0.012680484984292393,0.13509376962594233
1592260523.7509487,6.418260742757146,7.386869336962862,0.6928705035971223,-0.7033333333333334,-0.25222222222222224,-0.057777777777777775,0.041470701163327545,0.135509816698725,-0.11583628160672366
1592260523.7609487,6.377483958778923,7.313471125802061,0.9946187050359713,-0.7033333333333334,-0.25222222222222224,-0.057777777777777775,0.0930681637259259,0.19244494780228183,0.03272882611661987
1592260523.7709486,6.55,7.186674729882277,0.7416674729882277,-0.7111111111111111,-0.25222222222222224,-0.051111111111111114,-0.020540197627385286,-0.05025913554973915,0.06872233929727672
1592260523.7809486,6.55161701808359,7.3678439758885474,0.743829819164103,-0.7111111111111111,-0.25222222222222224,-0.051111111111111114,0.06709614717779155,0.17312800412484528,0.06154917401811554
1592260523.7909486,6.573079841517589,7.31813687117301,0.4738403169648217,-0.7111111111111111,-0.25222222222222224,-0.051111111111111114,0.08736599812555358,0.12020292526057345,-0.050986994529382365
1592260523.8009486,6.487360760492269,7.185619280530136,0.6043536999053329,-0.7111111111111111,-0.25222222222222224,-0.051111111111111114,0.023828942860846816,0.17818715668790955,0.05931607516851636
1592260523.8109486,6.272285421268539,6.953999684443041,0.6457143420637426,-0.7111111111111111,-0.25222222222222224,-0.051111111111111114,0.16730247090852685,-0.13943977332959584,-0.0507705312580054
1592260523.8209486,6.5289225819700185,7.404145161658339,0.8418032263216738,-0.6966666666666667,-0.24444444444444444,-0.06555555555555556,-0.010374329144980099,0.0703828651485792,0.11646342821153578
1592260523.8309486,6.1904822969214095,7.3079100466738955,0.7109645938428174,-0.6966666666666667,-0.24444444444444444,-0.06555555555555556,0.13700980682533984,0.09540040579202173,0.11477565050674403
1592260523.8409486,6.221209514049429,7.180048380561977,0.7704354250577945,-0.6966666666666667,-0.24444444444444444,-0.06555555555555556,0.0433165812621832,-0.007952465515150229,0.26239941102324954
1592260523.8509486,6.4705147370204115,7.190039595155417,0.8596040484458372,-0.6966666666666667,-0.24444444444444444,-0.06555555555555556,-0.021902998878660734,-0.07294744926129197,0.16236725635690377
1592260523.8609486,6.5859672228339114,7.198920555602609,0.7707944439739138,-0.6966666666666667,-0.24444444444444444,-0.06555555555555556,-0.04127824894652253,-0.04194704915271308,0.369682432083025
1592260523.8709486,6.87,7.31,0.96,-0.6911111111111111,-0.24,-0.051111111111111114,0.1407171709420428,-0.13744467859455345,0.284706834231575
1592260523.8809485,6.8103978112393655,7.260331509366138,0.830861924351959,-0.6911111111111111,-0.24,-0.051111111111111114,0.04861130948600194,-0.032335636697659764,0.15142423471283353
1592260523.8909485,6.520806478112898,7.308684896138951,0.6363647459218401,-0.6911111111111111,-0.24,-0.051111111111111114,0.15427949656028986,-0.04543734584645676,0.12279019081954191
1592260523.9009485,6.406490530616753,7.164327020411168,0.7191345959177663,-0.6911111111111111,-0.24,-0.051111111111111114,0.05039333851401408,0.17245610449259616,0.12820926707480887
1592260523.9109485,6.522284799293248,7.241523199528832,0.7036953600942336,-0.6911111111111111,-0.24,-0.051111111111111114,0.13207506793249157,0.13540459836462698,0.08021072504539425
1592260523.9209485,6.61,7.33,0.89,-0.6966666666666667,-0.25222222222222224,-0.09333333333333334,0.11780972450961724,0.15489797111449674,0.1461713248545251
1592260523.9309485,6.633987272245161,7.401961816735483,0.7060975794537672,-0.6966666666666667,-0.25222222222222224,-0.09333333333333334,-0.016509357583190026,0.012729072535746178,0.05807893984560604
1592260523.9409485,6.582148212453634,7.227160708178781,0.9396169731407675,-0.6966666666666667,-0.25222222222222224,-0.09333333333333334,0.0528957514459304,0.00023160748284873495,0.01916901297491082
1592260523.9509485,6.589594760733876,7.1816209570644975,0.9691895214677511,-0.6966666666666667,-0.25222222222222224,-0.09333333333333334,0.027417671684056465,0.07644790536873451,0.10646071031971747
1592260523.9609485,6.59,7.2681494392541985,0.8978777315192924,-0.6966666666666667,-0.25222222222222224,-0.09333333333333334,-0.003541044321371832,0.05690283651537493,0.22206466894286872
1592260523.9709485,6.658261230513791,7.2112037634904524,0.8997324970021215,-0.6844444444444444,-0.23222222222222222,-0.08666666666666667,0.06550820705068652,0.16331913243252028,0.02473119958552476
1592260523.9809484,6.532521215755004,7.298254542938843,0.8803878793469238,-0.6844444444444444,-0.23222222222222222,-0.08666666666666667,0.06972854793346937,-0.17430813819010754,0.15661685217248875
1592260523.9909484,6.41647163079756,7.318921394867074,0.5015721026585338,-0.6844444444444444,-0.23222222222222222,-0.08666666666666667,-0.12523520762514118,-0.1831419138912891,0.14068525827258596
1592260524.0009484,6.632149502127064,7.208925248936469,0.6373558973400029,-0.6844444444444444,-0.23222222222222222,-0.08666666666666667,0.05447907043665687,-0.06916369970223707,0.06995717952906354
1592260524.0109484,6.859680211389218,7.304840105694609,0.6258061294550902,-0.6844444444444444,-0.23222222222222222,-0.08666666666666667,-0.06918163527433559,0.05084826566280698,0.03444874159741938
1592260524.0209484,6.630407313327032,7.137177457466919,0.8321047967863894,-0.6908718625288804,-0.2440058220436883,-0.08666666666666667,-0.024713490521569487,-0.05085644106488511,-0.025313421676167906
1592260524.0309484,6.667242779259946,7.196139890963925,0.783308664888064,-0.6911111111111111,-0.24444444444444444,-0.08666666666666667,0.1296929852803296,0.02888318979527403,-0.029332124677108797
1592260524.0409484,6.614865994704817,7.181621998234939,0.7524329973524084,-0.6911111111111111,-0.24444444444444444,-0.08666666666666667,0.04531561066267176,-0.05038286393624173,-0.15474799391554697
1592260524.0509484,6.664415642616222,7.234415642616223,0.8588312852324457,-0.6911111111111111,-0.24444444444444444,-0.08666666666666667,0.0054305089968251785,0.043095007153360995,0.04689414561465369
1592260524.0609484,6.63998538646866,7.337547493976856,0.7499415458746396,-0.6911111111111111,-0.24444444444444444,-0.08666666666666667,-0.10177058279299446,0.03380618972349408,0.00487765378607187
1592260524.0709484,6.602970297029703,7.243861386138614,0.7730693069306931,-0.6961166116611661,-0.24044004400440044,-0.10568756875687568,0.03564100576473567,-0.18403719340336247,0.015088025773738103
1592260524.0809484,6.710011127157366,7.294173157508464,0.6608212789128531,-0.6966666666666667,-0.24,-0.10777777777777778,0.07454212644488731,-0.07225388426389112,-0.01145675767765703
1592260524.0909483,6.88028688619563,7.282190345978264,0.6143806919565268,-0.6966666666666667,-0.24,-0.10777777777777778,-0.0596330770529028,-0.005599200306243189,0.059643011391130075
1592260524.1009483,6.784810009047188,7.164810009047189,0.636582305604495,-0.6966666666666667,-0.24,-0.10777777777777778,0.06862583134080424,0.17797129384347496,0.018461224110550595
1592260524.1109483,6.689740412747659,7.1281110216584525,0.6764816305692462,-0.6966666666666667,-0.24,-0.10777777777777778,0.04587936555429514,0.2635894152598918,0.07885521845006471
1592260524.1209483,6.697914143453102,6.939907818597765,0.6141717130937963,-0.6914008134092914,-0.24,-0.11514997233810313,0.137039892444273,-0.012956386290499555,-0.03905588162151018
1592260524.1309483,6.849356403340874,7.2638554898207754,0.6187856707847572,-0.6911111111111111,-0.24,-0.11555555555555555,0.005852206549465555,0.16509627565152396,0.03168045347517517
1592260524.1409483,6.5636299292214355,7.108671096345515,0.62,-0.6911111111111111,-0.24,-0.11555555555555555,0.13300225723362538,0.03252607493415835,0.032993888973336764
1592260524.1509483,6.572660603022273,7.167767671703788,0.6638838358518944,-0.6911111111111111,-0.24,-0.11555555555555555,0.1442331725317467,0.02705061908292454,0.022060124892143648
1592260524.1609483,6.622960154016685,7.194320051338895,0.6341998716527624,-0.6911111111111111,-0.24,-0.11555555555555555,0.03745875105711066,0.056007710899978025,0.11835548991365957
1592260524.1709483,6.568359264961184,7.217910183759703,0.5841796324805922,-0.6801659988135142,-0.2270648672846583,-0.10859048409344849,0.09527527367280501,-0.16692623046249083,-0.01973003419605099
1592260524.1809483,6.722297347603536,7.25606607724523,0.7242643089809213,-0.6788888888888889,-0.22555555555555556,-0.10777777777777778,0.13542435745032205,-0.11450035507680988,-0.07576852748906188
1592260524.1909482,6.671577849335571,7.319869381831376,0.4492058596761758,-0.6788888888888889,-0.22555555555555556,-0.10777777777777778,-0.019135128088493658,0.04346339039658326,0.07337517858396668
1592260524.2009482,6.7364569995222165,7.4064569995222165,0.44247611084567606,-0.6788888888888889,-0.22555555555555556,-0.10777777777777778,-0.06434859255732915,0.06872233929727672,0.025130802437265468
1592260524.2109482,6.681070758639361,7.330391986231169,0.518929241360639,-0.6788888888888889,-0.22555555555555556,-0.10777777777777778,0.028611868496820167,0.0010512148359951567,-0.09101135085026758
1592260524.2209482,6.666493084326598,7.207534578367009,0.5829861686531965,-0.6834703012018328,-0.2310532503310883,-0.11419175501589932,-0.01976010517222626,-0.036648896760109594,-0.05198664920617822
1592260524.2309482,6.678494405594406,7.1815055944055946,0.6494608391608392,-0.6844444444444444,-0.23222222222222222,-0.11555555555555555,0.016325846438453945,-0.043738652848208597,0.07922894677954015
1592260524.2409482,6.614594719137367,7.114594719137367,0.6191216994608544,-0.6844444444444444,-0.23222222222222222,-0.11555555555555555,-0.04694980726544122,0.03375664099071044,-0.043426586198395525
1592260524.2509482,6.697646721193858,7.148823360596929,0.5855883197015354,-0.6844444444444444,-0.23222222222222222,-0.11555555555555555,0.08052848115415401,-0.04814593255823586,-0.09124473138547196
1592260524.2609482,6.693111850262748,7.20705426204019,0.6942746363833179,-0.6844444444444444,-0.23222222222222222,-0.11555555555555555,0.044519911047877364,-0.06943747979138125,-0.049440124879651756
1592260524.2709482,6.6544014036982055,7.212934269132137,0.6817370765285464,-0.6730672905325354,-0.22179316446963904,-0.10891888244027534,0.09281793587341215,-0.012874865627880629,0.0881473426876739
1592260524.2809482,6.711272409778813,7.23625960419092,0.6612467986030268,-0.6711111111111111,-0.22,-0.10777777777777778,-0.08024450928785104,0.07693290449786938,-0.02759306624762399
1592260524.2909482,6.908479663142806,7.23180523203727,0.578052320372693,-0.6711111111111111,-0.22,-0.10777777777777778,-0.07114499608800304,0.05796433587506074,-0.025451871289357823
1592260524.3009481,6.642627181360262,7.116757382606412,0.4952899329179498,-0.6711111111111111,-0.22,-0.10777777777777778,-0.09679735861228714,-0.120788552679537,-0.05072557143939982
1592260524.3109481,6.833834253284615,7.037233149343077,0.5987254139780767,-0.6711111111111111,-0.22,-0.10777777777777778,-0.10328076249486065,-0.011068226517967183,-0.0218392158523341
1592260524.3209481,6.706651955664859,7.042918505541892,0.7587555166256781,-0.682083946291742,-0.22,-0.12149382175356638,0.08687934500840772,0.02883673261546328,-0.0014770663895455332
1592260524.330948,6.839856279255757,7.213966786629972,0.8058894926257851,-0.6844444444444444,-0.22,-0.12444444444444444,-0.006988496328489718,-0.08094201493048414,-0.07263483804769717
1592260524.340948,6.692717922402446,7.038543093639142,0.7374755137100912,-0.6844444444444444,-0.22,-0.12444444444444444,0.02789578072515412,-0.03203634277992541,0.06719774137356446
1592260524.350948,6.76056307911618,7.053178902352103,0.8858446186742694,-0.6844444444444444,-0.22,-0.12444444444444444,0.032836883298613916,0.10165874243919751,0.04332611928340343
1592260524.360948,6.79,7.186020801682833,0.93,-0.6844444444444444,-0.22,-0.12444444444444444,0.07835446306666433,-0.05113239016884491,0.09125340640455087
1592260524.370948,6.74180064417698,7.314265807764028,0.8577009662654687,-0.6683779925034374,-0.22,-0.11016315383021605,0.022348587508733295,0.07687141294052527,0.031020867901599664
1592260524.380948,6.7465697781037965,7.404564001467082,0.848284889051898,-0.6644444444444444,-0.22,-0.10666666666666667,0.09617074644172678,0.22164799313687455,0.009443297878950842
1592260524.390948,6.531739464814857,7.225124522156122,0.6083544074735914,-0.6644444444444444,-0.22,-0.10666666666666667,0.06120856342825745,0.11328737483767867,0.16542323347207966
1592260524.400948,6.691691796272112,7.131777276504808,0.7693363409711504,-0.6644444444444444,-0.22,-0.10666666666666667,-0.020896344542197944,0.06410673807583855,0.0835220496335144
1592260524.410948,6.753672219258205,7.195933368901535,0.6881332621969293,-0.6644444444444444,-0.22,-0.10666666666666667,0.005485688787791862,0.05999569303730508,-0.03396487132327649
1592260524.420948,6.9069373260389675,7.1279019099721665,0.7046248840259781,-0.6694265817790148,-0.2133571502205728,-0.12244343489280624,-0.04227350551211064,0.09097330501019817,0.054062204550244644
1592260524.430948,6.814532722482019,6.968777268735016,0.7319184845823343,-0.6711111111111111,-0.2111111111111111,-0.12777777777777777,0.009945470409142204,0.06794811278229479,0.053424659115768755
1592260524.440948,6.825749864889209,6.978124887407675,0.676625157629256,-0.6711111111111111,-0.2111111111111111,-0.12777777777777777,-0.003245128235354146,0.17228275509876217,-0.0190075446126221
1592260524.450948,6.744329848577188,6.99,0.7335924241713938,-0.6711111111111111,-0.2111111111111111,-0.12777777777777777,0.023837396166601098,0.14945849389014798,0.009987051599439564
1592260524.460948,6.667434438740114,7.105535094848262,0.7295960276715098,-0.6711111111111111,-0.2111111111111111,-0.12777777777777777,0.10806260690670678,0.15259725636136479,-0.054979890974285656
1592260524.470948,6.569407456936352,7.081170439710893,0.6394074569363517,-0.6711111111111111,-0.2009144104463619,-0.12777777777777777,0.08681320881197557,0.2257413297458548,0.0028942598763400385
1592260524.480948,6.769013887268059,7.032366203757731,0.6023662037577313,-0.6711111111111111,-0.19666666666666666,-0.12777777777777777,0.0039454747275507185,0.22232055542805942,0.18482041804481078
1592260524.490948,6.854628705471104,6.956856472644482,0.5853712945288964,-0.6711111111111111,-0.19666666666666666,-0.12777777777777777,0.023612147752737143,0.14119647119571382,-0.07151136705308031
1592260524.500948,6.978151888191968,7.1032894360148875,0.6981518881919684,-0.6711111111111111,-0.19666666666666666,-0.12777777777777777,0.1702680871430874,0.02861475439554212,-0.1810779098944117
1592260524.510948,6.915602123498184,7.048859418033769,0.6356021234981838,-0.6711111111111111,-0.19666666666666666,-0.12777777777777777,0.1318799960451268,0.13858238118231703,0.0050074022562413
1592260524.520948,7.026365189796167,7.0,0.676000854387892,-0.6711111111111111,-0.20274753515873986,-0.13907081926305653,0.07040791450860409,0.1960718070507184,-0.14133434976448422
1592260524.530948,6.9878485316846985,7.018670788253478,0.7261391035548685,-0.6711111111111111,-0.20444444444444446,-0.14222222222222222,0.0779321881882584,0.14813920381794066,-0.17019050825445944
1592260524.540948,6.951295377588786,7.239084704832401,0.7970121006903431,-0.6711111111111111,-0.20444444444444446,-0.14222222222222222,0.0023549483827388917,0.06059103003574764,-0.09620599509398114
1592260524.550948,6.640445562257134,7.062096693446492,0.73949912985434,-0.6711111111111111,-0.20444444444444446,-0.14222222222222222,0.017246813000239343,0.06024664106817953,-0.010558254825627666
1592260524.560948,6.6682997471309085,7.180064189846333,0.8537901186539584,-0.6711111111111111,-0.20444444444444446,-0.14222222222222222,0.019791926777581778,0.1631891974466798,0.005340169416011339
1592260524.570948,6.7524438135793705,7.278665720369056,0.7301450989669585,-0.6658270903977078,-0.19827975361214065,-0.12460881984421138,-0.018568639253312036,0.02597512306403099,-0.08717863528097751
1592260524.5809479,6.691855525185474,7.17058883248731,0.7490944943381492,-0.6644444444444444,-0.19666666666666666,-0.12,-0.008993284319262072,-0.024200683613923326,-0.055474772332339294
1592260524.5909479,6.899407424620926,7.2774995642828095,0.8780921396618835,-0.6644444444444444,-0.19666666666666666,-0.12,0.11442943554555747,-0.025333092108997604,-0.1361023857458892
1592260524.6009479,6.824330182645157,6.915825456612892,0.7384838793736526,-0.6644444444444444,-0.19666666666666666,-0.12,0.03889381665284086,0.004303294231121982,-0.19951895300848818
1592260524.6109478,6.868718782386051,6.79316250431814,0.8513687996586129,-0.6644444444444444,-0.19666666666666666,-0.12,0.07402788965433733,0.15417193280091057,-0.09012781253283214
1592260524.6209478,6.807065012139196,6.672007013757756,0.8622390072835177,-0.6594251116506309,-0.20252255492611576,-0.1308752210532626,0.18546271418089125,0.24742496295583424,-0.11183796300436147
1592260524.6309478,6.786311166875784,6.793111668757842,0.8726223337515684,-0.6577777777777778,-0.20444444444444446,-0.13444444444444445,0.1710304961248929,0.22605107009773798,-0.15381398368697205
1592260524.6409478,6.693932279143447,7.101984950920766,0.7929209923340217,-0.6577777777777778,-0.20444444444444446,-0.13444444444444445,0.14980348803454477,0.008313623431092265,-0.13643543409218828
1592260524.6509478,6.669895820916871,7.112421865687653,0.8421093284382674,-0.6577777777777778,-0.20444444444444446,-0.13444444444444445,0.12099985909402067,-0.050212308520067694,-0.11616779624833411
1592260524.6609478,6.767645390637482,7.282770011183895,0.792354609362518,-0.6577777777777778,-0.20444444444444446,-0.13444444444444445,0.15375574893928762,-0.09539177074478858,-0.12423081651686516
1592260524.6709478,6.797737079298111,7.15737079298111,0.6657902643270368,-0.6676724092008396,-0.18465518159832092,-0.15176004943480254,0.08316257220065902,0.09744901424580653,-0.14328907986052064
1592260524.6809478,6.808342199968706,7.105679079956189,0.6326631200125176,-0.6711111111111111,-0.17777777777777778,-0.15777777777777777,0.09561615692992072,0.1461212295901435,-0.1395493624279072
1592260524.6909478,6.809088879821425,7.119088879821424,0.6880044643928666,-0.6711111111111111,-0.17777777777777778,-0.15777777777777777,0.02067580296589447,0.11394334034830345,-0.23292924975200147
1592260524.7009478,6.759063970343615,7.050502352549783,0.8166208830378784,-0.6711111111111111,-0.17777777777777778,-0.15777777777777777,0.1652630150370907,0.16215019945449313,-0.12719908118699547
1592260524.7109478,6.6783234103357945,7.071397158053505,0.7774851155036914,-0.6711111111111111,-0.17777777777777778,-0.15777777777777777,0.19417887678451817,0.20674616183668498,-0.11659796452272637
1592260524.7209477,6.581507608935379,7.076008695926148,0.69,-0.6686671497736748,-0.1881646134618818,-0.1449469807562375,0.10531485058577168,0.18850314784252692,-0.11188354974056085
1592260524.7309477,6.589140033492936,7.020429983253532,0.6834766610845107,-0.6666666666666666,-0.19666666666666666,-0.13444444444444445,0.15106263200431444,0.1456942584496132,-0.13557253643691086
1592260524.7409477,6.61627129584803,6.99118611245591,0.5294888996472785,-0.6666666666666666,-0.19666666666666666,-0.13444444444444445,0.20712916801144,-0.03139672376978886,-0.1692817884828631
1592260524.7509477,6.650502355531356,6.943397173362373,0.5010047110627116,-0.6666666666666666,-0.19666666666666666,-0.13444444444444445,0.19375038298313055,-0.0898265746066375,-0.10051568848065795
1592260524.7609477,6.840626342232293,7.135792138705546,0.6152763274554232,-0.6666666666666666,-0.19666666666666666,-0.13444444444444445,0.13240130290580981,-0.06546190400956434,-0.09884678494358752
1592260524.7709477,6.747276582322843,7.303293614635171,0.6958382981706035,-0.6614770682927968,-0.1908283684960632,-0.1428775418019828,0.10108798514919774,0.10004543779272967,-0.2636375603832518
1592260524.7809477,6.5664806164410905,7.287821695212999,0.6902790753383639,-0.6577777777777778,-0.18666666666666668,-0.14888888888888888,0.10224551555343672,0.22688687977501645,-0.3538739635149433
1592260524.7909477,6.464947559617976,7.25722505419816,0.5233638014882522,-0.6577777777777778,-0.18666666666666668,-0.14888888888888888,0.08676959036070978,0.2714226922326515,-0.20599131660741682
1592260524.8009477,6.55008254884337,7.261639623444817,0.5316396234448176,-0.6577777777777778,-0.18666666666666668,-0.14888888888888888,-0.017328465439056834,0.2677720978653432,-0.14443680122085967
1592260524.8109477,6.546305155853236,7.378463916387591,0.5490762889633092,-0.6577777777777778,-0.18666666666666668,-0.14888888888888888,-0.007248065338435215,0.24291901900912305,-0.1754397763890916
1592260524.8209476,6.366161585157902,7.242323170315804,0.7868634472409795,-0.661421230930132,-0.19334633077931626,-0.13735128723976686,0.054161113656512015,0.12157569855446065,-0.24364904540635857
1592260524.8309476,6.295539597047676,7.143036106124078,0.9704747656094155,-0.6644444444444444,-0.1988888888888889,-0.12777777777777777,0.031083128491064486,0.05922038282824166,-0.25724609952391736
1592260524.8409476,6.3150556235833575,7.323518745277857,0.7071714040069823,-0.6644444444444444,-0.1988888888888889,-0.12777777777777777,-0.07944839201429897,0.10456177037850097,-0.05722119792300971
1592260524.8509476,6.271532774065122,7.289926062846581,0.7410941276837765,-0.6644444444444444,-0.1988888888888889,-0.12777777777777777,0.0713969918536197,0.09575386437198716,-0.07330823347416748
1592260524.8609476,6.308152074361323,7.367155913245123,0.8909961611161993,-0.6644444444444444,-0.1988888888888889,-0.12777777777777777,0.12334104029322338,0.10635809507971455,-0.18427902219693304
1592260524.8709476,6.401793495829831,7.382286804163703,0.8173996250080817,-0.667613341666487,-0.1988888888888889,-0.1409815162029554,0.0772191402401115,0.07287041606092265,-0.2104131262574461
1592260524.8809476,6.500319073672295,7.3429789642486565,0.6903190736722951,-0.6711111111111111,-0.1988888888888889,-0.15555555555555556,0.08933200280464457,0.10986050483859534,-0.1813563542013106
1592260524.8909476,6.560209276404085,7.412116193899138,0.7789301881212893,-0.6711111111111111,-0.1988888888888889,-0.15555555555555556,0.10031077496094865,0.16724209323846212,-0.17096110636416453
1592260524.9009476,6.413286193045421,7.537611532336653,0.7195538706533882,-0.6711111111111111,-0.1988888888888889,-0.15555555555555556,0.08537798465577436,0.08393047478990368,-0.14451074609956746
1592260524.9109476,6.2788929946112395,7.40437259430331,0.6789114703618168,-0.6711111111111111,-0.1988888888888889,-0.15555555555555556,0.0930909447455174,0.008126899266238798,-0.12556024936729954
1592260524.9209476,6.336787896515861,7.316336128445138,0.7612672256890276,-0.6654398509273705,-0.19369023372045993,-0.15177471543306176,0.1112647398146385,0.016737487999057846,-0.07551372525130222
1592260524.9309475,6.331585675345427,7.3231713506908545,0.6075618009211392,-0.6577777777777778,-0.18666666666666668,-0.14666666666666667,0.1243247187915985,0.052718839733861295,-0.012976979868168668
1592260524.9409475,6.377566353426541,7.209159294063718,0.556725647490259,-0.6577777777777778,-0.18666666666666668,-0.14666666666666667,0.04725567456329083,0.1161469263695418,-0.10238120693628121
1592260524.9509475,6.366883685871767,7.07067178593301,0.5989612286239223,-0.6577777777777778,-0.18666666666666668,-0.14666666666666667,0.05338647229963918,0.1700985827006522,-0.1452247939183211
1592260524.9609475,6.288497801370677,7.094462623301509,0.7994406370082796,-0.6577777777777778,-0.18666666666666668,-0.14666666666666667,0.1480204608531705,0.08961265841992293,-0.15414858942394244
1592260524.9709475,6.464955763811521,7.493022478537257,0.7758588374074318,-0.6634172910704793,-0.18055719393290662,-0.14666666666666667,0.18208309841480508,-0.06242784749579478,-0.12148690871500765
1592260524.9809475,6.329630636604774,7.463417108753315,0.6642334217506631,-0.6711111111111111,-0.17222222222222222,-0.14666666666666667,0.0412819412080116,0.01928556995499868,-0.012973508013311631
1592260524.9909475,6.159434379142731,7.292956252761821,0.7895802032699956,-0.6711111111111111,-0.17222222222222222,-0.14666666666666667,0.01525974091548879,0.07800235442083915,0.015900678312952096
1592260525.0009475,6.243689482084616,7.369708773796582,0.6145631606948717,-0.6711111111111111,-0.17222222222222222,-0.14666666666666667,0.07421898491797126,0.047583572370277556,0.07552146679814253
1592260525.0109475,6.3161788231567275,7.318507563158311,0.6871341173675457,-0.6711111111111111,-0.17222222222222222,-0.14666666666666667,0.02659676451251535,-0.008729799449451424,0.03601706926366109
1592260525.0209475,6.415716334564096,7.203279118733026,0.7797488633242806,-0.6685901830548011,-0.17222222222222222,-0.1433054292582534,0.026876025360231863,-0.001074653559943184,-0.0856697441045356
1592260525.0309474,6.2903162867118505,7.18381392483056,0.4937954405422058,-0.6644444444444444,-0.17222222222222222,-0.13777777777777778,0.01807432002642926,0.05327416805548978,-0.11280207413985738
1592260525.0409474,6.306943245489397,7.370829736468191,0.3502745234712206,-0.6644444444444444,-0.17222222222222222,-0.13777777777777778,0.01387663323406767,0.04981281210144824,-0.04448180471117964
1592260525.0509474,6.35157539134986,7.47578769567493,0.2779445211019651,-0.6644444444444444,-0.17222222222222222,-0.13777777777777778,0.0647550826706563,0.12136248931395016,-0.10665140327268688
1592260525.0609474,6.4320752958902485,7.571295374794314,0.3185656509585456,-0.6644444444444444,-0.17222222222222222,-0.13777777777777778,0.024028596692272995,0.13534809322349683,-0.1334079710611665
1592260525.0709474,6.358939437565985,7.639787887513197,0.636025210352881,-0.6644444444444444,-0.1856498277719124,-0.13442087639035524,0.024414759108843796,-0.025108895598713432,-0.10577973539149536
1592260525.0809474,6.226494927709881,7.639455228053359,0.7658614905343878,-0.6644444444444444,-0.1988888888888889,-0.13111111111111112,0.066195191347381,-0.16115689482545634,-0.1082589646989745
1592260525.0909474,6.226702546056717,7.659641637342165,0.5932138791140551,-0.6644444444444444,-0.1988888888888889,-0.13111111111111112,0.06494414380525235,-0.013119944092167449,-0.20353311089038673
1592260525.1009474,6.142958428246014,7.47,0.6618337129840547,-0.6644444444444444,-0.1988888888888889,-0.13111111111111112,0.12404623062482678,0.07749697341484965,-0.23764731131245456
1592260525.1109474,6.319709090167778,7.4980704544064585,0.7419295455935416,-0.6644444444444444,-0.1988888888888889,-0.13111111111111112,0.037572674830796425,0.07055233229980865,-0.25932456532237436
1592260525.1209474,6.38091308839501,7.5803478053561495,0.6260869910730842,-0.6672415447420083,-0.19376087167668848,-0.13390821140867498,0.01633873860236619,-0.05402931011681467,-0.2161932065112624
1592260525.1309474,6.259735761294473,7.659911920431491,0.46044039784254537,-0.6711111111111111,-0.18666666666666668,-0.13777777777777778,0.0950297458832615,0.04509685751010033,-0.1593887620505524
1592260525.1409473,6.27452474394563,7.582306882358572,0.3377821384129415,-0.6711111111111111,-0.18666666666666668,-0.13777777777777778,0.11307593448805514,0.03843928130333085,-0.11553836986123538
1592260525.1509473,6.275499369392952,7.474167717678414,0.3681626728220261,-0.6711111111111111,-0.18666666666666668,-0.13777777777777778,0.1374970876883797,-0.06756025395185156,-0.09200903132692938
1592260525.1609473,6.221125174129353,7.467218706467662,0.5331795024875622,-0.6711111111111111,-0.18666666666666668,-0.13777777777777778,0.1799581205395003,-0.002824307425391425,-0.0692994918945749
1592260525.1709473,6.090677183945052,7.454251985404594,0.5763779781068898,-0.6663447091650568,-0.18666666666666668,-0.1429413798860032,0.15800212104245082,-0.062038161878495854,-0.027722531312749876
1592260525.1809473,6.140365116708183,7.448107297721192,0.5505588615185902,-0.6577777777777778,-0.18666666666666668,-0.15222222222222223,0.06399568266489145,-0.18919249230057322,-0.0850498539926328
1592260525.1909473,6.25791330401585,7.58208669598415,0.6139399797032813,-0.6577777777777778,-0.18666666666666668,-0.15222222222222223,-0.0016900417961067185,-0.11628547128022156,-0.0251327559889087
1592260525.2009473,6.13918216675796,7.6314275167305725,0.5273457334063684,-0.6577777777777778,-0.18666666666666668,-0.15222222222222223,0.029295907860250027,-0.08328027611193459,-0.08305966273688493
1592260525.2109473,6.086748391172174,7.546135457380868,0.5204903470330451,-0.6577777777777778,-0.18666666666666668,-0.15222222222222223,0.007334608541047373,-0.08500390065867557,-0.1377789821181481
1592260525.2209473,6.154469800403095,7.519916780443404,0.6027234900201547,-0.6650404178315238,-0.1812196866263572,-0.1537352722334193,-0.02978348880198291,-0.1491036816820318,-0.16495133029613546
1592260525.2309473,6.258813523631258,7.629660973327094,0.49101684604585866,-0.6844444444444444,-0.16666666666666666,-0.15777777777777777,-0.06763143194734116,0.010557067459295015,-0.09371900487321176
1592260525.2409472,6.2524508450799825,7.574245084507998,0.3033040704120189,-0.6844444444444444,-0.16666666666666666,-0.15777777777777777,-0.03746552197065639,0.07183013463339431,-0.07174893379907493
1592260525.2509472,6.313936380761619,7.532763430860577,0.5116102725516847,-0.6844444444444444,-0.16666666666666666,-0.15777777777777777,-0.13037705129488908,0.02842883924069805,-0.01974989748164679
1592260525.2609472,6.2592788856685555,7.4207098671973,0.8264169226110655,-0.6844444444444444,-0.16666666666666666,-0.15777777777777777,-0.08741887785374872,-0.017762417080056384,-0.014495445656629483
1592260525.2709472,6.302878271473688,7.434083049310528,0.7317269628842125,-0.682321135118421,-0.1687899759926901,-0.1569284540473684,-0.021051420760009307,0.07085218972570068,-0.07051557082721539
1592260525.2809472,6.55,7.57,0.88,-0.6788888888888889,-0.17222222222222222,-0.15555555555555556,-0.002181661564992912,0.148352986419518,-0.0839939702522271
1592260525.2909472,6.160864914896899,7.707094667557978,0.7166755797809431,-0.6788888888888889,-0.17222222222222222,-0.15555555555555556,-0.012215880014545197,-0.04481840966173244,-0.15264108951148625
1592260525.3009472,6.177777657054695,7.728773767356961,0.5427203980964385,-0.6788888888888889,-0.17222222222222222,-0.15555555555555556,-0.12691667649275482,-0.05447884225136394,-0.0947267979432726
1592260525.3109472,6.0833275254652674,7.503464808148886,0.6729331010186107,-0.6788888888888889,-0.17222222222222222,-0.15555555555555556,-0.07359649070478223,-0.023229298740732814,-0.1470750802881891
1592260525.3209472,6.258426973314168,7.582022373601649,0.6831460533716643,-0.6794132311174996,-0.17222222222222222,-0.1548564325840746,-0.022723584760005543,0.022147593929350423,-0.09132334960900224
1592260525.3309472,6.281357608189856,7.651221498371336,0.6512214983713355,-0.6822222222222222,-0.17222222222222222,-0.1511111111111111,-0.101220492808429,0.0006862741823802712,-0.08317445126742462
1592260525.3409472,6.36376296945784,7.580368259535291,0.617710068683326,-0.6822222222222222,-0.17222222222222222,-0.1511111111111111,-0.13449721970687856,0.07670837474101594,-0.10523575968533873
1592260525.3509471,6.364352955110743,7.602443444273363,0.7545791780172925,-0.6822222222222222,-0.17222222222222222,-0.1511111111111111,0.05069351499909007,0.043093255204588114,-0.3065056720400175
1592260525.3609471,6.324727580112196,7.614727580112196,0.8055909475140245,-0.6822222222222222,-0.17222222222222222,-0.1511111111111111,0.042323865525433074,-0.026730383745200655,-0.39456117670331037
1592260525.3709471,6.430925125131942,7.731512479144676,0.7973128128298546,-0.6840708078434933,-0.17138195603073536,-0.1531277499706796,-0.07454494434402863,-0.03431234615912249,-0.4828808396138462
1592260525.380947,6.289468424705066,7.6967022900763356,0.6424469118667592,-0.6944444444444444,-0.16666666666666666,-0.16444444444444445,0.02005281570321382,-0.008923616537282936,-0.38393791643550346
1592260525.390947,6.157090245221782,7.6229097547782185,0.6744475748287053,-0.6944444444444444,-0.16666666666666666,-0.16444444444444445,0.006661522242513741,-0.06526798445208347,-0.3212838645440715
1592260525.400947,6.173437548447109,7.709688904966152,0.7481241279520439,-0.6944444444444444,-0.16666666666666666,-0.16444444444444445,0.05904127951973764,0.05167796034749669,-0.4812275731113459
1592260525.410947,6.110275330617487,7.7937528847504565,0.6665224458670306,-0.6944444444444444,-0.16666666666666666,-0.16444444444444445,0.064734067918139,0.026563571648275008,-0.602065652439192
1592260525.420947,5.994877231073789,7.632518598933554,0.7427641367859765,-0.6965943286113151,-0.17741608750101995,-0.1684370864686328,0.0797097801577096,0.02661416041423862,-0.6027428520755171
1592260525.430947,6.06,7.77,0.75,-0.7022222222222222,-0.20555555555555555,-0.17888888888888888,0.1341721862470641,0.053450708342326333,-0.507236313860852
1592260525.440947,6.098661044886649,7.849629488067652,0.7308547335228495,-0.7022222222222222,-0.20555555555555555,-0.17888888888888888,0.1153359482538194,-0.08079311245291104,-0.6697949080519003
1592260525.450947,6.05,7.8670508602939435,0.7282372849265141,-0.7022222222222222,-0.20555555555555555,-0.17888888888888888,0.15843299294456029,0.0238491344456398,-0.7182707765471606
1592260525.460947,6.094253207265879,7.74425320726588,0.7208297697045785,-0.7022222222222222,-0.20555555555555555,-0.17888888888888888,0.2715116077381788,0.038679235861817325,-0.7697825798747657
1592260525.470947,6.189536004627101,7.875504000514122,0.5744959994858777,-0.7022222222222222,-0.20543066668094784,-0.1772653335189886,0.24830755552171016,0.03807784930023706,-0.8563353227674857
1592260525.480947,5.859080927206182,7.876396909312729,0.6427572183814558,-0.7022222222222222,-0.20444444444444446,-0.16444444444444445,0.2510396884785103,0.04261027246112832,-1.0413423761261744
1592260525.490947,5.84,7.94,0.7,-0.7022222222222222,-0.20444444444444446,-0.16444444444444445,0.15598880189699318,0.17235126363444003,-1.0330167510241437
1592260525.500947,5.61037145074531,7.977195921535045,0.2509468247384055,-0.7022222222222222,-0.20444444444444446,-0.16444444444444445,0.2566582635246019,-0.12080573604941468,-1.0380951117323798
1592260525.510947,5.587307467499748,7.948760858611307,0.44628257583392117,-0.7022222222222222,-0.20444444444444446,-0.16444444444444445,0.1910911934258229,-0.11112009453159821,-1.1126050752751504
1592260525.520947,5.706679975429976,7.979351965601966,0.39975675675675676,-0.7004588452088452,-0.21326132951132953,-0.16444444444444445,0.15017704578019989,-0.08009458522654136,-1.206282221980229
1592260525.530947,5.9,8.25,0.74,-0.6944444444444444,-0.24333333333333335,-0.16444444444444445,0.02617993877991494,0.15271630954950383,-1.1759155835311794
1592260525.540947,5.365923346772082,8.912995444787684,0.7235813393371382,-0.6944444444444444,-0.24333333333333335,-0.16444444444444445,0.016880833389467248,0.19076516576382926,-1.3085989648142489
1592260525.550947,5.805597718902222,8.798189141024118,0.01756587857906622,-0.6944444444444444,-0.24333333333333335,-0.16444444444444445,0.10357037172369868,0.07915986752137438,-1.2371754064982252
1592260525.560947,5.714481300176228,8.183540043078128,1.3753369884472293,-0.6944444444444444,-0.24333333333333335,-0.16444444444444445,0.08960911088113147,-0.15524333322380132,-1.426025011802105
1592260525.570947,5.412225643062866,8.534160293971595,0.5990505511967424,-0.6934509293283749,-0.24810220589046691,-0.1680210988622946,0.15107997309612342,0.024276880170758765,-1.3245631343461297
1592260525.580947,4.55,8.14,-0.14,-0.6888888888888889,-0.27,-0.18444444444444444,0.028361600344907853,-0.07963064712224129,-1.2708178616083712
1592260525.590947,4.77367112521726,8.07265774956548,0.36215421043351215,-0.6888888888888889,-0.27,-0.18444444444444444,-0.04185202737420393,0.21242277402144055,-1.2444105736787452
1592260525.600947,4.84281504431155,8.379362586161347,0.13115882508345947,-0.6888888888888889,-0.27,-0.18444444444444444,0.005299818005964359,0.1160768186300335,-1.1665358063682216
1592260525.610947,4.925737743327411,8.719203779994924,0.4978532518499717,-0.6888888888888889,-0.27,-0.18444444444444444,-0.024408693857417813,0.1859232116761712,-1.1642613269523605
1592260525.620947,4.489710305524774,8.345835048282412,0.3332072186164318,-0.6880277206128085,-0.2776069864387104,-0.18358327616836403,-0.356332472238067,0.14652601322356856,-1.0956532664703007
1592260525.6309469,4.69,8.52,0.22,-0.6822222222222222,-0.3288888888888889,-0.17777777777777778,-0.25089107997418486,0.1636246173744684,-1.1061024134514064
1592260525.6409469,4.633393288063303,8.885775296032325,0.5142022560188563,-0.6822222222222222,-0.3288888888888889,-0.17777777777777778,-0.06791586279867365,0.3099062557746503,-1.1102941445345131
1592260525.6509469,4.25,8.69,0.4,-0.6822222222222222,-0.3288888888888889,-0.17777777777777778,-0.030543261909900768,0.2476185876266955,-1.119192382841364
1592260525.6609468,4.123099877519207,9.131033292506403,0.49005968154993884,-0.6822222222222222,-0.3288888888888889,-0.17777777777777778,-0.2862447586684941,0.27524052186546294,-1.1086157089512092
1592260525.6709468,3.9744652037617554,9.075636677115988,0.18595924764890284,-0.6779664228491814,-0.3350952629745733,-0.17547255311738072,-0.16830462338460156,0.17509964427649607,-1.1146068243115208
1592260525.6809468,3.84,9.0,0.27,-0.6555555555555556,-0.36777777777777776,-0.16333333333333333,-0.32506757318394386,0.08617563181722002,-1.0330167510241437
1592260525.6909468,3.76092577147623,8.553321316150555,0.7166786838494443,-0.6555555555555556,-0.36777777777777776,-0.16333333333333333,-0.18963439723493664,0.13743091444601593,-0.9507808352580387
1592260525.7009468,3.6569549051387167,8.694345028124701,0.9656506816665078,-0.6555555555555556,-0.36777777777777776,-0.16333333333333333,-0.0711883822880239,0.09087003129348074,-0.9562308541378075
1592260525.7109468,3.8815347612854705,9.243497594835556,1.315567446451795,-0.6555555555555556,-0.36777777777777776,-0.16333333333333333,-0.14907550093414,0.2760456162825887,-1.133876970753184
1592260525.7209468,3.35577678193698,8.901754908259036,1.3352833706773632,-0.6555555555555556,-0.36777777777777776,-0.16333333333333333,-0.27524835829776323,0.18356664696493308,-1.0313615241452398
1592260525.7309468,3.4669596931213857,9.221956932376276,0.49303478538839324,-0.65,-0.38555555555555554,-0.17777777777777778,-0.03620787252416427,0.07647151419116549,-1.0332338330385733
1592260525.7409468,2.8808064516129033,8.546224611708482,0.9787037037037037,-0.65,-0.38555555555555554,-0.17777777777777778,0.09116452098734718,0.09210482494143464,-1.0241454426173895
1592260525.7509468,3.1920111087575607,8.896120407634916,0.7812589140718774,-0.65,-0.38555555555555554,-0.17777777777777778,0.08064892529603113,-0.031012235194841874,-1.076987688274082
1592260525.7609468,3.257434645796353,9.461393012748104,0.8063280619654671,-0.65,-0.38555555555555554,-0.17777777777777778,0.0715843838995529,0.021171745781980795,-1.1799934371079117
1592260525.7709467,2.3812056916996047,8.702070513833993,0.5955784980237153,-0.6474624505928854,-0.38890512077294687,-0.1769657619675011,0.1976290465529733,-0.08475929367995932,-1.2488484779098832
1592260525.7809467,2.99,9.22,0.85,-0.6222222222222222,-0.4222222222222222,-0.1688888888888889,0.1778054175469223,-0.0272707695624114,-1.1388273369263
1592260525.7909467,2.554404240859046,9.183574554845725,0.8036275655837977,-0.6222222222222222,-0.4222222222222222,-0.1688888888888889,0.12655849282378878,-0.0346071662982564,-1.240388234700741
1592260525.8009467,2.512749618857746,9.360998475430984,0.6041679371408467,-0.6222222222222222,-0.4222222222222222,-0.1688888888888889,0.28551504939724365,0.021562476511602924,-0.9977359548660494
1592260525.8109467,2.442232338090884,9.279553532381822,0.6608929352363535,-0.6222222222222222,-0.4222222222222222,-0.1688888888888889,0.2333754678965567,0.04555776505864825,-0.9671809738420407
1592260525.8209467,2.238399846262251,9.313199346614567,0.5771997309589392,-0.6208443120591606,-0.42382237595997124,-0.16879999145901395,0.22746082296494563,0.04376361950305716,-1.2185015166587199
1592260525.8309467,2.2,9.15,0.51,-0.5877777777777777,-0.4622222222222222,-0.16666666666666666,0.42433317439112134,-0.0839939702522271,-1.1933688760511227
1592260525.8409467,2.575909567798562,10.028515059238977,1.0982903861408941,-0.5877777777777777,-0.4622222222222222,-0.16666666666666666,0.16398832998471757,0.05293726783941584,-1.0690751298811227
1592260525.8509467,1.8578710390740785,9.744524924133714,0.10783269425298173,-0.5877777777777777,-0.4622222222222222,-0.16666666666666666,0.22778858296946267,-0.049883702717867115,-0.9263559334930043
1592260525.8609467,2.147616406450467,9.906631466750884,0.21606024120166592,-0.5877777777777777,-0.4622222222222222,-0.16666666666666666,0.12372404137106652,-0.00024112693549884108,-0.963767028642832
1592260525.8709466,1.3114553026863787,9.211210350749068,0.779020192250755,-0.5877777777777777,-0.4622222222222222,-0.16666666666666666,0.4063879174681767,0.02504509840226181,-0.892423750011293
1592260525.8809466,1.5,9.88,0.7,-0.59,-0.5022222222222222,-0.18222222222222223,0.2530727415391778,-0.00545415391248228,-0.9315694882519734
1592260525.8909466,1.7135737500325003,9.690316944437221,0.6193661111255557,-0.59,-0.5022222222222222,-0.18222222222222223,0.20483417418540967,-0.03642182475166926,-0.7821948175996515
1592260525.9009466,1.393992599269415,9.75199013235922,0.4479605294368803,-0.59,-0.5022222222222222,-0.18222222222222223,0.135242834667723,-0.011128088570410853,-0.835405036315249
1592260525.9109466,1.3163138224243625,9.746029661854855,0.3639250543800672,-0.59,-0.5022222222222222,-0.18222222222222223,0.05739081415072663,-0.0312692888523027,-0.935205425484855
1592260525.9209466,1.0426102432272097,9.878734427526203,0.5878643464504647,-0.59,-0.5022222222222222,-0.18222222222222223,-0.005941004827272556,-0.10726747162590175,-0.6701165260483726
1592260525.9309466,1.17,9.82,0.27,-0.5822222222222222,-0.5133333333333333,-0.17555555555555555,0.03490658503988659,-0.12435470920459597,-0.7886706557449377
1592260525.9409466,0.7207960943237143,9.60685206843093,0.5735259879783501,-0.5822222222222222,-0.5133333333333333,-0.17555555555555555,0.005539006525911165,-0.30987207223111185,-0.5874514352783902
1592260525.9509466,1.5756987162817087,10.253677628312726,0.44503037896876996,-0.5822222222222222,-0.5133333333333333,-0.17555555555555555,-0.14395652497525743,-0.1953316143582701,-0.6496593214366164
1592260525.9609466,0.9613732126406856,9.93936496174951,0.4053484599671566,-0.5822222222222222,-0.5133333333333333,-0.17555555555555555,-0.18477278404947844,-0.1638859545125107,-0.5914493503021863
1592260525.9709466,0.7177822725998317,9.746172147234349,0.31295189650338445,-0.5822222222222222,-0.5133333333333333,-0.17555555555555555,-0.2699853154399767,-0.3443899188558244,-0.5859517676318314
1592260525.9809465,0.6,9.5,0.57,-0.5433333333333333,-0.5522222222222222,-0.17555555555555555,-0.3534291735288517,-0.358883327441334,-0.6741334235828097
1592260525.9909465,0.7492802196379083,9.547763733844441,0.7414395607241835,-0.5433333333333333,-0.5522222222222222,-0.17555555555555555,-0.2195320894426612,-0.4508020029312224,-0.6537468758156758
1592260526.0009465,0.8879628552144669,9.493858542602462,0.7671135988083878,-0.5433333333333333,-0.5522222222222222,-0.17555555555555555,-0.0339396713344345,-0.39976326904533865,-0.6762581914437141
1592260526.0109465,1.7086887711995384,10.096928720093967,0.7942695818822512,-0.5433333333333333,-0.5522222222222222,-0.17555555555555555,-0.09021624868649492,-0.32077368719796306,-0.5242565065253261
1592260526.0209465,1.1209491623220065,9.906777670163002,0.6646211387475014,-0.5433333333333333,-0.5522222222222222,-0.17555555555555555,-0.1684711456995115,-0.29437444483212616,-0.46674387137118134
1592260526.0309465,1.03,9.81,0.58,-0.5311111111111111,-0.5633333333333334,-0.16111111111111112,-0.12762720155208535,-0.21162117180431245,-0.5530512067257032
1592260526.0409465,0.8097139742524917,9.66100109011628,0.45957096137873754,-0.5311111111111111,-0.5633333333333334,-0.16111111111111112,-0.226441583641202,-0.16946996753180515,-0.5918663283803337
1592260526.0509465,0.7833384523095381,9.724290101979605,0.44808134373125375,-0.5311111111111111,-0.5633333333333334,-0.16111111111111112,-0.25962610213938503,-0.2547998270225962,-0.41596567124252665
1592260526.0609465,0.6999100530192065,9.67,0.6444573267592267,-0.5311111111111111,-0.5633333333333334,-0.16111111111111112,-0.15999062262997402,-0.09509284096923837,-0.46437863392478756
1592260526.0709465,0.5008943122975678,9.67,0.8867373589420915,-0.5311111111111111,-0.5633333333333334,-0.16111111111111112,-0.19963360019336915,-0.09698060180559052,-0.39641924381611016
1592260526.0809464,0.32,9.75,0.92,-0.5166666666666667,-0.5633333333333334,-0.14666666666666667,-0.21707532571679475,-0.11017390903214205,-0.5792311455056182
1592260526.0909464,0.27,9.690176690451919,0.9591165477404009,-0.5166666666666667,-0.5633333333333334,-0.14666666666666667,-0.11823856963885557,-0.0754311524685937,-0.6558224408043898
1592260526.1009464,0.2856006764159482,9.731835373695993,0.7645884342399848,-0.5166666666666667,-0.5633333333333334,-0.14666666666666667,-0.20178002623321925,-0.09974245320979597,-0.4694194351096591
1592260526.1109464,0.4384731600777446,9.745419480233235,0.8122902598833831,-0.5166666666666667,-0.5633333333333334,-0.14666666666666667,-0.07232793644219422,0.028420155971699845,-0.5451911575135288
1592260526.1209464,0.42166469633518344,9.694994089005549,0.8375029554972249,-0.5166666666666667,-0.5633333333333334,-0.14666666666666667,-0.07599497437356649,0.06509053528542245,-0.6267827514865616
1592260526.1309464,0.35710638439518005,9.652263830637109,0.896604254044338,-0.5124737589596787,-0.5710203307961447,-0.15924538978763064,-0.1182079928485365,0.07283871681273095,-0.5888972998236985
1592260526.1409464,0.20303833637590285,9.65339233272482,1.0079744424160648,-0.51,-0.5755555555555556,-0.16666666666666666,-0.13269200186278285,-0.0302032593316911,-0.541364191697169
1592260526.1509464,-0.04904456757407854,9.731391471934474,1.090695735967237,-0.51,-0.5755555555555556,-0.16666666666666666,-0.027546013157108286,0.04189678426430534,-0.4323869270587874
1592260526.1609464,-0.17664120305563333,9.747343518777747,1.1046488421389433,-0.51,-0.5755555555555556,-0.16666666666666666,-0.04595978143936904,-0.02740732518970468,-0.4967626717594411
1592260526.1709464,-0.2605171379434468,9.713793144822622,1.1633619965604127,-0.51,-0.5755555555555556,-0.16666666666666666,-0.047789670473094945,-0.05668554972931919,-0.5022523388606187
1592260526.1809464,-0.5017162041602103,9.794290510400526,1.030560877118843,-0.48333333333333334,-0.6022222222222222,-0.15222222222222223,0.046988341389384826,0.015066110998394673,-0.3951976409512461
1592260526.1909463,-0.5171610159480213,9.844968222090962,0.9179343177790904,-0.48333333333333334,-0.6022222222222222,-0.15222222222222223,-0.05517477509235824,-0.14820391695121418,-0.4375490951108853
1592260526.2009463,-0.4793763527816759,9.905010822253407,0.76,-0.48333333333333334,-0.6022222222222222,-0.15222222222222223,-0.03830805295571765,0.014680616174975432,-0.3508133642702234
1592260526.2109463,-0.4599757542032672,9.82849636313049,0.7605012122898367,-0.48333333333333334,-0.6022222222222222,-0.15222222222222223,-0.08682378275197655,-0.1394570292089661,-0.5175273412752119
1592260526.2209463,-0.29326404070114076,9.803489606105172,0.768836797964943,-0.48333333333333334,-0.6022222222222222,-0.15222222222222223,-0.043178758218172644,-0.10035836139743343,-0.39841279515170547
1592260526.2309463,-0.2173266845049866,9.764884456336658,0.8138944295791778,-0.48333333333333334,-0.589541609232682,-0.16490283521176247,-0.048579781396501126,-0.1992837191010881,-0.4162653782486245
1592260526.2409463,-0.46,10.07,0.97,-0.48333333333333334,-0.5877777777777777,-0.16666666666666666,0.1341721862470641,-0.24216443371421323,0.007635815477475192
1592260526.2509463,-1.2322200553843754,9.435966691368618,1.864149537813487,-0.48333333333333334,-0.5877777777777777,-0.16666666666666666,0.236142251338175,-0.3104400425143484,-0.14044245295918156
1592260526.2609463,-0.5074589779653071,9.652006563525552,1.5679934364744492,-0.48333333333333334,-0.5877777777777777,-0.16666666666666666,0.22819535597211726,-0.2769651575389208,-0.09368410699237847
1592260526.2709463,-0.3026271683075481,9.684779653070793,1.5352203469292076,-0.48333333333333334,-0.5877777777777777,-0.16666666666666666,0.19602045055000133,-0.2930526102499788,-0.002521874963050008
1592260526.2809463,-0.3145235469413614,9.630646220991624,0.9386911326465964,-0.4711111111111111,-0.6144444444444445,-0.16666666666666666,0.14177813102685588,-0.15680124903938286,0.03796043514263596
1592260526.2909462,-0.44563322741715844,9.654198819791194,0.6011756695415342,-0.4711111111111111,-0.6144444444444445,-0.16666666666666666,0.23989958577996956,-0.21277686814854607,-0.09736023722576743
1592260526.3009462,-0.19,9.9,0.67,-0.4711111111111111,-0.6144444444444445,-0.16666666666666666,0.29888763440402893,-0.15271630954950383,0.014180800172453926
1592260526.3109462,-0.02494618020560374,9.750665591614595,0.9450896996573271,-0.4711111111111111,-0.6144444444444445,-0.16666666666666666,0.19000280107143608,0.02132795160416817,-0.030401966231442354
1592260526.3209462,-0.24332899052068827,9.660625814277372,0.8718774428321128,-0.4711111111111111,-0.6144444444444445,-0.16666666666666666,0.22947102314055304,-0.0210424634476246,-0.042542400517361786
1592260526.3309462,-0.15,9.8,0.65,-0.4577777777777778,-0.6077777777777778,-0.14666666666666667,0.16689710972195776,-0.1636246173744684,0.03599741582238304
1592260526.3409462,-0.32148010370871377,9.628519896291285,0.8300541088941494,-0.4577777777777778,-0.6077777777777778,-0.14666666666666667,0.17624989850751524,-0.056067546340557314,0.04909132012216352
1592260526.3509462,-0.2409771606849413,9.70902283931506,0.8327442901712353,-0.4577777777777778,-0.6077777777777778,-0.14666666666666667,0.3274532995229612,0.12930762495666753,0.09487505212134476
1592260526.3609462,-0.2935941821649976,9.683660467334287,0.9481034811635669,-0.4577777777777778,-0.6077777777777778,-0.14666666666666667,0.302880584850592,0.03815155952929582,-0.13758507689126104
1592260526.3709462,-0.3298950671766206,9.627683632440913,1.004842600764931,-0.4577777777777778,-0.6077777777777778,-0.14666666666666667,0.28747397357165894,-0.04773328733602003,0.046448723637263795
1592260526.3809462,-0.34955768218889766,9.629115364377796,1.0104423178111024,-0.4705213540296413,-0.6141495659037096,-0.1381709491654243,0.277360515084498,0.060364756017123655,0.010375591529250508
1592260526.3909461,-0.25050396577845113,9.684270564120844,0.9376392478388735,-0.4711111111111111,-0.6144444444444445,-0.13777777777777778,0.3461376876683093,0.15632734732075615,-0.041905847628689936
1592260526.4009461,-0.2987961902779223,9.738996825231602,0.5576241282398251,-0.4711111111111111,-0.6144444444444445,-0.13777777777777778,0.3619807327620086,0.07067018247059108,-0.03835416441419073
1592260526.4109461,-0.3195968490444799,9.788992122611198,0.4030236321664009,-0.4711111111111111,-0.6144444444444445,-0.13777777777777778,0.41025372368854696,0.04520780850185632,-0.08307045436045127
1592260526.4209461,-0.3610172468859789,9.765389651868412,0.3507793037368253,-0.4711111111111111,-0.6144444444444445,-0.13777777777777778,0.32623174151984674,0.08051836249554085,-0.0392510947357444
1592260526.430946,-0.4287009978617249,9.896968995010692,0.16389700641482535,-0.4580664449196167,-0.6144444444444445,-0.12473311158628336,0.2777322814629475,0.18760821929999652,-0.014511431526877745
1592260526.440946,-0.39354981580363424,9.907290036839273,0.10896974212508795,-0.4577777777777778,-0.6144444444444445,-0.12444444444444444,0.21265822637662002,0.11425868855116629,0.08283599822325635
1592260526.450946,-0.38,9.90043842351225,0.003945811610254188,-0.4577777777777778,-0.6144444444444445,-0.12444444444444444,0.250251090947873,0.13102489825395564,-0.08552865916370447
1592260526.460946,-0.43756436491695616,9.842435635083044,0.01918812163898539,-0.4577777777777778,-0.6144444444444445,-0.12444444444444444,0.25935203966180526,0.0022626445764950542,-0.08025058245772754
1592260526.470946,-0.3924057171020207,9.800338097585017,0.18657999014292756,-0.4577777777777778,-0.6144444444444445,-0.12444444444444444,0.31326561205198233,0.014033277271164117,0.015551085780352872
1592260526.480946,-0.3708523817832839,9.826590472866865,0.32147618216716106,-0.4699746020667326,-0.6195264545648422,-0.13664126873339924,0.11770066046523225,0.012557021180048193,0.1211866176046549
1592260526.490946,-0.38760231015656726,9.80359653476515,0.3388011550782837,-0.4711111111111111,-0.62,-0.13777777777777778,0.12985665433170643,-0.02448303074002277,0.006790782146938623
1592260526.500946,-0.44116615835913675,9.757361534700719,0.23766768328172655,-0.4711111111111111,-0.62,-0.13777777777777778,0.16021854250850695,0.017058919339457933,-0.009817477042468103
1592260526.510946,-0.38236684705212187,9.75,0.18618342352606093,-0.4711111111111111,-0.62,-0.13777777777777778,0.21082565137748757,0.041688781156806666,-0.07806057780884174
1592260526.520946,-0.3768686751192276,9.77747470047691,0.15939397464231708,-0.4711111111111111,-0.62,-0.13777777777777778,0.2042718627717456,0.06420472394540935,0.03983162829015996
1592260526.530946,-0.31428626027135487,9.814642652398241,0.1335715650678387,-0.46654765696328854,-0.62,-0.11039705289084231,0.05497126350053777,-0.02189374299361796,0.0670084446491426
1592260526.540946,-0.39132151343447263,9.83660391153354,0.013772619265216599,-0.46555555555555556,-0.62,-0.10444444444444445,0.08557927377107727,-0.015374313801410935,0.031016400540290836
1592260526.550946,-0.4182312113912276,9.864693634173682,-0.0840809025210485,-0.46555555555555556,-0.62,-0.10444444444444445,0.03711853083773246,0.017119099245891566,0.08794111933692438
1592260526.560946,-0.38748793521504743,9.87812801619624,-0.0593599190188093,-0.46555555555555556,-0.62,-0.10444444444444445,0.07719601881983995,-0.028517037118995076,0.026970424525285336
1592260526.570946,-0.359124426793318,9.838248853586636,0.06829491483786437,-0.46555555555555556,-0.62,-0.10444444444444445,0.007469939882724472,-0.07983171656962088,-0.022062927956081585
1592260526.580946,-0.35,9.82,0.18346855686710994,-0.4540959550101052,-0.6314596005454505,-0.09915539803885196,0.05991105548296183,-0.012272956591878423,-0.004842360824311397
1592260526.590946,-0.28565622334416857,9.803914055836042,0.2,-0.45111111111111113,-0.6344444444444445,-0.09777777777777778,0.05131846196251465,0.023855111490119662,-0.014274550712075078
1592260526.600946,-0.31807184768291225,9.775964076158544,0.13590420308945036,-0.45111111111111113,-0.6344444444444445,-0.09777777777777778,-0.028032378706277263,0.043002244929611876,-0.009804414765106153
1592260526.610946,-0.37006526295731706,9.79403915777439,0.15205221036585365,-0.45111111111111113,-0.6344444444444445,-0.09777777777777778,-0.02658494712208231,-0.045747651295084076,0.06578761372218765
1592260526.620946,-0.3472326025901077,9.780339561554065,0.18621391792791386,-0.45111111111111113,-0.6344444444444445,-0.09777777777777778,0.06539797759716358,-0.00295395750438715,-0.008939612715986422
1592260526.630946,-0.38747378391177867,9.802842162235303,0.1507367566470469,-0.4748304505032737,-0.6344444444444445,-0.11511114117974276,0.02886668429561523,0.06925059629890784,-0.1160300489585786
1592260526.640946,-0.43430643953575443,9.801423390116062,0.19145965930363162,-0.48,-0.6344444444444445,-0.11888888888888889,0.027748441952519007,-0.046045331378150894,-0.011772656448787042
1592260526.650946,-0.4080868578548068,9.768086857854806,0.14415200124591185,-0.48,-0.6344444444444445,-0.11888888888888889,0.03228385380080885,0.006564181685855874,-0.07417200339520492
1592260526.660946,-0.33735449735449735,9.752169312169313,0.176984126984127,-0.48,-0.6344444444444445,-0.11888888888888889,-0.001442897860445047,-0.058622054274161395,0.009309576995591456
1592260526.670946,-0.3263880567982883,9.762776113596576,0.24110445438630618,-0.48,-0.6344444444444445,-0.11888888888888889,0.04065703074475908,-0.07902499308887076,-0.06843574425002562
1592260526.6809459,-0.3383565121018198,9.719860927389082,0.37863465732365664,-0.4688579838642403,-0.6279449350319181,-0.11238937947636242,0.07710560258774848,0.08845385399918983,-0.011127558143479988
1592260526.6909459,-0.35389239007686424,9.705369203307711,0.4,-0.4666666666666667,-0.6266666666666667,-0.1111111111111111,0.00579943199594414,0.06349607925159773,0.011999138607461015
1592260526.7009459,-0.34070507470722844,9.721971193969578,0.25352537353614213,-0.4666666666666667,-0.6266666666666667,-0.1111111111111111,-0.02101936503522421,0.049454588014987866,0.011999138607461015
1592260526.7109458,-0.33763533987068456,9.760541359482739,0.17709398038794646,-0.4666666666666667,-0.6266666666666667,-0.1111111111111111,0.036647000569366775,0.08038274856934796,-0.07295527180334378
1592260526.7209458,-0.3709440086556668,9.800944008655668,0.11430078441979985,-0.4666666666666667,-0.6266666666666667,-0.1111111111111111,0.07229992199615948,0.03133667385854371,-0.10871691081630015
1592260526.7309458,-0.39,9.834053831799348,0.10108074769902267,-0.4705705088331523,-0.6219820560668838,-0.1111111111111111,0.09339860353521921,-0.10916981477073225,-0.05321582280710049
1592260526.7409458,-0.42827687602916964,9.832344624794166,0.07937849917666431,-0.4722222222222222,-0.62,-0.1111111111111111,0.09432296507447137,-0.12066002351755323,-0.0773750831189141
1592260526.7509458,-0.40994948664332875,9.83,-0.05771468176585298,-0.4722222222222222,-0.62,-0.1111111111111111,0.05611441854552558,-0.011833834034308224,-0.04355057901328184
1592260526.7609458,-0.37811354118194507,9.822704513727315,-0.06352256863657516,-0.4722222222222222,-0.62,-0.1111111111111111,-0.031173294095677685,-0.11217516982463645,-0.0018047183639310835
1592260526.7709458,-0.37,9.825992370938414,-0.020038145307929484,-0.4722222222222222,-0.62,-0.1111111111111111,-0.010533558424589952,-0.04835869144963996,-0.06296014146392502
