time,acc_x,acc_y,acc_z,mag_x,mag_y,mag_z,gyr_x,gyr_y,gyr_z
1592260552.680921,-0.3512940693377134,9.754676482665571,0.7253235173344283,-0.29444444444444445,-0.56,0.14888888888888888,0.011472952092269582,-0.02439597260491532,0.07062167872861713
1592260552.690921,-0.36236656089975183,9.7692475888285,0.7246237944142503,-0.2980407289888613,-0.5564037154555831,0.15556770304280593,0.040514368885387994,0.02893612763178395,0.08333736763865443
1592260552.700921,-0.34972214097689386,9.74648142731793,0.7523457151213805,-0.3022222222222222,-0.5522222222222222,0.16333333333333333,0.1636954463986609,0.07678919086341898,0.07443907107872495
1592260552.710921,-0.30451233900304786,9.763901287975617,0.720611051027431,-0.3022222222222222,-0.5522222222222222,0.16333333333333333,0.15097560273450936,0.08277111580507102,0.01809292626164115
1592260552.720921,-0.3561133449120887,9.760720658561539,0.7080566724560443,-0.3022222222222222,-0.5522222222222222,0.16333333333333333,-0.004815528301269342,-0.05217613027948741,-0.044519137149362564
1592260552.730921,-0.3679646689909043,9.748305903433769,0.7254235241415578,-0.3022222222222222,-0.5522222222222222,0.16333333333333333,-0.03261193751573047,-0.04272324603906112,-0.005636316683047392
1592260552.740921,-0.35778463964259904,9.77,0.7061076801787004,-0.3053094044047332,-0.549649570403463,0.15973162078707048,-0.012532836579818355,0.042132900018630765,0.10543638099243904
1592260552.750921,-0.3909469283896765,9.771893856779352,0.6814776444929116,-0.3088888888888889,-0.5466666666666666,0.15555555555555556,-0.049054473923737386,0.015742698555679495,0.14712595048479055
1592260552.760921,-0.4046583732057416,9.780683253588515,0.5440995215311004,-0.3088888888888889,-0.5466666666666666,0.15555555555555556,0.023198682593494006,0.058599847178592866,0.09929274149458889
1592260552.770921,-0.42601152902503514,9.786011529025036,0.5387089397584621,-0.3088888888888889,-0.5466666666666666,0.15555555555555556,-0.06467401918237402,0.06097523470707358,0.10044256867160091
1592260552.780921,-0.3758040753850569,9.8,0.6071189132306515,-0.3088888888888889,-0.5466666666666666,0.15555555555555556,-0.07806209653144937,0.03472202143882247,0.07283537556715163
1592260552.790921,-0.3319093344466479,9.79161813311067,0.6761002678913126,-0.31401114087681253,-0.5438727110368902,0.16486874098814397,0.0016557341049561747,0.0182900021974891,0.07864034901701697
1592260552.800921,-0.3904549838554116,9.779818006457834,0.7409099677108232,-0.3211111111111111,-0.54,0.17777777777777778,-0.08078103515214037,-0.042462990854158285,0.16648908311148816
1592260552.810921,-0.365069558101473,9.745950542144026,0.7838021685761047,-0.3211111111111111,-0.54,0.17777777777777778,-0.08011452474993112,-0.021555289372043818,0.02983683293240639
1592260552.820921,-0.28,9.739965371840475,0.7100346281595251,-0.3211111111111111,-0.54,0.17777777777777778,-0.07308188508102742,-0.017419296403827236,0.1268494793673774
1592260552.830921,-0.271466071391662,9.754266964304168,0.7128008929125069,-0.3211111111111111,-0.54,0.17777777777777778,-0.0779001220183999,0.02579094096072122,0.10992077748886912
1592260552.840921,-0.2765880429705745,9.772441032227931,0.7175589677720691,-0.3211111111111111,-0.54,0.16856219834968084,-0.06118944199731872,0.07627497956445647,0.004870144204665109
1592260552.850921,-0.36900556093387665,9.809715874552536,0.6704261881711957,-0.3211111111111111,-0.54,0.15555555555555556,-0.08484763614590693,0.10336076616992829,0.055074490895787864
1592260552.860921,-0.5260008857395926,9.845176626895222,0.5843523680508519,-0.3211111111111111,-0.54,0.15555555555555556,-0.10595139417932159,0.07149340640751423,0.07724347083263486
1592260552.870921,-0.7032178229636524,9.849033197298393,0.5629004081048185,-0.3211111111111111,-0.54,0.15555555555555556,-0.0803688798255002,0.013544853193746414,0.13596027296253593
1592260552.880921,-0.78,9.84,0.59,-0.3211111111111111,-0.54,0.15555555555555556,-0.08726646259971647,0.038179077387375956,0.19853120241435498
1592260552.8909209,-0.6809468173623631,9.828600748855914,0.9058022465677437,-0.31542754896069275,-0.54,0.1591723678330945,-0.13331488341082737,0.07856220476795304,0.05167302176064459
1592260552.9009209,-0.560554698286364,9.846319337285795,0.9690798343214488,-0.3088888888888889,-0.54,0.16333333333333333,-0.0962882967235132,0.08145209444524357,0.05575338630047203
1592260552.9109209,-0.28933693747068556,9.785828828161643,0.9213261250586289,-0.3088888888888889,-0.54,0.16333333333333333,-0.05105795732797675,-0.03861305079799367,0.07410082522242743
1592260552.9209208,-0.42107283559142883,9.775146295762466,0.9557314788123379,-0.3088888888888889,-0.54,0.16333333333333333,-0.11090550566461344,-0.08071332838101918,0.09590550803077764
1592260552.9309208,-0.5573017149961604,9.805600979997806,1.0495012249972575,-0.3088888888888889,-0.54,0.16333333333333333,-0.07832932473045556,-0.10590691662727156,0.0503539248329873
1592260552.9409208,-0.6259303467553071,9.826758706655587,1.0929651733776535,-0.3175323378073246,-0.5421608622296089,0.15649060293957173,-0.04837888497418132,-0.08651346220120765,0.13690902851627085
1592260552.9509208,-0.6802057923951215,9.819917683041952,1.1197118906468302,-0.33555555555555555,-0.5466666666666666,0.14222222222222222,-0.15349735147442542,-0.14204146579111745,0.25614319767520527
1592260552.9609208,-0.7173002882157812,9.825399423568438,1.0076676273859373,-0.33555555555555555,-0.5466666666666666,0.14222222222222222,-0.08500466005983898,-0.16990118022536663,0.24281448913484446
1592260552.9709208,-0.6773463278194174,9.864530734436116,0.977184406616699,-0.33555555555555555,-0.5466666666666666,0.14222222222222222,-0.013746760932926844,-0.142761128916133,0.3199169535499029
1592260552.9809208,-0.6598093875657285,9.873269795855242,1.0034604082895144,-0.33555555555555555,-0.5466666666666666,0.14222222222222222,0.05650886408153212,-0.16492657941652167,0.3488131339571431
1592260552.9909208,-0.6510732400081153,9.894463379995942,0.9490204233448299,-0.3307344288902414,-0.5402384977795811,0.14597198740635542,0.0169069550089425,-0.18791465327910256,0.37650946208769837
1592260553.0009208,-0.5000169200399929,9.944998589996667,0.7850098700233291,-0.31555555555555553,-0.52,0.15777777777777777,-0.03760520760791049,-0.23179523517283793,0.5830258283112703
1592260553.0109208,-0.44,9.95,0.75,-0.31555555555555553,-0.52,0.15777777777777777,-0.13853550937704992,-0.25416357232167425,0.6654067773228381
1592260553.0209208,-0.22552496377288891,9.882178896061125,0.6284046897641944,-0.31555555555555553,-0.52,0.15777777777777777,-0.0251105193775518,-0.270131288681764,0.6004197898053286
1592260553.0309207,0.0029277745155607757,9.81438990017616,0.6712201996476805,-0.31555555555555553,-0.52,0.15777777777777777,-0.10006306704640713,-0.19695997052388886,0.6471537130383469
1592260553.0409207,0.10147491573761991,9.783005574280528,0.7234972128597356,-0.32021850603520297,-0.5293259009592948,0.1523376688848558,-0.008214674151075033,-0.08977598145913744,0.6142914423760172
1592260553.0509207,0.16,9.77,0.73,-0.3288888888888889,-0.5466666666666666,0.14222222222222222,0.06981317007977318,-0.08835729338221293,0.7646723785300156
1592260553.0609207,0.3820274604693039,9.658391761859209,0.851993134882674,-0.3288888888888889,-0.5466666666666666,0.14222222222222222,0.08244129653418941,-0.0885904860074284,0.6052851271212946
1592260553.0709207,0.532820299500832,9.68389683860233,0.7561031613976705,-0.3288888888888889,-0.5466666666666666,0.14222222222222222,0.050895332870318416,0.05468129614687309,0.700508477685717
1592260553.0809207,0.5373884179953767,9.744925611996917,0.6988429850038528,-0.3288888888888889,-0.5466666666666666,0.14222222222222222,-0.043690905477914474,0.044341809009856376,0.7359249043121934
1592260553.0909207,0.49684612586395055,9.72315387413605,0.7646926154965442,-0.33729921991835415,-0.5340511701224687,0.1425726526817833,0.024921257353185674,-0.04293722650084085,0.6605736311130139
1592260553.1009207,0.49,9.73,0.84,-0.35555555555555557,-0.5066666666666667,0.14333333333333334,0.017453292519943295,-0.15271630954950383,0.6784967467127956
1592260553.1109207,0.4597212057010786,9.763271379044683,0.8300929314329738,-0.35555555555555557,-0.5066666666666667,0.14333333333333334,-0.07128112745213504,-0.08690961050340094,0.7051876447498429
1592260553.1209207,0.37609484457742637,9.763660088812898,0.8943952886419225,-0.35555555555555557,-0.5066666666666667,0.14333333333333334,-0.06374590145163682,-0.1289620970120457,0.6812130606809783
1592260553.1309206,0.3927481428873064,9.770902739121254,0.9936409006276753,-0.35555555555555557,-0.5066666666666667,0.14333333333333334,-0.04184764158318102,-0.18642596864642583,0.7135981012775835
1592260553.1409206,0.579153002241359,9.713615665919548,1.0347882505603399,-0.3576836669157066,-0.5119869450670442,0.14422004640006292,-0.03151686409232004,-0.1371674992262041,0.6815596173374247
1592260553.1509206,0.68,9.68,1.06,-0.3688888888888889,-0.54,0.14888888888888888,-0.002181661564992912,-0.17016960206944715,0.6632251157578453
1592260553.1609206,0.8846977052074139,9.654563934245367,1.0722150816416594,-0.3688888888888889,-0.54,0.14888888888888888,-0.13169811006448834,-0.05938053620315563,0.7367712883339629
1592260553.1709206,0.94,9.62,1.01,-0.3688888888888889,-0.54,0.14888888888888888,-0.04799655442984406,-0.09708393964218458,0.8770279491271507
1592260553.1809206,0.9737451661532411,9.579375805641126,1.2098407288457758,-0.3688888888888889,-0.54,0.14888888888888888,0.12164289687259702,-0.061496464181378115,0.8758892153083906
1592260553.1909206,1.173297178020885,9.518937095972154,1.374360082048732,-0.3703269862975855,-0.5299333181391237,0.14745079148019227,0.20206240093107702,-0.03058191019098126,0.7620805705575563
1592260553.2009206,1.24,9.43,1.53,-0.37444444444444447,-0.5011111111111111,0.14333333333333334,0.24652775684419903,-0.03381575425739013,0.7733990247899873
1592260553.2109206,1.0330387560556338,9.659932020628224,1.1537185497734022,-0.37444444444444447,-0.5011111111111111,0.14333333333333334,0.30827723439319715,0.13792224734547764,0.910336473037093
1592260553.2209206,1.1238747497855304,9.629628252788104,1.0516242493565915,-0.37444444444444447,-0.5011111111111111,0.14333333333333334,0.35556810023047547,0.14272602145370344,0.8986502303254081
1592260553.2309206,1.13,9.55,1.07,-0.37444444444444447,-0.5011111111111111,0.14333333333333334,0.4003348971761993,0.03381575425739013,0.9828385350293068
1592260553.2409205,1.3169265858873842,9.62864148253742,0.9068595866001425,-0.3760554367624931,-0.5011111111111111,0.14034149045695732,0.34698386417693505,0.16632129412857438,1.0081147092321912
1592260553.2509205,1.42,9.7,0.78,-0.38222222222222224,-0.5011111111111111,0.1288888888888889,0.4308781590861001,0.1265363707695889,1.0046551506792358
1592260553.2609205,1.3335434343434345,9.700315151515152,0.6315757575757576,-0.38222222222222224,-0.5011111111111111,0.1288888888888889,0.2654751569813799,0.14336425364090088,0.9257455537227175
1592260553.2709205,1.3810959587560285,9.658436720439049,0.5228122401463496,-0.38222222222222224,-0.5011111111111111,0.1288888888888889,0.305091564405661,0.015068630847580759,1.0357460956312714
1592260553.2809205,1.5290766977042864,9.632023599293627,0.4949705008829668,-0.38222222222222224,-0.5011111111111111,0.1288888888888889,0.29014811672609075,0.057093888771185014,1.146898197574977
1592260553.2909205,1.6461776560721209,9.65345558598197,0.4665444140180302,-0.39385673603205373,-0.4965057827280528,0.12428356050583059,0.28440782154146516,-0.00026108650986246193,1.1529870931031654
1592260553.3009205,1.74,9.63,0.49,-0.43555555555555553,-0.48,0.10777777777777778,0.31852258848896514,0.07308566242726255,1.1802789066611654
1592260553.3109205,1.8467064766839378,9.615882124352332,0.3819992227979275,-0.43555555555555553,-0.48,0.10777777777777778,0.24134294770342593,0.08178625309185954,1.2065101088358847
1592260553.3209205,1.9807457562464237,9.559627121876789,0.28037287812321193,-0.43555555555555553,-0.48,0.10777777777777778,0.21114909569416856,0.017021891103291303,1.2225889620943478
1592260553.3309205,2.1069927015800305,9.511707170309407,0.3227642765635312,-0.43555555555555553,-0.48,0.10777777777777778,0.16735770295173463,-0.010083885538631973,1.3243315195977405
1592260553.3409204,2.258033377837116,9.477540720961281,0.33467222963951937,-0.4371129654353953,-0.4768851802403204,0.11227696187509272,0.09326625036088007,-0.03839316567179115,1.4344689123322418
1592260553.3509204,2.41,9.41,0.36,-0.44555555555555554,-0.46,0.13666666666666666,0.14944381720201447,0.09053895494720585,1.3340860469931657
1592260553.3609204,2.452897312941577,9.414672984706183,0.3328973129415771,-0.44555555555555554,-0.46,0.13666666666666666,0.22107193309865986,0.07142374181791133,1.4574929532235084
1592260553.3709204,2.4075839601398936,9.374479950174868,0.3310400996502659,-0.44555555555555554,-0.46,0.13666666666666666,0.11314088723434929,0.11656702508083444,1.4152666845421813
1592260553.3809204,2.38,9.34,0.4,-0.44555555555555554,-0.46,0.13666666666666666,0.056723200689815706,0.09926560120717749,1.5108006337575914
1592260553.3909204,2.7283113473568212,9.242726477165915,0.6442861310083299,-0.44901886004242336,-0.4574025216348491,0.1356565361913302,0.05706346437408453,-0.05027798990558163,1.6110867078158755
1592260553.4009204,2.65,9.06,0.74,-0.4722222222222222,-0.44,0.1288888888888889,0.11780972450961724,-0.18980455615438332,1.720240143996911
1592260553.4109204,2.651854830176701,8.950184636546398,0.788518675272458,-0.4722222222222222,-0.44,0.1288888888888889,0.2215800955851098,0.06646011484093024,1.7080292969604165
1592260553.4209204,3.3253614228647517,8.808116321095682,0.8113044512079133,-0.4722222222222222,-0.44,0.1288888888888889,0.236172697559054,0.1312947232132855,1.769533266078349
1592260553.4309204,3.5790726752785718,8.706181836110838,0.7828545508332512,-0.4722222222222222,-0.44,0.1288888888888889,0.29428032918343483,0.1780672126320658,1.7503252376162126
1592260553.4409204,3.806776600456543,8.619835099315186,0.7532233995434567,-0.475861507652588,-0.43560775896335163,0.12788494808051212,0.4208628154262762,0.1936390952438472,1.8357989684914728
1592260553.4509203,3.86,8.54,0.7,-0.5044444444444445,-0.4011111111111111,0.12,0.32506757318394386,0.17235126363444003,1.8609573149389538
1592260553.4609203,4.240761235794643,8.609238764205356,0.2977162926160699,-0.5044444444444445,-0.4011111111111111,0.12,0.3681388811742533,0.22971142079453308,1.644440579801032
1592260553.4709203,4.368030123057918,8.537236660806766,0.03749655532855038,-0.5044444444444445,-0.4011111111111111,0.12,0.3149620861325276,0.15337587682930856,1.8523858426877622
1592260553.4809203,4.546825288654373,8.51882279639401,-0.14023793298156118,-0.5044444444444445,-0.4011111111111111,0.12,0.2660978247740208,0.10776001662589803,1.7481400012936388
1592260553.4909203,4.6743319372062535,8.48,-0.30508872334303166,-0.5056181858873933,-0.3987636282252134,0.12051351188129011,0.2191251891704901,0.04182220178799031,1.7593870777977876
1592260553.5009203,5.16,8.48,-0.66,-0.5222222222222223,-0.3655555555555556,0.12777777777777777,0.09381144729469522,0.031634092692397225,1.7267851286918898
1592260553.5109203,5.401951268918019,8.418902393147553,-0.6565853517377087,-0.5222222222222223,-0.3655555555555556,0.12777777777777777,-0.08964768524370764,-0.011028101291398973,1.6573843069789236
1592260553.5209203,5.562157763737316,8.243105494926288,-0.4765269002488991,-0.5222222222222223,-0.3655555555555556,0.12777777777777777,-0.12423420195560107,-0.16900421134259855,1.554996510687939
1592260553.5309203,5.637284443744835,8.053479595450789,0.009561213647632912,-0.5222222222222223,-0.3655555555555556,0.12777777777777777,-0.08883091252444596,-0.09658722550325786,1.5201106862490976
1592260553.5409203,5.5585221491500185,8.001028663605906,0.20050130289117757,-0.5247844369993521,-0.3633275427058775,0.1273878755290841,-0.12048353903715601,-0.03665361977244419,1.4022558647301806
1592260553.5509202,5.72,8.21,0.21,-0.5733333333333334,-0.3211111111111111,0.12,-0.12980886311707826,-0.04908738521234052,1.3504485087306126
1592260553.5609202,5.952958682785897,8.200137724047012,0.12816526885641358,-0.5733333333333334,-0.3211111111111111,0.12,-0.1656361875445524,-0.07022363528263396,1.235118495844957
1592260553.5709202,5.986825330549757,8.084973787984225,0.07232753421479934,-0.5733333333333334,-0.3211111111111111,0.12,-0.13913570668998926,0.04917979333151651,0.9877672885621149
1592260553.5809202,6.008299752075873,7.986398016606981,0.25510074377238207,-0.5733333333333334,-0.3211111111111111,0.12,-0.16897158131158985,0.021335784687167212,1.0426364181321055
1592260553.5909202,6.000046830112943,7.920374640903546,0.2798595096611704,-0.5733333333333334,-0.3211111111111111,0.12,-0.23198937057052144,-0.007472347545487212,0.994022694989501
1592260553.6009202,6.2,7.92,0.22,-0.5733333333333334,-0.2677777777777778,0.1111111111111111,-0.05235987755982988,0.1461713248545251,0.868301302867179
1592260553.6109202,6.316651298803942,8.087767532535961,0.2222324674640392,-0.5733333333333334,-0.2677777777777778,0.1111111111111111,-0.22361025216914018,0.1405490833387228,0.6962449181689103
1592260553.6209202,6.255505314189819,8.060418142830505,0.2629964572067872,-0.5733333333333334,-0.2677777777777778,0.1111111111111111,-0.2120202413540529,0.2397509985753522,0.5724505226488789
1592260553.6309202,6.1247162545601945,8.036054095883848,0.34795942808711355,-0.5733333333333334,-0.2677777777777778,0.1111111111111111,-0.24502862323997548,0.1254824208966602,0.5718769313490988
1592260553.6409202,6.209724361572761,8.12879021262483,0.27840734053137783,-0.5733333333333334,-0.2677777777777778,0.1111111111111111,-0.2930793433653428,0.18870705264056453,0.6806232979486142
1592260553.6509202,6.4634154664407415,8.086483808716935,0.2737625906052904,-0.6055555555555555,-0.23444444444444446,0.1111111111111111,-0.15879101915494684,0.12297684606355926,0.2774167103505673
1592260553.6609201,6.401671068892821,7.85916446555359,0.30916446555359,-0.6055555555555555,-0.23444444444444446,0.1111111111111111,-0.08609889539922047,-0.016362461737446838,0.27931212923541415
1592260553.6709201,6.412610454103312,7.839443505861874,0.3253355859315005,-0.6055555555555555,-0.23444444444444446,0.1111111111111111,-0.14220165688175104,-0.0015076618356144374,0.13695279114601872
1592260553.6809201,6.361224048096192,7.765433066132265,0.5722691382765531,-0.6055555555555555,-0.23444444444444446,0.1111111111111111,-0.13051239432094766,0.147158297179153,0.024444140634557257
1592260553.69092,6.428467334669339,7.857892585170341,0.7655935871743487,-0.6055555555555555,-0.23444444444444446,0.1111111111111111,-0.20661410549029946,0.28377462204943515,-0.07091222034872692
1592260553.70092,6.010734649910233,7.705367324955117,0.8553673249551167,-0.6055555555555555,-0.2222222222222222,0.06666666666666667,-0.19962203319685143,0.26883496564174136,0.08160299451482265
1592260553.71092,5.975545952039834,7.683109190407967,0.8113448575521995,-0.6055555555555555,-0.2222222222222222,0.06666666666666667,-0.19894371307572087,0.33711316119386786,0.03921000816824062
1592260553.72092,6.080039701521094,7.692842963742467,0.698548741987946,-0.6055555555555555,-0.2222222222222222,0.06666666666666667,-0.18417260611201697,0.13790444399395876,0.12416825154644755
1592260553.73092,6.174146302186078,7.629070816055397,0.6386178992713072,-0.6055555555555555,-0.2222222222222222,0.06666666666666667,-0.10250006225478997,0.11185132650338625,0.04439214457141995
1592260553.74092,5.996843874552116,7.485540279399332,0.6977187084826281,-0.6055555555555555,-0.2222222222222222,0.06666666666666667,0.0024922797913545652,0.09343161737248369,0.13188576294320706
1592260553.75092,6.052175219602404,7.509713361072584,0.7702866389274157,-0.6444444444444445,-0.19555555555555557,0.0811111111111111,-0.037923390283018256,0.08656370129809428,0.025539712391390093
1592260553.76092,6.36427920142281,7.424708799879762,0.8427344004408707,-0.6444444444444445,-0.19555555555555557,0.0811111111111111,-0.02070100133195699,0.23754158024249872,0.20525010905343805
1592260553.77092,5.6980397206561335,7.491960279343867,0.6567443910814135,-0.6444444444444445,-0.19555555555555557,0.0811111111111111,0.037109910862085066,0.18743449653957944,0.25552616805028444
1592260553.78092,5.63873826496025,7.584105466422893,0.7964218656915714,-0.6444444444444445,-0.19555555555555557,0.0811111111111111,-0.004280321482080836,0.2015961906420819,0.23039249643183554
1592260553.79092,5.940306703095791,7.627186671870827,0.968746687483309,-0.6444444444444445,-0.19555555555555557,0.0811111111111111,0.06527124999141729,0.02771726195833657,0.19843636899806613
1592260553.80092,5.67,7.64,0.79,-0.6344444444444445,-0.2088888888888889,0.06222222222222222,0.04363323129985824,0.03599741582238304,0.222529479629277
1592260553.81092,5.981892194696876,7.6205390265156225,1.107766712311714,-0.6344444444444445,-0.2088888888888889,0.06222222222222222,0.07677096761911756,-0.029888057313169108,0.3547408048656043
1592260553.82092,6.0664482462828815,7.443145730080061,0.6442251239039268,-0.6344444444444445,-0.2088888888888889,0.06222222222222222,0.08011368179775392,-0.11018903635570795,0.31391171788536854
1592260553.83092,6.5271926609200035,7.566757028921292,0.48882864738580517,-0.6344444444444445,-0.2088888888888889,0.06222222222222222,0.03919598072318143,0.0656937745695823,0.2970892970856524
1592260553.84092,6.265323451220495,7.414703939418352,0.5901973737210988,-0.6344444444444445,-0.2088888888888889,0.06222222222222222,0.16359412367580356,0.1311179830854058,0.2639164589649532
1592260553.85092,6.5,7.57,0.68,-0.64,-0.22555555555555556,0.04,0.05017821599483697,-0.05563236990731925,0.2181661564992912
1592260553.86092,6.140470420817239,7.453395812156943,0.68,-0.64,-0.22555555555555556,0.04,0.024739128501395737,0.05884352381316632,0.2531449018027729
1592260553.87092,6.667881342872867,7.838795817281232,0.6144816730875069,-0.64,-0.22555555555555556,0.04,0.039758782865966256,-0.086075878133775,0.3175398922362118
1592260553.88092,6.27084248761695,7.700293891029169,0.6698824435883325,-0.64,-0.22555555555555556,0.04,0.04580206944959847,-0.057873874076824684,0.23796995221838768
1592260553.89092,6.228846433698452,7.53538573479381,0.7605378458634049,-0.64,-0.22555555555555556,0.04,0.060180197482847,0.07326937316689992,0.3563148736826931
1592260553.90092,6.318590091425183,7.531808440300039,0.8350267891748934,-0.6611111111111111,-0.2111111111111111,0.04777777777777778,0.07416480422711443,-0.018236528967656773,0.24818445873757175
1592260553.91092,6.499738702735936,7.569692591454043,0.7296618505994467,-0.6611111111111111,-0.2111111111111111,0.04777777777777778,0.11990084678433224,-0.05764636611994566,0.16800135373264352
1592260553.92092,6.331129608172338,7.371328950790986,0.5114618458700844,-0.6611111111111111,-0.2111111111111111,0.04777777777777778,0.06147793213623373,0.050544216561718244,0.17665660034717665
1592260553.93092,6.539238396121443,7.498913129868066,0.6076080909235415,-0.6611111111111111,-0.2111111111111111,0.04777777777777778,0.18598686515995955,-0.014465515503062602,0.18691153975149635
1592260553.9409199,6.680915196312192,7.482245271022095,0.7242831028453346,-0.6611111111111111,-0.2111111111111111,0.04777777777777778,0.14416869409273161,0.014625386108922039,0.1760024516470021
1592260553.9509199,6.56,7.19,0.87,-0.6444444444444445,-0.2,0.05444444444444444,0.16907877128695067,0.14398966328953217,0.222529479629277
1592260553.9609199,6.56,7.356123013916802,0.7650802017367563,-0.6444444444444445,-0.2,0.05444444444444444,0.08038021841683074,0.15352714209277088,0.23397445419316346
1592260553.9709198,6.252849298049448,7.523976891539322,0.7308030811280904,-0.6444444444444445,-0.2,0.05444444444444444,0.13150030812020683,0.13395738107993066,0.1853620329362759
1592260553.9809198,6.372209910680539,7.54,0.7072734687381885,-0.6444444444444445,-0.2,0.05444444444444444,0.13380276765426893,0.02931021017714706,0.2616710330660442
1592260553.9909198,6.20533569396646,7.54,0.6488674928882612,-0.6444444444444445,-0.2,0.05444444444444444,0.21935758788071846,0.07299777795235533,0.32902270005282364
1592260554.0009198,6.42,7.6,0.22,-0.6588888888888889,-0.19333333333333333,0.03333333333333333,0.030543261909900768,0.10144726277217041,0.27598018797160334
1592260554.0109198,6.204546416076805,7.355166381905459,-0.05421365226588562,-0.6588888888888889,-0.19333333333333333,0.03333333333333333,0.004904345377980162,-0.09725434035021431,0.21508776120829187
1592260554.0209198,6.783037093544388,7.533925812911224,0.03520644607609421,-0.6588888888888889,-0.19333333333333333,0.03333333333333333,-0.20047851271082834,-0.058419360902915586,0.44285821049525953
1592260554.0309198,6.917808672491374,7.2651130975201275,0.26379123872555943,-0.6588888888888889,-0.19333333333333333,0.03333333333333333,-0.14316729763050692,0.205355965758546,0.3403249411725903
1592260554.0409198,6.816249722552916,7.502083980709861,-0.02395911943340262,-0.6588888888888889,-0.19333333333333333,0.03333333333333333,-0.2567205171821647,0.016100599839116353,0.1879974515301225
1592260554.0509198,6.95,7.15,0.28,-0.6788888888888889,-0.2,0.056666666666666664,-0.19525871006686563,-0.15271630954950383,0.26070855701665296
1592260554.0609198,7.0130264426941,7.4381208808873165,0.13593955955634143,-0.6788888888888889,-0.2,0.056666666666666664,-0.24731317780264583,-0.018160421251355058,0.15561746177649294
1592260554.0709198,6.830026168876483,7.329941120027914,0.14992476448011166,-0.6788888888888889,-0.2,0.056666666666666664,-0.26623371864646234,0.0032753469290904575,0.05565092468772633
1592260554.0809197,6.903199581297977,7.165300942079554,-0.060448796231681784,-0.6788888888888889,-0.2,0.056666666666666664,-0.46478549783652523,0.011257328002057808,0.10753380166201411
1592260554.0909197,6.869029722162395,7.018895110919664,0.18220977816067196,-0.6788888888888889,-0.2,0.056666666666666664,-0.27944415718485505,0.09244409102630637,0.1275507282762502
1592260554.1009197,6.86,7.08,0.44,-0.6644444444444444,-0.17333333333333334,0.006666666666666667,-0.2923426497090502,-0.11453723216212788,-0.001090830782496456
1592260554.1109197,6.916714981632327,7.136714981632327,0.4805107011659479,-0.6644444444444444,-0.17333333333333334,0.006666666666666667,-0.34360342073775424,-0.27892522201279946,-0.10626379203104441
1592260554.1209197,6.7338346915631515,7.100958672890788,0.6763570430150065,-0.6644444444444444,-0.17333333333333334,0.006666666666666667,-0.3556108350938446,-0.02427483275233633,0.017818600146499747
1592260554.1309197,6.788655155238254,7.041344844761746,0.6702241407936245,-0.6644444444444444,-0.17333333333333334,0.006666666666666667,-0.3385487420575793,0.017712824399624086,-0.04325706401856236
1592260554.1409197,6.718244331220101,7.119728520866555,1.0208054918128429,-0.6644444444444444,-0.17333333333333334,0.006666666666666667,-0.26510246973841584,-0.044074510556547805,0.016155165280549874
1592260554.1509197,6.83,7.17,1.33,-0.6711111111111111,-0.1811111111111111,0.006666666666666667,-0.296705972839036,-0.33706671179140485,-0.038179077387375956
1592260554.1609197,6.651567457201194,7.040230877964504,1.2651154389822523,-0.6711111111111111,-0.1811111111111111,0.006666666666666667,-0.16311235350770784,-0.19993418863673026,0.02906009525620644
1592260554.1709197,6.689227589149975,7.089227589149974,1.3292275891499747,-0.6711111111111111,-0.1811111111111111,0.006666666666666667,-0.12334813537529371,-0.1085715140203592,-0.1508099959834853
1592260554.1809196,6.8283884588318084,7.069241731175229,1.281564039408867,-0.6711111111111111,-0.1811111111111111,0.006666666666666667,-0.06212573013352748,-0.006850125607042318,-0.010060630209502402
1592260554.1909196,6.57153439277272,7.091069815339247,1.1823254616518828,-0.6711111111111111,-0.1811111111111111,0.006666666666666667,-0.056936327175931764,-0.03638312676539231,0.11699804142707201
1592260554.2009196,6.664690795098318,6.878371045882018,1.2431108577942434,-0.6844498907571008,-0.17598081124726891,0.006666666666666667,-0.09147348201997327,-0.0356527269732431,0.2954288086364688
1592260554.2109196,6.446391559095487,6.779135539686899,1.187105419756477,-0.6855555555555556,-0.17555555555555555,0.006666666666666667,0.008119464061163761,-0.03969638375868969,-0.030411189795110705
1592260554.2209196,6.9172489142857145,6.915745371428572,1.0599744,-0.6855555555555556,-0.17555555555555555,0.006666666666666667,0.11034909022249222,-0.01791600423792202,0.017315810441436208
1592260554.2309196,6.726605882212171,6.974174264723479,0.894759374925216,-0.6855555555555556,-0.17555555555555555,0.006666666666666667,0.06300432060509084,-0.044003472116096475,0.15372065596168388
1592260554.2409196,6.869602538115801,6.940499471225874,1.0833028553802766,-0.6855555555555556,-0.17555555555555555,0.006666666666666667,0.10406594881387338,0.02157757883485223,0.18487413945024167
1592260554.2509196,7.0,7.13,1.07,-0.6855555555555556,-0.18222222222222223,0.0,0.039269908169872414,0.044724062082354694,0.27379852640661045
1592260554.2609196,6.984324409448819,7.004595275590551,0.8035149606299212,-0.6855555555555556,-0.18222222222222223,0.0,0.11707225418689957,0.11055681640445458,0.17547688034113657
1592260554.2709196,6.98,6.869027700831025,0.5831312012087635,-0.6855555555555556,-0.18222222222222223,0.0,0.10348978915929011,0.08566186178133406,0.15436082417113398
1592260554.2809196,7.242245357480086,7.169074885601531,0.5980977168728664,-0.6855555555555556,-0.18222222222222223,0.0,-0.04063289863117249,0.036859188779138234,0.21619768008008217
1592260554.2909195,6.999629225736096,7.095823336968375,0.6276990185387132,-0.6855555555555556,-0.18222222222222223,0.0,0.023546242648565814,0.11177030479016847,-0.006868546279317933
1592260554.3009195,6.891978629674759,7.066353922579436,0.7427078451588714,-0.6968865144083065,-0.16986117620103935,0.006180523010591433,0.042451710958445826,-0.032780645920901796,-0.053280984928797015
1592260554.3109195,6.926138454739042,7.115742295793322,0.6454461810438346,-0.6977777777777778,-0.1688888888888889,0.006666666666666667,0.033567381962625084,-0.0996973053016606,0.030164808625041714
1592260554.3209195,6.802442685059257,6.986259471536818,0.5171755391490188,-0.6977777777777778,-0.1688888888888889,0.006666666666666667,0.009359484945911888,-0.14242420349258056,-0.012482139064680653
1592260554.3309195,6.946998064485673,6.893682434027286,0.6930887976207336,-0.6977777777777778,-0.1688888888888889,0.006666666666666667,-0.037762117709999106,0.01443191834791746,0.012246574849253754
1592260554.3409195,6.712593152163249,6.873395075051506,0.5550621014421662,-0.6977777777777778,-0.1688888888888889,0.006666666666666667,-0.08834374494926248,0.00013477801309487447,0.06181366586186475
1592260554.3509195,6.950757860790111,7.15142972319269,0.46,-0.7023763026665473,-0.17440711875541223,-0.009888022932903341,-0.08560720373679523,0.1650508177928627,0.13147281246441767
1592260554.3609195,7.219466173856087,7.063594320202115,0.6236298774211659,-0.7033333333333334,-0.17555555555555555,-0.013333333333333334,-0.09951016287601454,-0.02320633529167937,-0.03950280824828181
1592260554.3709195,7.057067361550826,7.1101573230724275,0.3255223807900249,-0.7033333333333334,-0.17555555555555555,-0.013333333333333334,-0.04705401202657646,-0.21592509457314535,-0.11081371149100047
1592260554.3809195,7.144238107715395,6.953036611800576,0.490901121936114,-0.7033333333333334,-0.17555555555555555,-0.013333333333333334,-0.1360857457655646,-0.13331669179283684,-0.009358756987343356
1592260554.3909194,7.16,6.7856397751532604,0.577744089938696,-0.7033333333333334,-0.17555555555555555,-0.013333333333333334,-0.1415701883504678,-0.02914118638448153,0.021201411615575642
1592260554.4009194,6.89220446752555,6.748468657412031,0.6646403009421087,-0.7033333333333334,-0.1940242129675866,-0.02872388117669252,-0.10932354835323396,-0.13657641520331237,0.15519901266670874
1592260554.4109194,6.889647745651059,6.730352254348941,0.7551402311545896,-0.7033333333333334,-0.19555555555555557,-0.03,-0.06975198269573665,-0.0004696626559484163,0.1386586156398688
1592260554.4209194,6.822995334690827,6.702887852153517,0.7315514086140681,-0.7033333333333334,-0.19555555555555557,-0.03,-0.04831157023227956,-0.07934925849757378,0.05808878463380804
1592260554.4309194,6.925630858849157,6.780052133049416,0.6844212742002594,-0.7033333333333334,-0.19555555555555557,-0.03,-0.0382939621037546,-0.21544987918696712,0.07989453755605176
1592260554.4409194,6.995750981422522,6.734249018577478,0.689291830237087,-0.7033333333333334,-0.19555555555555557,-0.03,-0.007694384704676711,-0.1555898095737488,0.042437131014009366
1592260554.4509194,7.089769072663523,6.811403095151735,0.6479041228388345,-0.7140832762396055,-0.2021709050363385,-0.03413459342548933,0.0066961262832680515,-0.06116209461394619,-0.013572409119418483
1592260554.4609194,7.077378721679204,6.897702130534661,0.5244340345029503,-0.7177777777777777,-0.20444444444444446,-0.035555555555555556,-0.04112664455290735,-0.22232060968394157,0.09138934699117043
1592260554.4709194,6.904400795865382,6.744400795865382,0.5652723655157353,-0.7177777777777777,-0.20444444444444446,-0.035555555555555556,0.0489163217287971,-0.14132075003514571,0.07809181687781448
1592260554.4809194,7.044825128616605,6.944771322037099,0.59,-0.7177777777777777,-0.20444444444444446,-0.035555555555555556,0.03712933231613793,-0.036597123046365615,-0.04408326914711371
1592260554.4909194,7.049736016777943,6.963709618455737,0.5779472033555885,-0.7177777777777777,-0.20444444444444446,-0.035555555555555556,-0.028144118410668387,-0.07158222043600197,0.09720405632908406
1592260554.5009193,7.103381578947368,6.934366396761134,0.6130991902834008,-0.7177777777777777,-0.18528924876293298,-0.029968623481781375,-0.006236946447694826,0.029915261354147724,0.16208751756131903
1592260554.5109193,7.046085497961561,6.681735119394292,0.7395669190448457,-0.7177777777777777,-0.17777777777777778,-0.027777777777777776,0.0494199075370689,-0.016743445665022533,0.20668972723056445
1592260554.5209193,6.967995535002392,6.595141581429255,0.7402831628585097,-0.7177777777777777,-0.17777777777777778,-0.027777777777777776,0.02000561339996268,-0.07227769668787057,0.3195280602779569
1592260554.5309193,7.149982294700059,6.911400116482237,0.751426674432149,-0.7177777777777777,-0.17777777777777778,-0.027777777777777776,0.06108169544825409,-0.072463158272387,0.1388660749406775
1592260554.5409193,7.100899922880703,6.905031737557097,0.6837135907931423,-0.7177777777777777,-0.17777777777777778,-0.027777777777777776,0.0048085337714745685,0.010652505838655707,0.1661117788578433
1592260554.5509193,7.037661070407728,6.727016788776818,0.6092541971942044,-0.7116308732427272,-0.18622977151347228,-0.04852358058357335,0.04335977994557077,0.13367681997983452,0.22808713649211082
1592260554.5609193,7.220136120679415,6.829202280555886,0.5458657797838223,-0.7088888888888889,-0.19,-0.057777777777777775,0.08002326328058797,0.03624258389538931,0.06765809581452706
1592260554.5709193,7.2485227574016795,6.77693194874061,0.5085227574016792,-0.7088888888888889,-0.19,-0.057777777777777775,0.10040598453251118,-0.1564968118668001,0.1611328667938414
1592260554.5809193,7.205176005747127,6.816612787356322,0.5,-0.7088888888888889,-0.19,-0.057777777777777775,0.14175197126408776,-0.12167896085198525,0.03592571250586121
1592260554.5909193,7.212741258741259,6.787461538461538,0.4772587412587413,-0.7088888888888889,-0.19,-0.057777777777777775,0.10575490013493788,-0.06598687133501638,-0.006572446169223409
1592260554.6009192,7.2630779547359605,6.792924727577536,0.5592338642078793,-0.7221200707832728,-0.1767688181056161,-0.04748685852659029,0.048868633865815414,0.035295407237664306,-0.031232944929700787
1592260554.6109192,7.333792496079141,6.704730365544698,0.5562075039208589,-0.7288888888888889,-0.17,-0.042222222222222223,0.11555197193745347,0.07678272206519589,-0.03937221385817169
1592260554.6209192,7.257468148311145,6.627292991528221,0.4545859830564418,-0.7288888888888889,-0.17,-0.042222222222222223,0.03682248186896134,0.005388144788225149,-0.02605140101249788
1592260554.6309192,7.151549596582819,6.493634314190793,0.5637458471760797,-0.7288888888888889,-0.17,-0.042222222222222223,0.0016101014397550918,-0.22451052566118146,0.13165491430962062
1592260554.6409192,7.103359665427509,6.567575898389095,0.5301579925650558,-0.7288888888888889,-0.17,-0.042222222222222223,-0.010158108216184469,-0.24784989917273603,0.12000135494328537
1592260554.6509192,7.013881367457962,6.623157764589515,0.5846714268051434,-0.7054677711836466,-0.17845762583800417,-0.03376459638421805,0.049719117579453936,-0.12747631543216476,-0.03469153438673493
1592260554.6609192,7.328284326379274,6.877931382441978,0.47242156149531833,-0.6888888888888889,-0.18444444444444444,-0.027777777777777776,0.06675670385045168,-0.017534567899156833,0.03731497291470447
1592260554.6709192,7.336898595049221,6.846898595049221,0.35002676096721785,-0.6888888888888889,-0.18444444444444444,-0.027777777777777776,0.13369667452012474,-0.19352597494260954,0.05714908654917708
1592260554.6809192,7.343288581989937,6.745647910463087,0.3184718656946298,-0.6888888888888889,-0.18444444444444444,-0.027777777777777776,0.046464222236842906,-0.033215455707355235,0.13479502609445776
1592260554.6909192,7.151431480594154,6.616449448969814,0.17409439386679443,-0.6888888888888889,-0.18444444444444444,-0.027777777777777776,0.1108673732107128,0.11740059763132348,0.12668860098779783
1592260554.7009192,7.076311043599108,6.48842474386736,0.41418732426230565,-0.6946194729036266,-0.17380193127421725,-0.03842029094800498,0.17573904044780844,0.20403862691642233,0.10994334010038398
1592260554.7109191,7.060665289865762,6.521135123174509,0.5181995869597286,-0.6966666666666667,-0.17,-0.042222222222222223,0.12667290564478406,0.07882559823526239,0.09308347584462677
1592260554.7209191,7.126206094210253,6.846101883709993,0.17186415505334285,-0.6966666666666667,-0.17,-0.042222222222222223,0.03939789494947174,0.046565964649942865,0.07238594736259231
1592260554.7309191,7.033920626018214,6.867245680100419,0.17496274336992232,-0.6966666666666667,-0.17,-0.042222222222222223,0.021091201380662186,0.04977492644746903,0.015041566839110981
1592260554.740919,7.035379086482727,6.865481103640158,0.1817783445397635,-0.6966666666666667,-0.17,-0.042222222222222223,0.021174206610387967,0.008255967825882636,-0.019119762268579782
1592260554.750919,7.034912215418964,6.8217908731098404,0.0925438922905179,-0.7050739149555157,-0.183757315381753,-0.06056530939789287,0.06655982935692831,0.06534301852330221,-0.09206518075702465
1592260554.760919,6.975358937297818,6.786861449514763,0.2282971987060362,-0.7088888888888889,-0.19,-0.06888888888888889,0.04403385577885893,0.041617270301798334,-0.12961583359393156
1592260554.770919,7.0388253641001235,6.87,0.28857796103930433,-0.7088888888888889,-0.19,-0.06888888888888889,-0.034829024846274786,-0.07752654575086018,-0.1963259556306355
1592260554.780919,7.0112705909998825,6.772541181999765,0.26745881800023497,-0.7088888888888889,-0.19,-0.06888888888888889,-0.08284602817885056,-0.03083843090203909,-0.14260784176463415
1592260554.790919,6.98496469065087,6.635529640236965,0.339929381301738,-0.7088888888888889,-0.19,-0.06888888888888889,-0.07881713531932727,-0.06333984751925598,-0.01581856560912688
1592260554.800919,6.973157277400214,6.604913926932762,0.3668427225997861,-0.7126317161332858,-0.183138150051939,-0.053917579911301236,-0.04539409492750422,-0.011478052125754437,0.08912377633587795
1592260554.810919,7.016376034875814,6.627269927608687,0.345446946366436,-0.7155555555555555,-0.17777777777777778,-0.042222222222222223,-0.03430809619157693,0.06752920086430016,0.12782941731326886
1592260554.820919,7.297908819327185,6.715125860501364,0.12301883361475517,-0.7155555555555555,-0.17777777777777778,-0.042222222222222223,0.002991191472626595,0.005707996285507433,0.11044656713810858
1592260554.830919,7.302266132473567,6.853645156701911,0.13502418093025462,-0.7155555555555555,-0.17777777777777778,-0.042222222222222223,-0.044632569044839344,-0.10004939500990578,0.013181462427472819
1592260554.840919,7.171140656960654,6.840285164240163,0.18495247262663939,-0.7155555555555555,-0.17777777777777778,-0.042222222222222223,-0.10050264610250045,-0.0799925073637697,0.02916210292491578
1592260554.850919,7.028751543942993,6.735630403800474,0.14219097387173396,-0.7055215624175244,-0.1842703615729744,-0.05638785959356031,-0.044969796978820156,-0.007974931707435132,0.0008905946711631404
1592260554.860919,7.054610453648915,6.676372921949845,0.2975605804451958,-0.6966666666666667,-0.19,-0.06888888888888889,-0.0002591068891644177,-0.12191109764400357,0.0057355446088405496
1592260554.870919,7.085983199349652,6.632134405202781,0.3980336013006955,-0.6966666666666667,-0.19,-0.06888888888888889,-0.06576888859676808,-0.09947635787267833,0.012072445273722181
1592260554.880919,7.102468062043513,6.699744496348104,0.4897444963481044,-0.6966666666666667,-0.19,-0.06888888888888889,-0.029888881681538637,-0.061327876499966245,0.08226936698216877
1592260554.890919,6.990766852930686,6.651606229936987,0.5554196885031507,-0.6966666666666667,-0.19,-0.06888888888888889,0.06429909893729287,-0.008420316179332414,0.01997973753937289
1592260554.900919,7.09228528092018,6.7146887442330785,0.4291095241104721,-0.7125321788957004,-0.18669468495228464,-0.07814377102249187,0.10347677471086175,-0.11516389283411756,-0.012549276359108727
1592260554.910919,7.187343918384942,6.805781306128314,0.3589582584955816,-0.7233333333333334,-0.18444444444444444,-0.08444444444444445,0.10618836805511435,-0.17677442219099643,0.10039593042450246
1592260554.920919,7.076279577536305,6.744232253478216,0.3201376053620392,-0.7233333333333334,-0.18444444444444444,-0.08444444444444445,0.05229745416733099,-0.026012442472091786,0.1578222882665574
1592260554.930919,7.050229931519878,6.647049885866464,0.3018900989157314,-0.7233333333333334,-0.18444444444444444,-0.08444444444444445,0.07507219559258071,-0.13450504318618756,-0.07885737010781846
1592260554.940919,7.072660220460259,6.593427190098627,0.33762134983562175,-0.7233333333333334,-0.18444444444444444,-0.08444444444444445,0.10914978114916704,-0.14415378364319342,-0.022619328721589477
1592260554.950919,7.064200500288628,6.571390225129883,0.41724937463921496,-0.7118934000384838,-0.17824781390973424,-0.07538783058602186,0.08386509395812419,0.02172678005729712,0.0936142497730182
1592260554.960919,6.917614490161002,6.536192754919499,0.5384096601073346,-0.6966666666666667,-0.17,-0.06333333333333334,0.10232783055499961,-0.0016952759253913985,0.05230992180306439
1592260554.970919,7.168411617155223,6.665567086366319,0.3413963210702341,-0.6966666666666667,-0.17,-0.06333333333333334,0.15316362420861576,-0.007693007372721147,-0.027323991288569008
1592260554.980919,7.238199853569826,6.711182305566708,0.14257055808790534,-0.6966666666666667,-0.17,-0.06333333333333334,0.18471484550609402,0.0007596733020824586,-0.04951340202392648
1592260554.9909189,7.114457010069714,6.685842757552285,0.19183539891556933,-0.6966666666666667,-0.17,-0.06333333333333334,0.11477816972806812,-0.10023395644984215,0.019246868431643707
1592260555.0009189,7.0877288284930025,6.737004981531058,0.3467636992104104,-0.7046967968341108,-0.17330652418659467,-0.06049916974482362,0.09303187054278672,-0.06567042329189168,0.07699611463934658
1592260555.0109189,7.005598229069181,6.763119645813836,0.36632495860629183,-0.7155555555555555,-0.17777777777777778,-0.056666666666666664,0.14439989293518488,0.06825765056677333,0.1137183826923646
1592260555.0209188,7.06356276371308,6.6461181434599155,0.12938554852320674,-0.7155555555555555,-0.17777777777777778,-0.056666666666666664,0.15324964295423707,0.08384409608617208,0.0062153190629268005
1592260555.0309188,7.020035615917941,6.555060547060499,0.32501780795897045,-0.7155555555555555,-0.17777777777777778,-0.056666666666666664,0.20510027469190856,-0.16203304978130606,-0.00983146338073736
1592260555.0409188,7.111337842916197,6.689605411499436,0.30866215708380307,-0.7155555555555555,-0.17777777777777778,-0.056666666666666664,0.11849472196829879,-0.10972503278004374,0.012032753084787101
1592260555.0509188,7.194628750918934,6.718952081801778,0.2541047918198222,-0.7155555555555555,-0.17777777777777778,-0.056666666666666664,0.011222514913954727,-0.010131684131458277,0.02881424809793335
1592260555.0609188,7.28694701567736,6.6884735078386806,0.28277880627094415,-0.7155555555555555,-0.17777777777777778,-0.056666666666666664,0.13173428566058817,-0.02938857587244975,-0.06517865383537064
1592260555.0709188,7.33,6.663129846888049,0.24792205209783258,-0.7155555555555555,-0.17777777777777778,-0.056666666666666664,0.19811755868752645,0.11541419156829871,-0.08372196750789412
1592260555.0809188,7.315651434643995,6.725222812610697,0.13782288345731492,-0.7155555555555555,-0.17777777777777778,-0.056666666666666664,0.15802401469593363,0.19853120241435498,-0.04823218624393061
1592260555.0909188,7.228906088340628,6.749157779546359,0.12529526462395543,-0.7155555555555555,-0.17777777777777778,-0.056666666666666664,0.09178607447750885,0.16794147276260535,-0.09089800018466782
1592260555.1009188,7.1054138476130255,6.620939614290231,0.2027069238065128,-0.7058314539642393,-0.18223465767379773,-0.06679593915762111,0.15885869043307366,0.10596674403630559,-0.18439185588086915
1592260555.1109188,7.085450168392167,6.716302357490333,0.26630235749033304,-0.6888888888888889,-0.19,-0.08444444444444445,0.19805064907050804,0.15870195943337037,-0.15905436703305426
1592260555.1209188,6.993704986976988,6.666711749384692,0.30734234987693854,-0.6888888888888889,-0.19,-0.08444444444444445,0.15250994602098406,0.16786511810374874,-0.08210101431334069
1592260555.1309187,6.987848522284519,6.6704646963793595,0.26172978238145017,-0.6888888888888889,-0.19,-0.08444444444444445,0.18778434749671136,0.2248866661607683,-0.04596696439938715
1592260555.1409187,7.04,6.74,0.24,-0.6888888888888889,-0.19,-0.08444444444444445,0.23234695667174513,0.3021601267515183,-0.06872233929727672
1592260555.1509187,7.043090798479088,6.736542357414449,0.22436562737642587,-0.6950704858470638,-0.19652501901140684,-0.08444444444444445,0.14162825935651543,0.12377679286273313,-0.10541506642147613
1592260555.1609187,6.968670520231214,6.893853564547205,0.1135549132947977,-0.7088888888888889,-0.2111111111111111,-0.08444444444444445,0.22517143395220196,0.19309806643602484,-0.028887048698711542
1592260555.1709187,7.052774278529518,6.93024236618369,-0.0037372769728176436,-0.7088888888888889,-0.2111111111111111,-0.08444444444444445,0.20122487912738163,0.02203922298073148,-0.08077505936647647
1592260555.1809187,7.172939808773637,6.936322332676932,-0.058478967472537904,-0.7088888888888889,-0.2111111111111111,-0.08444444444444445,0.15182853597641846,0.01071640504548673,-0.2038095511237364
1592260555.1909187,7.043598436471999,6.870378110607996,0.08,-0.7088888888888889,-0.2111111111111111,-0.08444444444444445,0.13304010999552862,0.08599359449634364,-0.1950282926973519
1592260555.2009187,6.993137327749257,6.91510841664415,0.13985544447446638,-0.7052310561710048,-0.20678821789906632,-0.08943239815064997,0.11575527986883266,0.088643264354036,-0.11453041631185895
1592260555.2109187,6.850141166073629,6.879011837484592,0.176482243773111,-0.6966666666666667,-0.19666666666666666,-0.10111111111111111,0.13097544498021693,0.15088384879664757,-0.18817725246420408
1592260555.2209187,6.848986056887897,6.972465142219743,0.09695817066369214,-0.6966666666666667,-0.19666666666666666,-0.10111111111111111,0.1833397563434721,0.1335307071745241,-0.09297017523332538
1592260555.2309186,6.884596892964036,7.040994821606727,0.039811392465200254,-0.6966666666666667,-0.19666666666666666,-0.10111111111111111,0.1341703724280044,-0.03388312467960712,-0.04208210506341463
1592260555.2409186,6.8490780379921805,6.944647130840014,-0.04271869199478693,-0.6966666666666667,-0.19666666666666666,-0.10111111111111111,0.05412081903391563,0.05983873075477175,-0.026753550085508726
1592260555.2509186,6.740233181803316,6.686724008241488,0.0554969421460575,-0.6966666666666667,-0.19666666666666666,-0.09530878329027265,0.09975680861942178,0.11766502719942311,0.06206226744187239
1592260555.2609186,6.701899641577061,6.701347670250896,0.1077921146953405,-0.6966666666666667,-0.19666666666666666,-0.08,0.08271546965768825,0.06963566571588307,0.1271259667624221
1592260555.2709186,6.759037448541455,6.7426601301403215,0.022509627727856196,-0.6966666666666667,-0.19666666666666666,-0.08,0.11580293097520336,0.23145581296379225,0.061047581098094494
1592260555.2809186,6.936513270956654,6.930160397173955,-0.048737827000190956,-0.6966666666666667,-0.19666666666666666,-0.08,0.17912141313290905,0.15304874528157647,-0.0813269858452986
1592260555.2909186,6.898156764417312,6.95452196664123,0.10090439332824594,-0.6966666666666667,-0.19666666666666666,-0.08,0.13855241945415347,0.05961235038926675,-0.04930348220328705
1592260555.3009186,6.978993936597904,7.0668048507216765,0.06118302247413168,-0.6966666666666667,-0.2027350849828277,-0.08,0.07347941977226571,0.04394977568365392,0.021074321586179307
1592260555.3109186,6.94437717300084,7.0877508692003355,-0.014377173000839228,-0.6966666666666667,-0.2111111111111111,-0.08,0.0787851584507583,0.08825162364569966,0.011183859972035658
1592260555.3209186,6.940432656723113,7.025336548166424,0.03067309633284737,-0.6966666666666667,-0.2111111111111111,-0.08,0.104874455647589,0.037305850036067636,-0.09262622545783357
1592260555.3309186,6.998567833173538,6.91480824544583,0.020153403643336523,-0.6966666666666667,-0.2111111111111111,-0.08,0.14701664027154596,0.12052987265096476,-0.10660007860295873
1592260555.3409185,6.919945915667072,6.8115093392053465,0.15072762743620946,-0.6966666666666667,-0.2111111111111111,-0.08,0.14292833093463989,0.06849869907542633,-0.09124204996915103
1592260555.3509185,6.994373694862981,6.875626305137019,0.18288752529957913,-0.6927600903824118,-0.20937485498477562,-0.08,0.11575772766962954,0.13693982723551967,0.07630492214845924
1592260555.3609185,6.858469082955053,6.983713338194134,-0.06537455605992898,-0.6766666666666666,-0.20222222222222222,-0.08,0.1948962885499772,0.09191757294157668,-0.05241316578654497
1592260555.3709185,6.72931829700963,6.979682209832742,-0.131409528636594,-0.6766666666666666,-0.20222222222222222,-0.08,0.1403554220413903,0.20378687267203938,-0.02737028782944098
1592260555.3809185,6.780727402814215,6.983151681373718,-0.1500608156451228,-0.6766666666666666,-0.20222222222222222,-0.08,0.0774820252685236,0.1859039190598542,0.0611989108691787
1592260555.3909185,6.8134399685596385,7.061928866181962,-0.21015995283945765,-0.6766666666666666,-0.20222222222222222,-0.08,0.06948349868195837,0.0949371743733973,0.047894737840792026
1592260555.4009185,6.689230265670177,6.953075664175441,0.03808057389122251,-0.6820515338315786,-0.20042726650058493,-0.0895730971820656,0.06930938013898354,0.08454063529960061,0.028445565335039464
1592260555.4109185,6.741971011879269,6.9585555530509655,0.2295072470301828,-0.6966666666666667,-0.19555555555555557,-0.11555555555555555,0.09078821112109324,0.09188009921990391,0.024927854965125548
1592260555.4209185,6.950262028127313,7.084868985936343,0.12403108808290156,-0.6966666666666667,-0.19555555555555557,-0.11555555555555555,0.1461198111580608,-0.01531151773559829,-0.011302492568128708
1592260555.4309185,7.070081967213114,7.073688524590164,-0.06368852459016394,-0.6966666666666667,-0.19555555555555557,-0.11555555555555555,0.05640131619662003,0.069446579406967,0.009307826594908288
1592260555.4409184,7.012460603976849,7.082460603976849,-0.14465245544667926,-0.6966666666666667,-0.19555555555555557,-0.11555555555555555,-0.006066796884188642,0.19295421986812075,0.14761801487974419
1592260555.4509184,6.822475726465982,6.877491908821995,-0.12125943970767357,-0.6956954933008526,-0.19638798986911046,-0.1145843821897415,0.033002044223535545,0.2796742455127459,0.12123842944349857
1592260555.4609184,6.98,6.93,-0.06,-0.6888888888888889,-0.20222222222222222,-0.10777777777777778,0.004363323129985824,0.19853120241435498,-0.007635815477475192
1592260555.4709184,6.877676690581591,7.186628758968096,0.017562967485880016,-0.6888888888888889,-0.20222222222222222,-0.10777777777777778,0.08644147082565469,0.017445910415731625,-0.0038638377480245158
1592260555.4809184,6.684752724423657,7.025466891426672,-0.1709337828533441,-0.6888888888888889,-0.20222222222222222,-0.10777777777777778,0.1302883531597464,-0.040594449557588556,-0.09066787908204445
1592260555.4909184,6.7163799561395,6.869004405457333,0.17886894249616705,-0.6888888888888889,-0.20222222222222222,-0.10777777777777778,0.1401084040823097,0.08451704062259453,-0.19724126701662031
1592260555.5009184,6.90824206294191,7.067102453902676,-0.059310966310827676,-0.6888888888888889,-0.2015096199762774,-0.1086091470647134,0.15255827292567065,0.2711475943691253,-0.21326611377314844
1592260555.5109184,6.7685700647324545,7.074411120942579,-0.03402808177711546,-0.6888888888888889,-0.19555555555555557,-0.11555555555555555,0.13036037452164084,0.09155737017153862,-0.012678082090349534
1592260555.5209184,6.7,6.903396682943997,-0.11330165852800142,-0.6888888888888889,-0.19555555555555557,-0.11555555555555555,0.055966611093368604,0.051679733937449776,-0.005508573080462174
1592260555.5309184,6.708427510727545,7.015618340485029,-0.017862446362277615,-0.6888888888888889,-0.19555555555555557,-0.11555555555555555,0.044849101867581315,0.1783967991936019,-0.0927938785188531
1592260555.5409184,6.75556578795902,7.060214113042478,0.07373086220789686,-0.6888888888888889,-0.19555555555555557,-0.11555555555555555,0.13884240363656658,0.25434364039374746,-0.0483467705058637
1592260555.5509183,6.84,7.148520728643216,0.017298994974874374,-0.6870882188721384,-0.19600572305974318,-0.11503036013400335,0.11947920265129602,0.10274502250963793,0.06129345277477259
1592260555.5609183,6.774694605640481,6.890323345451261,0.0006227561135321857,-0.6622222222222223,-0.20222222222222222,-0.10777777777777778,0.06408337123114896,0.16477554766944685,0.043088468628725084
1592260555.5709183,6.727175982482425,6.744524605278322,0.0310950789443356,-0.6622222222222223,-0.20222222222222222,-0.10777777777777778,0.09101986586980143,0.2628115208670161,0.01997757828853375
1592260555.5809183,6.896419987650217,6.869012017289697,0.007283997530043224,-0.6622222222222223,-0.20222222222222222,-0.10777777777777778,0.05227873753202437,0.13111565279861262,0.005992600380524989
1592260555.5909183,6.866693915521951,6.946775662087803,-0.002231305173983611,-0.6622222222222223,-0.20222222222222222,-0.10777777777777778,0.11956701097010186,0.08800425561402085,0.050817920171706554
1592260555.6009183,6.879132040341349,7.025788052754073,-0.01501598138091544,-0.6640799931040428,-0.20277955348676838,-0.10842799758641497,0.17673201974667524,0.20253672627759176,0.07871871597311934
1592260555.6109183,6.745588221633923,6.904588268078585,-0.08441177836607683,-0.6844444444444444,-0.2088888888888889,-0.11555555555555555,0.24457068553784747,0.17568146144202246,0.042311376023925165
1592260555.6209183,6.762988926426426,7.053586711711712,-0.16504058746246245,-0.6844444444444444,-0.2088888888888889,-0.11555555555555555,0.2272768097950023,0.04554520501795861,0.01842094930290532
1592260555.6309183,6.852258841818888,7.2272504210389945,-0.24325715766290967,-0.6844444444444444,-0.2088888888888889,-0.11555555555555555,0.1332437859479724,0.03724700282991598,0.09319032804929704
1592260555.6409183,6.746185583060875,7.22,-0.08739841195702942,-0.6844444444444444,-0.2088888888888889,-0.11555555555555555,0.1484727179626692,0.13145470479747265,-0.01259185220405336
1592260555.6509182,6.851751056163022,7.2073661158051685,0.014037649105367794,-0.6824167840181136,-0.20701720234150653,-0.11555555555555555,0.14213479012123398,0.14869553141144945,-0.025818451988548385
1592260555.6609182,6.74,7.13,0.1,-0.67,-0.19555555555555557,-0.11555555555555555,0.1908953869368798,0.0839939702522271,-0.09708393964218458
1592260555.6709182,6.908575921401466,7.26712039299267,0.1444294848469096,-0.67,-0.19555555555555557,-0.11555555555555555,0.15088993208638396,-0.19314223070203276,-0.12452377465024826
1592260555.6809182,6.839699150400732,7.271235168114756,-0.08692796457195119,-0.67,-0.19555555555555557,-0.11555555555555555,0.10404434264979276,-0.01821421452935615,-0.06919564785697362
1592260555.6909182,6.654554197165551,7.1263627160878364,0.057269506307428754,-0.67,-0.19555555555555557,-0.11555555555555555,0.23274261854566416,0.11799596080385674,0.041551037329188904
1592260555.7009182,6.809692999532783,7.110032315838655,0.00011310543529045869,-0.67,-0.19555555555555557,-0.11555555555555555,0.21492891526336827,-0.0966591637478092,0.046895148313877685
1592260555.7109182,6.904598811292719,7.178395245170877,0.04708395245170875,-0.6766666666666666,-0.20222222222222222,-0.11555555555555555,0.1364648759080466,-0.05693877348932838,-0.2249992469470021
1592260555.7209182,6.892384227730863,7.129536910923454,-0.15238422773086352,-0.6766666666666666,-0.20222222222222222,-0.11555555555555555,0.17751733243560924,0.010541701320495752,-0.13810887895047153
1592260555.7309182,6.8956059257708215,7.164394074229179,-0.18197037114589332,-0.6766666666666666,-0.20222222222222222,-0.11555555555555555,0.21940533981138644,0.09775249676941425,-0.11235557059713495
1592260555.7409182,6.821269026685774,7.15415837174174,-0.26939695573027617,-0.6766666666666666,-0.20222222222222222,-0.11555555555555555,0.1631916058445948,0.024285993920789836,-0.11286809502575204
1592260555.7509181,6.630844748066719,7.07,-0.2932420154662413,-0.6766666666666666,-0.20278538760003545,-0.11668188631118201,0.1331261810177548,0.07364603858330868,-0.11702522058763529
1592260555.7609181,6.64,7.07,-0.22,-0.6766666666666666,-0.2088888888888889,-0.1288888888888889,0.16907877128695067,-0.13308135546456762,-0.14398966328953217
1592260555.7709181,6.631484296089654,7.1497811553075845,-0.02467173296137752,-0.6766666666666666,-0.2088888888888889,-0.1288888888888889,0.15054897133613526,-0.131852485348285,-0.11537543679784348
1592260555.7809181,6.738211177824212,7.34622477319015,-0.334701510302325,-0.6766666666666666,-0.2088888888888889,-0.1288888888888889,0.14506612547019082,-0.03174208802709409,-0.19341655721236642
1592260555.790918,6.31,7.12,-0.06,-0.6766666666666666,-0.2088888888888889,-0.1288888888888889,0.1908953869368798,0.17889624832941878,-0.1810779098944117
1592260555.800918,6.341622460244055,7.134576185219441,-0.033099322731748065,-0.6752030975988967,-0.20785578131163954,-0.12837233510026422,0.08342614721728318,-0.04140675444747392,-0.1983831524925369
1592260555.810918,6.5083525528357695,7.077088138208943,-0.06763728726368587,-0.6577777777777778,-0.19555555555555557,-0.12222222222222222,0.10995795942209495,-0.09189305907412958,-0.08086494551054642
1592260555.820918,6.626796226415094,7.134239622641509,-0.10466037735849057,-0.6577777777777778,-0.19555555555555557,-0.12222222222222222,0.09065544744209132,-0.01978664130884185,-0.04189284165895446
1592260555.830918,6.721169856459331,7.296382775119617,-0.3179784688995215,-0.6577777777777778,-0.19555555555555557,-0.12222222222222222,0.09073820119180777,0.1158581029768661,-0.03909584498041664
1592260555.840918,6.390684532593511,7.131306101568187,-0.06944139464415718,-0.6577777777777778,-0.19555555555555557,-0.12222222222222222,0.12621796228015822,-0.03674412504700677,-0.051933336817635366
1592260555.850918,6.6052562816047855,7.420152686775673,-0.13546347126301084,-0.6577777777777778,-0.19555555555555557,-0.12222222222222222,0.1316193807926721,-0.2708055939226084,-0.10234657626776494
1592260555.860918,6.5898822249550655,7.319803708258443,-0.008188440071894808,-0.65,-0.19555555555555557,-0.11555555555555555,0.14950377110274576,0.017650903053334718,-0.061679355419975795
1592260555.870918,6.528913595933926,7.143208386277001,-0.20892630241423127,-0.65,-0.19555555555555557,-0.11555555555555555,0.18151382638881466,0.006854076517719153,-0.019162306947920586
1592260555.880918,6.810646806676405,7.2436119159941565,-0.24680595799707847,-0.65,-0.19555555555555557,-0.11555555555555555,0.08051537491199612,0.050198826294111126,-0.1182786414706698
1592260555.890918,6.8920959412743805,7.183083948615083,-0.21604797063719006,-0.65,-0.19555555555555557,-0.11555555555555555,0.35170477541593853,0.015794304216658707,-0.15236058260617852
1592260555.900918,6.820493363492809,7.120431693056208,-0.18024668174640435,-0.65,-0.19555555555555557,-0.11555555555555555,0.33608351622589155,-0.04864338994228509,-0.010792921196377758
1592260555.910918,6.9,7.09,-0.1,-0.6844444444444444,-0.18777777777777777,-0.1511111111111111,0.3337942194439155,0.0839939702522271,-0.025089107997418484
1592260555.920918,6.769862180492868,7.146712606502378,-0.13808066423692403,-0.6844444444444444,-0.18777777777777777,-0.1511111111111111,0.3015186505335959,0.028853844613922687,0.10132809837542452
1592260555.930918,6.882879441313404,7.133995344278364,-0.33616074491546194,-0.6844444444444444,-0.18777777777777777,-0.1511111111111111,0.15291846473715442,0.1427332700011111,0.031899650247508765
1592260555.940918,6.885090723320298,7.3608896170242755,-0.3133442553641264,-0.6844444444444444,-0.18777777777777777,-0.1511111111111111,0.08620257302775203,0.14128320539099493,-0.15577492481195665
1592260555.950918,6.678205616037769,7.368278370855794,-0.42417556283690944,-0.6844444444444444,-0.18777777777777777,-0.1511111111111111,0.11360616544836404,0.22752392271468563,-0.19929827747998746
1592260555.960918,6.568767084010322,7.3547942750645126,-0.3443835420051611,-0.6577777777777778,-0.18222222222222223,-0.12222222222222222,0.04345385881000971,-0.002495524326218714,-0.18176519167075808
1592260555.970918,6.574761504756283,7.495316593638613,-0.3284518809453538,-0.6577777777777778,-0.18222222222222223,-0.12222222222222222,0.07660035799069886,0.03772874780876867,-0.23145055712119136
1592260555.980918,6.532713325575321,7.313806018001757,-0.23210558814448903,-0.6577777777777778,-0.18222222222222223,-0.12222222222222222,0.02465183788133903,0.025345579005723876,-0.17158319772997155
1592260555.990918,6.773723535622886,7.379918571147341,-0.29743078547524027,-0.6577777777777778,-0.18222222222222223,-0.12222222222222222,-0.007658910003231643,0.12775489495273873,-0.29588829387765897
1592260556.000918,6.676141525135566,7.079666231186356,-0.04221629650840236,-0.6577777777777778,-0.18222222222222223,-0.12222222222222222,-0.09281527868920048,0.09582125669550043,-0.2975259163523891
1592260556.010918,6.85,7.11,0.01,-0.6622222222222223,-0.19555555555555557,-0.14333333333333334,-0.06763150851478027,0.22689280275926282,-0.394880743263717
1592260556.020918,6.7733541287247645,7.081257798271787,-0.09538807300344868,-0.6622222222222223,-0.19555555555555557,-0.14333333333333334,-0.055090357154037116,0.19135954057049057,0.10885550305946612
1592260556.030918,6.717459520610904,7.217909920101817,-0.2334834664969714,-0.6622222222222223,-0.19555555555555557,-0.14333333333333334,-0.01593334352606669,0.4804130705524394,-0.17677217617150104
1592260556.0409179,6.5569733382739575,7.193922502779102,-0.27520582993665416,-0.6622222222222223,-0.19555555555555557,-0.14333333333333334,0.0008452095587137502,0.31802870909228464,-0.3503415755842819
1592260556.0509179,6.67538739787906,7.260530411306972,-0.19379616395814586,-0.6622222222222223,-0.19555555555555557,-0.14333333333333334,-0.05889577729143385,0.17997859083045703,-0.3164345289936576
1592260556.0609179,6.570890481064483,7.060942632938539,-0.004973924062972169,-0.6622222222222223,-0.18222222222222223,-0.13444444444444445,-0.08163510251683595,0.3872278611253664,-0.4142986689695457
1592260556.0709178,6.756658931161441,7.145522035032913,-0.05,-0.6622222222222223,-0.18222222222222223,-0.13444444444444445,-0.013580971031026724,0.3958019920298874,-0.3949617249442563
1592260556.0809178,6.725445622582032,7.034048335482638,-0.04443353871137221,-0.6622222222222223,-0.18222222222222223,-0.13444444444444445,-0.04147545787135931,0.2305648808490437,-0.2497763610551944
1592260556.0909178,6.628813270465261,7.115386203109319,0.057099736787290044,-0.6622222222222223,-0.18222222222222223,-0.13444444444444445,-0.16204890405701913,0.25332939423990153,-0.12924811053224555
1592260556.1009178,6.414368573538601,7.218637353481414,0.0015029635100077682,-0.6622222222222223,-0.18222222222222223,-0.13444444444444445,-0.1109324236255646,0.15369557644977827,-0.181230971987962
1592260556.1109178,6.27,7.28,-0.09,-0.67,-0.18222222222222223,-0.14666666666666667,-0.07635815477475191,0.17453292519943295,-0.39706240482870997
1592260556.1209178,6.328042406509279,7.318694937672853,0.1324958916189026,-0.67,-0.18222222222222223,-0.14666666666666667,-0.0024913037791754467,-0.01013420228950826,-0.25460490648009815
1592260556.1309178,6.220595269040811,7.415551905853439,-0.210508542666068,-0.67,-0.18222222222222223,-0.14666666666666667,0.08994867363973164,0.09589749973398735,-0.12853627446310265
1592260556.1409178,6.32,7.263601608286766,0.16063070737358595,-0.67,-0.18222222222222223,-0.14666666666666667,0.07280050317404894,0.1412865602277544,-0.27697233551409955
1592260556.1509178,6.32,7.0778107537140516,0.16777650947253647,-0.67,-0.18222222222222223,-0.14666666666666667,0.0572107813837229,0.08594304787209697,-0.23877751712780074
1592260556.1609178,6.93,7.44,-0.03,-0.6622222222222223,-0.20222222222222222,-0.16333333333333333,-0.03490658503988659,0.007635815477475192,-0.15053464798451094
1592260556.1709177,6.563802735184417,7.2222610857853295,-0.03989722337339412,-0.6622222222222223,-0.20222222222222222,-0.16333333333333333,0.22312249737502043,-0.0074788588062432125,-0.13326073451740417
1592260556.1809177,6.4494315208600925,7.245631035631035,-0.3788487702773417,-0.6622222222222223,-0.20222222222222222,-0.16333333333333333,0.09599310885968812,0.042167218244517995,-0.12920358980719582
1592260556.1909177,6.113202573757905,7.324402807735897,-0.48660128687895293,-0.6622222222222223,-0.20222222222222222,-0.16333333333333333,0.0942910810394795,-0.005060102109687431,-0.29731206526883824
1592260556.2009177,6.2818762110189015,7.508410412020619,-0.5709381055094505,-0.6622222222222223,-0.20222222222222222,-0.16333333333333333,0.07254628881803268,0.08359174310082655,0.015478407455050691
1592260556.2109177,6.29,7.62,-0.29,-0.6766666666666666,-0.20222222222222222,-0.14555555555555555,-0.06326818538479445,-0.031634092692397225,-0.031634092692397225
1592260556.2209177,6.229467696225408,7.6805323037745925,-0.11705056064402183,-0.6766666666666666,-0.20222222222222222,-0.14555555555555555,-0.12269563564827102,0.18815314399633357,-0.286323165250154
1592260556.2309177,6.108851804000382,7.4795018662072925,-0.18325031103454875,-0.6766666666666666,-0.20222222222222222,-0.14555555555555555,-0.013636063353326115,-0.17363227730314695,-0.3233597376514953
1592260556.2409177,6.37571207559097,7.748089098863806,-0.23142930813634324,-0.6766666666666666,-0.20222222222222222,-0.14555555555555555,-0.10206360312330064,-0.07376466208157113,-0.22154315360409424
1592260556.2509177,6.3129158418312175,7.573655116197827,-0.25236138605626074,-0.6766666666666666,-0.20222222222222222,-0.14555555555555555,0.09658658482564467,-0.17955920662143093,-0.23904872572220054
1592260556.2609177,6.373076646102883,7.648790417436808,-0.17747185482128713,-0.67,-0.19555555555555557,-0.13111111111111112,-0.06947795282353755,0.12684820503802427,-0.27466152362040624
1592260556.2709177,6.427846439464262,7.831585996552182,-0.3357929982760907,-0.67,-0.19555555555555557,-0.13111111111111112,0.02884966068970868,0.07658945545386765,-0.30123499636172174
1592260556.2809176,6.1868266808115635,7.6647261636387745,-0.2523630818193874,-0.67,-0.19555555555555557,-0.13111111111111112,-0.04800147264315859,-0.11351597963269874,-0.45594846215025714
1592260556.2909176,6.294937720329025,7.813250293772033,-0.17337485311398354,-0.67,-0.19555555555555557,-0.13111111111111112,-0.07107448322898177,0.02528368862348543,-0.323460039829856
1592260556.3009176,6.292781992736687,7.747819927366869,-0.0689478983136169,-0.67,-0.19555555555555557,-0.13111111111111112,0.011465588172945934,-0.007734029863127309,-0.27176473554206027
1592260556.3109176,6.051990277380612,7.56232199027738,-0.1578991516537985,-0.6766666666666666,-0.2088888888888889,-0.16666666666666666,-0.09020799370607667,-0.029042342803491814,-0.3491676446354558
1592260556.3209176,6.227125865051904,7.7690419550173,0.02925485390234525,-0.6766666666666666,-0.2088888888888889,-0.16666666666666666,-0.15718345766818317,0.008587985772673343,-0.2625780621084445
1592260556.3309176,5.9578170993881265,7.684183892839425,-0.04218290061187366,-0.6766666666666666,-0.2088888888888889,-0.16666666666666666,-0.06433863186459168,0.09629021458133054,-0.4348837647625238
1592260556.3409176,5.84,7.908481012658228,-0.15827387802071347,-0.6766666666666666,-0.2088888888888889,-0.16666666666666666,-0.0049507901106628565,0.052787925082075325,-0.3563702742462156
1592260556.3509176,5.84,7.742567246835444,0.03026449223245109,-0.6766666666666666,-0.2088888888888889,-0.16666666666666666,-0.06911778899226906,-0.01960561211768551,-0.3201735056463352
1592260556.3609176,5.89,7.89,0.01,-0.6844444444444444,-0.2088888888888889,-0.17333333333333334,-0.06326818538479445,-0.001090830782496456,-0.148352986419518
1592260556.3709176,6.025363265933728,8.010322903052202,-0.09528254017067735,-0.6844444444444444,-0.2088888888888889,-0.17333333333333334,-0.14283966581855634,0.11293428035454381,-0.13686844285175856
1592260556.3809175,5.713590390606895,7.9037806730694955,-0.1939709555320957,-0.6844444444444444,-0.2088888888888889,-0.17333333333333334,-0.13319114915431654,-0.07176923355930606,-0.21482538365556758
1592260556.3909175,5.969761178623376,7.862834889504059,-0.18188992633603904,-0.6844444444444444,-0.2088888888888889,-0.17333333333333334,-0.114992593747633,0.004079010034843511,-0.29463532389391056
1592260556.4009175,6.034008754462444,7.839594747322534,-0.003154476795292682,-0.6844444444444444,-0.2088888888888889,-0.17333333333333334,-0.1178981369286711,0.10247355522840751,-0.22573866649300384
1592260556.4109175,6.0686280947047235,7.848628094704723,-0.23667760998030207,-0.6689210321905081,-0.22751698359361255,-0.15263545032808484,0.012089258226006455,-0.14658775417182435,-0.2456848287431057
1592260556.4209175,6.021590859787403,7.811272687829923,0.001409357148022261,-0.6677777777777778,-0.2288888888888889,-0.1511111111111111,-0.028877317436234912,0.1118848150754097,-0.25191249640361196
1592260556.4309175,5.929616197574814,7.846153520970074,-0.44191901212593165,-0.6677777777777778,-0.2288888888888889,-0.1511111111111111,-0.14786944828002135,-0.005117378566216371,-0.18198057267030687
1592260556.4409175,5.964861674218936,7.975612687813022,-0.30158096828046743,-0.6677777777777778,-0.2288888888888889,-0.1511111111111111,-0.07128770377691404,0.09107362592840945,-0.2518525876033355
1592260556.4509175,5.86924502034697,7.983283001356465,-0.09864103662454488,-0.6677777777777778,-0.2288888888888889,-0.1511111111111111,-0.071344476260699,0.09337097189626586,-0.30320578855751384
1592260556.4609175,5.729311818846998,8.088825817383603,-0.13696345361420265,-0.6748313029785669,-0.23392712117516679,-0.17126404025622266,-0.017002879008566278,-0.03826729491898309,-0.3645361808416743
1592260556.4709175,5.956846836049856,7.986313518696069,-0.3300035953978907,-0.6755555555555556,-0.23444444444444446,-0.17333333333333334,0.1027700127550682,0.08927869503070704,-0.5102819855698428
1592260556.4809175,6.059099101118559,8.015639640447423,-0.31327026966443255,-0.6755555555555556,-0.23444444444444446,-0.17333333333333334,-0.06586259769755227,-0.20518331157769615,-0.537583030124394
1592260556.4909174,5.852020833823218,7.906650833588073,-0.1617741669997884,-0.6755555555555556,-0.23444444444444446,-0.17333333333333334,-0.07775532722337472,0.04031628696313691,-0.4400943158841572
1592260556.5009174,5.813429944733478,7.8637197789339135,-0.14,-0.6755555555555556,-0.23444444444444446,-0.17333333333333334,0.0010434853214332657,-0.03572351516252849,-0.4705749618963925
1592260556.5109174,5.85,8.12,0.12,-0.6677777777777778,-0.23444444444444446,-0.1811111111111111,-0.15162547876700738,0.10144726277217041,-0.5923211148955756
1592260556.5209174,6.047055825714842,8.135158140439604,0.15789535109900799,-0.6677777777777778,-0.23444444444444446,-0.1811111111111111,-0.23678055468116352,0.02373292164662985,-0.5923211148955756
1592260556.5309174,5.6416024127983215,8.046320482559663,0.07632048255966432,-0.6677777777777778,-0.23444444444444446,-0.1811111111111111,-0.23639015400954275,0.002996709270036816,-0.567795874580376
1592260556.5409174,5.722094704756504,8.133412253963753,-0.10748328253113112,-0.6677777777777778,-0.23444444444444446,-0.1811111111111111,-0.18154219795199794,0.09701769746664489,-0.6873985609980465
1592260556.5509174,5.681200904461774,8.119086101912188,-0.17577039490082969,-0.6677777777777778,-0.23444444444444446,-0.1811111111111111,-0.22571381756089642,0.06408548305578786,-0.8084967567258844
1592260556.5609174,5.641793486198335,8.173722798305826,-0.054347889586680326,-0.6809269266345358,-0.24051328237833278,-0.16189312432046477,-0.19588418131735214,0.2186966759246911,-0.82462362264249
1592260556.5709174,5.757623161175014,8.360958709500023,-0.14857522570001375,-0.6822222222222222,-0.2411111111111111,-0.16,-0.3300590950687182,0.32740827778704285,-0.7740206998558012
1592260556.5809174,5.507730213813948,8.278476211798948,-0.17692063136684205,-0.6822222222222222,-0.2411111111111111,-0.16,-0.3825404956550442,0.15064550169371838,-0.8280998474335259
1592260556.5909173,5.551449773584011,8.210118305317812,0.052781241850209826,-0.6822222222222222,-0.2411111111111111,-0.16,-0.48827594262829827,0.29446635466569354,-0.8406626213411886
1592260556.6009173,5.4382702672037215,8.213172973279628,0.185624326317581,-0.6822222222222222,-0.2411111111111111,-0.16,-0.4371981951287628,0.16958349789170707,-0.9329952357074641
1592260556.6109173,5.2257451342520245,7.990889330870862,0.27242790169058106,-0.676565168663478,-0.262796483086297,-0.17602831841644173,-0.46698048930537905,0.22872314831574325,-0.9464084441757077
1592260556.6209173,5.093354483086807,7.9548475234960545,0.44966332236189877,-0.6755555555555556,-0.26666666666666666,-0.17888888888888888,-0.3757620704727133,0.1759037201657862,-0.8271366185568096
1592260556.6309173,4.997530049350571,8.18789064155742,0.42840443246843685,-0.6755555555555556,-0.26666666666666666,-0.17888888888888888,-0.34073974898524495,0.3260128894056701,-0.8751347406202074
1592260556.6409173,4.8296196582898565,8.096621131865069,0.41762555259070455,-0.6755555555555556,-0.26666666666666666,-0.17888888888888888,-0.3204851194447378,0.28646352838590317,-0.7898944246051927
1592260556.6509173,4.728974749194017,8.206072408338173,0.38572558521396105,-0.6755555555555556,-0.26666666666666666,-0.17888888888888888,-0.3126864614113511,0.174904610187017,-0.6899453258402345
1592260556.6609173,4.694252802234031,8.32,0.6161843074894311,-0.6623396984231643,-0.28394894137825527,-0.2002375811796748,-0.25483301402634173,0.10868682020718111,-0.7351999779603688
1592260556.6709173,4.657990299367869,8.352009700632133,0.5386359479982508,-0.6611111111111111,-0.28555555555555556,-0.20222222222222222,-0.2929378296740238,0.17040734446000275,-0.7191418484624781
1592260556.6809173,4.6472263564565335,8.2766418612608,0.4930658911413338,-0.6611111111111111,-0.28555555555555556,-0.20222222222222222,-0.39080433354200905,0.2578980185827843,-0.6664894905552468
1592260556.6909173,4.432026712441508,8.26,0.9185087121123051,-0.6611111111111111,-0.28555555555555556,-0.20222222222222222,-0.39082401830296915,0.07837916844097992,-0.6762608603900206
1592260556.7009172,4.6307903103975265,8.561309571907882,0.8581940028457499,-0.6611111111111111,-0.28555555555555556,-0.20222222222222222,-0.3481670412453223,0.012107441795450376,-0.6379365129815596
1592260556.7109172,4.037582355382816,8.316030338477795,1.3500766008829856,-0.65660163767405,-0.3135142908653342,-0.19681085409774893,-0.2949628498634064,0.20268645227897278,-0.8100238298726552
1592260556.7209172,4.052234636871509,8.372946927374302,1.2880027932960894,-0.6555555555555556,-0.32,-0.19555555555555557,-0.23934746986388367,0.16323764667788448,-0.7575926429905449
1592260556.7309172,4.0088274131783965,8.586693516439984,0.5880272019014922,-0.6555555555555556,-0.32,-0.19555555555555557,-0.29890189457139554,0.05555660376555337,-0.7563409837776591
1592260556.7409172,3.1573180873180875,8.062065535815536,0.7800661500661501,-0.6555555555555556,-0.32,-0.19555555555555557,-0.20316772288712204,0.3965615988705675,-0.7659573672957697
1592260556.7509172,4.543806255170107,8.927821074678352,-0.02830719678969329,-0.6555555555555556,-0.32,-0.19555555555555557,-0.018368490657311054,0.11741821807110997,-1.0539337773408688
1592260556.7609172,4.41277584156792,9.040122596252408,0.9183668867112222,-0.6425034054514558,-0.32839066792406413,-0.19928474129958407,-0.04044656880482739,0.06724028719145844,-1.41220919272035
1592260556.7709172,4.11590924677106,8.827682020802376,1.3129089038747286,-0.64,-0.33,-0.2,0.22001018293352625,0.06116095815254246,-1.235522397701116
1592260556.7809172,3.7195390989124806,9.077281201450026,1.5126152252718799,-0.64,-0.33,-0.2,0.18682185986666644,-0.2257081978131753,-1.04211623432008
1592260556.7909172,3.641574629899792,9.372208882404994,0.8896718723841868,-0.64,-0.33,-0.2,0.030850999692655603,-0.3030881403500394,-0.9653405010463739
1592260556.8009171,3.587319734639469,9.245374170748342,0.7798775497550995,-0.64,-0.33,-0.2,0.060911391678238225,-0.3819465971810242,-0.9702130935846389
1592260556.8109171,3.3942581858661858,8.67615868872596,0.9714836282676289,-0.64,-0.3663753150870728,-0.22251805219675935,0.12903731315744985,-0.4718275890664954,-1.033788300983772
1592260556.8209171,3.4023135044375152,8.77618373710722,0.996918925401775,-0.64,-0.37666666666666665,-0.2288888888888889,0.20836398614926158,-0.37875651645729996,-1.0863919725157265
1592260556.8309171,3.28579226686884,8.916027293404094,0.5921910538286581,-0.64,-0.37666666666666665,-0.2288888888888889,0.1957516101020194,-0.2626553467528142,-0.8508389131989358
1592260556.840917,3.686876370222095,9.027678962920598,0.575759222190449,-0.64,-0.37666666666666665,-0.2288888888888889,0.06242905878843165,-0.17843216954856117,-0.9135237563944102
1592260556.850917,3.374239177178899,9.012026949541285,0.3961145355504587,-0.64,-0.37666666666666665,-0.2288888888888889,-0.01524223356574319,-0.24626071752814283,-0.922422678243067
1592260556.860917,3.458616757362356,8.925099631882203,0.612930937900128,-0.6338999590980225,-0.381895273154076,-0.2288888888888889,-0.15198613556741425,-0.18029012161042968,-1.093135267277756
1592260556.870917,3.3428776653755032,9.088040314392087,0.7273697867699598,-0.6322222222222222,-0.38333333333333336,-0.2288888888888889,0.054488209802223186,-0.13432913854573023,-1.043055831913291
1592260556.880917,3.0822987648180384,9.401762137666141,0.7648658432120258,-0.6322222222222222,-0.38333333333333336,-0.2288888888888889,0.20835344198863204,-0.21619727159277574,-0.8951583651569449
1592260556.890917,3.26284201915211,9.55570328665608,0.86427746499206,-0.6322222222222222,-0.38333333333333336,-0.2288888888888889,0.1422767004424504,-0.20609292580533317,-0.9698195082216381
1592260556.900917,3.3394362959134574,9.619436295913458,0.6957204469711822,-0.6322222222222222,-0.38333333333333336,-0.2288888888888889,0.10578329131787463,-0.0419663953623193,-0.8990883302986659
1592260556.910917,2.537125843889858,9.2822286277782,0.7388856861109004,-0.6234766997901338,-0.4151352330863823,-0.21855327146914796,0.3178444910708844,-0.0636488963330055,-0.8173137554695052
1592260556.920917,2.5156970819823994,8.996415006947661,0.5459888837424733,-0.62,-0.42777777777777776,-0.21444444444444444,0.2541110265127907,-0.054917949005767616,-0.9474095233895586
1592260556.930917,2.7429418821647564,9.45034257531325,0.8902386030391897,-0.62,-0.42777777777777776,-0.21444444444444444,0.024708146033923323,0.007658498708889408,-0.7962930939320916
1592260556.940917,2.334999043245312,9.194041331802527,0.9158505549177192,-0.62,-0.42777777777777776,-0.21444444444444444,0.26456194910920316,-0.1766802504338249,-0.7136122719771901
1592260556.950917,2.3653371358100816,9.107618621859103,0.6244131339602281,-0.62,-0.42777777777777776,-0.21444444444444444,0.30945172601012955,-0.1976347604686962,-0.7571291836159748
1592260556.960917,2.569551072595539,9.024494956669981,0.5338748401761614,-0.6109519581379931,-0.4389138293002478,-0.20539640258243752,0.2085877200140046,-0.14531019771279516,-0.907932677552206
1592260556.970917,2.364660873107475,9.665163735940435,0.6724289949532668,-0.6055555555555555,-0.44555555555555554,-0.2,0.24073702459671875,-0.004933881915263366,-0.8004669685052266
1592260556.980917,2.2931435355933916,9.876801899661496,0.5947425857626434,-0.6055555555555555,-0.44555555555555554,-0.2,0.14003990021572044,0.007499688966447746,-0.7954640851005285
1592260556.990917,1.8590255530129671,9.524269164759726,0.2541995614035088,-0.6055555555555555,-0.44555555555555554,-0.2,0.24905867563341233,-0.0792408789722217,-0.9118915010590797
1592260557.000917,2.0500072737594692,9.364066563769581,0.22390015434562777,-0.6055555555555555,-0.44555555555555554,-0.2,0.24092441609363305,-0.11426018471446844,-0.8635109520073765
1592260557.010917,1.9887981220657278,9.233007824726135,0.14947417840375588,-0.5929156668405494,-0.46340010432968176,-0.2,0.19963842126494527,-0.021431496049723803,-0.7389929586631334
1592260557.020917,1.9834174468598063,9.36852211998232,0.07721059187527625,-0.5866666666666667,-0.4722222222222222,-0.2,0.1430781903871328,0.01971555993574229,-0.7808494336612037
1592260557.030917,1.637091167282022,9.52329451860267,0.015474581084919066,-0.5866666666666667,-0.4722222222222222,-0.2,0.1667334696142285,-0.0292453560649162,-0.9069980679107752
1592260557.040917,1.7654403294140049,9.70183653068025,-0.01,-0.5866666666666667,-0.4722222222222222,-0.2,0.09551558803920746,-0.15924553439574224,-0.9143165301519317
1592260557.050917,1.846564606338735,9.765038003728668,-0.07595439552559874,-0.5866666666666667,-0.4722222222222222,-0.2,-0.09202987173661964,-0.21128811878037226,-0.8810414023238146
1592260557.060917,1.5416188895594447,9.580433765841883,0.18719598672299337,-0.5662251475222959,-0.48843446154361964,-0.19577072017702676,-0.06191118892894368,-0.17110918458864932,-0.9158736956141339
1592260557.070917,1.4227011172140642,9.534928072338676,0.2779169001980346,-0.5544444444444444,-0.49777777777777776,-0.19333333333333333,-0.010948985219910244,-0.144682401770992,-0.9487438267729104
1592260557.080917,1.5542366212684,9.7924140872197,-0.08286972073187508,-0.5544444444444444,-0.49777777777777776,-0.19333333333333333,-0.13240035531448247,-0.16749092144383676,-0.8746675287744138
1592260557.0909169,1.2928120612830374,9.621953854605383,-0.0047048770066532575,-0.5544444444444444,-0.49777777777777776,-0.19333333333333333,-0.18225902734852295,-0.24078609714408206,-0.9794073085924888
1592260557.1009169,1.0023700948037921,9.382133085323412,0.17952598103924158,-0.5544444444444444,-0.49777777777777776,-0.19333333333333333,-0.21273271829199675,-0.2874673901236884,-1.1033105385547672
1592260557.1109169,1.1036948662328272,9.462412629549288,0.07425644733670765,-0.534661096381993,-0.5239428510216652,-0.18950429822447176,-0.2383382441799469,-0.16185678267176745,-0.9734009689245845
1592260557.1209168,0.7556539138786618,9.19,0.08358652153033456,-0.52,-0.5433333333333333,-0.18666666666666668,-0.2438830989898209,-0.2395539134327466,-1.0185754226737669
1592260557.1309168,1.1360557101558912,9.760962904925297,0.7551160403101613,-0.52,-0.5433333333333333,-0.18666666666666668,-0.3434282065652256,-0.27360870010044613,-1.060845594012037
1592260557.1409168,0.9621961518161316,10.045602658221775,0.4220531644354879,-0.52,-0.5433333333333333,-0.18666666666666668,-0.20387617380141682,-0.2608171899656032,-0.9719837193141121
1592260557.1509168,0.795367530407192,10.035917503966155,0.16917503966155473,-0.52,-0.5433333333333333,-0.18666666666666668,-0.13580352916239988,-0.24517618808513547,-0.9453153405608619
1592260557.1609168,0.8474614687216682,9.794922937443337,0.9100317316409792,-0.5360652765185857,-0.5506965850710185,-0.1906829857963131,-0.0645889510330483,-0.11977134088049822,-1.0137986465990645
1592260557.1709168,0.7632660543663432,9.662458706762461,0.9427890526627658,-0.5466666666666666,-0.5555555555555556,-0.19333333333333333,0.004363323129985824,-0.1331654240098004,-0.9716400069117175
1592260557.1809168,0.65088654353562,9.681039577836412,0.4553825857519789,-0.5466666666666666,-0.5555555555555556,-0.19333333333333333,-0.03530032026691962,-0.033648819731308885,-0.8651353032346034
1592260557.1909168,0.697950929788588,9.6531056588654,0.5758698060288954,-0.5466666666666666,-0.5555555555555556,-0.19333333333333333,-0.05318643980869884,0.05895260490165619,-0.6867518797023393
1592260557.2009168,0.7404052793917223,9.806960404562084,0.5118237572627501,-0.5466666666666666,-0.5555555555555556,-0.19333333333333333,0.01928898835042591,0.13489109310610448,-0.6688417088572196
1592260557.2109168,0.61092538848683,9.811261893391132,0.5538642959479814,-0.5273858009951466,-0.5610643743188469,-0.1729507039091551,0.05593520258147986,0.1210461109633103,-0.6393283838646544
1592260557.2209167,0.47280109342337995,9.692638687891945,0.672320710725197,-0.5077777777777778,-0.5666666666666667,-0.15222222222222223,0.0402551902430318,0.07557213042291686,-0.5632613232128759
1592260557.2309167,0.12296350079588927,9.905710854813035,0.43436119411321183,-0.5077777777777778,-0.5666666666666667,-0.15222222222222223,0.14509621270934797,0.21751700114798286,-0.5253413815049902
1592260557.2409167,0.009042070579246454,10.011557709755982,0.3336526431402512,-0.5077777777777778,-0.5666666666666667,-0.15222222222222223,0.13098465378717566,0.23387529701644907,-0.4821667398657943
1592260557.2509167,-0.022939638655612656,9.945952154994897,0.35862642577040843,-0.5077777777777778,-0.5666666666666667,-0.15222222222222223,0.08473009107697946,0.1596557528125796,-0.4590479308795209
1592260557.2609167,-0.16964805255748477,9.814982402627875,0.41989441576724545,-0.4972593722300433,-0.5832746754262474,-0.14779341988633402,0.003368471123518506,0.11390159672141226,-0.36840301433470907
1592260557.2709167,-0.3017147587511826,9.811350520340588,0.44279210028382215,-0.4866666666666667,-0.6,-0.14333333333333334,-0.023054765348415517,0.14843245091360716,-0.29024870868948033
1592260557.2809167,-0.49,9.776551498459272,0.372414169234545,-0.4866666666666667,-0.6,-0.14333333333333334,0.0270820880524069,0.13872442885837397,-0.387468680319468
1592260557.2909167,-0.5636825885978428,9.716317411402157,0.4052619414483821,-0.4866666666666667,-0.6,-0.14333333333333334,0.009684694867094883,0.05352802454570822,-0.4472801193187529
1592260557.3009167,-0.5170540758676352,9.739709443099274,0.5050621468926554,-0.4866666666666667,-0.6,-0.14333333333333334,-0.00879003594224747,-0.02210169313771955,-0.3160151743900548
1592260557.3109167,-0.7522630834512023,10.364918856547309,0.7601384649743169,-0.4851655127918807,-0.6025019231246432,-0.15784448745626442,0.008726646259971648,-0.06139640324107798,-0.01250561605780201
1592260557.3209167,-1.5964370993589743,10.925336939102564,0.9696201923076923,-0.48333333333333334,-0.6055555555555555,-0.17555555555555555,0.025804921995275433,-0.03419317471562889,0.19488343106328798
1592260557.3309166,-3.0753641110195105,9.925204726573234,0.4339208573784007,-0.48333333333333334,-0.6055555555555555,-0.17555555555555555,0.15509857126828808,-0.07605006027674426,-0.08675548976326594
1592260557.3409166,-0.663328306042325,9.529316049028056,0.700304031408599,-0.48333333333333334,-0.6055555555555555,-0.17555555555555555,0.13939259443671465,-0.2584970733518417,-0.1425822011932904
1592260557.3509166,-0.8679498192380187,9.205469826653895,1.1294821246485183,-0.48333333333333334,-0.6055555555555555,-0.17555555555555555,0.16171988519516256,-0.3585959154559696,-0.18543803094411024
1592260557.3609166,-0.19559202082798577,9.921338051409924,0.06048219720582303,-0.47592106388960187,-0.6076145192899254,-0.17555555555555555,0.23423918068248098,-0.18114014936848907,-0.06477045269065852
1592260557.3709166,-0.285435849996442,9.57510282501957,0.3363075499893261,-0.4633333333333333,-0.6111111111111112,-0.17555555555555555,0.2193157476107103,-0.14353665763617351,-0.07702376880448984
1592260557.3809166,-0.1762249668147977,9.833938362093843,0.13163328908639696,-0.4633333333333333,-0.6111111111111112,-0.17555555555555555,0.14604056618105332,-0.1544287004587151,-0.043294719317548344
1592260557.3909166,-0.15168680670285578,9.819598300684447,0.03,-0.4633333333333333,-0.6111111111111112,-0.17555555555555555,0.07491250147999759,-0.06928307317602993,-0.07312948102513389
1592260557.4009166,-0.2674394874655821,9.790115356236615,0.08592851872514262,-0.4633333333333333,-0.6111111111111112,-0.17555555555555555,0.04188435277931468,-0.15010062819272418,-0.05241144796070843
1592260557.4109166,-0.3230001523693433,9.755583574584794,0.24224973335364924,-0.4633333333333333,-0.6032778031726683,-0.17294445290940796,0.03453369476706459,-0.19167740108157671,-0.00012731622419507801
1592260557.4209166,-0.25070113174809733,9.642103395244293,0.3696995149651011,-0.4633333333333333,-0.5911111111111111,-0.1688888888888889,0.12256109072051716,-0.07159233534633874,0.026848185012261737
1592260557.4309165,-0.2965722395369546,9.775031166518254,0.3540566562778273,-0.4633333333333333,-0.5911111111111111,-0.1688888888888889,-0.07922213196555057,-0.10435944341584652,0.11535675157068304
1592260557.4409165,-0.34622259294566254,9.67911105815062,0.4788894184938036,-0.4633333333333333,-0.5911111111111111,-0.1688888888888889,0.02833742320888017,-0.1665097556071056,-0.004024063317984425
1592260557.4509165,-0.32274653270721854,9.661690145972116,0.5533802919442321,-0.4633333333333333,-0.5911111111111111,-0.1688888888888889,0.10861443914313243,-0.19578111441233992,0.011538202939912732
1592260557.4609165,-0.27113722898769627,9.66855753799679,0.4836061550080242,-0.46951917933226345,-0.5972969571100413,-0.1664832821115272,0.15589656921778466,-0.11132072474198838,0.012761714417396555
1592260557.4709165,-0.37398281538210093,9.705331901281841,0.398672394872633,-0.48333333333333334,-0.6111111111111112,-0.16111111111111112,0.061964812098855626,-0.10995902333992597,-0.046891664514705285
1592260557.4809165,-0.287537560837977,9.704492487832404,0.26276292586583905,-0.48333333333333334,-0.6111111111111112,-0.16111111111111112,0.05349987536426436,-0.2564479537212325,0.00545415391248228
1592260557.4909165,-0.3084191386195094,9.679187820878495,0.162436537364518,-0.48333333333333334,-0.6111111111111112,-0.16111111111111112,0.08803612678916331,-0.35143815844474147,-0.022394855527073914
1592260557.5009165,-0.4136099963516965,9.697028456767603,0.23303538854432693,-0.48333333333333334,-0.6111111111111112,-0.16111111111111112,0.14231003858412308,-0.31887777508997867,-0.055618441021004994
1592260557.5109165,-0.4144438429334488,9.811989678071315,0.17979356142630287,-0.47935397719070305,-0.6086792823572815,-0.16398509054745522,0.0520271324402377,-0.3807362411272622,-0.05040088594235394
1592260557.5209165,-0.1018714407580753,9.82,0.2717040555184101,-0.4633333333333333,-0.5988888888888889,-0.17555555555555555,0.0734541350206814,-0.2021327321613187,-0.07074550558660753
1592260557.5309165,-0.24206198491004063,9.81149483459083,0.22402066163668022,-0.4633333333333333,-0.5988888888888889,-0.17555555555555555,0.16046734917231528,-0.1996613613501937,-0.07328805173924657
1592260557.5409164,-0.35979733859970847,9.856567451920817,0.2578784031598251,-0.4633333333333333,-0.5988888888888889,-0.17555555555555555,0.09052720903808882,-0.17814738250798426,-0.05933525493341528
1592260557.5509164,-0.26310552064056286,9.85182091357165,0.30385382120673543,-0.4633333333333333,-0.5988888888888889,-0.17555555555555555,0.058049938094622035,-0.20032975306378104,-0.06931115647030467
1592260557.5609164,-0.1658962621325807,9.637730088800165,0.46499655813313145,-0.4631818529481502,-0.5997977711999878,-0.17237446746670948,0.0625736790237213,-0.20587033774991212,-0.014182301970185735
1592260557.5709164,-0.3668858981285918,9.584829313816986,0.5227560292745224,-0.4622222222222222,-0.6055555555555555,-0.15222222222222223,0.06116099971683331,-0.14850102735728693,0.05074407207293241
1592260557.5809164,-0.1875415397396843,9.699254361672667,0.39908820271392964,-0.4622222222222222,-0.6055555555555555,-0.15222222222222223,0.0631055123367816,-0.10017563381096331,0.0767137094219406
1592260557.5909164,-0.19667713078575305,9.813938442655841,0.28424622937663746,-0.4622222222222222,-0.6055555555555555,-0.15222222222222223,0.02883848961611892,-0.0773886856612773,0.09446581187885617
1592260557.6009164,-0.13580723493911367,9.770638503017533,0.2890361746955683,-0.4622222222222222,-0.6055555555555555,-0.15222222222222223,-0.031313383845763175,-0.01375495429471757,0.10608786096232156
1592260557.6109164,-0.15644301201289187,9.65483225900967,0.3519462349838851,-0.4622222222222222,-0.6055555555555555,-0.15007455155125826,0.050149011581490766,0.046173575796482166,0.01355104754923053
1592260557.6209164,-0.28583949213568316,9.753873886678038,0.24404585938980483,-0.4622222222222222,-0.6055555555555555,-0.12555555555555556,0.10724089306376106,0.03063886722293935,-0.08401717392009429
1592260557.6309164,-0.3934615112244175,9.812179496258528,0.20826924438779124,-0.4622222222222222,-0.6055555555555555,-0.12555555555555556,0.08159549696028803,0.0590727239707186,0.010125184897219489
1592260557.6409163,-0.42238443396226416,9.78096108490566,0.21665448113207547,-0.4622222222222222,-0.6055555555555555,-0.12555555555555556,0.14570154725810092,0.05020870265703646,-0.026238339390204257
1592260557.6509163,-0.22539854088596825,9.730119842864642,0.25147993265627544,-0.4622222222222222,-0.6055555555555555,-0.12555555555555556,0.16186189849581417,0.1249873788150093,-0.03301313787541751
1592260557.6609163,0.18605398548171118,9.682528719430545,0.22157093523151739,-0.4629714724238651,-0.6060238369315823,-0.12724136850925208,0.1690203435334305,0.11391036386975519,-0.09328075415976161
1592260557.6709163,-0.44989081026479716,9.744539791721783,0.13383775463575362,-0.4711111111111111,-0.6111111111111112,-0.14555555555555555,0.09441729532519597,0.09000121333367907,0.002071027990116464
1592260557.6809163,-0.4318694355155748,9.818871262400851,0.1362257475198298,-0.4711111111111111,-0.6111111111111112,-0.14555555555555555,0.1632263555426331,0.12525120193588524,-0.0240463319900453
1592260557.6909163,-0.29130890176143753,9.800279229223312,0.19747818891121882,-0.4711111111111111,-0.6111111111111112,-0.14555555555555555,0.08437090586840362,0.06128070433668097,0.08503339955110811
1592260557.7009163,-0.3353523799098754,9.701971430135188,0.3226761899549377,-0.4711111111111111,-0.6111111111111112,-0.14555555555555555,0.05918120684907907,0.09517862267146211,0.04834977639467959
1592260557.7109163,-0.35063717503718916,9.674265424665297,0.33191152511156763,-0.4711111111111111,-0.6103323416212132,-0.14505997497107506,0.05063774497858043,0.08329892010782279,0.035634397970419576
1592260557.7209163,-0.3381459473424619,9.640992789534256,0.3162918946849238,-0.4711111111111111,-0.5988888888888889,-0.13777777777777778,0.10732742918556518,0.06593394041892023,-0.03540502581479953
1592260557.7309163,-0.35235603322851644,9.771884826582813,0.12132632468202939,-0.4711111111111111,-0.5988888888888889,-0.13777777777777778,0.1206405499325937,0.00852293782220221,-0.042748003202981805
1592260557.7409163,-0.4027475367882278,9.828191170825335,-0.08546078055022394,-0.4711111111111111,-0.5988888888888889,-0.13777777777777778,0.0515818493088209,-0.06813040133407634,0.001068386049313412
1592260557.7509162,-0.3017471264367816,9.79912643678161,-0.08433716475095786,-0.4711111111111111,-0.5988888888888889,-0.13777777777777778,-0.025509558482932446,0.020360502835286343,0.05289902380864996
1592260557.7609162,-0.2567155104044715,9.825474149325881,-0.14766380905623325,-0.4708678155855164,-0.599618775465673,-0.13777777777777778,-0.0671453536726699,0.17756746903679355,-0.04486701245114742
1592260557.7709162,-0.23,9.87,-0.21,-0.4688888888888889,-0.6055555555555555,-0.13777777777777778,-0.1341721862470641,0.042542400517361786,-0.09926560120717749
1592260557.7809162,-0.30045917466297756,9.90977041266851,-0.19471301583563902,-0.4688888888888889,-0.6055555555555555,-0.13777777777777778,-0.11128943072155968,0.1473748540548282,-0.05059214989864413
1592260557.7909162,-0.3691592669563574,9.818713395050066,-0.03005101076894011,-0.4688888888888889,-0.6055555555555555,-0.13777777777777778,-0.17164952949228995,0.1570907615028894,-0.044518384938781776
1592260557.8009162,-0.28127216750985723,9.737997947536144,0.211824712384999,-0.4688888888888889,-0.6055555555555555,-0.13777777777777778,-0.13651196456178025,0.08178960554940287,-0.03313788098283442
1592260557.8109162,-0.278898781438477,9.657900135395725,0.47259918762565134,-0.4688888888888889,-0.6055555555555555,-0.13801109606714168,-0.10738191392671897,-0.024063933833225987,0.07361650983673987
1592260557.8209162,-0.44,9.64,0.58,-0.4688888888888889,-0.6055555555555555,-0.14,-0.0370882466048795,0.0032724923474893677,-0.1636246173744684
1592260557.8309162,-0.2843009602467785,9.61,0.6248696452559829,-0.4688888888888889,-0.6055555555555555,-0.14,0.035516612304688826,0.048330007055728846,-0.18003098587857227
1592260557.8409162,-0.32254510921177587,9.613727445394112,0.5325451092117759,-0.4688888888888889,-0.6055555555555555,-0.14,0.04320901932888739,0.0582905577400694,-0.04716366938793794
1592260557.8509161,-0.3184537186632055,9.625635812442136,0.531271624884274,-0.4688888888888889,-0.6055555555555555,-0.14,0.08852927343823308,0.03564450522268345,-0.03282589368855479
1592260557.8609161,-0.34076084175514904,9.643043367020598,0.5569566329794039,-0.46838166105212287,-0.6059782454195272,-0.14092991770073773,0.00016598992142503958,-0.06808217219804397,0.008869122686852662
1592260557.8709161,-0.3435689829297731,9.702508559745795,0.45247432076261795,-0.4622222222222222,-0.6111111111111112,-0.15222222222222223,0.014808934054327457,0.002663032934020773,-0.059139945598801064
1592260557.880916,-0.34068857164064625,9.75,0.24230571294257366,-0.4622222222222222,-0.6111111111111112,-0.15222222222222223,0.017355428937358443,0.043097788493763105,-0.03078511396824133
1592260557.890916,-0.36,9.75,0.12,-0.4622222222222222,-0.6111111111111112,-0.15222222222222223,-0.02617993877991494,-0.022907446432425576,0.03381575425739013
1592260557.900916,-0.34179851444501724,9.732050371388747,0.16435259972121977,-0.4622222222222222,-0.6111111111111112,-0.15222222222222223,-0.03148122933075163,0.020066424930622072,-0.018226065865141992
1592260557.910916,-0.30988009128534405,9.740119908714655,0.22107917843190344,-0.46230216136532615,-0.6111910502542152,-0.15214228307911828,-0.14289613211752272,-0.08226740870734817,0.13328793526231267
1592260557.920916,-0.3,9.75,0.31,-0.4688888888888889,-0.6177777777777778,-0.14555555555555555,0.0370882466048795,0.05999569303730508,-0.02945243112740431
1592260557.930916,-0.2549297472870888,9.757675631782279,0.29781613720810063,-0.4688888888888889,-0.6177777777777778,-0.14555555555555555,0.00717469729020418,0.004409303423064306,0.0189426191757866
1592260557.940916,-0.29629427476483566,9.72,0.2457765648589014,-0.4688888888888889,-0.6177777777777778,-0.14555555555555555,-0.002303526529893806,0.001429671123574324,-0.035563465070029096
1592260557.950916,-0.36098383820542257,9.721803232358916,0.2972129294356619,-0.4688888888888889,-0.6177777777777778,-0.14555555555555555,0.03676597802467928,0.03134770023896567,0.02491096048501078
1592260557.960916,-0.32394153492890576,9.72921169301422,0.3268467720568754,-0.4688888888888889,-0.6177777777777778,-0.14555555555555555,0.09818444272094197,0.07498713568104706,-0.08337949042682083
1592260557.970916,-0.3402097116146006,9.7697902883854,0.22368285269100105,-0.47444444444444445,-0.6177777777777778,-0.14555555555555555,0.07876857622439823,-0.02224122854666884,0.08814859526576299
1592260557.980916,-0.32,9.79,0.19,-0.47444444444444445,-0.6177777777777778,-0.14555555555555555,0.056723200689815706,-0.016362461737446838,0.038179077387375956
1592260557.990916,-0.32123723723723724,9.804381381381383,-0.029046546546546547,-0.47444444444444445,-0.6177777777777778,-0.14555555555555555,0.0019253327099468254,0.010211224369963823,-0.03292179713864154
1592260558.000916,-0.2956340516336668,9.816243965577556,0.017512068844889105,-0.47444444444444445,-0.6177777777777778,-0.14555555555555555,0.0981991734991023,-0.01456945586124307,-0.01991687732782027
1592260558.010916,-0.31764290211991886,9.801571398586722,0.046857202826558454,-0.47444444444444445,-0.6177777777777778,-0.14555555555555555,-0.008235989917659337,0.03504693610747288,-0.042324280152401667
1592260558.020916,-0.29,9.774599956765066,0.24540004323493383,-0.4688888888888889,-0.6177777777777778,-0.15222222222222223,-0.05691939459607597,0.04223705278985683,0.06540679852724654
1592260558.030916,-0.29533878720650764,9.749322425586985,0.24131424477722316,-0.4688888888888889,-0.6177777777777778,-0.15222222222222223,-0.009604665213436973,0.051685746556282094,0.2064001983488946
1592260558.040916,-0.31232720152991533,9.717672798470085,0.20396320917949184,-0.4688888888888889,-0.6177777777777778,-0.15222222222222223,-0.01536709479084685,0.015663817452473014,0.02588321611828878
1592260558.050916,-0.32144556122717466,9.711445561227176,0.2630100510445719,-0.4688888888888889,-0.6177777777777778,-0.15222222222222223,0.006467146114698507,0.06207356982859102,-0.06285999206298566
1592260558.060916,-0.32880282060727256,9.718802820607273,0.3292253854654529,-0.4688888888888889,-0.6177777777777778,-0.15222222222222223,-0.027240058913112042,0.017130629791510282,-0.08854167208417464
1592260558.070916,-0.37251730740904404,9.724965385181912,0.36006922963617616,-0.45444444444444443,-0.6111111111111112,-0.15222222222222223,0.03861772343778328,0.010306254070064835,0.11392280633913975
