time,acc_x,acc_y,acc_z,mag_x,mag_y,mag_z,gyr_x,gyr_y,gyr_z
1592228733.588417,-9.604117689271618,-0.4841176892716182,1.7282353785432365,0.4088888888888889,-0.23222222222222222,-0.12777777777777777,0.004587908240497652,0.0013475106630709717,-0.0019570764544810833
1592228733.598417,-9.62657889787474,-0.5016447244686854,1.7583552755313148,0.4088888888888889,-0.23222222222222222,-0.12777777777777777,0.0056335655203989905,0.007621454342479,-0.001090830782496456
1592228733.608417,-9.658132781643785,-0.509533195410946,1.750466804589054,0.4088888888888889,-0.23222222222222222,-0.12777777777777777,0.006494064213463667,0.01278444650086706,-0.001090830782496456
1592228733.618417,-9.691933588932983,-0.4738671778659671,1.6619335889329836,0.4011111111111111,-0.24,-0.11333333333333333,0.004363323129985824,0.006617427931178697,0.0
1592228733.628417,-9.70412976764577,-0.49137658921525645,1.6603638754932046,0.4011111111111111,-0.24,-0.11333333333333333,0.004513485719071263,-0.004734425579445381,-0.00015016258908543935
1592228733.638417,-9.724385197562414,-0.5,1.6089836839001377,0.4011111111111111,-0.24,-0.11333333333333333,0.005576649899213379,-0.022930712628592444,-0.001335822755958654
1592228733.648417,-9.675472447073474,-0.4988681117683686,1.6924507705479452,0.4011111111111111,-0.24,-0.11333333333333333,0.006544984694978735,-0.04184237718285966,-0.003395962200030267
1592228733.658417,-9.64282689912827,-0.4907067247820672,1.7822260273972603,0.4011111111111111,-0.24,-0.11333333333333333,0.006544984694978735,-0.05252560776588787,-0.004286231415282619
1592228733.668417,-9.57,-0.5,1.92,0.41555555555555557,-0.23222222222222222,-0.10444444444444445,0.009817477042468103,-0.061086523819801536,-0.0032724923474893677
1592228733.678417,-9.518698393634589,-0.4706941900615523,1.980173547515388,0.41555555555555557,-0.23222222222222222,-0.10444444444444445,0.010927238922165669,-0.05760578940309996,-0.004372788678586379
1592228733.688417,-9.37,-0.55,2.0,0.41555555555555557,-0.23222222222222222,-0.10444444444444445,0.01308996938995747,-0.03381575425739013,-0.00545415391248228
1592228733.698417,-9.278493213806971,-0.7487269604557641,2.271353049597855,0.41555555555555557,-0.23222222222222222,-0.10444444444444445,0.019592686219914036,0.007260796701002822,-0.005348826962345956
1592228733.708417,-9.638677320710455,-0.35340294068364614,1.656404574396783,0.41555555555555557,-0.23222222222222222,-0.10444444444444445,0.07421535679808479,0.07146639194201056,-0.017806629024034022
1592228733.718417,-9.73,-0.59,1.68,0.41555555555555557,-0.23222222222222222,-0.12,0.09053895494720585,0.08835729338221293,-0.014180800172453926
1592228733.728417,-9.782727035898503,-0.4720452769238785,1.5031824102537383,0.41555555555555557,-0.23222222222222222,-0.12,0.08672090512140754,0.09507599371761788,-0.01854412330243975
1592228733.738417,-9.82,-0.5,1.41,0.41555555555555557,-0.23222222222222222,-0.12,0.1090830782496456,0.06763150851478027,-0.01854412330243975
1592228733.748417,-9.77064657729268,-0.5,1.479094791790248,0.41555555555555557,-0.23222222222222222,-0.12,0.10585290428700334,0.0320995949257155,-0.019620847956653836
1592228733.758417,-9.647541818511058,-0.4717404196563978,1.7437560832069536,0.41555555555555557,-0.23222222222222222,-0.12,0.10889322791607953,-0.006385158812656826,-0.020662501422910644
1592228733.768417,-9.55,-0.37,1.82,0.38222222222222224,-0.24444444444444444,-0.11333333333333333,0.10362892433716332,-0.03490658503988659,-0.01854412330243975
1592228733.7784169,-9.491925032517441,-0.39903748374127945,2.032941547436049,0.38222222222222224,-0.24444444444444444,-0.11333333333333333,0.09095893189267214,-0.043353246669547374,-0.015376625191316958
1592228733.7884169,-9.371424042397141,-0.45427212719142596,2.054272127191426,0.38222222222222224,-0.24444444444444444,-0.11333333333333333,0.05174543841653428,-0.017477500513744172,-0.009196121329515097
1592228733.7984169,-9.38,-0.48,2.08,0.38222222222222224,-0.24444444444444444,-0.11333333333333333,0.03490658503988659,0.028361600344907853,-0.00545415391248228
1592228733.8084168,-9.467890545231775,-0.5151562180927098,2.000898509291403,0.38222222222222224,-0.24444444444444444,-0.11333333333333333,0.024360476694672745,0.08205087919326925,-0.0016192054233136076
1592228733.8184168,-9.58,-0.47,1.8,0.4088888888888889,-0.24,-0.11888888888888889,0.019634954084936207,0.14508049407202864,0.001090830782496456
1592228733.8284168,-9.800152708567754,-0.49954187429673685,1.438778331457965,0.4088888888888889,-0.24,-0.11888888888888889,0.016345803816801095,0.17550715053740923,0.0032641633871664964
1592228733.8384168,-9.82,-0.44,1.28,0.4088888888888889,-0.24,-0.11888888888888889,0.014180800172453926,0.16035212502697901,0.002181661564992912
1592228733.8484168,-9.875723557692309,-0.4957235576923077,1.326436298076923,0.4088888888888889,-0.24,-0.11888888888888889,0.008102302968355287,0.11881572746563832,0.0031947444323426853
1592228733.8584168,-9.798472641977536,-0.4365898326491948,1.3481171906716587,0.4088888888888889,-0.24,-0.11888888888888889,0.010600233869025621,0.06720922921596731,-0.0016682049717613493
1592228733.8684168,-9.66,-0.44,1.65,0.4011111111111111,-0.24444444444444444,-0.10666666666666667,0.002181661564992912,0.008726646259971648,-0.001090830782496456
1592228733.8784168,-9.620407059945936,-0.4795929400540626,1.768778820162188,0.4011111111111111,-0.24444444444444444,-0.10666666666666667,0.009739771176581887,-0.029063901797973225,-0.0032502906715218775
1592228733.8884168,-9.53,-0.44,1.7,0.4011111111111111,-0.24444444444444444,-0.10666666666666667,0.00545415391248228,-0.032724923474893676,-0.0032724923474893677
1592228733.8984168,-9.656618852459017,-0.09910308953341745,1.865578499369483,0.4011111111111111,-0.24444444444444444,-0.10666666666666667,0.0022667752530975377,-0.0242252470498677,-0.0022100327943611205
1592228733.9084167,-9.568879618593565,0.7847556615017878,1.7697675804529203,0.4011111111111111,-0.24444444444444444,-0.10666666666666667,0.006157538243031245,-0.005112862994239943,-0.00019372322597374474
1592228733.9184167,-9.64,0.38,1.7,0.4211111111111111,-0.24444444444444444,-0.12777777777777777,0.015271630954950384,0.02617993877991494,0.014180800172453926
1592228733.9284167,-9.66999285232101,0.040081007028551,1.6700071476789897,0.4211111111111111,-0.24444444444444444,-0.12777777777777777,-0.0185360664972321,0.052353640033217505,0.021814796371333843
1592228733.9384167,-9.67,-0.44,1.57,0.4211111111111111,-0.24444444444444444,-0.12777777777777777,-0.02617993877991494,0.05017821599483697,0.02181661564992912
1592228733.9484167,-9.704547284512259,-0.43136317887193526,1.5440895366158058,0.4211111111111111,-0.24444444444444444,-0.12777777777777777,-0.028064200849796696,0.034161988400842044,0.011453174265579461
1592228733.9584167,-9.727868662526648,-0.3763940124200575,1.5489343312633237,0.4211111111111111,-0.24444444444444444,-0.12777777777777777,-0.023488678563380855,0.012142405566289219,0.003969970904635701
1592228733.9684167,-9.69,-0.09,1.55,0.41555555555555557,-0.24,-0.11888888888888889,-0.031634092692397225,-0.031634092692397225,0.0032724923474893677
1592228733.9784167,-9.74338909090909,-0.10779636363636363,1.5144072727272728,0.41555555555555557,-0.24,-0.11888888888888889,-0.031634092692397225,-0.031634092692397225,0.0032724923474893677
1592228733.9884167,-9.740647492308794,-0.24093510767689774,1.481942476926379,0.41555555555555557,-0.24,-0.11888888888888889,-0.04387649663212134,-0.04387649663212134,0.005312893004110055
1592228733.9984167,-9.73022720478326,-0.20113602391629298,1.5093183856502241,0.41555555555555557,-0.24,-0.11888888888888889,-0.04365801549700913,-0.08310173915479502,0.00971834025386454
1592228734.0084167,-9.563087770954807,-0.10462158340274684,1.6292230207465663,0.41555555555555557,-0.24,-0.11888888888888889,-0.03756413138593838,-0.08832904161931272,0.008950462769050982
1592228734.0184166,-9.55,-0.08,1.92,0.4088888888888889,-0.25222222222222224,-0.10444444444444445,-0.04799655442984406,-0.074176493209759,0.0032724923474893677
1592228734.0284166,-9.494183246073298,0.03960732984293194,1.9279738219895288,0.4088888888888889,-0.25222222222222224,-0.10444444444444445,-0.048866363477876575,-0.059389739393206256,0.0050121104435543965
1592228734.0384166,-9.51,-0.1,1.94,0.4088888888888889,-0.25222222222222224,-0.10444444444444445,-0.04363323129985824,-0.02399827721492203,0.00545415391248228
1592228734.0484166,-9.83416351188079,-0.25770116794200565,1.7122094240837695,0.4088888888888889,-0.25222222222222224,-0.10444444444444445,-0.061791456189352,-0.010618532559505574,0.00545415391248228
1592228734.0584166,-9.601632945389436,-0.13308405451109123,1.749591763652641,0.4088888888888889,-0.25222222222222224,-0.10444444444444445,-0.06520249214507444,-0.01716140603780707,0.007141105868049365
1592228734.0684166,-9.734652143359101,-0.3631936370024915,1.7895138312144636,0.3893750576744252,-0.24463351008326412,-0.10444444444444445,-0.0590639606178342,-0.0249565260282305,0.006571501088816332
1592228734.0784166,-9.702606011077817,-0.30456051938617995,1.72456051938618,0.3888888888888889,-0.24444444444444444,-0.10444444444444445,-0.03850960515648434,-0.036306499401496835,0.0034856961302300944
1592228734.0884166,-9.690728912089215,-0.2629156483568632,1.7292710879107842,0.3888888888888889,-0.24444444444444444,-0.10444444444444445,-0.03000901494865959,-0.05124670991731932,0.008329086387646447
1592228734.0984166,-9.597027195101534,-0.11124351216245307,1.7207027195101532,0.3888888888888889,-0.24444444444444444,-0.10444444444444445,-0.01626814345002727,-0.05844493341092698,0.010754998210337346
1592228734.1084166,-9.636277510826362,-0.06914832611575804,1.6814354076446976,0.3888888888888889,-0.24444444444444444,-0.10444444444444445,-0.011064886509391242,-0.06984239781326239,-0.0008705766226010363
1592228734.1184165,-9.623364412228911,-0.13102823405623432,1.6788785292570292,0.4174974831615388,-0.2276738891811669,-0.1123364704506927,-0.006911985137409223,-0.09051861385761582,-0.007268815035044705
1592228734.1284165,-9.62,-0.2993608856088561,1.7081225092250922,0.4211111111111111,-0.22555555555555556,-0.11333333333333333,-0.009612674569355854,-0.10703650259262532,-0.018884011683524625
1592228734.1384165,-9.895903361344539,-0.7435624249699879,1.6114630852340937,0.4211111111111111,-0.22555555555555556,-0.11333333333333333,-0.001218509055357685,-0.11981582844942597,-0.017485212088158602
1592228734.1484165,-9.465680138894497,-0.3735894537085638,1.7330572939798927,0.4211111111111111,-0.22555555555555556,-0.11333333333333333,0.016280716595430712,-0.13262523871310264,-0.00639867146126237
1592228734.1584165,-9.918251445086705,-0.60253612716763,1.8513367052023122,0.4211111111111111,-0.22555555555555556,-0.11333333333333333,0.02463669696479351,-0.13744467859455345,-0.02812041955051196
1592228734.1684165,-9.62,-0.38,1.78,0.41555555555555557,-0.23222222222222222,-0.09888888888888889,0.0370882466048795,-0.1461713248545251,-0.004363323129985824
1592228734.1784165,-9.459169025939245,-0.3317507077817737,1.9649556201698675,0.41555555555555557,-0.23222222222222222,-0.09888888888888889,0.0458602154690975,-0.1470485217409469,-0.006994913789251224
1592228734.1884165,-9.662705333603732,-0.3480044615696613,1.879312512674914,0.41555555555555557,-0.23222222222222222,-0.09888888888888889,0.05817926400565259,-0.15540832329766835,-0.019855066968445433
1592228734.1984165,-9.34146465129628,-0.19953984502056826,1.9170187984310723,0.41555555555555557,-0.23222222222222222,-0.09888888888888889,0.07224014595280719,-0.15598880189699318,-0.016622620652663872
1592228734.2084165,-9.603275157075895,-0.3867188590804827,1.975081280542535,0.41555555555555557,-0.23222222222222222,-0.09888888888888889,0.07823575011484431,-0.14654697446975998,-0.018937505581237715
1592228734.2184165,-9.592334529952883,-0.299735247924613,1.9461672649764414,0.4097111908857478,-0.22637785755241444,-0.10375919278039539,0.09397487611565371,-0.14685850908821466,-0.019634954084936207
1592228734.2284164,-9.35158292023434,-0.110802163136548,1.8723208652546193,0.4088888888888889,-0.22555555555555556,-0.10444444444444445,0.09876160199142513,-0.14726215563702155,-0.025171940348410218
1592228734.2384164,-9.830940072755121,-0.3152632586636033,1.8431954815240283,0.4088888888888889,-0.22555555555555556,-0.10444444444444445,0.10109868981103953,-0.14084634552350445,-0.034428837497294085
1592228734.2484164,-9.829320824249974,-0.38745795702273433,1.8308473476590885,0.4088888888888889,-0.22555555555555556,-0.10444444444444445,0.10544086073815218,-0.14961033507450083,-0.013034227517987797
1592228734.2584164,-9.93373206304399,-0.47340351289892574,1.8679106876813298,0.4088888888888889,-0.22555555555555556,-0.10444444444444445,0.1099460004129966,-0.1588054770061917,-0.024968717161821863
1592228734.2684164,-9.326112235343864,-0.24959920263372493,2.0230861699235856,0.41485081263570495,-0.23151747930237163,-0.1382286790097355,0.11711784476596973,-0.1672960607608067,-0.02359932617607309
1592228734.2784164,-9.444160620675195,-0.34135038792199623,2.0885401551687988,0.41555555555555557,-0.23222222222222222,-0.14222222222222222,0.11648599712348524,-0.16335489465299222,-0.026878628590821563
1592228734.2884164,-9.552295313689248,-0.3403289116016092,2.0668859410677394,0.41555555555555557,-0.23222222222222222,-0.14222222222222222,0.13880344313128057,-0.15552392082142563,-0.03428063533295769
1592228734.2984164,-9.396559867917306,-0.36610356049004594,2.1051294506125573,0.41555555555555557,-0.23222222222222222,-0.14222222222222222,0.13491599857499292,-0.13717567730137753,-0.038844872553913085
1592228734.3084164,-9.562087865857324,-0.33965202235711284,2.19345693851794,0.41555555555555557,-0.23222222222222222,-0.14222222222222222,0.13334457354207968,-0.11540031210993518,-0.034304231939966075
1592228734.3184164,-9.57545324512784,-0.2587251922045414,2.130906490255677,0.42050519498579575,-0.21935315970359773,-0.11648409718497327,0.13308135546456762,-0.08478659251220666,-0.02786562632740589
1592228734.3284163,-9.464819585500784,-0.2960164313434068,1.9950982577821814,0.4211111111111111,-0.21777777777777776,-0.11333333333333333,0.1266275660604218,-0.07177308072522962,-0.021534067869837352
1592228734.3384163,-9.730724499523356,-0.5926158245948523,1.9219818875119161,0.4211111111111111,-0.21777777777777776,-0.11333333333333333,0.11014427254281778,-0.07091387969204438,-0.028165167613913022
1592228734.3484163,-9.522015415358265,-0.7210876391664287,1.8938195832143876,0.4211111111111111,-0.21777777777777776,-0.11333333333333333,0.1078533635022638,-0.08627403390893251,-0.03339910236273405
1592228734.3584163,-9.648753541076488,-0.7813597733711048,2.080764872521246,0.4211111111111111,-0.21777777777777776,-0.11333333333333333,0.11359472964467343,-0.09315942096294803,-0.03461610885417932
1592228734.3684163,-9.263289865521458,-0.6391843515877245,2.418026080687126,0.42706724623749165,-0.22472660209188844,-0.13219442790020516,0.14583974320824855,-0.10074970006369958,-0.02711002239120937
1592228734.3784163,-9.592555275788811,-0.315252576913998,1.8145692029270597,0.42777777777777776,-0.22555555555555556,-0.13444444444444445,0.1621750973292406,-0.08517951594293702,-0.0297164054819222
1592228734.3884163,-9.587753684697894,-0.3113071996296011,1.8180839570954548,0.42777777777777776,-0.22555555555555556,-0.13444444444444445,0.11999551067591752,-0.08747134585649527,-0.0251513978947136
1592228734.3984163,-9.880879860960244,-0.26163371714099504,2.1325135781012383,0.42777777777777776,-0.22555555555555556,-0.13444444444444445,0.10461595675278308,-0.07710038419269216,-0.0230484510632284
1592228734.4084163,-9.64051882575893,-0.12661458147101942,2.132035255837237,0.42777777777777776,-0.22555555555555556,-0.13444444444444445,0.10207593265282539,-0.06802002946534512,-0.021872118642866957
1592228734.4184163,-9.558052660119298,-0.0720871241790685,2.2623829607760437,0.42777777777777776,-0.21552268482255832,-0.1289719694991732,0.08692495770450338,-0.04387792389510041,-0.021621216486444033
1592228734.4284163,-9.559244672678014,-0.050523634305123126,2.192849864542477,0.42777777777777776,-0.21333333333333335,-0.12777777777777777,0.08891534566720524,-0.03666970739113526,-0.019355927942440045
1592228734.4384162,-9.716043604333079,-0.3865163037531459,2.0332872852609696,0.42777777777777776,-0.21333333333333335,-0.12777777777777777,0.07040579233987766,-0.017079636128149316,-0.017453292519943295
1592228734.4484162,-9.478277775606706,-0.20600453319785844,1.9257290241900817,0.42777777777777776,-0.21333333333333335,-0.12777777777777777,0.07258971786813309,-0.00873666405018958,-0.01140425238409402
1592228734.4584162,-9.493405894380306,-0.12354881348231064,1.9698570808979947,0.42777777777777776,-0.21333333333333335,-0.12777777777777777,0.06299835576662885,0.008022930976259484,-0.01273811174810139
1592228734.4684162,-9.786449387887762,-0.0074757141309450825,1.9443920407352568,0.421983356004157,-0.20077875282382163,-0.10556582764556474,0.04980098889674785,0.014323520909335393,0.0016516291292379796
1592228734.4784162,-10.098569289012772,-0.2936622706660565,2.074284644506386,0.4211111111111111,-0.1988888888888889,-0.10222222222222223,0.011450614595810864,0.023761069056661477,-0.004532640833921184
1592228734.4884162,-9.345700545289306,0.061256437443199085,1.6687056952438657,0.4211111111111111,-0.1988888888888889,-0.10222222222222223,-0.008183296210253443,-0.006881057068743923,0.01652430189973937
1592228734.4984162,-9.441522453889334,-0.27712389735364884,1.9343231756214916,0.4211111111111111,-0.1988888888888889,-0.10222222222222223,-0.02991513757680407,-0.01538508785349873,0.012784458042093088
1592228734.5084162,-9.76983992731835,-0.69990395639101,2.2899039563910097,0.4211111111111111,-0.1988888888888889,-0.10222222222222223,-0.04799655442984406,-0.022896969699910737,-0.0018064104902553845
1592228734.5184162,-9.66832986707659,-0.3149027941043494,1.9448159869789312,0.4211111111111111,-0.19977584873054627,-0.11375270016376807,-0.04712578364153783,-0.03575841745128359,0.01109049106533629
1592228734.5284162,-9.624637825360185,-0.4137626363129826,2.080573509512059,0.4211111111111111,-0.2,-0.11666666666666667,-0.05860417396381243,-0.031160007197497064,0.005912870701778528
1592228734.5384161,-8.847031648733262,-0.08000026308173935,1.8975001973113046,0.4211111111111111,-0.2,-0.11666666666666667,-0.048729466675093515,-0.012919533357828706,0.01694195572579103
1592228734.5484161,-8.949557954628347,-0.0082473800666229,1.9331368687237094,0.4211111111111111,-0.2,-0.11666666666666667,-0.07086381780404798,0.01741310946172164,0.012739753481865871
1592228734.5584161,-9.43347902159079,-0.311141827343668,2.1893844700283442,0.4211111111111111,-0.2,-0.11666666666666667,-0.06962147213423316,0.02435102128396531,0.008502349739065003
1592228734.568416,-9.0352795980036,-0.35372967100125624,2.1890021390011203,0.4103334125555971,-0.21273728011106208,-0.11176771277779664,-0.04088646953864318,-0.013258262435679933,-0.005126826901457811
1592228734.578416,-8.985833333333334,-0.23958333333333331,1.9875,0.4088888888888889,-0.21444444444444444,-0.1111111111111111,-0.03758821071352371,-0.010862856542360539,0.004681482108213957
1592228734.588416,-9.642896710905942,-0.7648845931909982,2.3547634160415463,0.4088888888888889,-0.21444444444444444,-0.1111111111111111,-0.026600409041142657,0.005250527970106282,0.0010710032177828743
1592228734.598416,-9.710783091613727,-0.7020556154860362,2.2770066722601783,0.4088888888888889,-0.21444444444444444,-0.1111111111111111,-0.01265667043116648,-0.0004653322252073464,-0.002721738078505081
1592228734.608416,-9.28464858254586,-0.5356124513618677,2.2589658699277377,0.4088888888888889,-0.21444444444444444,-0.1111111111111111,0.0017523387038262687,-0.001618722544164836,0.0009922618819947194
1592228734.618416,-9.87887351778656,-0.4225517321553127,2.222551732155313,0.43434227182309026,-0.20935376785760418,-0.10432354232865743,0.03409201266934881,-0.006980898530695031,-0.006723027756897478
1592228734.628416,-9.781581001951855,-0.29116501301236175,2.205381424853611,0.44222222222222224,-0.20777777777777778,-0.10222222222222223,0.04178744199759561,-0.00612589843794285,-0.007048793089074162
1592228734.638416,-9.365550631872642,-0.17759177197877346,2.110939876360851,0.44222222222222224,-0.20777777777777778,-0.10222222222222223,0.050035648308454556,-0.009372169350636571,-0.01403823248607152
1592228734.648416,-9.354240419423293,-0.12848083884658595,2.117225897723963,0.44222222222222224,-0.20777777777777778,-0.10222222222222223,0.0642221233266131,-0.016682362513672656,-0.01792161491056446
1592228734.658416,-9.030122801762868,0.01850840785588978,2.0954524838475033,0.44222222222222224,-0.20777777777777778,-0.10222222222222223,0.06668205492796143,-0.01170844954351904,-0.012615242596548056
1592228734.668416,-9.523039341321201,-0.23023707310822067,2.0700237073108223,0.42637637669706613,-0.2019398346895624,-0.12390601083559372,0.06217994066873948,0.005461912111806757,-0.013639263880867938
1592228734.678416,-9.51844330191374,-0.2632047986289632,1.9909397315052841,0.4211111111111111,-0.2,-0.13111111111111112,0.05792495285436551,0.010183891495543176,-0.016243127778664736
1592228734.688416,-9.29623426183121,-0.20943744970275954,1.7107346642091326,0.4211111111111111,-0.2,-0.13111111111111112,0.04003010007444699,0.017618611958904233,-0.0005948724656136377
1592228734.698416,-9.40986474589836,-0.3801936774709884,1.8688011204481791,0.4211111111111111,-0.2,-0.13111111111111112,0.030030540886643326,0.022192186200253226,-8.651567070460005e-05
1592228734.708416,-9.828611230758767,-0.3635023010133527,2.0282970234181947,0.4211111111111111,-0.2,-0.13111111111111112,0.02733269153832152,0.017590960107759436,-0.007405264925793877
1592228734.718416,-9.645771513353116,-0.3483602115856018,1.981262095213521,0.42638978483063117,-0.2,-0.11879420576556429,0.010904789469970054,-0.019094816226179735,0.007274550786639379
1592228734.728416,-9.545052518926632,-0.3603151135597923,2.0098949621467357,0.42777777777777776,-0.2,-0.11555555555555555,0.006533526842611953,-0.03428669360825427,-0.0009647944064618448
1592228734.738416,-9.604281625363896,-0.34428480563642144,2.0771392225456857,0.42777777777777776,-0.2,-0.11555555555555555,0.00374023904992834,-0.0656041435856558,-0.0037405859638450275
1592228734.748416,-9.469901245453544,-0.2899629670450788,1.8998765568169294,0.42777777777777776,-0.2,-0.11555555555555555,0.014552040918645107,-0.0912760502146289,0.005093685616209727
1592228734.758416,-9.649400394477318,-0.2758816568047337,1.7576489151873766,0.42777777777777776,-0.2,-0.11555555555555555,0.02245820487939745,-0.09175844782199676,-0.014885644678067026
1592228734.768416,-9.33330879695048,-0.31376918274128357,1.7556537741119254,0.4323995633108051,-0.19273719416238558,-0.11621581063170232,0.025942888930595202,-0.053322809678728454,-0.015460467883154892
1592228734.778416,-9.29665938036714,-0.4488209577766378,2.057248901478822,0.43555555555555553,-0.18777777777777777,-0.11666666666666667,-0.005852695348863787,-0.012912134264285162,0.0006986397316397128
1592228734.788416,-9.842906072981162,-0.17930970886576209,2.108532472664998,0.43555555555555553,-0.18777777777777777,-0.11666666666666667,-0.00602234583897299,-0.0009699786302003791,-0.01163342073874102
1592228734.798416,-9.952986213879585,-0.11052067918062153,2.1035812758002956,0.43555555555555553,-0.18777777777777777,-0.11666666666666667,-8.113898257528819e-06,-0.009157872339616539,-0.012324884009758032
1592228734.808416,-9.475733826247689,-0.055160813308687606,2.0238706099815156,0.43555555555555553,-0.18777777777777777,-0.11666666666666667,0.003131752996993522,-0.021366975604648696,0.004902891184322333
1592228734.8184159,-9.551395601117349,-0.12179182599734222,2.0639503159493398,0.4506314466773339,-0.18777777777777777,-0.11666666666666667,-0.004081422375330419,0.012622284530019675,0.0016578568885390783
1592228734.8284159,-9.717011885330697,-0.12126485666337156,2.1185059426653483,0.4622222222222222,-0.18777777777777777,-0.11666666666666667,-0.006590976181107117,0.055053463987322686,0.00429433590079325
1592228734.8384159,-9.69067356510807,0.0706735651080702,1.981658043614912,0.4622222222222222,-0.18777777777777777,-0.11666666666666667,-0.011175833270002131,0.09377753190408811,0.027611769562838825
1592228734.8484159,-9.651508621709203,0.049206897367362876,1.9435977008775456,0.4622222222222222,-0.18777777777777777,-0.11666666666666667,-0.023888567148285918,0.09260244339244489,0.04248754548404372
1592228734.8584158,-9.614469481513892,-0.02936337781667031,1.96,0.4622222222222222,-0.18777777777777777,-0.11666666666666667,-0.033166171804982485,0.05507394854852649,0.03831796680225519
1592228734.8684158,-9.543989377397462,-0.14534277564670012,1.9386643060883249,0.4622222222222222,-0.18007322164300624,-0.11666666666666667,-0.04574300768492859,0.006178799442626972,0.029888570316038924
1592228734.8784158,-9.468545972366549,-0.24905630604626103,1.9302551668398569,0.4622222222222222,-0.17333333333333334,-0.11666666666666667,-0.05329209853220928,-0.014367244366929805,0.026497158400149066
1592228734.8884158,-9.503935313178156,-0.3536118790689379,1.901159071316032,0.4622222222222222,-0.17333333333333334,-0.11666666666666667,-0.06442957854377987,-0.023210287440711623,0.007529971912741747
1592228734.8984158,-9.469797635662097,-0.3052889746326246,1.8664740169115837,0.4622222222222222,-0.17333333333333334,-0.11666666666666667,-0.07081888185243769,-0.028062094265599143,-0.004899290803677746
1592228734.9084158,-9.59603113966545,-0.2727776813104127,1.9755553626208253,0.4622222222222222,-0.17333333333333334,-0.11666666666666667,-0.08759541023974694,-0.02829233824104731,-0.029919902975155878
1592228734.9184158,-9.863092498849516,-0.31945499967129054,2.1114574978633884,0.4585452779056092,-0.1770102776499463,-0.12034361098327964,-0.10757609527263023,-0.03564071394136685,-0.03159400496592194
1592228734.9284158,-9.651182814478453,-0.23952102344671006,2.010351918962581,0.45444444444444443,-0.1811111111111111,-0.12444444444444444,-0.11501120511466743,-0.06289870890593943,0.007175702358045117
1592228734.9384158,-9.528765900254404,-0.25992463879422073,1.9276071617145873,0.45444444444444443,-0.1811111111111111,-0.12444444444444444,-0.12953962431884483,-0.06930757501253439,0.02483631046379909
1592228734.9484158,-9.514414193783706,-0.33418570721413127,1.9758142927858686,0.45444444444444443,-0.1811111111111111,-0.12444444444444444,-0.13401945913805394,-0.08645616201689234,0.031507881101196254
1592228734.9584157,-9.40309450030987,-0.3920787269346874,2.0679448631574737,0.45444444444444443,-0.1811111111111111,-0.12444444444444444,-0.13778480949386768,-0.09738370493948365,0.03249816954201752
1592228734.9684157,-9.705237712243074,-0.5507390527256479,2.2348328865058087,0.4650485552576705,-0.17698729023930096,-0.1344594379902691,-0.13742995871536157,-0.08070675802554587,0.025023209730307888
1592228734.9784157,-9.775249376558603,-0.6337243429886822,2.429237483215039,0.47444444444444445,-0.17333333333333334,-0.14333333333333334,-0.12529519241041417,-0.06309544784193029,0.028790253108756693
1592228734.9884157,-9.663458836530113,-0.5965411634698872,2.440355987055016,0.47444444444444445,-0.17333333333333334,-0.14333333333333334,-0.12215307189238235,-0.05797271811941462,0.028936419691655536
1592228734.9984157,-9.60892348049891,-0.36484928726984756,2.2306028509206097,0.47444444444444445,-0.17333333333333334,-0.14333333333333334,-0.1117937149973503,-0.05561827830000231,0.023497485246844134
1592228735.0084157,-9.78501682717748,-0.33,2.3792394962429886,0.47444444444444445,-0.17333333333333334,-0.14333333333333334,-0.10295288400884295,-0.051855941213999265,0.028776390799083933
1592228735.0184157,-9.459760407704017,-0.12767423390032434,2.357190416308161,0.4598624072480714,-0.17333333333333334,-0.13968782403424007,-0.09410146432118859,-0.06081296780452064,0.019328476047230373
1592228735.0284157,-8.96633324187669,-0.01628816681691686,2.34746874142594,0.4477777777777778,-0.17333333333333334,-0.13666666666666666,-0.08760697043304858,-0.07168651898954789,0.016997643100076374
1592228735.0384157,-9.71138306699858,-0.23855322679943253,2.219681468990069,0.4477777777777778,-0.17333333333333334,-0.13666666666666666,-0.06153913143669379,-0.08212099636711194,0.017137655571449313
1592228735.0484157,-9.672963472281907,-0.23929265148259563,2.0924572410829394,0.4477777777777778,-0.17333333333333334,-0.13666666666666666,-0.05555521015364546,-0.07894755360429809,0.015356103540685605
1592228735.0584157,-9.528853118712274,-0.43148893360160967,2.310201207243461,0.4477777777777778,-0.17333333333333334,-0.13666666666666666,-0.06713767164141668,-0.06225856333258444,0.00846107176362945
1592228735.0684156,-9.641426591963372,-0.6801713958672209,2.3587448039038494,0.4552575791044976,-0.17333333333333334,-0.14414646799338648,-0.06823528029706752,-0.07553965381710427,-0.002220565825685598
1592228735.0784156,-9.66800487012987,-0.8150020292207791,2.4500040584415586,0.4622222222222222,-0.17333333333333334,-0.1511111111111111,-0.06708719989177728,-0.08301217827725049,-0.002182104272291003
1592228735.0884156,-9.723612283751345,-0.77,2.414537427917115,0.4622222222222222,-0.17333333333333334,-0.1511111111111111,-0.03361873474183619,-0.06852628290798274,-9.802819464699124e-05
1592228735.0984156,-9.820886889460153,-0.7550449871465296,2.442169023136247,0.4622222222222222,-0.17333333333333334,-0.1511111111111111,-0.02454859994259537,-0.055381394701577775,-0.006482240893543367
1592228735.1084156,-9.489155016730074,-0.5565850025209699,2.1796450016042535,0.4622222222222222,-0.17333333333333334,-0.1511111111111111,0.011420998792729084,-0.05450281480704109,-0.010073822526350366
1592228735.1184156,-9.86594278966015,-0.4713069151030048,2.038264007348117,0.4689531849130327,-0.16660237064252287,-0.13887299712781934,0.042621124691403646,-0.06551296942388274,-0.019966883829669088
1592228735.1284156,-9.720016120365395,-0.3359322944653412,1.9385975282106394,0.47444444444444445,-0.16111111111111112,-0.1288888888888889,0.05586096958769197,-0.06295224890345882,-0.019838349185165263
1592228735.1384156,-9.363736731490595,-0.3422692809066482,2.147276862912022,0.47444444444444445,-0.16111111111111112,-0.1288888888888889,0.052024871293285445,0.00521816370462197,-0.008391639993427204
1592228735.1484156,-9.74,-0.44,2.03,0.47444444444444445,-0.16111111111111112,-0.1288888888888889,0.061086523819801536,0.01854412330243975,-0.017453292519943295
1592228735.1584156,-9.483801890867207,-0.1861981091327926,1.9739669818112011,0.47444444444444445,-0.16111111111111112,-0.1288888888888889,0.04714910188355368,-0.0016949050925807582,-0.017660653499425392
1592228735.1684155,-9.62941557889968,-0.4306747458730922,2.1227159724778435,0.47444444444444445,-0.16692546554539364,-0.1394604424057662,0.043580260356913446,-0.0072757983865337555,-0.010813145448747114
1592228735.1784155,-9.70418348942828,-0.7298185532062843,2.2341834894282795,0.47444444444444445,-0.17333333333333334,-0.1511111111111111,0.03861563251724052,-0.008825610133956798,-0.005533325011670401
1592228735.1884155,-9.679405334937826,-0.6035679903730445,2.2045540012033693,0.47444444444444445,-0.17333333333333334,-0.1511111111111111,0.04013370131808573,-0.028469157441467184,-0.013521865964064133
1592228735.1984155,-9.643333573989844,-0.48,2.178788053810796,0.47444444444444445,-0.17333333333333334,-0.1511111111111111,0.051368198893076915,-0.06330115733538322,-0.02026299623930401
1592228735.2084155,-9.373568009850455,-0.44104224177308204,2.148657279605982,0.47444444444444445,-0.17333333333333334,-0.1511111111111111,0.055958083187855355,-0.07472958837207141,-0.011102912573820947
1592228735.2184155,-9.326064510623773,-0.5879895895554228,2.2513798105640412,0.4799441552654284,-0.16867973186942384,-0.14011168946914318,0.052414702999789814,-0.05174385928876908,-0.006850666774483671
1592228735.2284155,-9.746720595262476,-0.7355771725032425,2.299018363028193,0.4888888888888889,-0.16111111111111112,-0.12222222222222222,0.05114372298683978,-0.045975512838763694,-0.016577217418839406
1592228735.2384155,-9.77611115358153,-0.5624073083097623,2.068889228652244,0.4888888888888889,-0.16111111111111112,-0.12222222222222222,0.050905464313325745,-0.08918544417351117,-0.008060022815641957
1592228735.2484155,-9.89935557728541,-0.6149309547091512,1.989769849030504,0.4888888888888889,-0.16111111111111112,-0.12222222222222222,0.04361816795412938,-0.16558032875352838,-0.015246525378735613
1592228735.2584155,-9.828555601882185,-0.5222048166458197,2.156087120535271,0.4888888888888889,-0.16111111111111112,-0.12222222222222222,0.04916699872826279,-0.21534591916798487,-0.009419409462856757
1592228735.2684155,-9.476220591409454,-0.2585997964910117,2.3046344546884154,0.48590114396719186,-0.163245214626609,-0.14142915386170296,0.043560242406576584,-0.19042364996532443,0.010735287148908878
1592228735.2784154,-9.39,-0.08,2.28,0.4811111111111111,-0.16666666666666666,-0.17222222222222222,0.02945243112740431,-0.14944381720201447,0.017453292519943295
1592228735.2884154,-9.346249055287483,-0.11597232719027964,2.4281937096680424,0.4811111111111111,-0.16666666666666666,-0.17222222222222222,0.011454135424810323,-0.05696634034565499,0.037982041677753466
1592228735.2984154,-9.4,-0.11,2.47,0.4811111111111111,-0.16666666666666666,-0.17222222222222222,-0.011999138607461015,-0.015271630954950384,0.042542400517361786
1592228735.3084154,-9.402914497980692,-0.377713755048269,2.5118847590868842,0.4811111111111111,-0.16666666666666666,-0.17222222222222222,-0.03845320448465105,-0.002611911064609196,0.03713204191889071
1592228735.3184154,-9.551765422458223,-0.34980821489926595,2.536142120880837,0.48863508424870283,-0.1721006472660385,-0.15592028042410674,-0.05059904532467029,0.0032620320929141245,0.02234634065931448
1592228735.3284154,-9.82,-0.25,2.48,0.5011111111111111,-0.1811111111111111,-0.1288888888888889,-0.056723200689815706,-0.002181661564992912,0.014180800172453926
1592228735.3384154,-9.454575028473805,-0.4834602790432802,2.521867169703872,0.5011111111111111,-0.1811111111111111,-0.1288888888888889,-0.06068879921359803,-0.0751862571260164,0.019981507173082683
1592228735.3484154,-9.272757759543348,-0.6158622904031396,2.4406892615055296,0.5011111111111111,-0.1811111111111111,-0.1288888888888889,-0.04547639674832763,-0.10065741255591824,0.0007900058824358933
1592228735.3584154,-9.483035643651387,-0.5565178218256933,2.599197028963214,0.5011111111111111,-0.1811111111111111,-0.1288888888888889,-0.033338488822513314,-0.08318556746338805,-0.0343028478604387
1592228735.3684154,-9.688571682780712,-0.7503573758823181,2.7610000593154993,0.5152777942543053,-0.17584920022935327,-0.13415079977064673,-0.027169476746111604,-0.08757813778088294,-0.06119561336836841
1592228735.3784153,-10.07,-1.1,2.85,0.54,-0.16666666666666666,-0.14333333333333334,-0.025089107997418484,-0.10144726277217041,-0.07090400086226964
1592228735.3884153,-9.206019110603224,-0.6335237909990518,2.4798857254005693,0.54,-0.16666666666666666,-0.14333333333333334,0.0005942559875663309,-0.09347692302569699,-0.055806885858322844
1592228735.3984153,-9.539030687518443,-0.70598259073473,2.496467246975509,0.54,-0.16666666666666666,-0.14333333333333334,0.02284218649110036,-0.08065002189006845,-0.026245198721240155
1592228735.4084153,-9.781404549193656,-0.9329160369598072,2.567801541904999,0.54,-0.16666666666666666,-0.14333333333333334,0.029865449757426884,-0.06392934490657118,-0.020201185264555874
1592228735.4184153,-9.489628810050682,-0.9417467342422728,2.6305567849239773,0.5326269620323443,-0.16561337552843014,-0.13890951055273992,0.050648607083213094,-0.054918646233083936,-0.003572589558977792
1592228735.4284153,-9.83,-0.65,2.12,0.5011111111111111,-0.16111111111111112,-0.12,0.04799655442984406,-0.042542400517361786,-0.014180800172453926
1592228735.4384153,-9.646329727713539,-0.8576109660574412,2.4936236478925773,0.5011111111111111,-0.16111111111111112,-0.12,0.08142394688869153,-0.04913397235318194,-0.019039493118810296
1592228735.4484153,-9.313442575960252,-0.6258116759029237,2.214870055417543,0.5011111111111111,-0.16111111111111112,-0.12,0.08896289936938048,-0.05996734352719242,-0.013015604038981814
1592228735.4584153,-9.724066633391564,-0.5760444222610431,2.136044422261043,0.5011111111111111,-0.16111111111111112,-0.12,0.08152061285907225,-0.04716550035665563,-0.02025026486011405
1592228735.4684153,-9.627211270141327,-0.4414816815194887,2.094422540282654,0.4991987477620748,-0.165318310478991,-0.12497214470749442,0.07426683116276078,-0.025787852425201797,-0.019456733014612048
1592228735.4784153,-9.66,-0.33,2.16,0.4955555555555556,-0.17333333333333334,-0.13444444444444445,0.05781403147231216,-0.002181661564992912,-0.008726646259971648
1592228735.4884152,-9.959005032609253,-0.34204539618959584,2.119403533097109,0.4955555555555556,-0.17333333333333334,-0.13444444444444445,0.03301310603333629,-0.03243674091645106,-0.004797179464933446
1592228735.4984152,-9.303934038911256,-0.314020829817498,2.213986113455001,0.4955555555555556,-0.17333333333333334,-0.13444444444444445,0.018765319033088458,-0.08249483071761415,-0.007199104467707933
1592228735.5084152,-9.19,-0.35,2.19,0.4955555555555556,-0.17333333333333334,-0.13444444444444445,0.02399827721492203,-0.1308996938995747,-0.006544984694978735
1592228735.5184152,-9.258643095316772,-0.26404788368530147,2.348369431343687,0.4955555555555556,-0.17153173721048995,-0.13054098617828377,0.0061320359875672685,-0.13576427685952983,-0.01076153768843893
1592228735.5284152,-9.39,-0.41,2.56,0.4955555555555556,-0.16666666666666666,-0.12,0.01090830782496456,-0.1341721862470641,0.004363323129985824
1592228735.5384152,-9.448851548575414,-0.3743127631544959,2.517495414976881,0.4955555555555556,-0.16666666666666666,-0.12,-0.027741219043065465,-0.06802999297545408,0.01931243583172787
1592228735.5484152,-9.64,-0.46,2.59,0.4955555555555556,-0.16666666666666666,-0.12,-0.0370882466048795,-0.039269908169872414,0.022907446432425576
1592228735.5584152,-9.760628911068746,-0.2853179320399238,2.5490635864079847,0.4955555555555556,-0.16666666666666666,-0.12,-0.046734973214891784,-0.021510175018533622,0.03981494433319356
1592228735.5684152,-9.594822135659788,-0.07626661945079355,2.551200141647619,0.5029308895542035,-0.16666666666666666,-0.1266123684125809,-0.05706499175977154,-0.010724085493413311,0.060192065755191954
1592228735.5784152,-9.51,-0.03,2.69,0.5277777777777778,-0.16666666666666666,-0.14888888888888888,-0.0545415391248228,-0.017453292519943295,0.08290313946973066
1592228735.5884151,-9.64206260076722,0.2522421749040974,2.5379640851726246,0.5277777777777778,-0.16666666666666666,-0.14888888888888888,-0.06858734239274361,-0.04919697164832046,0.1130893206186741
1592228735.5984151,-9.34,0.29,2.47,0.5277777777777778,-0.16666666666666666,-0.14888888888888888,-0.08835729338221293,-0.07308566242726255,0.12544553998709243
1592228735.6084151,-9.426595836454858,0.12229494426661218,2.7339056505255512,0.5277777777777778,-0.16666666666666666,-0.14888888888888888,-0.0998209841207294,-0.008225967089944785,0.1451236082492478
1592228735.618415,-9.395969912659684,0.17241413607683462,2.5527510645572375,0.5249663796765404,-0.17077563312232133,-0.1458612293952486,-0.13054107899930228,0.024789013407051527,0.16053517899753503
1592228735.628415,-8.8,-0.19,2.44,0.5133333333333333,-0.18777777777777777,-0.13333333333333333,-0.15162547876700738,0.0370882466048795,0.16580627893946132
1592228735.638415,-9.625292107329239,-0.08470789267076155,2.4173539463353806,0.5133333333333333,-0.18777777777777777,-0.13333333333333333,-0.17594239564845554,0.11937292285467214,0.13327626722263713
1592228735.648415,-9.549783699965834,-0.05673289705379905,2.41,0.5133333333333333,-0.18777777777777777,-0.13333333333333333,-0.1943017640054987,0.17971930966965613,0.11591750623038964
1592228735.658415,-9.3,-0.02,2.41,0.5133333333333333,-0.18777777777777777,-0.13333333333333333,-0.20071286397934787,0.16689710972195776,0.11671889372712078
1592228735.668415,-9.796382719393282,-0.2772765438786565,2.448115520043337,0.5133333333333333,-0.18777777777777777,-0.13333333333333333,-0.189421938098226,0.14419522816410474,0.10088160851077022
1592228735.678415,-9.21,-0.16,2.49,0.5133333333333333,-0.18777777777777777,-0.13333333333333333,-0.19307704850187268,0.13962634015954636,0.06981317007977318
1592228735.688415,-9.478246400400652,-0.36886240140227866,2.4849445348691623,0.5133333333333333,-0.18777777777777777,-0.13333333333333333,-0.18079702813814746,0.09670136355755593,0.053090530686185154
1592228735.698415,-9.49075550405562,-0.2582240247199691,2.3329092313634607,0.5133333333333333,-0.18777777777777777,-0.13333333333333333,-0.18783035889116764,0.08313807467418025,0.0406643514134994
1592228735.708415,-9.547207536724727,-0.47093082109175743,2.3890691789082426,0.5133333333333333,-0.18777777777777777,-0.13333333333333333,-0.17235126363444003,0.08143189064471744,0.050508038157329675
1592228735.718415,-9.218956931359354,-0.6652880215343203,2.298956931359354,0.511563743083595,-0.18858213698220427,-0.13429856437864512,-0.17314094143677553,0.09985318902672614,0.05607674030717405
1592228735.728415,-9.39,-1.11,2.47,0.5011111111111111,-0.19333333333333333,-0.14,-0.1778054175469223,0.0839939702522271,0.04581489286485115
1592228735.738415,-9.612350745301361,-0.8353358392741412,2.27,0.5011111111111111,-0.19333333333333333,-0.14,-0.13558864026897588,0.043132594406188315,-0.01795800147149214
1592228735.748415,-9.503527292812372,-0.7168783170432986,2.317783674743642,0.5011111111111111,-0.19333333333333333,-0.14,-0.11043042100404966,-0.00760631869639186,-0.054186267948044695
1592228735.758415,-9.23,-0.78,2.43,0.5011111111111111,-0.19333333333333333,-0.14,-0.09053895494720585,-0.022907446432425576,-0.06872233929727672
1592228735.768415,-9.68,-0.6011000549896567,2.588633376103066,0.5026185259862497,-0.19182591845819477,-0.13739628339748794,-0.08036148575119083,-0.03052872283141506,-0.09790569749867835
1592228735.778415,-9.561260776105895,-0.7106423803597692,2.5465819662857787,0.5133333333333333,-0.1811111111111111,-0.11888888888888889,-0.054750449448231556,-0.035045422536244604,-0.09473964691923559
1592228735.788415,-9.107491058020479,-0.919717133105802,2.1490105119453924,0.5133333333333333,-0.1811111111111111,-0.11888888888888889,-0.05378220176510273,-0.02477688467747554,-0.08981815779315269
1592228735.798415,-9.410776143590248,-1.3439725489233187,2.32867581702556,0.5133333333333333,-0.1811111111111111,-0.11888888888888889,-0.039165316763541264,-0.03154942856040932,-0.10583546821111439
1592228735.808415,-9.59,-1.43,2.3,0.5133333333333333,-0.1811111111111111,-0.11888888888888889,-0.025089107997418484,-0.011999138607461015,-0.14180800172453928
1592228735.818415,-10.729081921363296,-1.4551780545708803,2.5103622882044943,0.5138788253276529,-0.18165660310543072,-0.11697966690877029,-0.006247240288412904,-0.028500592670050822,-0.19372159969011227
1592228735.828415,-9.26,-0.84,2.29,0.52,-0.18777777777777777,-0.09555555555555556,0.03381575425739013,-0.0545415391248228,-0.18871372537188688
1592228735.838415,-9.58241593033679,-0.8700540402100141,2.3932285824049173,0.52,-0.18777777777777777,-0.09555555555555556,0.10699595814624745,-0.12936803282083004,-0.02065133067264836
1592228735.848415,-9.23171978799434,-0.4778394129074034,2.412719380291148,0.52,-0.18777777777777777,-0.09555555555555556,0.10299614464157311,-0.10283044154119822,-0.02801687824929052
1592228735.858415,-9.33,-0.75,2.7,0.52,-0.18777777777777777,-0.09555555555555556,0.148352986419518,-0.10035643198967394,-0.0370882466048795
1592228735.8684149,-9.65845330105224,-0.6153599031567185,2.4854148430952603,0.5193369959959028,-0.187722527444103,-0.0956660562229051,0.13881271183588526,-0.08127588282240844,-0.03158584382176813
1592228735.8784149,-9.82,-1.1,2.78,0.5066666666666667,-0.18666666666666668,-0.09777777777777778,0.12326387842209952,-0.05017821599483697,-0.009817477042468103
1592228735.8884149,-9.594936925379518,-0.5750210248734945,2.2404832157365835,0.5066666666666667,-0.18666666666666668,-0.09777777777777778,0.10348455310467125,-0.002181661564992912,-0.04496468080317477
1592228735.8984149,-9.292015902337162,-0.6625066259738174,2.37,0.5066666666666667,-0.18666666666666668,-0.09777777777777778,0.11590727567483203,-0.0013642612597409697,-0.012816538912712958
1592228735.9084148,-9.19,-0.62,2.37,0.5066666666666667,-0.18666666666666668,-0.09777777777777778,0.074176493209759,0.0032724923474893677,-0.017453292519943295
1592228735.9184148,-9.441627001591117,-0.7701807779545685,2.519728833068147,0.5067871853030458,-0.18666666666666668,-0.09788825319445855,0.07285888454597643,0.005611912438594364,-0.03794243959820783
1592228735.9284148,-9.62,-0.79,2.49,0.52,-0.18666666666666668,-0.11,0.04799655442984406,0.022907446432425576,-0.011999138607461015
1592228735.9384148,-9.13441241685144,-0.5089578713968959,2.482283813747228,0.52,-0.18666666666666668,-0.11,0.024119211891473744,0.04581005547778908,-0.007273011447820051
1592228735.9484148,-9.309305713204692,-0.3373552780930761,2.2870743473325765,0.52,-0.18666666666666668,-0.11,0.02143257552767677,0.06383072884167779,-0.003519507944660813
1592228735.9584148,-9.691657720933017,-0.8396196899255741,2.452676736436738,0.52,-0.18666666666666668,-0.11,-0.005717954001950066,0.06907655403787068,0.002181661564992912
1592228735.9684148,-9.541015423908055,-0.6722393598978391,2.310403455913163,0.52,-0.18666666666666668,-0.11,-0.02580215180360369,0.0809444891024842,0.002181661564992912
1592228735.9784148,-9.549453381483913,-0.6049073726667292,2.2461797673764186,0.5311111111111111,-0.19111111111111112,-0.0811111111111111,-0.032724923474893676,0.09381144729469522,0.001090830782496456
1592228735.9884148,-9.39875564213427,-0.4236527771178791,1.9888183589110087,0.5311111111111111,-0.19111111111111112,-0.0811111111111111,-0.035433938259438136,0.09181533113766245,0.001375990233501136
1592228735.9984148,-9.557858000961076,-0.9491436809226333,2.3285728015377223,0.5311111111111111,-0.19111111111111112,-0.0811111111111111,-0.05092628164101702,0.07405194664852827,0.004534705698144024
1592228736.0084147,-9.342105692867216,-0.7600040822385512,2.0010569286721593,0.5311111111111111,-0.19111111111111112,-0.0811111111111111,-0.034389992906900715,0.041680819891522246,0.011137557981621481
1592228736.0184147,-9.357671268462852,-0.9078770503970905,2.1567126846285163,0.5311111111111111,-0.19111111111111112,-0.0811111111111111,-0.03863484515864948,0.027248322235576456,-0.0032949396743243067
1592228736.0284147,-9.279821669414057,-0.40028173235426345,2.043108047355013,0.5188888888888888,-0.17888888888888888,-0.09,-0.02300372986280028,-0.011428630675359618,0.00996394555454915
1592228736.0384147,-9.719323264168928,-0.5728066573795734,2.3717039372388005,0.5188888888888888,-0.17888888888888888,-0.09,-0.044529953547336076,-0.023369483930078042,0.013431718780206561
1592228736.0484147,-9.67,-0.17,2.01,0.5188888888888888,-0.17888888888888888,-0.09,-0.04363323129985824,-0.030543261909900768,0.025089107997418484
1592228736.0584147,-9.55,-0.4801472157979007,2.3262444404910156,0.5188888888888888,-0.17888888888888888,-0.09,-0.06788694456129529,-0.027100478864734715,0.03700310125604116
1592228736.0684147,-9.549235236918873,-0.6001274605135213,2.3997450789729573,0.5187897529339278,-0.17904467396097049,-0.08988670176575882,-0.07082057815124852,-0.025047396641907922,0.03612254988891472
1592228736.0784147,-9.488066397190378,-0.6041991915711351,2.3712987873567024,0.5111111111111111,-0.19111111111111112,-0.0811111111111111,-0.06478086286046228,-0.01791453373809384,0.046658586251193915
1592228736.0884147,-9.47666369653768,-0.5444024949083504,2.287067973523422,0.5111111111111111,-0.19111111111111112,-0.0811111111111111,-0.06892587032591513,0.01918379224958902,0.054803221875929314
1592228736.0984147,-9.68746837028686,-0.33163472378804965,2.1753526243266945,0.5111111111111111,-0.19111111111111112,-0.0811111111111111,-0.07727066485436,0.03909514021662014,0.06385206612306418
1592228736.1084146,-9.37,-0.25,2.13,0.5111111111111111,-0.19111111111111112,-0.0811111111111111,-0.08617563181722002,0.00545415391248228,0.05890486225480862
1592228736.1184146,-9.253394907813872,-0.22309113257243196,2.2107266022827043,0.5111111111111111,-0.19111111111111112,-0.0811111111111111,-0.09008936793883435,0.01915223033813242,0.051077390011579966
1592228736.1284146,-9.23,-0.62,2.52,0.5255555555555556,-0.19111111111111112,-0.06888888888888889,-0.11562806294462433,0.062177354602297986,0.02945243112740431
1592228736.1384146,-9.696891875817771,-0.2565504936362555,2.3937908885452597,0.5255555555555556,-0.19111111111111112,-0.06888888888888889,-0.09712156791944447,0.06672842986054268,0.006921267467577727
1592228736.1484146,-9.333222514890487,-0.17063429913860612,2.2187109940438057,0.5255555555555556,-0.19111111111111112,-0.06888888888888889,-0.09873720537501642,0.04236552652916031,0.016609640094440235
1592228736.1584146,-9.435280658696856,-0.4796682764626712,2.1777040614361494,0.5255555555555556,-0.19111111111111112,-0.06888888888888889,-0.11532752528940403,0.06891155711411227,-0.009302676765810565
1592228736.1684146,-9.626217441216056,-0.10609631066423875,2.0946880690364975,0.5255555555555556,-0.19111111111111112,-0.06888888888888889,-0.1044607572955202,0.0363112531324608,-0.030130648754087892
1592228736.1784146,-9.50035980345538,-0.3226660326517673,2.4425645902678714,0.5255555555555556,-0.21777777777777776,-0.06,-0.13744467859455345,-0.002657138606024019,-0.03642811157118613
1592228736.1884146,-9.19,-0.56,2.26,0.5255555555555556,-0.21777777777777776,-0.06,-0.13744467859455345,-0.007635815477475192,-0.05235987755982988
1592228736.1984146,-8.585736322724069,-0.1815951851651033,1.7470614867429377,0.5255555555555556,-0.21777777777777776,-0.06,-0.07977520009260518,-0.0272707695624114,-0.0038754568550076742
1592228736.2084146,-9.52,-0.87,2.76,0.5255555555555556,-0.21777777777777776,-0.06,-0.08835729338221293,-0.0272707695624114,0.025089107997418484
1592228736.2184145,-9.619171324241748,-0.5003614278262165,2.3633147030330126,0.5255555555555556,-0.21777777777777776,-0.06,-0.03525117343596696,-0.030221109559425065,0.007387068015336496
1592228736.2284145,-9.2,-0.59,2.38,0.5255555555555556,-0.2111111111111111,-0.05444444444444444,-0.04036073895236887,-0.028361600344907853,0.0272707695624114
1592228736.2384145,-9.612670700761273,-0.5801745071247315,2.3996509857505366,0.5255555555555556,-0.2111111111111111,-0.05444444444444444,-0.025355608838209538,-0.021930830295982428,0.0026194843748639264
1592228736.2484145,-9.53,-0.22,2.01,0.5255555555555556,-0.2111111111111111,-0.05444444444444444,-0.006544984694978735,-0.02945243112740431,0.02181661564992912
1592228736.2584145,-9.263824555899768,-0.4678185169209051,2.1201415630759577,0.5255555555555556,-0.2111111111111111,-0.05444444444444444,-0.026569285934233702,-0.014434205197963082,0.02882512108366836
1592228736.2684145,-9.53723370700311,-0.6343706576872257,2.231908699543924,0.5255555555555556,-0.2111111111111111,-0.05444444444444444,-0.02558247168324048,0.014701317226716226,0.004440273172397983
1592228736.2784145,-9.828958984734228,-0.43032370792716573,2.3709711237814974,0.5066666666666667,-0.20444444444444446,-0.03666666666666667,0.0014086302968378916,-0.049377497647781,-0.0065802957521277836
1592228736.2884145,-9.202166865918704,-0.4399666636012507,2.399899990803752,0.5066666666666667,-0.20444444444444446,-0.03666666666666667,0.010875579892024569,-0.12300932783256627,-0.007632179040481859
1592228736.2984145,-8.894552697956202,-0.44,2.281762334692723,0.5066666666666667,-0.20444444444444446,-0.03666666666666667,0.007683875700772282,-0.050176750273741244,-0.03343127247101341
1592228736.3084145,-9.587686759775188,-0.47986781484429647,2.608909472465446,0.5066666666666667,-0.20444444444444446,-0.03666666666666667,0.005461363494323803,0.005273914366444199,-0.037077432232117215
1592228736.3184144,-9.529763286814045,-0.17881643407023173,2.515342307850644,0.5066666666666667,-0.20444444444444446,-0.03666666666666667,0.010147586839600022,-0.02739987657734192,-0.004234216115055298
1592228736.3284144,-8.88,-0.17,2.37,0.52,-0.20222222222222222,-0.057777777777777775,-0.009817477042468103,0.01090830782496456,0.016362461737446838
1592228736.3384144,-9.629113105344006,-0.3491357425822621,2.4677104050448704,0.52,-0.20222222222222222,-0.057777777777777775,-0.04090491967380103,0.08729459543338261,0.014586036444227814
1592228736.3484144,-9.661291410434437,-0.5209685578258282,2.154842789129141,0.52,-0.20222222222222222,-0.057777777777777775,-0.03149322166692506,0.08677341401056389,0.015236413198582342
1592228736.3584144,-9.7,-0.55,2.3,0.52,-0.20222222222222222,-0.057777777777777775,-0.0272707695624114,0.07199483164476608,0.014180800172453926
1592228736.3684144,-9.854818013104572,-0.55,2.316296632958376,0.52,-0.20222222222222222,-0.057777777777777775,-0.013049274456777189,0.02133075533094421,0.015069643616556066
1592228736.3784144,-9.56,-0.5,2.38,0.5011111111111111,-0.18777777777777777,-0.022222222222222223,0.004363323129985824,-0.05781403147231216,0.007635815477475192
1592228736.3884144,-9.526480518441476,-0.39106168493479476,2.52245779662373,0.5011111111111111,-0.18777777777777777,-0.022222222222222223,0.004363323129985824,-0.05872813352974619,0.0039794072477390904
1592228736.3984144,-9.4,-0.33,2.44,0.5011111111111111,-0.18777777777777777,-0.022222222222222223,0.002181661564992912,-0.031634092692397225,0.02399827721492203
1592228736.4084144,-9.310980962243109,-0.3219073602039191,2.3914441612235144,0.5011111111111111,-0.18777777777777777,-0.022222222222222223,-0.007528809096350101,0.018683800734562023,0.03547428799650923
1592228736.4184144,-9.514681508690199,-0.2284630890521412,2.38,0.5011111111111111,-0.18777777777777777,-0.022222222222222223,-0.019802605062124227,0.050513517949213015,0.03545586065474247
1592228736.4284143,-9.569520557896267,-0.11973364327570342,2.3799467286551406,0.5277777777777778,-0.19555555555555557,-0.015555555555555555,-0.029504730147922084,0.03488334103076758,0.03712311261855802
1592228736.4384143,-9.48,-0.07,2.37,0.5277777777777778,-0.19555555555555557,-0.015555555555555555,-0.039269908169872414,0.030543261909900768,0.04363323129985824
1592228736.4484143,-9.49586387223943,-0.014476447161993651,2.3144764471619936,0.5277777777777778,-0.19555555555555557,-0.015555555555555555,-0.04446134822038091,0.03573470196040926,0.047094191333530565
1592228736.4584143,-9.35,-0.31,2.27,0.5277777777777778,-0.19555555555555557,-0.015555555555555555,-0.06326818538479445,0.04799655442984406,0.044724062082354694
1592228736.4684143,-9.441017348727557,-0.43135646497007796,2.2942712929940154,0.5277777777777778,-0.19555555555555557,-0.015555555555555555,-0.06922525692878857,0.049320348106287194,0.028838537965037023
1592228736.4784143,-9.66,-0.34,2.33,0.5066666666666667,-0.2088888888888889,-0.024444444444444446,-0.06326818538479445,0.031634092692397225,0.007635815477475192
1592228736.4884143,-9.50898098645335,-0.7786742774450295,2.33,0.5066666666666667,-0.2088888888888889,-0.024444444444444446,-0.07268168188301928,0.009669267529872617,-0.008837803394418267
1592228736.4984143,-9.344926629320945,-0.8926872523568794,2.024332012570023,0.5066666666666667,-0.2088888888888889,-0.024444444444444446,-0.059686552279134,-0.03746224998861999,-0.072580264533637
1592228736.5084143,-9.563151103728847,-1.1228533256301003,2.1943422161238297,0.5066666666666667,-0.2088888888888889,-0.024444444444444446,-0.04514633525375946,-0.06996200686452055,-0.1303014319964521
1592228736.5184143,-11.09615359537054,-1.5778929029891802,2.540066833751044,0.5066666666666667,-0.2088888888888889,-0.024444444444444446,0.015895474049930275,-0.10618999950643551,-0.06232329658974367
1592228736.5284142,-9.48,-1.21,2.85,0.5066666666666667,-0.19333333333333333,0.021111111111111112,0.01308996938995747,-0.11453723216212788,0.008726646259971648
1592228736.5384142,-9.692373741441804,-1.0734740233588402,2.2583874345549737,0.5066666666666667,-0.19333333333333333,0.021111111111111112,0.036256350845823807,-0.11536460292840882,-0.017749218261018447
1592228736.5484142,-9.909122588674549,-1.1511621032980708,2.1445612943372745,0.5066666666666667,-0.19333333333333333,0.021111111111111112,0.04464990323793171,-0.11156137519233043,-0.012963203584959828
1592228736.5584142,-9.463895024286508,-1.0649781300596892,2.045475943065658,0.5066666666666667,-0.19333333333333333,0.021111111111111112,0.07374684068990908,-0.15790849114820804,-0.018218305451936954
1592228736.5684142,-9.58115923697525,-1.0354505674825654,2.0890988650348694,0.5066666666666667,-0.19333333333333333,0.021111111111111112,0.07727576974346825,-0.17173331761718486,-0.023899978639007197
1592228736.5784142,-9.98,-1.07,2.1,0.5011111111111111,-0.19333333333333333,0.03111111111111111,0.09272061651219875,-0.21489366415180183,-0.038179077387375956
1592228736.5884142,-9.797078455494267,-0.9141779435691892,2.24904718441208,0.5011111111111111,-0.19333333333333333,0.03111111111111111,0.10306695103590656,-0.24297657214472299,-0.03670102959827484
1592228736.5984142,-9.415154627939295,-0.7939304106155146,2.439780932399662,0.5011111111111111,-0.19333333333333333,0.03111111111111111,0.0939210921206299,-0.27845704943119737,-0.039012663396637164
1592228736.6084142,-9.76104450672113,-0.36329881727069774,2.2830299719754903,0.5011111111111111,-0.19333333333333333,0.03111111111111111,0.09069688266416064,-0.21052469334427398,-0.03218683970173899
1592228736.6184142,-8.875907675258421,-0.2259569711676252,2.4409278330817585,0.5011111111111111,-0.19333333333333333,0.03111111111111111,0.062165620308575656,-0.14022285079246471,-0.015420758613179975
1592228736.6284142,-8.487866114081433,0.2518200512512259,2.085230155968237,0.49009065631799664,-0.19333333333333333,0.03111111111111111,0.022852678851931988,0.004153363483027403,0.017722575084903273
1592228736.6384141,-9.459242818797323,-0.48848123071992305,2.809405071912183,0.4888888888888889,-0.19333333333333333,0.03111111111111111,-0.052502431544546174,0.10138236618501416,0.012402240371723158
1592228736.6484141,-9.73310465274935,-0.3662093054987038,2.308624641833811,0.4888888888888889,-0.19333333333333333,0.03111111111111111,-0.06642794813279373,0.1279282107176633,0.0066578333645501385
1592228736.6584141,-10.021546908110192,-0.7409786168368331,2.5215469081101904,0.4888888888888889,-0.19333333333333333,0.03111111111111111,-0.10535857723077309,0.00017651663596551792,0.03660955029924919
1592228736.668414,-9.976496895328209,-0.916505765819042,2.61300266114725,0.4888888888888889,-0.19333333333333333,0.03111111111111111,-0.09476531946660102,-0.039543825391053694,0.027242990792114972
1592228736.678414,-9.156085924815786,-0.7039178219058324,2.4065842387910577,0.4757685636179454,-0.1872777985928979,0.052305482702635187,-0.0917206542362497,-0.015908119204709775,0.019334965402151495
1592228736.688414,-9.100342786288548,-0.7039046438142474,2.481713931442742,0.47444444444444445,-0.18666666666666668,0.05444444444444444,-0.10307620067200332,0.023117182985821855,0.032209591993270316
1592228736.698414,-9.980071563772137,-1.0100238545907123,2.6266746181969043,0.47444444444444445,-0.18666666666666668,0.05444444444444444,-0.13004206507216118,0.09199773287750992,0.03434432649954777
1592228736.708414,-9.444626520534745,-0.7896461519932554,2.487378778754667,0.47444444444444445,-0.18666666666666668,0.05444444444444444,-0.13601930710333135,0.10612082169762618,0.05438141572873624
1592228736.718414,-9.736029221520432,-0.9191431397914923,2.687495624381706,0.47444444444444445,-0.18666666666666668,0.05444444444444444,-0.15544965373990358,0.08375498525695982,0.04109935947612303
1592228736.728414,-9.184553293487735,-0.5070862906238326,2.2810101481758185,0.47239661589119936,-0.19792972370951453,0.059564015827557104,-0.14923107735478683,-0.020165530320041022,0.03129167152409022
1592228736.738414,-9.391754555327621,-0.5852242468122762,2.3740078838341176,0.4722222222222222,-0.1988888888888889,0.06,-0.16570294816061978,-0.017708877142767872,0.029585115745330754
1592228736.748414,-10.075902027916776,-0.8577624440347643,2.657762444034764,0.4722222222222222,-0.1988888888888889,0.06,-0.1588937960256336,0.009573397550024336,0.031175409408927685
1592228736.758414,-8.927443984998558,-0.19448624867775743,2.1441537647850755,0.4722222222222222,-0.1988888888888889,0.06,-0.13390042263039395,0.00924851212620108,0.05660356490681377
1592228736.768414,-9.21468294835957,-0.5641555097837282,2.392067088421362,0.4722222222222222,-0.1988888888888889,0.06,-0.15259891323975008,0.03455905023637092,0.04449625065146552
1592228736.778414,-8.997023063505395,-0.6515692228180114,2.098428193035726,0.46627179476136127,-0.19194672351788444,0.07388433074200888,-0.1182964017745517,0.043795457054836395,0.04090167939338204
1592228736.788414,-9.89053839437908,-1.1603076539309025,2.5681270527584914,0.46555555555555556,-0.19111111111111112,0.07555555555555556,-0.1358456430247683,0.046102010882727716,0.029919774544592437
1592228736.798414,-9.069401350146478,-0.5418820532416253,1.983327728951726,0.46555555555555556,-0.19111111111111112,0.07555555555555556,-0.0937563986185998,0.014727618874223511,0.03447547693239327
1592228736.808414,-9.159288753799393,-0.4497993920972645,1.9546990881458968,0.46555555555555556,-0.19111111111111112,0.07555555555555556,-0.098689350781652,0.012535601891983588,0.028921935914032172
1592228736.818414,-9.616644889499652,-0.7132832458491969,2.4598889364482193,0.46555555555555556,-0.19111111111111112,0.07555555555555556,-0.08509477822046088,0.005094582036353325,0.01345595517120327
1592228736.828414,-9.484349739767397,-0.4674179142838784,2.228952001542119,0.47039913041615794,-0.19014239613899062,0.08718013522100138,-0.059351799380336384,-0.02201357218137004,0.0145726455422121
1592228736.838414,-9.549756835076225,-0.7850111293099828,2.612800386376045,0.4711111111111111,-0.19,0.08888888888888889,-0.05846676159658286,-0.027047298370230566,0.012007980333596912
1592228736.848414,-9.7769889894536,-1.121843944199479,2.8348549547458806,0.4711111111111111,-0.19,0.08888888888888889,-0.03704605465073328,-0.03655865319643611,0.005263558791619074
1592228736.858414,-9.486599041533546,-0.7273849840255591,2.4185367412140577,0.4711111111111111,-0.19,0.08888888888888889,-0.01873554145173246,-0.0473025874024811,0.006188025133006853
1592228736.868414,-9.318938268868447,-0.7694358860689349,2.5515327496398092,0.4711111111111111,-0.19,0.08888888888888889,-0.021068883366903456,-0.04857128672952135,0.005396970829237149
1592228736.878414,-9.45274844720497,-0.7545031055900621,2.5407763975155278,0.4711111111111111,-0.18344202898550727,0.08233091787439613,-0.00979545716642392,-0.035697606740858395,0.004363323129985824
1592228736.888414,-9.491341998375304,-0.7253354995938261,2.4519805036555646,0.4711111111111111,-0.18222222222222223,0.0811111111111111,-0.011783099172227356,-0.02566757618167006,0.004363323129985824
1592228736.898414,-9.581560473639694,-0.6799076684522132,2.274035100084579,0.4711111111111111,-0.18222222222222223,0.0811111111111111,-0.013240047039198595,-0.01776351962787769,0.0012409084317375812
1592228736.908414,-9.649577143463498,-0.675830857385399,2.2991542869269948,0.4711111111111111,-0.18222222222222223,0.0811111111111111,-0.018906653227182844,-0.01831673184740852,0.009497832602117513
1592228736.9184139,-9.770564200813261,-0.8477525805442603,2.4991902564904596,0.4711111111111111,-0.18222222222222223,0.0811111111111111,-0.026964069368599543,-0.021455322736317627,0.013662681141105516
1592228736.9284139,-9.086992097015942,-0.6484595994004632,2.3273565880910208,0.4473858079362916,-0.17629089642851736,0.11274484867753706,-0.030294670210251586,-0.023268406039360125,0.006657352602264105
1592228736.9384139,-9.278957628155458,-0.8303384853798785,2.6041291138208065,0.4444444444444444,-0.17555555555555555,0.11666666666666667,-0.030731302435067463,-0.017152525547941395,0.00545415391248228
1592228736.9484138,-9.36451630407972,-0.8902017660697548,2.643931725124562,0.4444444444444444,-0.17555555555555555,0.11666666666666667,-0.01623492639362973,-0.007101404718214558,-0.003956447714542298
1592228736.9584138,-9.542241375070695,-0.7865318317062975,2.64714190867288,0.4444444444444444,-0.17555555555555555,0.11666666666666667,-0.0200132725583011,0.021259625923651326,0.008592823878830307
1592228736.9684138,-9.544220322104323,-0.7629569726314344,2.586048212630061,0.4444444444444444,-0.17555555555555555,0.11666666666666667,-0.025273853624947506,0.0384107585930262,0.00854190063244263
1592228736.9784138,-9.416654770848986,-0.6705337465564738,2.312740107688455,0.438825618443387,-0.177963623841723,0.11666666666666667,-0.04109055473885504,0.06993740130900941,0.014002239123065184
1592228736.9884138,-9.5148305848251,-0.6834494104743625,2.2010329429276507,0.43666666666666665,-0.17888888888888888,0.11666666666666667,-0.05047928511988966,0.07620774839947722,0.016512868112721527
1592228736.9984138,-9.5518003817677,-0.8011160920869969,2.182619157797316,0.43666666666666665,-0.17888888888888888,0.11666666666666667,-0.07401742423690653,0.08302488623019033,0.018141560808667922
1592228737.0084138,-9.352364624002716,-0.702364624002716,2.091611659432063,0.43666666666666665,-0.17888888888888888,0.11666666666666667,-0.0793784733499121,0.062188887987878125,0.029112354969105345
1592228737.0184138,-9.474620013030314,-0.849359215115165,2.226266814854559,0.43666666666666665,-0.17888888888888888,0.11666666666666667,-0.08401591813713152,0.05462038428849843,0.024550193360651472
1592228737.0284138,-9.674086881140436,-1.3114371026777114,2.712155654016567,0.44093313213039664,-0.17462242342515893,0.14567863182003038,-0.0778947951324875,0.038956381002181274,0.022130142817620258
1592228737.0384138,-9.620502297962338,-1.2445206816610404,2.4883108960019524,0.44222222222222224,-0.17333333333333334,0.15444444444444444,-0.06842348884171501,0.032316488603471284,0.02099974590708433
1592228737.0484138,-9.428800093620783,-1.3840498790731541,2.308149949288742,0.44222222222222224,-0.17333333333333334,0.15444444444444444,-0.05750314767792997,0.027805277496871603,0.02103666866181486
1592228737.0584137,-9.754132200886263,-1.5173990645002462,2.35766125061546,0.44222222222222224,-0.17333333333333334,0.15444444444444444,-0.04937110326298244,0.02582586187525675,0.014238000309497685
1592228737.0684137,-9.677857142857142,-1.106436251920123,2.0656835637480797,0.44222222222222224,-0.17333333333333334,0.15444444444444444,-0.02958312974650527,0.007514332786644172,0.0006350612389649105
1592228737.0784137,-9.473294906410217,-0.9319955707914935,2.3143858265327792,0.45247745789049676,-0.17254446905115836,0.1315673802613705,-0.020267684253953963,-0.02805539468309189,0.007428291895366911
1592228737.0884137,-9.612289383150651,-0.8720541643331466,2.427710616849348,0.45666666666666667,-0.17222222222222222,0.12222222222222222,-0.016729752028521033,-0.04523456809581281,0.005097903712134209
1592228737.0984137,-9.402177356355898,-0.4590760445007139,2.331379737628963,0.45666666666666667,-0.17222222222222222,0.12222222222222222,-0.011221749409881987,-0.06371970346802695,0.0034105688458044518
1592228737.1084137,-9.507702627166015,-0.47941866964784796,2.47205701509223,0.45666666666666667,-0.17222222222222222,0.12222222222222222,-0.016670382109252715,-0.0587207197750356,0.00078291041069058
1592228737.1184137,-9.45453546369093,-0.3370382111759236,2.4115846648068304,0.45666666666666667,-0.17222222222222222,0.12222222222222222,-0.016461410205586047,-0.04338526072126893,0.005243738565626139
1592228737.1284137,-9.331277739490007,-0.38355203308063407,2.573053756030324,0.4422118079485412,-0.17061612680909718,0.14791974883222297,-0.03947386571039019,-0.01622308198067576,0.010055339798899447
1592228737.1384137,-9.381299253671456,-0.48838977610143647,2.6155079849129286,0.43666666666666665,-0.17,0.15777777777777777,-0.047047450237257066,-0.000212589884864188,0.005102857553429372
1592228737.1484137,-9.40327053190382,-0.6087842198397002,2.45,0.43666666666666665,-0.17,0.15777777777777777,-0.057770600351847404,0.017386981998763124,0.01168813772130948
1592228737.1584136,-9.370649654782573,-0.6977401380869706,2.470805103565228,0.43666666666666665,-0.17,0.15777777777777777,-0.06847582660338433,0.02904722891482437,0.015984214280747217
1592228737.1684136,-9.32293311015258,-0.7721154960406876,2.5763464881220624,0.43666666666666665,-0.17,0.15777777777777777,-0.07658891959489506,0.06522968635601112,0.01647784414751841
1592228737.1784136,-9.320654959233044,-0.7710877161544665,2.548046770002688,0.4324639369232148,-0.17,0.16688369222192356,-0.07853981633974483,0.1045054202118545,0.022954652889548215
1592228737.1884136,-9.322154817458138,-0.7238672993215952,2.463867299321595,0.43,-0.17,0.17222222222222222,-0.07832084599444075,0.12262707210630702,0.027274790506435345
1592228737.1984136,-9.54052438357591,-0.7035040487411149,2.3536829223839404,0.43,-0.17,0.17222222222222222,-0.08112322241533249,0.144257492963262,0.024897991785909686
1592228737.2084136,-9.677813547431601,-0.8978135474316002,2.4126045158105334,0.43,-0.17,0.17222222222222222,-0.07616944816343221,0.13550152200616844,0.020346274274826652
1592228737.2184136,-9.595117212872749,-0.7308154709182167,2.1546143096151953,0.43,-0.17,0.17222222222222222,-0.05912058072487538,0.10896483781820758,0.020725784867432664
1592228737.2284136,-9.64610540466014,-0.8382748517854681,2.238636426306356,0.43,-0.1594421465447248,0.17222222222222222,-0.04982775295458985,0.06976921650246937,0.015543210671687315
1592228737.2384136,-9.736366599101785,-0.9961865585628552,2.3014403243114345,0.43,-0.15444444444444444,0.17222222222222222,-0.04267987615073471,0.04997826720230593,0.009876395171056502
1592228737.2484136,-9.601544824932667,-1.0439837437475952,2.2061788187764524,0.43,-0.15444444444444444,0.17222222222222222,-0.029895856568615358,0.021790016419132384,0.007866394608346292
1592228737.2584136,-9.495939335782994,-0.8855772696421467,2.1252739485571186,0.43,-0.15444444444444444,0.17222222222222222,-0.01414130488328029,0.0029618913855718014,0.011556188854931853
1592228737.2684135,-9.5,-0.6654686706181203,2.1180895427603725,0.43,-0.15444444444444444,0.17222222222222222,-0.008996259727719925,-0.014540284796118297,0.004616657264506751
1592228737.2784135,-9.475388539906254,-0.510777079812506,2.196152865023437,0.413592359937502,-0.1633319161449642,0.17769143557638822,-0.01728515132538356,-0.03029035445734722,-0.005537528849048207
1592228737.2884135,-9.464580850218514,-0.5235180770758839,2.23893722685737,0.4033333333333333,-0.1688888888888889,0.1811111111111111,-0.01704504357393151,-0.03915397760399327,-0.0026388830491143904
1592228737.2984135,-9.485982533910228,-0.5682969235261328,2.196506516603403,0.4033333333333333,-0.1688888888888889,0.1811111111111111,-0.017219884324745038,-0.052798115127665836,0.007654868025848898
1592228737.3084135,-9.492237320271766,-0.5246105229894138,2.1046105229894136,0.4033333333333333,-0.1688888888888889,0.1811111111111111,-0.020969838649707112,-0.05358014647120212,0.0010760083070193351
1592228737.3184135,-9.616057110817414,-0.7617669910689254,2.3015933757859743,0.4033333333333333,-0.1688888888888889,0.1811111111111111,-0.024738123396249975,-0.058300949430032306,-0.004110394906378021
1592228737.3284135,-9.583420120266537,-0.7362454087437023,2.2959479928490167,0.4121106957762248,-0.15804626469472885,0.17439901041948824,-0.025827142866187012,-0.06752201768245948,0.0024574096877127216
1592228737.3384135,-9.47516764733352,-0.5435318016251051,2.290595404875315,0.4222222222222222,-0.14555555555555555,0.16666666666666666,-0.03069333137311336,-0.08458604675287884,0.005247337204864104
1592228737.3484135,-9.462313143166636,-0.7020793464524282,2.3278622043690196,0.4222222222222222,-0.14555555555555555,0.16666666666666666,-0.04447173730530584,-0.08884281548735776,0.0019420884205793108
1592228737.3584135,-9.437284560251218,-0.8426109260013903,2.3339163890020855,0.4222222222222222,-0.14555555555555555,0.16666666666666666,-0.041972784826734395,-0.08138509691926366,0.0046481309752995185
1592228737.3684134,-9.5547894548491,-0.8844626028867947,2.376612191339616,0.4222222222222222,-0.14555555555555555,0.16666666666666666,-0.03235537087769817,-0.07234655723287153,0.004345496120895759
1592228737.3784134,-9.596791413008651,-0.7500381288048702,2.332910605575136,0.40817586955747803,-0.1485654882694293,0.18271964114066003,-0.018230784694138545,-0.07610982562673406,-0.0020758289597574337
1592228737.3884134,-9.445067163052775,-0.43013432610554914,2.36868843386829,0.39111111111111113,-0.15222222222222223,0.20222222222222222,0.0008144599106016961,-0.09257754684122385,-0.005997127186216744
1592228737.3984134,-9.408296240362452,-0.3200890231301169,2.401703759637549,0.39111111111111113,-0.15222222222222223,0.20222222222222222,0.005444442995413716,-0.09690294375485754,-0.008540794914110337
1592228737.4084134,-9.472198564656656,-0.24774820582082044,2.4876417467757737,0.39111111111111113,-0.15222222222222223,0.20222222222222222,0.009703370382399223,-0.08570178585643272,-0.014300713272693402
1592228737.4184134,-9.457085164886553,-0.3546381474345785,2.6934466246422626,0.39111111111111113,-0.15222222222222223,0.20222222222222222,0.003337479834484583,-0.06872931754548783,-0.01014241447744418
1592228737.4284134,-9.35457539886773,-0.5481369016984046,2.7118630983015954,0.39734202550466063,-0.14910676502544748,0.1954720649625436,-0.003935524336232709,-0.04004353905936295,-0.0058926196052922295
1592228737.4384134,-9.233308698767015,-0.6373213679725501,2.5799894423287206,0.40444444444444444,-0.14555555555555555,0.18777777777777777,-0.011344870470619602,-0.01257776714515417,-0.005307481367314964
1592228737.4484134,-8.377792279159225,-0.41185739799423,2.2364102211842285,0.40444444444444444,-0.14555555555555555,0.18777777777777777,-0.035206754576545526,0.04947896933580023,-0.012913284475468759
1592228737.4584134,-8.244981950321547,-0.105636281049033,1.5771316550718402,0.40444444444444444,-0.14555555555555555,0.18777777777777777,-0.08010665501802908,0.10925167470207905,-0.11115022983433914
1592228737.4684134,-9.124370408815075,-0.9082477642925582,2.0806287927179814,0.40444444444444444,-0.14555555555555555,0.18777777777777777,-0.040807862860221436,0.08756516941611471,-0.07251803673183542
1592228737.4784133,-9.634653697445733,-1.6242104301762719,2.7996121411392214,0.40110187637633066,-0.14555555555555555,0.18443520970966398,-0.04435241513478207,0.05240218639829003,0.015247454475830298
1592228737.4884133,-9.491483322068937,-1.34,2.6797511231264664,0.3977777777777778,-0.14555555555555555,0.1811111111111111,-0.08602956899865172,0.060360026095141225,0.005602385122062564
1592228737.4984133,-9.402219746405644,-1.070849116664014,2.482242028754841,0.3977777777777778,-0.14555555555555555,0.1811111111111111,0.03396891270960918,0.017937566061665952,-0.0033935607329200323
1592228737.5084133,-9.428552459988145,-0.9273040901007705,2.4432934202726737,0.3977777777777778,-0.14555555555555555,0.1811111111111111,0.016219043677246654,0.041789100065904534,-0.009824719072559366
1592228737.5184133,-9.367358180871932,-0.9186444613475319,2.4964314023779974,0.3977777777777778,-0.14555555555555555,0.1811111111111111,0.02286067595450197,0.06597943199720056,-0.005259517105661081
1592228737.5284133,-9.415033494547748,-0.8634197482651927,2.316128751239148,0.39088163924686503,-0.14873838872366915,0.1837634720845391,0.01306169016963561,0.09265039360472511,0.0011893329102919542
1592228737.5384133,-9.533984049930652,-0.9172642163661582,2.295976074895978,0.38333333333333336,-0.15222222222222223,0.18666666666666668,0.0003665100652701338,0.10813276190393742,-0.0011632628542190882
1592228737.5484133,-9.579830026916559,-1.16,2.181685524872894,0.38333333333333336,-0.15222222222222223,0.18666666666666668,-0.013145592951441564,0.12655491195675025,0.002255826313638369
1592228737.5584133,-9.553319738784497,-0.6818325118222534,1.928839042209823,0.38333333333333336,-0.15222222222222223,0.18666666666666668,-0.017575484563710317,0.11610348470258228,0.006544984694978735
1592228737.5684133,-9.543543332267348,-0.31240166293572114,1.8944686067583412,0.38333333333333336,-0.15222222222222223,0.18666666666666668,-0.017674458722726393,0.10551639531696103,0.0066416140927246636
1592228737.5784132,-9.61472241133874,-0.6113337872129727,2.2885003404097297,0.3888672608363764,-0.14568212608226225,0.18968517257741743,0.0010302703311812801,0.04666034242069765,0.006360163919643955
1592228737.5884132,-9.56,-0.4866199482381047,2.20051403543699,0.39555555555555555,-0.13777777777777778,0.19333333333333333,-0.010228661395161471,0.029651225970784217,0.002181661564992912
1592228737.5984132,-9.547183473691787,-0.598733894767149,2.3617399649703685,0.39555555555555555,-0.13777777777777778,0.19333333333333333,0.011205205168870119,0.0029755950035838096,0.0007835954228254968
1592228737.6084132,-9.490083940799646,-0.5211297646221437,2.292091647644994,0.39555555555555555,-0.13777777777777778,0.19333333333333333,0.019872273969481984,-0.005207677507120319,-0.0015746270724041936
1592228737.6184132,-9.44,-0.51373333849969,2.36626666150031,0.39555555555555555,-0.13777777777777778,0.19333333333333333,0.02127847020964917,-0.004785107087616486,-0.003403393732075214
1592228737.6284132,-9.451525505149068,-0.5286441288618009,2.3772882577236016,0.39459509679313326,-0.14161961282746705,0.19333333333333333,0.017286885722397297,0.004714640925159195,-0.005139844517471666
1592228737.6384132,-9.471429041508015,-0.5328580830160298,2.385716166032059,0.39222222222222225,-0.1511111111111111,0.19333333333333333,0.014180800172453926,0.021504667684653075,-0.002493430058274464
1592228737.6484132,-9.476819710449114,-0.5310246380613924,2.3105655067140507,0.39222222222222225,-0.1511111111111111,0.19333333333333333,0.014180800172453926,0.035700583509136165,-0.0004586864477642693
1592228737.6584132,-9.504224461947285,-0.543102152210864,2.2573266141581483,0.39222222222222225,-0.1511111111111111,0.19333333333333333,0.012337530919821003,0.05134470062274992,-0.001090830782496456
1592228737.6684132,-9.516969276201278,-0.533938552402558,2.253938552402558,0.39222222222222225,-0.1511111111111111,0.19333333333333333,0.008677131890656836,0.06004520740661989,-0.0007107157318927001
1592228737.6784132,-9.52715950617284,-0.5571595061728396,2.2942024691358025,0.3903285596707819,-0.14732378600823046,0.19333333333333333,0.007784383936641869,0.06031825573980328,-0.0009295494312473503
1592228737.6884131,-9.529251700680271,-0.5546258503401361,2.33,0.38555555555555554,-0.13777777777777778,0.19333333333333333,0.015449725776582459,0.05361396192882241,-0.0027678903528651566
1592228737.6984131,-9.552909535452322,-0.56,2.2697555012224937,0.38555555555555554,-0.13777777777777778,0.19333333333333333,0.024011612554561353,0.04704441117959655,-0.004528681341513404
1592228737.7084131,-9.565846581592643,-0.5475397447779283,2.1983068368147145,0.38555555555555554,-0.13777777777777778,0.19333333333333333,0.02926773567517439,0.04054543440459879,-0.006276612482075387
1592228737.718413,-9.54995423208389,-0.5099084641677771,2.203302821389259,0.38555555555555554,-0.13777777777777778,0.19333333333333333,0.030543261909900768,0.03817408488220145,-0.00545914641765679
1592228737.728413,-9.537123860182371,-0.48187310030395136,2.199498480243161,0.39320710908476864,-0.1390970111448835,0.19676334008780816,0.028989076714474586,0.035220323224669954,-0.006858722879762101
1592228737.738413,-9.555820207363027,-0.5325393779109229,2.2132808294521027,0.4177777777777778,-0.14333333333333334,0.20777777777777778,0.02035072003663117,0.03226897882760732,-0.0034514338354131083
1592228737.748413,-9.554073915014435,-0.55,2.177778254956696,0.4177777777777778,-0.14333333333333334,0.20777777777777778,0.010383283861628578,0.031634092692397225,-0.0017372663746909297
1592228737.758413,-9.552132376615612,-0.5460661883078056,2.191470493537556,0.4177777777777778,-0.14333333333333334,0.20777777777777778,0.0006978186156552462,0.03034675582648016,0.000196506083420605
1592228737.768413,-9.546377678534846,-0.5463776785348466,2.2336223214651536,0.4177777777777778,-0.14333333333333334,0.20777777777777778,-0.004316037557490996,0.026970206731572348,0.0018338131616590357
1592228737.778413,-9.573306908267272,-0.5493544733861835,2.2066930917327294,0.4124550144708695,-0.14185478797030326,0.20777777777777778,-0.005964361288666919,0.023707965511766124,0.0013811424856523644
1592228737.788413,-9.60607938551509,-0.5278412289698213,2.181761843454732,0.3977777777777778,-0.13777777777777778,0.20777777777777778,-0.006501686613206832,0.019486064859271963,0.0026093342616371135
1592228737.798413,-9.586489183095889,-0.5197337746438336,2.1696006619657506,0.3977777777777778,-0.13777777777777778,0.20777777777777778,-0.01239662966321169,0.009022494930966752,0.003640942721881309
1592228737.808413,-9.55646760160698,-0.49059719517906,2.11706479678604,0.3977777777777778,-0.13777777777777778,0.20777777777777778,-0.01899459208120218,-0.00417342990501423,0.005519297800929989
1592228737.818413,-9.562544038346315,-0.5131360095865788,2.1519520671060515,0.3977777777777778,-0.13777777777777778,0.20777777777777778,-0.02557955702029766,-0.010843733779841342,0.007977901056599604
1592228737.828413,-9.577947110488799,-0.5224105779022403,2.2241057790224033,0.3977777777777778,-0.13911698772346684,0.20590288385381308,-0.03565642706294877,-0.014141782421705263,0.009252552775845543
1592228737.838413,-9.54,-0.53,2.3,0.3977777777777778,-0.14333333333333334,0.2,-0.04145156973486533,-0.017453292519943295,0.01090830782496456
1592228737.848413,-9.5,-0.5920311473615064,2.358124589446026,0.3977777777777778,-0.14333333333333334,0.2,-0.047059095601849586,-0.015493194761522153,0.010618552166322997
1592228737.858413,-9.503526309648816,-0.5629473807023684,2.2876315482440788,0.3977777777777778,-0.14333333333333334,0.2,-0.03760496262132282,-0.013474630101311722,0.00866349490840535
1592228737.868413,-9.504659445635413,-0.5526702771822934,2.325340554364587,0.3977777777777778,-0.14333333333333334,0.2,-0.028795569580954625,-0.01068541551456164,0.006253702640154378
1592228737.878413,-9.490956852873786,-0.56,2.3419137057475714,0.39543880408630144,-0.14407755223516672,0.2,-0.02316326555968545,-0.0005689484979735929,0.005349777455577707
1592228737.888413,-9.506662678280845,-0.556668660859577,2.333349286876615,0.37333333333333335,-0.1511111111111111,0.2,-0.013091274586165111,0.0061802867706402176,0.003636537673724066
1592228737.898413,-9.523310987227436,-0.5533109872274363,2.250201114953073,0.37333333333333335,-0.1511111111111111,0.2,-0.007281955544715598,0.012345685794166191,0.002542834243806924
1592228737.908413,-9.533234272851361,-0.5535314542972772,2.19,0.37333333333333335,-0.1511111111111111,0.2,-0.004010518691460066,0.019922923589623602,0.0025668834704378517
1592228737.918413,-9.545103448275862,-0.5272413793103449,2.1823448275862067,0.37333333333333335,-0.1511111111111111,0.2,-0.002994142423679927,0.024810758073609045,0.001090830782496456
1592228737.928413,-9.56,-0.49,2.161289839989593,0.37490980443172456,-0.1511111111111111,0.1991401066736048,-0.0022520114232500495,0.023576178065379202,0.0010204809242393181
1592228737.938413,-9.56,-0.5085036624464674,2.210839437410779,0.3977777777777778,-0.1511111111111111,0.18666666666666668,-0.005627334882467909,0.015771262137815767,0.001009218229276518
1592228737.948413,-9.548171273091794,-0.5440856365458973,2.2622569096376917,0.3977777777777778,-0.1511111111111111,0.18666666666666668,-0.011876043282155673,0.009741089207348418,0.0032724923474893677
1592228737.958413,-9.51108431719325,-0.5359437885378329,2.249718942689164,0.3977777777777778,-0.1511111111111111,0.18666666666666668,-0.012884066672110403,0.004039139754899943,0.002948308972403487
1592228737.9684129,-9.49,-0.5524947263681592,2.324989452736318,0.3977777777777778,-0.1511111111111111,0.18666666666666668,-0.007368285157803822,0.008715140980076658,0.0019095291333635473
1592228737.9784129,-9.485825134094574,-0.5544335121260983,2.3441748659054262,0.3977777777777778,-0.15002873846896356,0.1905322832457651,0.00015180240808113172,0.027214341710554327,0.0009390283744153242
1592228737.9884129,-9.46,-0.52,2.37,0.3977777777777778,-0.14333333333333334,0.21444444444444444,0.001090830782496456,0.04036073895236887,0.0
1592228737.9984128,-9.472574395151275,-0.5451487903025486,2.296830443638531,0.3977777777777778,-0.14333333333333334,0.21444444444444444,0.0013716537302284166,0.050470365070719454,0.0
1592228738.0084128,-9.48,-0.56,2.2412942610081314,0.3977777777777778,-0.14333333333333334,0.21444444444444444,0.002181661564992912,0.08455869815152905,0.0009240095679914557
1592228738.0184128,-9.477775572369067,-0.5533267171072026,2.283346565785595,0.3977777777777778,-0.14333333333333334,0.21444444444444444,0.002181661564992912,0.10072365084206983,0.0035151397608150507
1592228738.0284128,-9.479145532078618,-0.5292378723267819,2.316281701882074,0.3977777777777778,-0.14290992907043437,0.2128355082454284,0.0020153910997651667,0.11452715940361176,0.0042801878973719515
1592228738.0384128,-9.604595189400676,-0.5258380757602703,2.1237286590787834,0.3977777777777778,-0.13777777777777778,0.19333333333333333,-0.0012736705499698526,0.12603511336462303,0.0029540747099969047
1592228738.0484128,-9.642477471947357,-0.5424774719473568,2.045135168315859,0.3977777777777778,-0.13777777777777778,0.19333333333333333,-0.004093072863691001,0.1164977920474118,0.0027221620975825572
1592228738.0584128,-9.634250557206538,-0.5395003714710253,2.0209992570579494,0.3977777777777778,-0.13777777777777778,0.19333333333333333,-0.0035588252975939584,0.09554327285581782,0.004363323129985824
1592228738.0684128,-9.572133424363601,-0.5159555252121331,2.113747976202087,0.3977777777777778,-0.13777777777777778,0.19333333333333333,-0.003930225114830594,0.08638409508018927,0.003713676107252979
1592228738.0784128,-9.500527696343157,-0.5394723036568431,2.249472303656843,0.3974552966791819,-0.13777777777777778,0.19350923211438564,-0.002181661564992912,0.09194638080791182,0.001119612153242775
1592228738.0884128,-9.529723762075175,-0.52,2.222707178443618,0.38555555555555554,-0.13777777777777778,0.2,-0.0016513126153292314,0.10495479671132252,0.002181661564992912
1592228738.0984128,-9.57617461963205,-0.5223106599474358,2.139922841366672,0.38555555555555554,-0.13777777777777778,0.2,-0.0005041077997088967,0.1095871860493545,0.002685769364701809
1592228738.1084127,-9.632346145767697,-0.5323461457676959,1.9493845830707834,0.38555555555555554,-0.13777777777777778,0.2,-0.0011579623555423417,0.10870549179101208,0.003595548722897896
1592228738.1184127,-9.641826587055935,-0.5326936517762646,1.981826587055934,0.38555555555555554,-0.13777777777777778,0.2,0.002181661564992912,0.09696918643088615,0.001090830782496456
1592228738.1284127,-9.650947880602601,-0.5,1.9881042387947974,0.3865736495361273,-0.13819905804560056,0.20045638695680804,0.0021127297423629934,0.08084726317041534,0.0011252966938114152
1592228738.1384127,-9.682412105915692,-0.5024121059156925,1.9275878940843074,0.4177777777777778,-0.1511111111111111,0.21444444444444444,-0.0002631199383479208,0.04495416825698333,0.0016554216882970702
1592228738.1484127,-9.682319631502528,-0.511920092124368,1.92,0.4177777777777778,-0.1511111111111111,0.21444444444444444,-0.0013002803419454075,0.019643419451745747,-0.0006283486783468545
1592228738.1584127,-9.640728876954062,-0.5223177807614846,1.943177807614846,0.4177777777777778,-0.1511111111111111,0.21444444444444444,-0.0019288309048223634,-0.006812121589877047,-0.003019661687318819
1592228738.1684127,-9.595413567061943,-0.5281766958827429,2.0455262576416,0.4177777777777778,-0.1511111111111111,0.21444444444444444,-0.0008919391568007959,-0.01874301492813541,-0.002380553190688572
1592228738.1784127,-9.533628194741105,-0.5204535243426383,2.153650659203064,0.4177777777777778,-0.1511111111111111,0.21444444444444444,-4.947183135613122e-05,-0.019585482253580075,-0.0032230205161332365
