time,acc_x,acc_y,acc_z,mag_x,mag_y,mag_z,gyr_x,gyr_y,gyr_z
1592228762.2383897,-9.737561719569154,-0.46365742064626825,1.3073148412925366,0.4033333333333333,-0.2088888888888889,-0.09333333333333334,0.0008248556474639581,-0.023838359405039318,-0.0014897934850452027
1592228762.2483897,-9.709153676940181,-0.49120514700664664,1.3551794119734135,0.4033333333333333,-0.2088888888888889,-0.09333333333333334,-0.0008279084920397328,-0.031332028781270935,-0.003706017403844016
1592228762.2583897,-9.634375215383555,-0.5076566269212213,1.3342194499965538,0.4033333333333333,-0.2088888888888889,-0.09333333333333334,0.0016874082350506897,-0.03649166915232527,0.0003749378394313754
1592228762.2683897,-9.664491494403451,-0.5583709326295104,1.4451035505808465,0.4033333333333333,-0.2088888888888889,-0.09333333333333334,0.007012339498221818,-0.031233502861046012,-0.005253858996806673
1592228762.2783897,-9.591767776985764,-0.4048430847477219,1.3804602462095672,0.4033333333333333,-0.2088888888888889,-0.09333333333333334,0.013182393798638755,-0.02594488488926006,-0.0026095500109137
1592228762.2883897,-9.61599877407643,-0.4259987740764316,1.4474290968243864,0.4177777777777778,-0.2088888888888889,-0.10666666666666667,0.006544984694978735,-0.007137474743731261,-0.00018696135485181024
1592228762.2983897,-9.687146553456591,-0.5003227994372991,1.4176178155144694,0.4177777777777778,-0.2088888888888889,-0.10666666666666667,0.006544984694978735,0.010510426420175358,-0.0020084242205660983
1592228762.3083897,-9.77,-0.62,1.39,0.4177777777777778,-0.2088888888888889,-0.10666666666666667,0.006544984694978735,0.01854412330243975,0.0
1592228762.3183897,-9.998959063582095,-0.9977515773373271,1.6585843264716504,0.4177777777777778,-0.2088888888888889,-0.10666666666666667,0.08084411033736305,-0.0350610110661555,-0.003258866521642111
1592228762.3283896,-9.776203981050708,-0.5166005990695303,1.3556374142289636,0.4177777777777778,-0.2088888888888889,-0.10666666666666667,0.10708682524350285,-0.06810739279981302,-0.00034300930984879985
1592228762.3383896,-9.6,-0.3,1.18,0.43666666666666665,-0.2088888888888889,-0.11555555555555555,0.09708393964218458,-0.08290313946973066,-0.001090830782496456
1592228762.3483896,-9.739020669485832,-0.4787408607674979,1.3885310042287475,0.43666666666666665,-0.2088888888888889,-0.11555555555555555,0.07217033542358847,-0.07965353891947899,-0.005423631516165341
1592228762.3583896,-9.645577253063296,-0.38203905551393286,1.1797300432607487,0.43666666666666665,-0.2088888888888889,-0.11555555555555555,0.06361654891912288,-0.08598265307715007,-0.0045563018700557675
1592228762.3683896,-9.6,-0.3,1.28,0.43666666666666665,-0.2088888888888889,-0.11555555555555555,0.044724062082354694,-0.0839939702522271,-0.006544984694978735
1592228762.3783896,-9.62237305699482,-0.36711917098445596,1.362034542314335,0.43666666666666665,-0.2088888888888889,-0.11555555555555555,0.026013393976507884,-0.07585889716272849,-0.006544984694978735
1592228762.3883896,-9.63,-0.45,1.43,0.4444444444444444,-0.22333333333333333,-0.10111111111111111,0.0032724923474893677,-0.061086523819801536,-0.006544984694978735
1592228762.3983896,-9.597599530193188,-0.49050058725851525,1.4948009396136244,0.4444444444444444,-0.22333333333333333,-0.10111111111111111,-0.0002618506357724066,-0.05401783785327798,-0.004777813203347849
1592228762.4083896,-9.609480838756326,-0.48,1.463114967462039,0.4444444444444444,-0.22333333333333333,-0.10111111111111111,0.0023515566846962644,-0.03704644325602027,-0.003385755760624936
1592228762.4183896,-9.6,-0.48,1.52,0.4444444444444444,-0.22333333333333333,-0.10111111111111111,0.00545415391248228,-0.016362461737446838,-0.00545415391248228
1592228762.4283895,-9.606756689261505,-0.5070267570460221,1.5537834463075277,0.4444444444444444,-0.22333333333333333,-0.10111111111111111,0.008402315766167671,-0.0016216524690198814,-0.0017689515953755405
1592228762.4383895,-9.71,-0.53,1.5,0.3977777777777778,-0.2088888888888889,-0.10777777777777778,0.044724062082354694,0.0032724923474893677,-0.002181661564992912
1592228762.4483895,-9.73433556171531,-0.5867829773357247,1.4918881460948965,0.3977777777777778,-0.2088888888888889,-0.10777777777777778,0.07215490790503787,-0.003806435606751453,-0.0039513935535531175
1592228762.4583895,-9.739257626310772,-0.4991091515729266,1.2716332221163014,0.3977777777777778,-0.2088888888888889,-0.10777777777777778,0.08493903630170505,-0.009817477042468103,0.007797776291940228
1592228762.4683895,-9.690361215974567,-0.4404816212994238,1.3802408106497117,0.3977777777777778,-0.2088888888888889,-0.10777777777777778,0.07521478725836372,-0.009817477042468103,0.01859666003633149
1592228762.4783895,-9.715362010729187,-0.4738160143055831,1.3969080071527915,0.3977777777777778,-0.2088888888888889,-0.10777777777777778,0.0715785690576684,-0.009817477042468103,0.022232878237026812
1592228762.4883895,-9.69,-0.44,1.35,0.4033333333333333,-0.21666666666666667,-0.10111111111111111,0.06872233929727672,-0.009817477042468103,0.028361600344907853
1592228762.4983895,-9.681475211608221,-0.4826239419588875,1.4352478839177751,0.4033333333333333,-0.21666666666666667,-0.10111111111111111,0.05849332754605542,-0.008887566883266168,0.03301115114091754
1592228762.5083895,-9.689557613879865,-0.45922582428976294,1.3598894034699662,0.4033333333333333,-0.21666666666666667,-0.10111111111111111,0.05341451571250686,-0.011902624927942423,0.03600948003232286
1592228762.5183895,-9.650901361719777,-0.3915773830096081,1.350225340429944,0.4033333333333333,-0.21666666666666667,-0.10111111111111111,0.05025195847809414,-0.003469138969508498,0.03706366577712711
1592228762.5283895,-9.625446535602972,-0.39,1.3827379525293695,0.4033333333333333,-0.21666666666666667,-0.10111111111111111,0.04571427019796898,0.0029770317681258175,0.0388738249236267
1592228762.5383894,-9.62,-0.34,1.42,0.4033333333333333,-0.21666666666666667,-0.10111111111111111,0.02617993877991494,0.01308996938995747,0.0370882466048795
1592228762.5483894,-9.612382648784576,-0.33238264878457674,1.3666785414920368,0.4033333333333333,-0.21666666666666667,-0.10111111111111111,0.016208849355670303,0.018906438220766843,0.033764550130131285
1592228762.5583894,-9.62838268099777,-0.33,1.2948519570066923,0.4033333333333333,-0.21666666666666667,-0.10111111111111111,-0.0019493263329270205,0.02674150315658646,0.02971706433031678
1592228762.5683894,-9.639338522338427,-0.3860311340305557,1.29,0.4033333333333333,-0.21666666666666667,-0.10111111111111111,-0.009384540925360854,0.0272707695624114,0.02232170778655424
1592228762.5783894,-9.685171996542783,-0.41258599827139153,1.3577579948141745,0.4033333333333333,-0.21666666666666667,-0.10111111111111111,-0.01720872769282179,0.022343269128842276,0.016067865144098473
1592228762.5883894,-9.681904406273338,-0.4380955937266617,1.4252389843166542,0.4274607916355489,-0.21666666666666667,-0.07999958509667247,-0.019634954084936207,0.012830092601595733,0.011219915572765077
1592228762.5983894,-9.670670617592014,-0.4120118527760449,1.4113412351840298,0.43,-0.21666666666666667,-0.07777777777777778,-0.012511209826318523,0.004875394348843331,0.00581991906880907
1592228762.6083894,-9.6609394311107,-0.39187886222139934,1.3375154488855974,0.43,-0.21666666666666667,-0.07777777777777778,-0.014964202842874579,0.00040990414943440755,0.006442508657620133
1592228762.6183894,-9.669026017344896,-0.4531821214142762,1.4563642428285524,0.43,-0.21666666666666667,-0.07777777777777778,-0.018225388223898423,-0.000984585756316014,0.0016220559133986656
1592228762.6283894,-9.647942119063805,-0.46,1.492057880936195,0.43,-0.21666666666666667,-0.07777777777777778,-0.012929793014009656,-0.0051010667028036655,-0.0037214523218721957
1592228762.6383893,-9.631126120478907,-0.46,1.5266216385632796,0.4359159196807288,-0.21666666666666667,-0.08369369745850659,0.0016755633993408379,-0.008480964883333412,-0.00545415391248228
1592228762.6483893,-9.70078257659653,-0.5219347545219638,1.4769130675526023,0.43666666666666665,-0.21666666666666667,-0.08444444444444445,0.012923969024477898,-0.001970612586079676,-0.00834959691557884
1592228762.6583893,-9.737315672745195,-0.5664208969935929,1.4426843272548053,0.43666666666666665,-0.21666666666666667,-0.08444444444444445,0.024113059064139866,0.005861750441683702,-0.005746968592465864
1592228762.6683893,-9.75746018001595,-0.5874601800159508,1.4574601800159508,0.43666666666666665,-0.21666666666666667,-0.08444444444444445,0.03937368436941492,0.008449594877911594,0.004068897002182006
1592228762.6783893,-9.752613878678337,-0.5752277573566743,1.46,0.43666666666666665,-0.21666666666666667,-0.08444444444444445,0.05675988588661947,0.006309543709694677,0.012705461563313192
1592228762.6883893,-9.695486592912056,-0.4518876179761235,1.478171135695981,0.42556208374134497,-0.21666666666666667,-0.0995870575244286,0.07605249852136535,-0.0014834180470514038,0.024191366331493686
1592228762.6983893,-9.653707643106113,-0.37951273851018724,1.4679025477020373,0.42444444444444446,-0.21666666666666667,-0.10111111111111111,0.07942842656070838,-0.004161102568452918,0.027068549000878492
1592228762.7083893,-9.5623097834578,-0.30131987626160045,1.3439596287848015,0.42444444444444446,-0.21666666666666667,-0.10111111111111111,0.07439245745804501,0.0040393767575567915,0.025197090121561495
1592228762.7183893,-9.51555509817643,-0.2629625818136912,1.3844449018235705,0.42444444444444446,-0.21666666666666667,-0.10111111111111111,0.06367208868568588,0.018099852123004526,0.02185698352847291
1592228762.7283893,-9.538084706284591,-0.30331858879842727,1.445701647541509,0.42444444444444446,-0.21666666666666667,-0.10111111111111111,0.04753250205003468,0.03537063741969597,0.014078749674221788
1592228762.7383893,-9.611594318863773,-0.3991926956819935,1.503995942045552,0.41173450563128494,-0.21666666666666667,-0.10111111111111111,0.03115527804892151,0.056547074209630954,0.0004810279142886519
1592228762.7483892,-9.66201286846558,-0.44361029477246416,1.4847922789206518,0.41,-0.21666666666666667,-0.10111111111111111,0.03770163856038562,0.05982144085847321,-0.010256616819142361
1592228762.7583892,-9.84324276835121,-0.6050066874721355,1.315875272088327,0.41,-0.21666666666666667,-0.10111111111111111,0.06115163438236119,0.04806020601231121,-0.019956129957456933
1592228762.7683892,-9.876898260411176,-0.6481637673519592,1.3281637673519593,0.41,-0.21666666666666667,-0.10111111111111111,0.07801469948651565,0.03584583807105671,-0.018882470604717514
1592228762.7783892,-9.90425687098488,-0.6628715645075594,1.3571284354924409,0.41,-0.21666666666666667,-0.10111111111111111,0.11821901656962944,-0.0038328979023670336,-0.01434292577346545
1592228762.7883892,-9.918775110955384,-0.5985742233123101,1.2810240014015417,0.41682508629863224,-0.21666666666666667,-0.08648592618547069,0.16139699491192988,-0.05369389022227147,-0.0035178082400024405
1592228762.7983892,-9.809995628733791,-0.4616615668560882,1.334169216571956,0.4177777777777778,-0.21666666666666667,-0.08444444444444445,0.17380602256521802,-0.08290409313207875,0.017817697499398863
1592228762.8083892,-9.712898217598193,-0.3695983547060247,1.313199451568675,0.4177777777777778,-0.21666666666666667,-0.08444444444444445,0.17014769571693147,-0.09093177367805888,0.03279064253244065
1592228762.8183892,-9.538279360124854,-0.20706073611653011,1.361469631941735,0.4177777777777778,-0.21666666666666667,-0.08444444444444445,0.14499835191790386,-0.07752715537922206,0.05268050151202679
1592228762.8283892,-9.430910431403806,-0.14545521570190295,1.414544784298097,0.4177777777777778,-0.21666666666666667,-0.08444444444444445,0.11103381451358754,-0.04611283084503803,0.05535138615668994
1592228762.8383892,-9.409924071413913,-0.1101518571721732,1.3605315001026064,0.3913135873406754,-0.22879608728367193,-0.10098456346763345,0.06138469468011044,0.005139418004378442,0.04264179080413142
1592228762.8483891,-9.456979430825585,-0.13684538904319124,1.3532886527392023,0.39111111111111113,-0.2288888888888889,-0.10111111111111111,0.03912369126749697,0.025220703209556387,0.028632606567568893
1592228762.8583891,-9.53322494221475,-0.185483294809834,1.2169376444631226,0.39111111111111113,-0.2288888888888889,-0.10111111111111111,0.004170181443055573,0.04361549584455341,0.00246348052844729
1592228762.8683891,-9.622613641013052,-0.2662587455505094,1.2317744773127122,0.39111111111111113,-0.2288888888888889,-0.10111111111111111,-0.008614131043627243,0.04125800428731052,-0.01317101962116788
1592228762.8783891,-9.656665321115732,-0.3166673394421346,1.3033387155370768,0.39111111111111113,-0.2288888888888889,-0.10111111111111111,-0.02218103318337039,0.03054238124887263,-0.03018060569851576
1592228762.888389,-9.627976733444951,-0.32734108885168295,1.3887287108134634,0.41068734804893225,-0.22481050619350948,-0.08398190379051762,-0.03258624733708078,0.015769687374520454,-0.041312893597052425
1592228762.898389,-9.62,-0.33758475263584753,1.3796609894566099,0.4177777777777778,-0.22333333333333333,-0.07777777777777778,-0.04648973935381165,0.017790715764423544,-0.045287967630418965
1592228762.908389,-9.604649101446451,-0.33232455072322603,1.3239473043393561,0.4177777777777778,-0.22333333333333333,-0.07777777777777778,-0.05771357070137266,0.02884483205959094,-0.04748941613297019
1592228762.918389,-9.59244367215562,-0.3375563278443812,1.3553379670662873,0.4177777777777778,-0.22333333333333333,-0.07777777777777778,-0.06823836805259119,0.041525302710740564,-0.04964508943290128
1592228762.928389,-9.632123159303882,-0.39415834767642,1.4061055651176133,0.4177777777777778,-0.22333333333333333,-0.07777777777777778,-0.07484250704724192,0.050631821359813124,-0.053460304482313876
1592228762.938389,-9.66,-0.43,1.4829051998711662,0.4177777777777778,-0.22753215871993385,-0.08953448886025918,-0.0716779234998888,0.05289266425129149,-0.05810568221761621
1592228762.948389,-9.700101032286405,-0.44336701076213486,1.4910886594919102,0.4177777777777778,-0.2288888888888889,-0.09333333333333334,-0.06495278781000714,0.05381799224075969,-0.059390900481785226
1592228762.958389,-9.888859706540119,-0.36499072710412916,1.4142243495336277,0.4177777777777778,-0.2288888888888889,-0.09333333333333334,-0.049338181685815816,0.06041571019181566,-0.05521235275280867
1592228762.968389,-9.94,-0.09218182687938006,1.3669853380851014,0.4177777777777778,-0.2288888888888889,-0.09333333333333334,-0.02656764825461889,0.05883000771356194,-0.029182443398990014
1592228762.978389,-9.84546521866745,-0.06726739066627531,1.3735049687617928,0.4177777777777778,-0.2288888888888889,-0.09333333333333334,-0.013359967046424268,0.054131122561807965,0.015012473455112866
1592228762.988389,-9.782541002541002,-0.09,1.3014345114345114,0.4235974435974436,-0.2240391673725007,-0.08557377890711225,0.0006571694804229054,0.04569419340889924,0.053674216520675694
1592228762.998389,-9.774097437807855,-0.10180512438428743,1.2959025621921438,0.42444444444444446,-0.22333333333333333,-0.08444444444444445,0.006044879485866987,0.035066017280169504,0.05994254895721077
1592228763.008389,-9.70573043848873,0.018539123022538698,1.1634271817885526,0.42444444444444446,-0.22333333333333333,-0.08444444444444445,0.006973965858120597,0.0195981983356526,0.07006441641062772
1592228763.018389,-9.642199842022116,0.0930201421800948,1.1539000789889415,0.42444444444444446,-0.22333333333333333,-0.08444444444444445,0.0002879586473225242,0.015889036008029243,0.07564476350589888
1592228763.028389,-9.618554104292162,0.1228675374247033,1.2371082085843224,0.42444444444444446,-0.22333333333333333,-0.08444444444444445,-0.02274178657780061,0.019787385439584575,0.07963064712224129
1592228763.038389,-9.64,0.11,1.254394367967817,0.42444444444444446,-0.21977699555108568,-0.0759092337670501,-0.046079149690279604,0.029584559540118537,0.07544093537834391
1592228763.048389,-9.68910644857018,0.05387834449122322,1.2610456208157914,0.42444444444444446,-0.21777777777777776,-0.07111111111111111,-0.0684299252756592,0.034255404209734566,0.07078994132500122
1592228763.058389,-9.682177295428351,0.03,1.1447978294275836,0.42444444444444446,-0.21777777777777776,-0.07111111111111111,-0.08361353620699657,0.023525386565239607,0.06526069068991439
1592228763.068389,-9.546431964530772,-0.13990604877018897,1.1749530243850945,0.42444444444444446,-0.21777777777777776,-0.07111111111111111,-0.09400605344083889,-0.010099137772330482,0.053158799123110834
1592228763.078389,-9.492452793076318,-0.25667938630999215,1.2456227380015736,0.42444444444444446,-0.21777777777777776,-0.07111111111111111,-0.09637592952887186,-0.023903612671012226,0.037545133911773276
1592228763.088389,-9.482589446894144,-0.34988073747447546,1.2923509218430944,0.41942456735685707,-0.22781753195295262,-0.08115086528628596,-0.09954806604535463,-0.04285088440234702,-0.01785284306875684
1592228763.098389,-9.482638799225308,-0.4283344092963202,1.3131254034861202,0.4177777777777778,-0.2311111111111111,-0.08444444444444445,-0.10437134419026006,-0.047019366525026994,-0.04161081060684209
1592228763.108389,-9.506738145828674,-0.5285665958398569,1.3259142250055918,0.4177777777777778,-0.2311111111111111,-0.08444444444444445,-0.1112647398146385,-0.051491891234046176,-0.09321308842775883
1592228763.118389,-9.577973163557239,-0.48463674094370796,1.375219809001894,0.4177777777777778,-0.2311111111111111,-0.08444444444444445,-0.10454560548190134,-0.05394085034400333,-0.11390524743429076
1592228763.128389,-9.68,-0.4345391820690809,1.4572350924144852,0.4177777777777778,-0.2311111111111111,-0.08444444444444445,-0.07425444879256766,-0.058510249178812264,-0.1367559873193953
1592228763.1383889,-9.743313862522164,-0.3666861374778346,1.3948256319321302,0.4177777777777778,-0.22720284799245893,-0.08444444444444445,-0.04662669155295498,-0.06383262138163434,-0.14455409928637208
1592228763.1483889,-9.790723047127178,-0.2847385409941898,1.407630729502905,0.4177777777777778,-0.22555555555555556,-0.08444444444444445,-0.038437524706405136,-0.07147793700670774,-0.14692483611164014
1592228763.1583889,-9.801894874877062,-0.17297371871926567,1.4810788438422031,0.4177777777777778,-0.22555555555555556,-0.08444444444444445,-0.021228197613638207,-0.08290313946973066,-0.1376227089490129
1592228763.1683888,-10.04984418922175,-0.33069311701871335,1.513933017428319,0.4177777777777778,-0.22555555555555556,-0.08444444444444445,-0.015243595789068216,-0.0754440331472065,-0.1226386066130338
1592228763.1783888,-9.93274302277069,-0.4099314903054391,1.61611427065721,0.4177777777777778,-0.22555555555555556,-0.08444444444444445,-0.0026840698490196817,-0.04762006559035263,-0.05234493106308459
1592228763.1883888,-9.717472449644466,-0.24244057905323096,1.4609507351483044,0.43436521651541904,-0.21657069290599987,-0.08444444444444445,0.029881173762503203,-0.0370882466048795,-0.005626157769117744
1592228763.1983888,-9.777079215046541,-0.14707921504654065,1.4086138566356396,0.4444444444444444,-0.2111111111111111,-0.08444444444444445,0.046969445290073325,-0.039333629812598137,-0.013066207890329152
1592228763.2083888,-9.65559746319833,-0.1,1.2688741653561577,0.4444444444444444,-0.2111111111111111,-0.08444444444444445,0.04880816020423494,-0.04441876782432325,-0.0023120078146222148
1592228763.2183888,-9.661503262708452,-0.14550471280109564,1.2170007250463224,0.4444444444444444,-0.2111111111111111,-0.08444444444444445,0.04641457297922768,-0.047342214140915634,0.0028906620284732476
1592228763.2283888,-9.630627042704704,-0.20765676067617583,1.224414190169044,0.4444444444444444,-0.2111111111111111,-0.08444444444444445,0.03535839642608715,-0.05261548531834824,0.0009630269032372771
1592228763.2383888,-9.596541070338466,-0.2703903547446246,1.2565410703384656,0.42982801630905815,-0.2062389683993157,-0.09094063472683836,0.012207604708640137,-0.05852755155987946,-0.010363632331147312
1592228763.2483888,-9.748610497570379,-0.4167246295329505,1.3356576041122847,0.42444444444444446,-0.20444444444444446,-0.09333333333333334,-0.0032995648917077845,-0.05999569303730508,-0.018955555883830327
1592228763.2583888,-9.764826945349746,-0.39482694534974544,1.3937067363374365,0.42444444444444446,-0.20444444444444446,-0.09333333333333334,-0.01470622174929515,-0.07074181738610996,-0.005778520864801639
1592228763.2683887,-9.634206244238708,-0.2023806661055669,1.363492044407038,0.42444444444444446,-0.20444444444444446,-0.09333333333333334,-0.011315199816976684,-0.07313760050467852,0.0014977227745085803
1592228763.2783887,-9.62415550682365,-0.05346292235304137,1.4355406757648663,0.42444444444444446,-0.20444444444444446,-0.09333333333333334,-0.009385385520222653,-0.0652231992117818,-0.00801356170748445
1592228763.2883887,-9.737296586262639,-0.10636628736251545,1.4718022758249072,0.4371770191694753,-0.20868863601945475,-0.08767441123331961,-0.01646394160516458,-0.05453835815452295,-0.009617698277332457
1592228763.2983887,-9.855485741520376,-0.23517555008340613,1.4683183731829375,0.4444444444444444,-0.2111111111111111,-0.08444444444444445,-0.023298365733023935,-0.04684784176930267,-0.004305441251940894
1592228763.3083887,-9.69104348663153,-0.2551960147281785,1.3746557408610691,0.4444444444444444,-0.2111111111111111,-0.08444444444444445,-0.039336928384723656,-0.03413468437498813,0.0019886863987682965
1592228763.3183887,-9.74408597938649,-0.29502362474600335,1.4320429896932456,0.4444444444444444,-0.2111111111111111,-0.08444444444444445,-0.04605088746971617,-0.02788961113517783,0.006398132331942331
1592228763.3283887,-9.915165163439996,-0.44993393462400183,1.5548348365600047,0.4444444444444444,-0.2111111111111111,-0.08444444444444445,-0.04636391156338918,-0.033223495871374506,0.011442913294343387
1592228763.3383887,-9.71799135456897,-0.19921269886262977,1.4468320164404918,0.4401288153476085,-0.2111111111111111,-0.09677481329254706,-0.05670967304307816,-0.03370281773234125,0.009458375997215133
1592228763.3483887,-9.597992913385827,-0.005993700787401574,1.3839826771653545,0.43666666666666665,-0.2111111111111111,-0.10666666666666667,-0.0641413653639172,-0.029888162195089704,0.006108824166355349
1592228763.3583887,-9.57915800677852,0.14802078373154814,1.33592308338702,0.43666666666666665,-0.2111111111111111,-0.10666666666666667,-0.06022610548879959,-0.0432642536093334,0.012951404150927152
1592228763.3683887,-9.49047070350774,0.2438604742308446,1.1936911620615325,0.43666666666666665,-0.2111111111111111,-0.10666666666666667,-0.06591824365968472,-0.0469899461298684,0.015524298402512758
1592228763.3783886,-9.473546887772976,-0.02417867569776947,1.3482309938105803,0.43666666666666665,-0.2111111111111111,-0.10666666666666667,-0.08834350990788546,-0.04415797147961527,0.00648985079766886
1592228763.3883886,-9.765654152445961,-0.21076222980659842,1.4131513083048919,0.4330072051573758,-0.20745164960182025,-0.09934774364808495,-0.10202246193904993,-0.04042589096156234,0.01090830782496456
1592228763.3983886,-9.662212875782632,-0.20725899727572528,1.3741743535821822,0.43,-0.20444444444444446,-0.09333333333333334,-0.11631108995229464,-0.039293681951682785,0.01090830782496456
1592228763.4083886,-9.629632592520547,-0.2511136507318971,1.451729805962165,0.43,-0.20444444444444446,-0.09333333333333334,-0.11553371666506054,-0.05087871789061413,0.01696861735366022
1592228763.4183886,-9.691223397902883,-0.23237585688012038,1.3648226526858862,0.43,-0.20444444444444446,-0.09333333333333334,-0.12027376656570568,-0.04716488942931174,0.012532946644143544
1592228763.4283886,-9.651763781507322,-0.1848683135332202,1.3094732541328808,0.43,-0.20444444444444446,-0.09333333333333334,-0.12594786108286019,-0.03953978748094829,0.007742025602692805
1592228763.4383886,-9.574408952052066,-0.31342309735688667,1.450483795988843,0.4417085048921946,-0.2020051725919039,-0.09918758577943065,-0.13880137130903036,-0.02037976592516979,0.011121395801237194
1592228763.4483886,-9.833401373254238,-0.501904806389836,1.440952403194918,0.45666666666666667,-0.1988888888888889,-0.10666666666666667,-0.12997211323745372,-0.02747855170688431,0.015457147087374577
1592228763.4583886,-9.627173913043478,-0.44043478260869573,1.3993478260869565,0.45666666666666667,-0.1988888888888889,-0.10666666666666667,-0.12129564027107331,-0.043894082139150865,0.013398247654576034
1592228763.4683886,-9.700995316713184,-0.3707053313780217,1.4218808836747245,0.45666666666666667,-0.1988888888888889,-0.10666666666666667,-0.11111086037883716,-0.059058741690609956,0.010350069147399553
1592228763.4783885,-9.738466503803451,-0.404230669923931,1.5592293789350333,0.45666666666666667,-0.1988888888888889,-0.10666666666666667,-0.10518124961802035,-0.06498835245142677,0.01489391652443452
1592228763.4883885,-9.635946973421165,-0.3466089863336938,1.6188696621112313,0.4430493378050157,-0.19560194743952486,-0.112301423437005,-0.10304463114052181,-0.06251504632620129,0.020894630729384314
1592228763.4983885,-9.557534037743784,-0.24081927140829523,1.59,0.42444444444444446,-0.19111111111111112,-0.12,-0.09159386050837895,-0.051626521365888495,0.011963213386137667
1592228763.5083885,-9.375126417769376,-0.22829119407687462,1.5524062696912415,0.42444444444444446,-0.19111111111111112,-0.12,-0.08577524811791051,-0.0452281073553159,0.008381422718378172
1592228763.5183885,-9.490045529243783,-0.2537670734664188,1.403767073466419,0.42444444444444446,-0.19111111111111112,-0.12,-0.066875664668615,-0.033404830287680605,0.013840846766060464
1592228763.5283885,-9.639477623065686,-0.3232451772563285,1.439350308595963,0.42444444444444446,-0.19111111111111112,-0.12,-0.05781403147231216,-0.028758331132495193,0.01399668039966069
1592228763.5383885,-9.798002715972006,-0.4526031547059438,1.4885438211636894,0.429689288159987,-0.18825028726626972,-0.11475515628445744,-0.05172871578146909,-0.024633655094708953,0.008576233992877182
1592228763.5483885,-9.22077852554298,-0.19399204649739982,1.4613972162740898,0.43666666666666665,-0.18444444444444444,-0.10777777777777778,-0.043546138355767816,-0.03717533954896992,0.013919521340182674
1592228763.5583885,-9.775096150887665,-0.47030768284052804,1.53,0.43666666666666665,-0.18444444444444444,-0.10777777777777778,-0.030509698918531378,-0.04637918743874466,-0.004384299999591691
1592228763.5683885,-9.74048508196077,-0.5261940327843077,1.5448787295098079,0.43666666666666665,-0.18444444444444444,-0.10777777777777778,-0.02343963326530279,-0.05013293444657186,-0.00819445942709443
1592228763.5783885,-9.830557001903346,-0.438826051762235,1.6566323918703099,0.43666666666666665,-0.18444444444444444,-0.10777777777777778,-0.019651778686254548,-0.04653837458622249,0.003995974068860707
1592228763.5883884,-9.957790131822101,-0.27099451767894545,1.4762615498336824,0.43044676467769977,-0.18444444444444444,-0.11512857103746595,-0.006048117119447749,-0.04629234131409524,-0.0012461837927916272
1592228763.5983884,-9.556682829215733,-0.07852766874470869,1.3078157469406604,0.42444444444444446,-0.18444444444444444,-0.12222222222222222,-0.007858212979424942,-0.043048986597680694,-0.009527999282285869
1592228763.6083884,-9.539705149385378,-0.29681824545683644,1.5478993643771175,0.42444444444444446,-0.18444444444444444,-0.12222222222222222,0.005443432841593352,-0.052338435418052026,-0.0016737699218559287
1592228763.6183884,-9.654889115050532,-0.13829637168351044,1.3462076637239355,0.42444444444444446,-0.18444444444444444,-0.12222222222222222,0.0016063361725252535,-0.0545415391248228,-0.000904993761540514
1592228763.6283884,-9.72,-0.16,1.42,0.42444444444444446,-0.18444444444444444,-0.12222222222222222,-0.002181661564992912,-0.0545415391248228,-0.0032724923474893677
1592228763.6383884,-9.517590507651857,-0.5507982201847232,1.6419186948021305,0.43965295100264423,-0.18129785688067895,-0.12222222222222222,0.0017630672945169578,-0.05354697325800677,-0.0016056899686528428
1592228763.6483884,-9.928990351481737,-0.6189903514817368,1.6859321157822191,0.45666666666666667,-0.17777777777777778,-0.12222222222222222,-0.009840782179792286,-0.04091780691227919,-0.002114941212169645
1592228763.6583884,-9.708532379614255,-0.44485323796142545,1.4494129518457017,0.45666666666666667,-0.17777777777777778,-0.12222222222222222,-0.0001921110592548363,-0.028233526305404627,-0.001090830782496456
1592228763.6683884,-9.66,-0.44,1.43,0.45666666666666667,-0.17777777777777778,-0.12222222222222222,-0.006544984694978735,-0.02399827721492203,-0.001090830782496456
1592228763.6783884,-9.809318317060807,-0.3476704207347982,1.6234943688978027,0.45666666666666667,-0.17777777777777778,-0.12222222222222222,0.008345469744059511,-0.03543960708556858,-0.004871558484535338
1592228763.6883883,-9.813075760120949,-0.2610252533736491,1.7214401702222968,0.4545737287766517,-0.1727547268417418,-0.1255709228462462,0.003414503746184942,-0.03530244563126122,-0.007747653271458673
1592228763.6983883,-9.677090484503594,-0.17107579295803388,1.642750583807559,0.45111111111111113,-0.16444444444444445,-0.13111111111111112,-0.002333685888116355,-0.024702382059451793,0.004011270707720944
1592228763.7083883,-9.75840491618915,-0.2678806297863225,1.4740713864938682,0.45111111111111113,-0.16444444444444445,-0.13111111111111112,-0.010975838504799931,-0.020011542776596006,0.008659115580136276
1592228763.7183883,-9.69396202938107,-0.38827486553744883,1.4891374327687243,0.45111111111111113,-0.16444444444444445,-0.13111111111111112,-0.010140076432587469,-0.022746146737365892,0.009777152118703183
1592228763.7283883,-9.120236240857803,-0.20137796379797632,1.3938189035835258,0.45111111111111113,-0.16444444444444445,-0.13111111111111112,-0.03885333041144282,-0.008593513647156768,-0.0003908078784521608
1592228763.7383883,-9.323981460099628,-0.30338798535281897,1.6272143964635635,0.4482678865319976,-0.17060476436585698,-0.12115982508421397,-0.03665490829185135,-0.018640744575524004,9.662127308425472e-05
1592228763.7483883,-9.797348303870043,-0.5411168179646441,1.9925752508361203,0.4444444444444444,-0.17888888888888888,-0.10777777777777778,-0.027372008874164834,-0.034776420210489316,0.01598643000807694
1592228763.7583883,-9.686392405063291,-0.05689873417721519,1.5428481012658226,0.4444444444444444,-0.17888888888888888,-0.10777777777777778,-0.02727767355470568,-0.02419158899916191,-0.005267746120536683
1592228763.7683883,-9.537071563088514,-0.2508655053358443,1.7400368801004393,0.4444444444444444,-0.17888888888888888,-0.10777777777777778,-0.019339649141463768,-0.014472082121044278,0.003867125229316336
1592228763.7783883,-9.21,-0.18,1.8,0.4444444444444444,-0.17888888888888888,-0.10777777777777778,-0.022907446432425576,-0.004363323129985824,0.0032724923474893677
1592228763.7883883,-9.977977853941471,-0.28601107302926443,1.785318569294314,0.44797681238669024,-0.176962142738573,-0.11034677264486563,-0.007925898432729105,0.005044209625970664,-0.00046030457925012294
1592228763.7983882,-9.899437929828652,-0.33764051754283714,1.6546818976570696,0.45666666666666667,-0.17222222222222222,-0.11666666666666667,-0.0032724923474893677,0.017453292519943295,0.001090830782496456
1592228763.8083882,-9.664874602429741,-0.3461536055060222,1.4897445122269148,0.45666666666666667,-0.17222222222222222,-0.11666666666666667,0.006712712938243872,0.00984551706414654,0.0015663167484837532
1592228763.8183882,-9.27,-0.38,1.36,0.45666666666666667,-0.17222222222222222,-0.11666666666666667,0.019634954084936207,0.0,0.002181661564992912
1592228763.8283882,-9.729162179249602,-0.6468429658374937,1.6170723146351567,0.45666666666666667,-0.17222222222222222,-0.11666666666666667,0.036847768703189815,-0.009124890221769063,-0.017175287508990722
1592228763.8383882,-9.611558076602831,-0.3760220649458784,1.7323646960865944,0.45666666666666667,-0.16760159357942456,-0.11666666666666667,0.053406714074193805,-0.018327160602049374,-0.0064979817865739135
1592228763.8483882,-9.687095815470398,-0.061252728755161634,1.8128218616027985,0.45666666666666667,-0.15777777777777777,-0.11666666666666667,0.05880651218715133,-0.0031996765739438016,-0.0186552405171529
1592228763.8583882,-9.43,0.19,1.62,0.45666666666666667,-0.15777777777777777,-0.11666666666666667,0.06326818538479445,0.007635815477475192,-0.006544984694978735
1592228763.8683882,-9.649909414263416,-0.20987921901788686,1.706126820031219,0.45666666666666667,-0.15777777777777777,-0.11666666666666667,0.046909017437678335,0.03883094082460925,-0.01090501403463383
1592228763.8783882,-9.74,-0.33,1.58,0.45666666666666667,-0.15777777777777777,-0.11666666666666667,0.04363323129985824,0.04145156973486533,-0.014180800172453926
1592228763.8883882,-9.682086427228402,-0.246177061091813,1.5134660123012207,0.45464195799738677,-0.15858766124548973,-0.11666666666666667,0.04849592611761492,0.022887979105927027,-0.004271235723031073
1592228763.8983881,-9.18,-0.1,1.38,0.45111111111111113,-0.16,-0.11666666666666667,0.05126904677733343,0.007635815477475192,-0.009817477042468103
1592228763.9083881,-10.124411543287328,-0.003074027603513191,1.6717565872020075,0.45111111111111113,-0.16,-0.11666666666666667,0.05900285909800404,-0.03058897552111204,-0.0004267516160381367
1592228763.9183881,-9.68,0.21,1.55,0.45111111111111113,-0.16,-0.11666666666666667,0.0370882466048795,-0.042542400517361786,-0.001090830782496456
1592228763.928388,-9.854374096095132,0.3680057849911618,1.181870480475655,0.45111111111111113,-0.16,-0.11666666666666667,0.03173015171036413,-0.061223074869064704,-0.009640433961908659
1592228763.938388,-9.783509109219079,0.17327840336903783,1.393278403369038,0.4529599112982799,-0.15741167973796374,-0.11666666666666667,0.0036426937308743686,-0.049820597663598316,0.0029022909641043676
1592228763.948388,-9.57,0.24,1.46,0.45666666666666667,-0.15222222222222223,-0.11666666666666667,-0.004363323129985824,-0.042542400517361786,0.01090830782496456
1592228763.958388,-9.708278587874137,0.19071834228702994,1.4011826554105908,0.45666666666666667,-0.15222222222222223,-0.11666666666666667,-0.03606765427414932,-0.04130297229519294,-0.0004066128250641049
1592228763.968388,-9.84,-0.01,1.42,0.45666666666666667,-0.15222222222222223,-0.11666666666666667,-0.0545415391248228,-0.044724062082354694,-0.001090830782496456
1592228763.978388,-9.325509883149504,0.10220072076007426,1.5451551818281097,0.45666666666666667,-0.15222222222222223,-0.11666666666666667,-0.06491168629203854,-0.03380124479039132,0.0008265869426216453
1592228763.988388,-9.707299874704162,-0.14529270499791175,1.6979569817624947,0.46051506643773105,-0.15429443748356458,-0.11873888192800904,-0.07155693514451153,-0.02399827721492203,0.007416867227347909
1592228763.998388,-9.81,-0.27,1.83,0.4711111111111111,-0.16,-0.12444444444444444,-0.07635815477475191,-0.02399827721492203,0.009817477042468103
1592228764.008388,-9.483466718166603,-0.08676194154757307,1.6497713402858247,0.4711111111111111,-0.16,-0.12444444444444444,-0.07164784998759656,-0.06620616752786125,0.007995268587391689
1592228764.018388,-9.608071074925734,-0.15548685223897019,1.566451314776103,0.4711111111111111,-0.16,-0.12444444444444444,-0.07551347801743977,-0.08564859096583319,0.010028898266634211
1592228764.028388,-9.758069670821348,-0.23075956109513157,1.5653797805475658,0.4711111111111111,-0.16,-0.12444444444444444,-0.07404878222329223,-0.10547230866684706,0.009613766979432383
1592228764.038388,-9.87473950292132,-0.3778466987557897,1.6169715133351497,0.4739353239353239,-0.1582027736573191,-0.12932263023172114,-0.07685798266576595,-0.11647112624124088,-0.0021730757264844785
1592228764.048388,-10.19,-0.77,1.74,0.48333333333333334,-0.15222222222222223,-0.14555555555555555,-0.06763150851478027,-0.1265363707695889,0.019634954084936207
1592228764.058388,-9.411173184357542,-0.5794553072625699,1.8516340782122904,0.48333333333333334,-0.15222222222222223,-0.14555555555555555,-0.03853862496372954,-0.12526119567887725,0.004482156650984041
1592228764.068388,-9.7,-0.63,1.7,0.48333333333333334,-0.15222222222222223,-0.14555555555555555,-0.019634954084936207,-0.11344640137963141,-0.006544984694978735
1592228764.078388,-9.289317659804984,-0.3029783315276273,1.781830335861322,0.48333333333333334,-0.15222222222222223,-0.14555555555555555,0.002306888466090771,-0.0906968713168236,0.005045783740668818
1592228764.088388,-9.464500939047294,-0.4594263274714018,1.8043097148710943,0.48716677100525485,-0.14897854419213477,-0.14349139680913625,0.011420143433032983,-0.07023240519867356,-0.004875158738054248
1592228764.098388,-9.56,-0.79,2.01,0.49777777777777776,-0.14,-0.13777777777777778,0.009817477042468103,-0.038179077387375956,-0.0032724923474893677
1592228764.108388,-9.355218887840698,-0.5966015654878765,1.776280309018128,0.49777777777777776,-0.14,-0.13777777777777778,0.03585827030327773,-0.020226579805985252,-0.007171654060655545
1592228764.118388,-9.79,-1.01,2.04,0.49777777777777776,-0.14,-0.13777777777777778,0.04363323129985824,-0.00545415391248228,-0.008726646259971648
1592228764.128388,-9.915341282144812,-0.6625592741200073,1.8627820080248039,0.49777777777777776,-0.14,-0.13777777777777778,0.08093654047557099,0.01331020460356746,-0.008208113690077574
1592228764.138388,-9.42490068188556,-0.36421583160391346,1.6962555588496886,0.49777777777777776,-0.14208353921665515,-0.13664130184142043,0.10216618267418334,-0.0005329644617711709,-0.01332572854810746
1592228764.148388,-10.13,-0.92,1.97,0.49777777777777776,-0.15222222222222223,-0.13111111111111112,0.10035643198967394,0.002181661564992912,-0.025089107997418484
1592228764.158388,-9.381181818181817,-0.44775098814229247,1.690088932806324,0.49777777777777776,-0.15222222222222223,-0.13111111111111112,0.1317548966098837,-0.0012876545975990773,-0.024204802094295867
1592228764.168388,-9.742534232201878,-0.6122603745868528,1.7246576779812182,0.49777777777777776,-0.15222222222222223,-0.13111111111111112,0.13935487718190764,-0.011994159735519502,-0.02890950517212684
1592228764.1783879,-9.637359828529076,-0.6420410248192143,1.8833547004266742,0.49777777777777776,-0.15222222222222223,-0.13111111111111112,0.14086186919411492,-0.008001756526622208,-0.024653614768213254
1592228764.1883879,-9.474384590270976,-0.3282827293503101,1.6843388834476003,0.49642434795226176,-0.15222222222222223,-0.12840425146007908,0.14479452047805388,0.01883258981690992,-0.017643110609094653
1592228764.1983879,-9.78,-0.51,1.61,0.49,-0.15222222222222223,-0.11555555555555555,0.13308135546456762,0.05126904677733343,-0.01854412330243975
1592228764.2083879,-9.60651651365208,-0.529139143913199,1.665695719565995,0.49,-0.15222222222222223,-0.11555555555555555,0.11757277738674231,0.06445729108552797,-0.025089107997418484
1592228764.2183878,-9.65578519408895,-0.5222314926111857,1.4807438308703953,0.49,-0.15222222222222223,-0.11555555555555555,0.11742207581324256,0.04604026283914618,-0.02110440950939512
1592228764.2283878,-9.686625850340135,-0.5896734693877551,1.5554149659863945,0.49,-0.15222222222222223,-0.11555555555555555,0.11816146178234059,0.03226336106216389,-0.0083749089872483
1592228764.2383878,-9.444484108491006,-0.3169475253984528,1.6887790101593811,0.49265262373007734,-0.15222222222222223,-0.11643976346558134,0.10988455267022716,0.019279003057858186,-0.015928427194574494
1592228764.2483878,-9.67,0.03,1.55,0.51,-0.15222222222222223,-0.12222222222222222,0.10799224746714915,0.009817477042468103,-0.01308996938995747
1592228764.2583878,-9.513185339853838,-0.28139870322545196,1.8543491400626406,0.51,-0.15222222222222223,-0.12222222222222222,0.061344891097561347,-0.00762523623503821,-0.020293684251408876
1592228764.2683878,-9.85,-0.53,1.71,0.51,-0.15222222222222223,-0.12222222222222222,0.044724062082354694,-0.011999138607461015,-0.01854412330243975
1592228764.2783878,-9.831599555678977,-0.5530005554012775,1.71,0.51,-0.15222222222222223,-0.12222222222222222,0.039204325036184415,-0.001963253068969599,-0.007504649210099194
1592228764.2883878,-9.789992822593229,-0.5437965361210797,1.705236386331721,0.5094707095924135,-0.15105778332553182,-0.12158707373311835,0.0325170716178825,0.00950569925695133,0.004830598341448731
1592228764.2983878,-9.6,-0.2,1.66,0.5044444444444445,-0.14,-0.11555555555555555,0.030543261909900768,0.006544984694978735,-0.001090830782496456
1592228764.3083878,-10.019938497340426,-0.5324307402482269,1.5390154033687944,0.5044444444444445,-0.14,-0.11555555555555555,0.012307929302705606,-0.01184809770955218,-0.008152702936025153
1592228764.3183877,-9.85,-0.67,1.45,0.5044444444444445,-0.14,-0.11555555555555555,0.004363323129985824,-0.025089107997418484,-0.001090830782496456
1592228764.3283877,-9.706811875633806,-0.7045772110384707,1.554641940147151,0.5044444444444445,-0.14,-0.11555555555555555,-0.007470167926453333,-0.031636446309206284,-0.002600487676165683
1592228764.3383877,-9.1749009852378,-0.5198438676311741,1.6944744852868974,0.5054387745081994,-0.140596598038253,-0.11744478267668998,-0.019520304559794765,-0.043242758796916234,0.00021226765087694114
1592228764.3483877,-9.53,-0.62,1.74,0.5155555555555555,-0.14666666666666667,-0.13666666666666666,-0.02945243112740431,-0.039269908169872414,-0.008726646259971648
1592228764.3583877,-9.86918487197557,-0.6563190039934226,1.7039088560018791,0.5155555555555555,-0.14666666666666667,-0.13666666666666666,-0.03381575425739013,-0.03357770356513286,-0.001542076497313524
1592228764.3683877,-9.66,-0.6,1.72,0.5155555555555555,-0.14666666666666667,-0.13666666666666666,-0.03381575425739013,-0.0370882466048795,0.001090830782496456
1592228764.3783877,-9.912927198329143,-0.3648152252674652,1.8588510719918163,0.5155555555555555,-0.14666666666666667,-0.13666666666666666,-0.015408932148450747,-0.04766527403577359,0.013546578387847862
1592228764.3883877,-9.627070608138188,-0.2621660285519248,2.0091722316208114,0.51484785827587,-0.14624204829885534,-0.13560512074713837,-0.027458386111384982,-0.04720445322411711,-0.0013479253494333378
1592228764.3983877,-9.29,0.0,1.85,0.5044444444444445,-0.14,-0.12,-0.014180800172453926,-0.06763150851478027,0.01090830782496456
1592228764.4083877,-9.725156104689782,-0.16075009964129136,1.8754061379035472,0.5044444444444445,-0.14,-0.12,-0.02906041607935689,-0.09736346593596419,0.00288047729944195
1592228764.4183877,-9.4374908402979,-0.37,1.6290682248138126,0.5044444444444445,-0.14,-0.12,-0.034054248594998615,-0.09258775975413996,0.002388940050088566
1592228764.4283876,-9.5,-0.37,1.59,0.5044444444444445,-0.14,-0.12,-0.03490658503988659,-0.06872233929727672,-0.016362461737446838
1592228764.4383876,-9.799646978066878,-0.7199607753407642,1.9100784493184715,0.5044880273991509,-0.14002614977282385,-0.12,-0.04358188634098546,-0.07199911039133881,-0.009727623364440743
1592228764.4483876,-9.71,-0.71,1.93,0.5155555555555555,-0.14666666666666667,-0.12,-0.030543261909900768,-0.07308566242726255,0.01308996938995747
1592228764.4583876,-9.386117450748197,-0.34547529335773497,1.654245882226289,0.5155555555555555,-0.14666666666666667,-0.12,-0.02542276317674544,-0.06953435589252566,0.0034568320633709283
1592228764.4683876,-9.58,-0.98,1.76,0.5155555555555555,-0.14666666666666667,-0.12,-0.03599741582238304,-0.05126904677733343,-0.0032724923474893677
1592228764.4783876,-9.770861227105012,-0.8682775457899737,1.7936972227745742,0.5155555555555555,-0.14666666666666667,-0.12,-0.005467915525721172,-0.02051037103358115,-0.00164312698036413
1592228764.4883876,-9.863811661603807,-0.6597892416462808,2.0065964138820935,0.5165869452882544,-0.14628849043134373,-0.11979372205346021,0.00503836613149308,-0.019286670604097732,0.0030699794470371907
1592228764.4983876,-9.624309180918091,-0.34294779477947795,1.9,0.5488888888888889,-0.13444444444444445,-0.11333333333333333,0.026340716044211787,-0.04334628683884601,-0.0035940468760830573
1592228764.5083876,-9.451899170114556,-0.34499605385884774,1.8756185875206275,0.5488888888888889,-0.13444444444444445,-0.11333333333333333,0.027475354141282497,-0.04390486285242211,-0.006886245964579964
1592228764.5183876,-9.85,-0.28,1.77,0.5488888888888889,-0.13444444444444445,-0.11333333333333333,0.028361600344907853,-0.02617993877991494,-0.01308996938995747
1592228764.5283875,-8.998016469662973,-0.03993893271032361,1.6143600656935997,0.5488888888888889,-0.13444444444444445,-0.11333333333333333,0.033228339193743274,-0.032333313432462436,0.005419105822988917
1592228764.5383875,-10.011840960154716,-0.8829535564972555,1.9129535564972555,0.5483944016255384,-0.13504194988765963,-0.11360118060098151,0.021474205043108683,-0.024038732359553165,-0.018463213013177476
1592228764.5483875,-9.601277996422182,-0.5029073345259392,1.5435463327370305,0.5222222222222223,-0.16666666666666666,-0.12777777777777777,0.060312834036895996,-0.02269833475684003,-0.013987377726727543
1592228764.5583875,-9.7,-0.47,1.56,0.5222222222222223,-0.16666666666666666,-0.12777777777777777,0.056723200689815706,-0.006544984694978735,-0.01308996938995747
1592228764.5683875,-9.716141529946631,-0.579276536864993,1.485305396323384,0.5222222222222223,-0.16666666666666666,-0.12777777777777777,0.0630577384894166,-0.009186136356334555,-0.020541643833977045
1592228764.5783875,-9.56,-0.55,1.7,0.5222222222222223,-0.16666666666666666,-0.12777777777777777,0.0545415391248228,0.016362461737446838,-0.01308996938995747
1592228764.5883875,-9.038226600985222,-0.19915236962799393,1.5740546967895364,0.5222222222222223,-0.16666666666666666,-0.12777777777777777,0.06435475438573876,0.010474532580897259,-0.006220718707316293
1592228764.5983875,-9.26,-0.06,1.53,0.5366666666666666,-0.14666666666666667,-0.13444444444444445,0.061086523819801536,0.016362461737446838,-0.02399827721492203
1592228764.6083875,-9.612768642296622,-0.4032343546669821,1.7397543278520446,0.5366666666666666,-0.14666666666666667,-0.13444444444444445,0.061086523819801536,0.018442520624563783,-0.018798129997129664
1592228764.6183875,-9.469962661149935,-0.08863057244493783,1.745291015969927,0.5366666666666666,-0.14666666666666667,-0.13444444444444445,0.063126950085055,0.023050718250516668,-0.011999138607461015
1592228764.6283875,-9.73,-0.34,2.04,0.5366666666666666,-0.14666666666666667,-0.13444444444444445,0.03381575425739013,0.038179077387375956,-0.011999138607461015
1592228764.6383874,-10.056825330190204,0.011337229954467676,1.5497620047146963,0.5366666666666666,-0.14666666666666667,-0.13444444444444445,0.05609769992433021,0.00965818693369266,0.0031525844460582337
1592228764.6483874,-9.51,-0.21,2.04,0.5422222222222223,-0.14666666666666667,-0.11888888888888889,0.019634954084936207,-0.01308996938995747,-0.01090830782496456
1592228764.6583874,-9.181232166018159,-0.12033604527767951,1.6514561962032779,0.5422222222222223,-0.14666666666666667,-0.11888888888888889,0.03376280546926047,-0.01852375838392834,-0.004387761032199516
1592228764.6683874,-10.06,-0.27,1.5,0.5422222222222223,-0.14666666666666667,-0.11888888888888889,0.028361600344907853,-0.014180800172453926,0.002181661564992912
1592228764.6783874,-9.237922948073702,-0.26021336842944887,1.8327454733987398,0.5422222222222223,-0.14666666666666667,-0.11888888888888889,0.004875370601868382,-0.014180800172453926,-0.009561453306526824
1592228764.6883874,-9.50300906729849,-0.4392390759557115,1.5569909327015083,0.5422222222222223,-0.14666666666666667,-0.11888888888888889,-0.000781926908927609,-0.02447130025028079,-0.011875577058033476
1592228764.6983874,-9.556952618564969,-0.3182842886101891,1.4026633400904414,0.5222222222222223,-0.15222222222222223,-0.10666666666666667,0.0010181994486236996,-0.03775308209994762,-0.009744845708595348
1592228764.7083874,-9.519194715932633,-0.5334426868800117,1.9139028492042214,0.5222222222222223,-0.15222222222222223,-0.10666666666666667,-0.012889185698680247,-0.045915284710489765,0.0042001863808230795
1592228764.7183874,-9.46079747591472,0.005885637123789242,1.4112350359656183,0.5222222222222223,-0.15222222222222223,-0.10666666666666667,0.003303283410892044,-0.054109671091117924,-0.00962117339078407
1592228764.7283874,-9.75,-0.64,1.98,0.5222222222222223,-0.15222222222222223,-0.10666666666666667,-0.025089107997418484,-0.042542400517361786,-0.004363323129985824
1592228764.7383873,-9.3881330821893,-0.33991523888868763,2.191824537255044,0.5222222222222223,-0.15222222222222223,-0.10666666666666667,-0.018349720163747297,-0.02713808546897049,-0.005326092820510279
1592228764.7483873,-9.49,0.08,1.76,0.5366666666666666,-0.16666666666666666,-0.11333333333333333,0.0,-0.025089107997418484,0.016362461737446838
1592228764.7583873,-9.58598833758162,-0.39994168790809725,2.231215475400677,0.5366666666666666,-0.16666666666666666,-0.11333333333333333,-0.03141211001840758,-0.013666522536179367,-0.003627062819721621
1592228764.7683873,-9.08,-0.35,1.68,0.5366666666666666,-0.16666666666666666,-0.11333333333333333,-0.015271630954950384,-0.001090830782496456,0.019634954084936207
1592228764.7783873,-9.575846935074356,-0.6370692782009431,1.7756897594003145,0.5366666666666666,-0.16666666666666666,-0.11333333333333333,-0.03614789797965888,0.02358112115579541,-0.005036997853355655
1592228764.7883873,-9.702302253844596,-0.5666784500033775,1.3715819692432396,0.5366666666666666,-0.16666666666666666,-0.11333333333333333,-0.01835050839107552,0.00825313339986877,0.007438344478189586
1592228764.7983873,-9.74,-0.82,1.8,0.5422222222222223,-0.14666666666666667,-0.08333333333333333,-0.0272707695624114,0.01308996938995747,-0.009817477042468103
1592228764.8083873,-10.017022222222222,-0.9486174603174603,1.6911698412698413,0.5422222222222223,-0.14666666666666667,-0.08333333333333333,-0.0024484822373464082,-0.046267674213458815,-0.013055166693563536
1592228764.8183873,-9.58,-0.44,1.29,0.5422222222222223,-0.14666666666666667,-0.08333333333333333,-0.002181661564992912,-0.05235987755982988,0.00545415391248228
1592228764.8283873,-9.218879296813686,-0.6295883691728144,1.6330646680269973,0.5422222222222223,-0.14666666666666667,-0.08333333333333333,0.014560005552383924,-0.014937327532752252,0.000530134172077327
1592228764.8383873,-9.462112704022873,-0.6578364640006354,1.8659116000158849,0.5422222222222223,-0.14666666666666667,-0.08333333333333333,0.00781420557962842,0.025849193653654644,-0.021370640394546052
1592228764.8483872,-9.71,-0.55,1.94,0.5466666666666666,-0.17333333333333334,-0.07777777777777778,0.03599741582238304,0.04690572364734761,-0.004363323129985824
1592228764.8583872,-9.386895191416874,-0.5431254296046144,2.0499931263261706,0.5466666666666666,-0.17333333333333334,-0.07777777777777778,0.02924832211903007,0.04090652924436719,-0.006613021031103481
1592228764.8683872,-9.87,-0.4,1.48,0.5466666666666666,-0.17333333333333334,-0.07777777777777778,0.05563236990731925,0.05126904677733343,-0.006544984694978735
1592228764.8783872,-9.029296976592978,-0.3048260728218466,1.2975833062418725,0.5466666666666666,-0.17333333333333334,-0.07777777777777778,0.04265503872519352,0.03483109394664084,0.008162657311430423
1592228764.8883872,-10.074305157431441,-1.0202839408644622,1.9237415641575444,0.5466666666666666,-0.17333333333333334,-0.07777777777777778,0.045621224544455774,-0.0075646363375993925,-0.006147479605634297
1592228764.8983872,-9.77,-0.26,1.32,0.54,-0.17888888888888888,-0.06333333333333334,0.06981317007977318,-0.04799655442984406,-0.01854412330243975
1592228764.9083872,-9.209383676645235,-0.6055854048077316,1.8191789180556124,0.54,-0.17888888888888888,-0.06333333333333334,0.05054554887187815,-0.055536058380759507,-0.0026273927393960263
1592228764.9183872,-9.116650995721303,-0.19260577888120012,1.500512651207015,0.54,-0.17888888888888888,-0.06333333333333334,0.05831121774914755,-0.04631720744656437,-0.02917331305068292
1592228764.9283872,-10.037456636886494,-0.9406635749846552,1.9387283184432471,0.54,-0.17888888888888888,-0.06333333333333334,0.05189933266695839,-0.0418117331003653,-0.012529042969714459
1592228764.9383872,-9.784128695728407,-0.7580965217963047,1.669319043548776,0.54,-0.17888888888888888,-0.06333333333333334,0.04668931230662483,-0.048779144887999074,-0.020067776766381752
1592228764.9483871,-9.74,-0.92,1.84,0.5277777777777778,-0.1811111111111111,-0.09222222222222222,0.044724062082354694,-0.04908738521234052,-0.014180800172453926
1592228764.9583871,-9.814398202501923,-0.6802724586049148,1.7821347313873932,0.5277777777777778,-0.1811111111111111,-0.09222222222222222,0.058250036990938434,-0.04548045857005152,-0.006065215227303682
1592228764.9683871,-9.257824287510477,-0.3044517497904442,1.858785886420788,0.5277777777777778,-0.1811111111111111,-0.09222222222222222,0.04602090947061916,-0.04902852332497823,-0.009743899683265243
1592228764.978387,-9.870165987892129,-0.8289651073197579,1.86,0.5277777777777778,-0.1811111111111111,-0.09222222222222222,0.04680974014404242,-0.09882974917190374,-0.02573503350952833
1592228764.988387,-9.408433947856443,-0.8137693902039926,1.8931153048980036,0.5277777777777778,-0.1811111111111111,-0.09222222222222222,0.05954884153142194,-0.09188888630195144,-0.022755370318099134
1592228764.998387,-9.43,-0.73,1.71,0.5344444444444445,-0.17555555555555555,-0.06333333333333334,0.05017821599483697,-0.05781403147231216,-0.00545415391248228
1592228765.008387,-9.483541102776273,-0.8103116541644111,1.736770551388137,0.5344444444444445,-0.17555555555555555,-0.06333333333333334,0.04239097825654815,-0.030558699388301264,-0.009347772781626695
1592228765.018387,-10.1013318731505,-0.82,1.6031346552648136,0.5344444444444445,-0.17555555555555555,-0.06333333333333334,0.04443750835674794,-0.022294205192607042,-0.0038455997987028746
1592228765.028387,-9.530086605874535,-0.6975168400311598,1.65124157998442,0.5344444444444445,-0.17555555555555555,-0.06333333333333334,0.03899798774386404,-0.04281222155772818,-0.009952912409061796
1592228765.038387,-9.644895516606953,-0.7435882637745715,1.7235882637745714,0.5344444444444445,-0.17555555555555555,-0.06333333333333334,0.05282259599943519,-0.07124837255948034,-0.017073999872147392
1592228765.048387,-9.546086956521739,-0.77,1.907639751552795,0.551959972394755,-0.17555555555555555,-0.06333333333333334,0.0407537090479266,-0.09996346189411623,-0.02632222105589274
1592228765.058387,-9.734271469700161,-0.5021606628747981,1.9478559558083468,0.5544444444444444,-0.17555555555555555,-0.06333333333333334,0.045970207886032385,-0.11714646323964766,-0.007792943315770334
1592228765.068387,-9.343079784266319,-0.37445578389436485,1.7762832434442999,0.5544444444444444,-0.17555555555555555,-0.06333333333333334,0.03553598851816356,-0.13216524627616177,-0.009244065622210296
1592228765.078387,-9.829904972262174,-0.5743697349496609,1.9177676186562564,0.5544444444444444,-0.17555555555555555,-0.06333333333333334,0.02364874966092507,-0.11383817705413393,0.002382928473289978
1592228765.088387,-9.69171378923361,-0.44142815769467475,1.8646283893856568,0.5544444444444444,-0.17555555555555555,-0.06333333333333334,0.01512824296048039,-0.1032798332131989,0.0006794245235076392
1592228765.098387,-9.43,-0.67,1.74,0.54,-0.1688888888888889,-0.03333333333333333,-0.009817477042468103,-0.10471975511965977,-0.006544984694978735
1592228765.108387,-10.334242276422763,-0.9689833333333333,1.9150146341463414,0.54,-0.1688888888888889,-0.03333333333333333,-0.005840157244255924,-0.10153789928109001,-0.007340448654621172
1592228765.118387,-9.09560539629005,-0.38433726812816194,1.4674064080944351,0.54,-0.1688888888888889,-0.03333333333333333,-0.0013678613319803787,-0.11932769004370844,0.021320315236577445
1592228765.128387,-9.193177447029248,-0.3134276365667771,1.5317301783647899,0.54,-0.1688888888888889,-0.03333333333333333,-0.019731105283951996,-0.11104514597170748,0.008942670886823326
1592228765.138387,-9.641846233253293,-0.5420286797872579,2.016633378963668,0.54,-0.1688888888888889,-0.03333333333333333,-0.021287785116631593,-0.09846240449246078,-0.016054925840126247
1592228765.148387,-9.410483209190758,-0.24168129024113116,1.8301836889281657,0.5335330135083954,-0.1688888888888889,-0.03980031982493793,-0.04393991986855153,-0.07588810324484964,-0.019700299269419803
1592228765.158387,-9.4405161392782,-0.3988172469924961,2.0225806963909956,0.5333333333333333,-0.1688888888888889,-0.04,-0.05429991666341224,-0.07011109460245525,-0.007112682709707109
1592228765.168387,-9.004598540145984,-0.42642335766423356,1.9771289537712895,0.5333333333333333,-0.1688888888888889,-0.04,-0.06767131985720715,-0.07347581358304595,-0.001090830782496456
1592228765.178387,-9.727105610077633,-0.651281431570724,2.0895176016796055,0.5333333333333333,-0.1688888888888889,-0.04,-0.06670402805745917,-0.06307578139076249,0.011019036656408831
1592228765.188387,-9.779102274700469,-0.697244313248828,2.1217954505990626,0.5333333333333333,-0.1688888888888889,-0.04,-0.07010694999705952,-0.040185342302847815,0.010810381185869114
1592228765.198387,-9.686011261407028,-0.8226529027247427,2.046679179341143,0.5333333333333333,-0.18651615501333965,-0.06177485815373331,-0.07003174571258718,-0.0085829765530025,0.02305111613939472
1592228765.208387,-9.461498488438597,-0.795859138818531,1.964890105400768,0.5333333333333333,-0.18777777777777777,-0.06333333333333334,-0.07800638858966384,0.0042815932641839406,0.018039572844092466
1592228765.218387,-9.778390288687136,-0.6231036417423238,1.9648658573905946,0.5333333333333333,-0.18777777777777777,-0.06333333333333334,-0.08656640249970823,0.009817477042468103,0.020025724767424417
1592228765.2283869,-9.394901444890262,-0.454331381964086,1.8647948869740623,0.5333333333333333,-0.18777777777777777,-0.06333333333333334,-0.09344589975627789,0.013348583989074623,0.029553552233948965
1592228765.2383869,-9.465436936848894,-0.48497664327736845,2.041427594159842,0.5333333333333333,-0.18777777777777777,-0.06333333333333334,-0.10978676782954308,0.017015941077663722,0.025255025655675185
1592228765.2483869,-9.680132871379076,-1.0691788405900633,2.450332178447691,0.5266592849233847,-0.19445182618772647,-0.037590575180674116,-0.1252979893147592,0.024160321906296203,-0.0015842118661394435
1592228765.2583869,-9.623630433241154,-1.0215801602495922,2.2374796142664684,0.5255555555555556,-0.19555555555555557,-0.03333333333333333,-0.12185039284210013,0.0037418752166363395,0.004959130370826085
1592228765.2683868,-9.5566299828809,-0.9614649058449498,2.2327097089752996,0.5255555555555556,-0.19555555555555557,-0.03333333333333333,-0.10129947107407722,-0.0033085065699488964,0.024525685494940493
1592228765.2783868,-9.373950114840634,-0.624316396018858,2.2790558891082724,0.5255555555555556,-0.19555555555555557,-0.03333333333333333,-0.08384896276737978,0.004775269219100414,0.020210852256039424
1592228765.2883868,-9.513649984061205,-0.4138999954460586,2.2560166674256568,0.5255555555555556,-0.19555555555555557,-0.03333333333333333,-0.0773335390096587,-0.004238785911910381,0.019084993358445098
1592228765.2983868,-9.369937962150646,-0.4409979320716882,2.25,0.5355578532536798,-0.18255256854799404,-0.0073273593182103,-0.08355854024317193,-0.01570931672386408,0.005014212383710054
1592228765.3083868,-9.574835227504176,-0.5288565725691474,2.116715141146279,0.5366666666666666,-0.1811111111111111,-0.0044444444444444444,-0.08468630942783822,-0.023285853493557995,0.004657170698711599
1592228765.3183868,-9.594399649430324,-0.34879929886064853,1.7675134593714787,0.5366666666666666,-0.1811111111111111,-0.0044444444444444444,-0.08688623561856333,-0.02276718310281197,0.019865630583200452
1592228765.3283868,-9.44179617162787,-0.4897416659907535,1.8638445940465567,0.5366666666666666,-0.1811111111111111,-0.0044444444444444444,-0.09453859408567154,-0.018460247271796015,0.025145025351180978
1592228765.3383868,-9.458168828313914,-0.5778874477907232,1.8652517036711365,0.5366666666666666,-0.1811111111111111,-0.0044444444444444444,-0.0957055937776452,-0.013836213706319083,0.022246809192201848
1592228765.3483868,-9.176305790798809,-0.38334630350194554,1.8072533760585947,0.5318740622059459,-0.17631850665039037,-0.0044444444444444444,-0.08425138534418267,-0.017795097816633073,0.002696491748904035
1592228765.3583868,-9.760619376438585,-0.6977811257585269,2.072071563088512,0.5311111111111111,-0.17555555555555555,-0.0044444444444444444,-0.06320947819139455,-0.033790828808248345,0.005082235168602865
1592228765.3683867,-9.326777748759469,-0.4057362235570646,1.834258553147036,0.5311111111111111,-0.17555555555555555,-0.0044444444444444444,-0.04180249304588103,-0.04654528512396957,0.01054786930158652
1592228765.3783867,-8.942109063041988,-0.27030129472028397,1.764849352639858,0.5311111111111111,-0.17555555555555555,-0.0044444444444444444,-0.038200988157741915,-0.02962771729033199,0.007128743934367392
1592228765.3883867,-9.720730500515405,-0.7993920513114191,2.0832848470965524,0.5311111111111111,-0.17555555555555555,-0.0044444444444444444,-0.024969667586461367,-0.017145421117557798,0.016505790230595382
1592228765.3983867,-9.325044782463491,-0.3633054012205118,1.7588702674803411,0.5236328613885769,-0.19238161743125767,-0.0044444444444444444,-0.04349565619980388,-0.0003628485306200087,0.0027176215659990774
1592228765.4083867,-9.639592364930444,-0.6631802005823358,1.9433160789388548,0.5222222222222223,-0.19555555555555557,-0.0044444444444444444,-0.03449580308232403,-0.005728008550857321,-0.006153612537816468
1592228765.4183867,-9.771642409433762,-0.6640940720280464,2.0487801444810367,0.5222222222222223,-0.19555555555555557,-0.0044444444444444444,-0.023552986948084397,-0.03241269880308436,0.002982662560277679
1592228765.4283867,-9.440668232625951,-0.415387574923052,1.9651202818726712,0.5222222222222223,-0.19555555555555557,-0.0044444444444444444,-0.02073453201205174,-0.04143990687537322,0.008720814830225595
1592228765.4383867,-9.364787162162163,-0.38860557432432435,1.969939189189189,0.5222222222222223,-0.19555555555555557,-0.0044444444444444444,-0.005196371435334891,-0.04649583292510717,0.010227367764708537
1592228765.4483867,-9.249312659544294,-0.20126311808641395,1.885851375626359,0.5222222222222223,-0.18963673799544084,0.010775372138707676,-0.014420582867859456,-0.007060337008501928,-0.010105216276954734
1592228765.4583867,-9.493163758335662,-0.11510681627600527,2.001688695443837,0.5222222222222223,-0.18777777777777777,0.015555555555555555,-0.005757101965521566,0.0033190997402646424,0.0012517351833486665
1592228765.4683867,-9.412336216272204,-0.04960536537365995,1.8806748148531773,0.5222222222222223,-0.18777777777777777,0.015555555555555555,-0.004449419049635965,-0.005497201872307351,0.005635384693478119
1592228765.4783866,-9.678534897418277,-0.468388387160106,2.045062334347698,0.5222222222222223,-0.18777777777777777,0.015555555555555555,-0.012204519331995048,-0.010244220281492742,-0.011081724969585448
1592228765.4883866,-9.796006688233797,-0.6560317691105376,2.0699832794155064,0.5222222222222223,-0.18777777777777777,0.015555555555555555,-0.009161337033426215,-0.00392407252446455,-0.00937913840336017
1592228765.4983866,-9.487774476837192,-0.5374421337860338,2.1013620188697724,0.510225189441343,-0.1942377185059435,0.03308968038914825,-0.025016601991308247,0.03372512174975233,-0.011241707249917444
1592228765.5083866,-9.52374677002584,-0.4617054263565891,2.0398320413436695,0.5077777777777778,-0.19555555555555557,0.03666666666666667,-0.019164233824789156,0.03206817005804181,-0.008460280603780651
1592228765.5183866,-10.097191771624997,-0.6314743400381341,2.151474340038134,0.5077777777777778,-0.19555555555555557,0.03666666666666667,-0.024541539477225566,0.011318984215109249,0.008561514452335895
1592228765.5283866,-9.76876137512639,-0.478422649140546,2.112674418604651,0.5077777777777778,-0.19555555555555557,0.03666666666666667,-0.028529250778618127,0.009482176175047555,0.001382564596419925
1592228765.5383866,-9.508591136587244,-0.3954442400650212,2.3123362706934163,0.5077777777777778,-0.19555555555555557,0.03666666666666667,-0.020020316878162327,0.010021742420847631,-0.006498648767912859
1592228765.5483866,-9.527948906001711,-0.0715719349712749,2.0930607505194962,0.5133489521791685,-0.19396379144087247,0.02632019992122669,-0.023866540164059487,0.011852067790556774,0.009538669174701316
1592228765.5583866,-9.275697637035845,0.05671274714676097,1.8622721427423243,0.5155555555555555,-0.19333333333333333,0.022222222222222223,-0.028239559157861152,0.019871496558105748,0.012727615779279295
1592228765.5683866,-9.768261882810899,-0.5570917844703954,1.9771629788977667,0.5155555555555555,-0.19333333333333333,0.022222222222222223,-0.038090102381172025,0.01893868624988853,0.01326403634871939
1592228765.5783865,-9.693518916867012,-0.5725863596102746,1.816326711375427,0.5155555555555555,-0.19333333333333333,0.022222222222222223,-0.05551490856404398,0.01615058963177405,0.013741320834042094
1592228765.5883865,-9.7681326434619,-0.6483254938852305,1.8264440263405455,0.5155555555555555,-0.19333333333333333,0.022222222222222223,-0.0698778195052645,0.012269024304353365,0.009849801755213765
1592228765.5983865,-9.299997751870764,-0.7156774898031282,2.018389697144876,0.5090018663041113,-0.18268358829973627,0.043521712289416314,-0.06786262296614454,0.000684059538781057,0.01889543688714202
1592228765.6083865,-9.404494784491241,-0.8202389293446173,2.0259059240307025,0.5066666666666667,-0.17888888888888888,0.051111111111111114,-0.07477783487907068,-0.009044556557692717,0.01604455143972577
1592228765.6183865,-9.99778153305394,-0.8504947951872381,1.7333445991618224,0.5066666666666667,-0.17888888888888888,0.051111111111111114,-0.05830731644830928,-0.03449706265473144,-0.00022710279911376894
1592228765.6283865,-9.66839405204461,-0.6070194134655101,1.6916910367616689,0.5066666666666667,-0.17888888888888888,0.051111111111111114,-0.047759013748913816,-0.03908080380001956,0.0025114339936212287
1592228765.6383865,-9.359017264276229,-0.5186958831341302,1.9893386454183268,0.5066666666666667,-0.17888888888888888,0.051111111111111114,-0.044583833105268825,-0.05285067897963042,0.009254533029084142
1592228765.6483865,-9.633785598047194,-0.5765093572009764,2.073195687550854,0.4992374107223579,-0.18260351686104329,0.051111111111111114,-0.05421868339078449,-0.05523229506988209,0.003621087782660631
1592228765.6583865,-9.596927111043552,-0.4578665349243749,1.970430189252869,0.4955555555555556,-0.18444444444444444,0.051111111111111114,-0.0642843153589737,-0.04543276631042946,0.006115931772624159
1592228765.6683865,-9.304066923410442,-0.3571866153179117,1.7376602310693974,0.4955555555555556,-0.18444444444444444,0.051111111111111114,-0.08874013717822746,-0.02034294107141813,0.012348569468440776
1592228765.6783864,-9.577810218978103,-0.5201378751013788,1.7550689375506894,0.4955555555555556,-0.18444444444444444,0.051111111111111114,-0.098942465811146,-0.009372917052034633,0.01379042784254593
1592228765.6883864,-10.021275643075798,-0.7675894366518938,1.7207008726641386,0.4955555555555556,-0.18444444444444444,0.051111111111111114,-0.10317179910588184,-0.009536932131120154,0.017335572306654282
1592228765.6983864,-9.539651936218679,-0.4725986332574032,1.63125284738041,0.4912554796254113,-0.18444444444444444,0.06114462161478107,-0.08853699470838639,-0.03317795369873139,0.015271630954950384
1592228765.7083864,-9.444167606768735,-0.480945205479452,1.824887187751813,0.4888888888888889,-0.18444444444444444,0.06666666666666667,-0.07341959201168673,-0.05115187696000323,0.015598528592347992
1592228765.7183864,-9.780628649856025,-0.7586329018541942,2.043561183024301,0.4888888888888889,-0.18444444444444444,0.06666666666666667,-0.06827795176302039,-0.0672803255267826,0.01996749616368213
1592228765.7283864,-9.828698352687011,-0.7192364299216851,1.9253382392654603,0.4888888888888889,-0.18444444444444444,0.06666666666666667,-0.07074374918911866,-0.05951493801785214,0.02328031142376905
1592228765.7383864,-9.28275538544122,-0.38053889420496184,1.7819165869255724,0.4888888888888889,-0.18444444444444444,0.06666666666666667,-0.07983971432381574,-0.008367296095550862,0.02004644375603314
1592228765.7483864,-9.672633406819074,-0.5571410020233745,2.0277223446984567,0.4888888888888889,-0.18314485415261544,0.07836297929312758,-0.09198046050032636,0.03428805338246644,0.011361203714728738
1592228765.7583864,-9.366026935221509,-0.5011520428667113,2.1034891397952347,0.4888888888888889,-0.18222222222222223,0.08666666666666667,-0.1111645652051752,0.05030568485840255,0.0226798029593967
1592228765.7683864,-9.25598683166746,-0.41430667935903537,2.0712398857686813,0.4888888888888889,-0.18222222222222223,0.08666666666666667,-0.11982411843201411,0.0579812991149082,0.027891814503390063
1592228765.7783864,-9.36276911076443,-0.4408034321372855,1.9570085803432138,0.4888888888888889,-0.18222222222222223,0.08666666666666667,-0.1159786263474235,0.07243303589826505,0.027947646229709317
1592228765.7883863,-9.366222348939182,-0.6224446978783649,2.0752983856696225,0.4888888888888889,-0.18222222222222223,0.08666666666666667,-0.11454615493786216,0.07447885948265856,0.030937494164699215
1592228765.7983863,-9.583974837246727,-0.8196386511593885,2.1226512325360254,0.4814056925040028,-0.18970541860710832,0.08666666666666667,-0.08369191920057469,0.06129689433827508,0.025378312603603723
1592228765.8083863,-9.773536962205847,-0.8778737817922511,2.0356350526899614,0.47444444444444445,-0.19666666666666666,0.08666666666666667,-0.061086523819801536,0.05235987755982988,0.01854412330243975
1592228765.8183863,-9.566147659423647,-0.9987158864745495,1.770474658523951,0.47444444444444445,-0.19666666666666666,0.08666666666666667,-0.07049653412241894,0.04545920333791046,0.014780119181392791
1592228765.8283863,-9.199575388244543,-0.8572341262040495,1.6990642815018675,0.47444444444444445,-0.19666666666666666,0.08666666666666667,-0.0744503266890686,0.02678786197008154,0.012788259362245162
1592228765.8383863,-9.778759831914664,-0.8521456739575477,1.847342527744855,0.47444444444444445,-0.19666666666666666,0.08666666666666667,-0.059095972140848836,-0.05961991411501247,0.008436761006017411
1592228765.8483863,-9.857947012401352,-0.8564853438556933,1.9438883878241264,0.4650872479017913,-0.19272679443818114,0.08371176249530252,-0.056858908893703514,-0.060379082548515074,0.002045953361105106
1592228765.8583863,-9.260265225003549,-0.6722578431836463,1.953257228031988,0.4533333333333333,-0.18777777777777777,0.08,-0.05017821599483697,-0.04840569985157587,0.013308001341183755
1592228765.8683863,-9.603936827340652,-0.9136436220429963,2.136968413670326,0.4533333333333333,-0.18777777777777777,0.08,-0.045031158915006905,-0.031017103760339712,0.012949617575091988
1592228765.8783863,-10.123683668212262,-1.239541473467285,2.400577022153529,0.4533333333333333,-0.18777777777777777,0.08,-0.04454815789125661,-0.02056280654341207,0.009817477042468103
1592228765.8883862,-9.524658108462143,-0.9340826128722381,2.0574962885337524,0.4533333333333333,-0.18777777777777777,0.08,-0.05388585942209612,-0.033779269392339384,0.00396465691526679
1592228765.8983862,-9.598610303921234,-0.8799866671224916,1.9404454548562442,0.4489143770963196,-0.18399010100319457,0.1172454882834015,-0.05230983158156896,-0.06056540422202349,0.014080708215932084
1592228765.9083862,-9.937674246265455,-1.035653886657046,2.0194910097897734,0.44555555555555554,-0.1811111111111111,0.14555555555555555,-0.06287182906942579,-0.06763150851478027,0.02418535092882027
1592228765.9183862,-10.007826887661142,-1.0724644661661236,1.9011597487840581,0.44555555555555554,-0.1811111111111111,0.14555555555555555,-0.07577320533120327,-0.059884997690863896,0.005359272186961268
1592228765.9283862,-9.47071109552204,-1.0182567520168362,2.073624926926225,0.44555555555555554,-0.1811111111111111,0.14555555555555555,-0.06717293360988792,-0.05182235675825037,0.013959751661729872
1592228765.9383862,-9.224649664369261,-0.9263918011808814,2.1472680331365197,0.44555555555555554,-0.1811111111111111,0.14555555555555555,-0.0690214771642411,-0.038870682176646604,0.011598786102415281
1592228765.9483862,-9.558676161495749,-0.7965272767198921,1.8874367098534994,0.44247932155890873,-0.18418734510775794,0.14063358116092062,-0.03565459991188176,-0.03185049994115048,0.0028668827460547747
1592228765.9583862,-9.39300524882592,-0.6563731796834918,1.799585619006275,0.44,-0.18666666666666668,0.13666666666666666,-0.005471115407738745,-0.03782865461735657,0.01081222138483148
1592228765.9683862,-9.643283882973224,-0.9409278403804404,2.0154362658947584,0.44,-0.18666666666666668,0.13666666666666666,-0.00679595584213534,-0.04707166570218514,7.487973116692315e-05
1592228765.9783862,-9.625895761458846,-0.9091855593888616,1.920977082306555,0.44,-0.18666666666666668,0.13666666666666666,0.005567860521894798,-0.06058196754115544,0.01459651476218551
1592228765.9883862,-9.64098508240021,-1.0387392582121202,2.0484003571295712,0.44,-0.18666666666666668,0.13666666666666666,0.0007383935463080062,-0.06277477325413063,0.02153121656160288
1592228765.9983861,-9.820671875961361,-1.4081914108164646,2.1751679689903405,0.43310937467954636,-0.17518229113257724,0.13264713522973537,0.005220222288019632,-0.05112246618119904,-0.02038191779586922
1592228766.0083861,-9.84,-1.5,2.18,0.4266666666666667,-0.16444444444444445,0.1288888888888889,0.014180800172453926,-0.04690572364734761,-0.02617993877991494
1592228766.0183861,-9.376480184559611,-1.2681263903765345,2.1060072505561505,0.4266666666666667,-0.16444444444444445,0.1288888888888889,0.047971748522620775,-0.03626677561929677,-0.003914390135129616
1592228766.028386,-9.851054545454545,-1.3482165289256198,2.237487603305785,0.4266666666666667,-0.16444444444444445,0.1288888888888889,0.07668702673297895,-0.020122852944016438,-0.01840979785897531
1592228766.038386,-9.733787380111055,-0.849704593639576,1.9255032811711257,0.4266666666666667,-0.16444444444444445,0.1288888888888889,0.09829093481734912,-0.013054463701489338,-0.019447778315331867
1592228766.048386,-9.422810627685937,-0.6347915555694972,1.9565422378368207,0.429646684860462,-0.1574910686589221,0.13236557678165006,0.10561961609139953,-0.023907771006455546,-0.02261081190645356
1592228766.058386,-9.691826666367533,-0.9663646153500998,2.344541538599601,0.43333333333333335,-0.14888888888888888,0.13666666666666666,0.09827439961983378,-0.028758159293140476,-0.034113075576945685
1592228766.068386,-9.568798665183538,-0.7182708920076681,2.0487986651835373,0.43333333333333335,-0.14888888888888888,0.13666666666666666,0.10583937146347691,-0.021672687843325617,-0.016519272050865615
1592228766.078386,-9.431300695317876,-0.7388298251026365,2.0634685208476706,0.43333333333333335,-0.14888888888888888,0.13666666666666666,0.0930689710018652,-0.018022355219381336,-0.015460809420468883
1592228766.088386,-9.547475350285417,-0.9803747497961302,2.201873748980651,0.43333333333333335,-0.14888888888888888,0.13666666666666666,0.09161903026272387,-0.019634954084936207,-0.02750528726344481
1592228766.098386,-9.696704181624138,-1.032992141263219,2.1033520908120695,0.4313573299699234,-0.1531702295096105,0.1472053512715199,0.10532406711811275,-0.011875207022489311,-0.027796552751258048
1592228766.108386,-9.681123028391168,-0.9045173501577287,1.9469716088328075,0.4266666666666667,-0.16333333333333333,0.17222222222222222,0.1092482513649763,-0.0001442970688097303,-0.023915690657256686
1592228766.118386,-9.538055686293939,-0.6741078550372811,1.8503200475612473,0.4266666666666667,-0.16333333333333333,0.17222222222222222,0.1134748550151926,-0.015995185560288824,-0.021541158517060607
1592228766.128386,-9.505377589300277,-0.5276822704289675,2.0558962648833794,0.4266666666666667,-0.16333333333333333,0.17222222222222222,0.10458008750193677,-0.03518663195746112,-0.02676725445648007
1592228766.138386,-9.36022420688369,-0.22,2.081962535485609,0.4266666666666667,-0.16333333333333333,0.17222222222222222,0.10431605347280869,-0.040407641579312654,-0.025089107997418484
1592228766.148386,-9.507401911150488,-0.2243092646500443,2.1958555879002657,0.4204421732832694,-0.15710883994993602,0.1659977288388249,0.0950529731536497,-0.023323566414509403,-0.021328565173264775
1592228766.158386,-9.57,-0.23,2.23,0.4122222222222222,-0.14888888888888888,0.15777777777777777,0.09381144729469522,-0.01090830782496456,-0.016362461737446838
1592228766.168386,-9.256387164354514,-0.2685102577859534,2.201917937712373,0.4122222222222222,-0.14888888888888888,0.15777777777777777,0.08401732469375216,0.0373198401717926,-0.015480845504507137
1592228766.178386,-9.246979702756,-0.4156964551969602,2.17550863354336,0.4122222222222222,-0.14888888888888888,0.15777777777777777,0.06176593862514701,0.07481836824189125,-0.006474994398030524
1592228766.188386,-9.582463492317864,-0.605728851585505,2.1666326796338216,0.4122222222222222,-0.14888888888888888,0.15777777777777777,0.033656743508322075,0.11031648772359032,-0.008934953181899068
1592228766.198386,-9.759910532098571,-0.6525663161199184,1.965663161199184,0.4142871344111338,-0.15425766058005894,0.16314654946894783,0.015734947247123578,0.11855298246391281,-0.001988527500849763
1592228766.208386,-9.54,-0.64,1.84,0.4177777777777778,-0.16333333333333333,0.17222222222222222,0.00545415391248228,0.10690141668465267,0.01308996938995747
1592228766.218386,-9.621502214208057,-0.5127180398292276,1.8341629763199065,0.4177777777777778,-0.16333333333333333,0.17222222222222222,0.001878921383889045,0.03899216010767488,0.009672354981642756
1592228766.228386,-9.57,-0.61,1.92,0.4177777777777778,-0.16333333333333333,0.17222222222222222,-0.004363323129985824,0.015271630954950384,0.002181661564992912
1592228766.238386,-9.571956489503677,-0.8909718897621115,2.0778005380557967,0.4177777777777778,-0.16333333333333333,0.17222222222222222,0.004123399050619189,-0.0003194366245944673,0.000744889976159378
1592228766.248386,-9.411750809678034,-0.9768927414745666,2.18033911221185,0.42505344933426475,-0.16065282275989076,0.18141254418831101,0.01831614818938991,0.010415366194924247,-7.398280788126124e-05
1592228766.258386,-9.32,-0.99,2.2,0.4388888888888889,-0.15555555555555556,0.1988888888888889,0.02617993877991494,0.02399827721492203,-0.004363323129985824
1592228766.268386,-9.63312024986986,-1.3187235814679854,1.9894325871941696,0.4388888888888889,-0.15555555555555556,0.1988888888888889,0.018482228166941516,0.057040399063112174,0.00256075507378762
1592228766.2783859,-9.38,-1.46,1.96,0.4388888888888889,-0.15555555555555556,0.1988888888888889,0.015271630954950384,0.062177354602297986,0.01090830782496456
1592228766.2883859,-9.826904691312976,-1.5061876525189863,1.8564266654503159,0.4388888888888889,-0.15555555555555556,0.1988888888888889,0.0040778218628539946,0.04298368855120496,-0.005947586478907228
1592228766.2983859,-9.746883504416328,-1.1568835044163284,1.764006922893292,0.424575077584149,-0.1509132383756399,0.19385971194398027,0.022907446432425576,0.006721798755927672,-0.0002826681342563628
1592228766.3083858,-9.61,-1.02,1.94,0.3977777777777778,-0.14222222222222222,0.18444444444444444,0.022907446432425576,-0.017453292519943295,0.0032724923474893677
1592228766.3183858,-9.458339086085209,-0.77,2.1616609139147904,0.3977777777777778,-0.14222222222222222,0.18444444444444444,0.016424109327390614,-0.030971029872208893,-0.008664998670027872
1592228766.3283858,-9.44,-0.77,2.18,0.3977777777777778,-0.14222222222222222,0.18444444444444444,0.01308996938995747,-0.019634954084936207,-0.011999138607461015
1592228766.3383858,-9.458149659273406,-0.8651870740917574,2.2333367333651633,0.3977777777777778,-0.14222222222222222,0.18444444444444444,0.010019317904735666,0.029289178185087035,-0.004929145139023711
1592228766.3483858,-9.470166239163609,-0.833089710704893,2.1082057859021397,0.40395719918756384,-0.14428202935881757,0.1889073599070677,0.012078863926185634,0.06741046643829855,-0.002776006555449518
1592228766.3583858,-9.56,-0.84,1.97,0.4177777777777778,-0.14888888888888888,0.1988888888888889,0.009817477042468103,0.0839939702522271,-0.006544984694978735
1592228766.3683858,-9.695186337799953,-0.9037344718500039,1.8665139785499343,0.4177777777777778,-0.14888888888888888,0.1988888888888889,0.0026025801172367925,0.08823957197681298,-0.006558535562187547
1592228766.3783858,-9.62,-0.91,1.76,0.4177777777777778,-0.14888888888888888,0.1988888888888889,-0.002181661564992912,0.08072147790473774,-0.001090830782496456
1592228766.3883858,-9.579859278278697,-0.88,1.9852110825819549,0.4177777777777778,-0.14888888888888888,0.1988888888888889,-0.012275683892719217,0.06406712052349633,0.0027194017769729623
1592228766.3983858,-9.547277104738537,-0.8731927618463425,2.034084342892194,0.41414725076249387,-0.14888888888888888,0.1997965206427099,-0.01308996938995747,0.061332291123227974,0.001090830782496456
1592228766.4083858,-9.53,-0.8267577426339076,2.0632422573660922,0.39111111111111113,-0.14888888888888888,0.20555555555555555,-0.011675267734073664,0.0747646258753665,0.001798181610438359
1592228766.4183857,-9.573431519699811,-0.8075909943714822,1.9769324577861163,0.39111111111111113,-0.14888888888888888,0.20555555555555555,-0.008388243126977672,0.08677681669969345,0.002257282948507441
1592228766.4283857,-9.687847461248131,-0.7443050775037388,1.7670254231253115,0.39111111111111113,-0.14888888888888888,0.20555555555555555,-0.0047155314596441615,0.08502286291352501,0.0003244760019812256
1592228766.4383857,-9.722619109295607,-0.6181749526751021,1.7673808907043937,0.39111111111111113,-0.14888888888888888,0.20555555555555555,0.002718415083832555,0.06501703589985072,0.001090830782496456
1592228766.4483857,-9.697270611702127,-0.4886353058510638,1.79,0.3929307033096927,-0.14737256205673757,0.20555555555555555,0.0037678629754448727,0.03991160533397729,0.0007931007052259804
1592228766.4583857,-9.68,-0.48,1.79,0.40444444444444444,-0.13777777777777778,0.20555555555555555,0.0,0.016362461737446838,-0.001090830782496456
1592228766.4683857,-9.637199988867863,-0.504399977735723,1.818799955471446,0.40444444444444444,-0.13777777777777778,0.20555555555555555,0.001090830782496456,-0.010035661413886395,-0.000305433833426941
1592228766.4783857,-9.63,-0.49,1.79,0.40444444444444444,-0.13777777777777778,0.20555555555555555,0.001090830782496456,-0.02181661564992912,-0.001090830782496456
1592228766.4883857,-9.601823610003475,-0.4845440974991309,1.863168926241744,0.40444444444444444,-0.13777777777777778,0.20555555555555555,-0.002082199068639893,-0.03287330305007652,-0.0013386728540323153
1592228766.4983857,-9.528232042241042,-0.5014709947198696,2.0291229313583043,0.402483118151285,-0.13859499706659423,0.2034307854046328,-0.0060959964410116805,-0.03628594344421775,-0.0018607403007282117
1592228766.5083857,-9.46,-0.51,2.14,0.39111111111111113,-0.14333333333333334,0.19111111111111112,-0.009817477042468103,-0.031634092692397225,0.0
1592228766.5183856,-9.362534818941505,-0.5229108635097494,2.2496239554317548,0.39111111111111113,-0.14333333333333334,0.19111111111111112,-0.01513337802847799,0.013694636035408152,0.004542596155521453
1592228766.5283856,-9.32,-0.53,2.2,0.39111111111111113,-0.14333333333333334,0.19111111111111112,-0.017453292519943295,0.05235987755982988,0.007635815477475192
1592228766.5383856,-9.450635537685763,-0.5143721260857009,2.119984672457072,0.39111111111111113,-0.14333333333333334,0.19111111111111112,-0.022293540621852955,0.1198594211626552,0.010226747582849851
1592228766.5483856,-9.55909226046211,-0.48652867991598,1.9570224592018097,0.39573953788980454,-0.1446832911437856,0.1940038778477945,-0.020581609785823015,0.1608662554830369,0.011809807467283653
1592228766.5583856,-9.65,-0.47,1.8,0.4177777777777778,-0.1511111111111111,0.20777777777777778,-0.025089107997418484,0.17889624832941878,0.01090830782496456
1592228766.5683856,-9.81,-0.43206052834060016,1.53335855347525,0.4177777777777778,-0.1511111111111111,0.20777777777777778,-0.012573762188935616,0.14832822660309047,0.00886823883730467
1592228766.5783856,-9.81,-0.52,1.57,0.4177777777777778,-0.1511111111111111,0.20777777777777778,-0.002181661564992912,0.11235557059713495,0.0032724923474893677
1592228766.5883856,-9.718126027160281,-0.46749589135887903,1.572487674076637,0.4177777777777778,-0.1511111111111111,0.20777777777777778,0.0006819933306707363,0.06415818290714527,-0.001090830782496456
1592228766.5983856,-9.706004088981112,-0.5039959110188886,1.6899795550944432,0.4143738535765023,-0.14933515065827171,0.20777777777777778,-0.0012361262072804733,0.031710085694638214,-0.0013814216320644905
1592228766.6083856,-9.68,-0.53,1.82,0.39222222222222225,-0.13777777777777778,0.20777777777777778,-0.002181661564992912,0.01090830782496456,-0.0032724923474893677
1592228766.6183856,-9.616227714316217,-0.49237722856837834,1.8123772285683784,0.39222222222222225,-0.13777777777777778,0.20777777777777778,0.002753861527605951,-0.01921493124680563,-0.0032724923474893677
1592228766.6283855,-9.54,-0.5,1.82,0.39222222222222225,-0.13777777777777778,0.20777777777777778,0.001090830782496456,-0.028361600344907853,-0.0032724923474893677
1592228766.6383855,-9.47195959551258,-0.48783838205031754,2.0439191910251586,0.39222222222222225,-0.13777777777777778,0.20777777777777778,-0.0017321069144055094,-0.005586377288370482,0.00042751742127270214
1592228766.6483855,-9.486534942006179,-0.52,2.053465057993822,0.39222222222222225,-0.1386854086119692,0.20777777777777778,-0.004897961822648451,0.02607217179405894,0.002181661564992912
1592228766.6583855,-9.52,-0.52,2.02,0.39222222222222225,-0.14333333333333334,0.20777777777777778,-0.007635815477475192,0.053450708342326333,0.002181661564992912
1592228766.6683855,-9.5658869067654,-0.5060282733086503,1.9203534163581286,0.39222222222222225,-0.14333333333333334,0.20777777777777778,-0.008734356608821336,0.08310434285876063,0.0030558682607600145
1592228766.6783855,-9.63832249800614,-0.496241873504604,1.7220806245015345,0.39222222222222225,-0.14333333333333334,0.20777777777777778,-0.004363323129985824,0.09249365558688971,0.002181661564992912
1592228766.6883855,-9.67352423753553,-0.5147136436967044,1.7335242375355304,0.39222222222222225,-0.14333333333333334,0.20777777777777778,-0.0035944537722686094,0.09009204701426787,0.002181661564992912
1592228766.6983855,-9.689635092571253,-0.49054736114312053,1.749635092571253,0.39222222222222225,-0.14333333333333334,0.20777777777777778,-7.96104512077768e-05,0.08306236037214622,0.002181661564992912
1592228766.7083855,-9.690934123145984,-0.4745329384270079,1.74,0.41333333333333333,-0.13777777777777778,0.2222222222222222,-0.0011927278107246577,0.06367577349770726,0.0016871946878587848
1592228766.7183855,-9.653912701814546,-0.4879709006048483,1.7318836024193933,0.41333333333333333,-0.13777777777777778,0.2222222222222222,0.002624342381188192,0.04663676946527472,0.0
1592228766.7283854,-9.627980400104915,-0.48605879968525717,1.7161567991606856,0.41333333333333333,-0.13777777777777778,0.2222222222222222,0.004363323129985824,0.03250461930150506,0.0
1592228766.7383854,-9.621602435611361,-0.5067951287772777,1.7864097424454446,0.41333333333333333,-0.13777777777777778,0.2222222222222222,0.004363323129985824,0.03198368991076548,-0.0001747986091841263
1592228766.7483854,-9.629533867856738,-0.4909322642865247,1.8181354714269506,0.41333333333333333,-0.13777777777777778,0.2222222222222222,0.004363323129985824,0.03371405999927381,-0.001039983653438293
1592228766.7583854,-9.608094294308298,-0.5023771772331942,1.8461885886165972,0.41888888888888887,-0.1511111111111111,0.20777777777777778,0.003688252833666696,0.039062027926783746,0.0006750702963191279
1592228766.7683854,-9.601733282182847,-0.478666410914235,1.814400460354377,0.41888888888888887,-0.1511111111111111,0.20777777777777778,0.005265082156502064,0.03931350792325725,-0.0012799025384766722
1592228766.7783854,-9.60109422347355,-0.5146565340841307,1.7631550189687673,0.41888888888888887,-0.1511111111111111,0.20777777777777778,0.004363323129985824,0.04511264988943809,-0.0017930737579095188
1592228766.7883854,-9.56,-0.49142582731076456,1.87,0.41888888888888887,-0.1511111111111111,0.20777777777777778,0.004052255865764602,0.04908319449689617,0.0
1592228766.7983854,-9.56,-0.49940281475846326,1.87,0.41888888888888887,-0.1511111111111111,0.20777777777777778,0.002311947173857076,0.06126535534024884,0.0
1592228766.8083854,-9.58,-0.49,1.85,0.38666666666666666,-0.13777777777777778,0.21444444444444444,0.0,0.07963064712224129,0.001090830782496456
1592228766.8183854,-9.620395897162647,-0.5003958971626482,1.7464369255361663,0.38666666666666666,-0.13777777777777778,0.21444444444444444,-0.0032724923474893677,0.09101399744009747,0.0011340164636684216
1592228766.8283854,-9.63691086462022,-0.5072356541519124,1.6572356541519122,0.38666666666666666,-0.13777777777777778,0.21444444444444444,-0.0031217206702613557,0.10253809355466686,0.0020308898877649
1592228766.8383853,-9.68519878288025,-0.4931192697281499,1.6337614605437,0.38666666666666666,-0.13777777777777778,0.21444444444444444,-0.001954821869101228,0.10185757446699181,0.00131767047838814
1592228766.8483853,-9.727180405973495,-0.5183082435840973,1.5833835128318052,0.38666666666666666,-0.13777777777777778,0.21444444444444444,-0.00012302799833016414,0.09636219285467862,0.0031494643491592035
1592228766.8583853,-9.753921761767396,-0.47,1.568234714697812,0.4,-0.13777777777777778,0.21444444444444444,0.00021389892287466562,0.06425179808503187,0.0026307955788653706
1592228766.8683853,-9.771713729961768,-0.4751411898853042,1.5028627003823194,0.4,-0.13777777777777778,0.21444444444444444,0.0007169529034598411,0.03603034048883441,0.0001869389395183074
1592228766.8783853,-9.784696430289618,-0.5011741075724045,1.4211741075724045,0.4,-0.13777777777777778,0.21444444444444444,-0.0018592823916610672,0.005975218996645049,0.0009627555143023541
1592228766.8883853,-9.80561405568273,-0.5089724325487665,1.454661618829606,0.4,-0.13777777777777778,0.21444444444444444,-0.00752372525678549,-0.026830604156565165,-0.0002241804413794051
1592228766.8983853,-9.690726458100995,-0.5007661755786426,1.6516117861125785,0.4,-0.13777777777777778,0.21444444444444444,-0.00662856148557677,-0.05816133614887034,-0.002014507983796844
1592228766.9083853,-9.63,-0.5,1.78,0.4266666666666667,-0.13111111111111112,0.21444444444444444,-0.007635815477475192,-0.08508480103472357,-0.001090830782496456
1592228766.9183853,-9.558997421465607,-0.49899742146560566,1.8509767931904513,0.4266666666666667,-0.13111111111111112,0.21444444444444444,-0.00556351826520103,-0.08617281907252897,-0.0032724923474893677
1592228766.9283853,-9.55,-0.49,1.77,0.4266666666666667,-0.13111111111111112,0.21444444444444444,-0.006544984694978735,-0.07635815477475191,-0.0032724923474893677
1592228766.9383852,-9.583011383305843,-0.49225853747938175,1.7745170749587635,0.4266666666666667,-0.13111111111111112,0.21444444444444444,-0.008973014480564805,-0.057590898411645115,0.0008444625619032983
1592228766.9483852,-9.61717596269371,-0.5178819720202823,1.8257639440405646,0.4266666666666667,-0.13111111111111112,0.21444444444444444,-0.011768097595614525,-0.04268378846471328,-0.001950620553146421
1592228766.9583852,-9.609018431697002,-0.5090184316970031,1.8019631366059938,0.39222222222222225,-0.13777777777777778,0.21444444444444444,-0.012982896897954291,-0.032510778490887314,0.0
1592228766.9683852,-9.598043068900584,-0.500652310366472,1.8147815170682247,0.39222222222222225,-0.13777777777777778,0.21444444444444444,-0.011785670539214279,-0.030258637818905122,0.0
1592228766.9783852,-9.566902525167585,-0.51,1.7461949496648326,0.39222222222222225,-0.13777777777777778,0.21444444444444444,-0.008811116782351842,-0.024912880944212023,8.447052238019456e-05
1592228766.9883852,-9.531369889481413,-0.5086301105185872,1.823424723703532,0.39222222222222225,-0.13777777777777778,0.21444444444444444,-0.009593329400226627,-0.008397875308272091,0.0011655466632436145
1592228766.9983852,-9.547577865368266,-0.4924221346317335,1.8639446634206662,0.39222222222222225,-0.13777777777777778,0.21444444444444444,-0.006941305547325581,0.008398275760101201,0.0020495546142106297
1592228767.0083852,-9.57,-0.51,1.86,0.4088888888888889,-0.14333333333333334,0.21444444444444444,-0.0032724923474893677,0.03490658503988659,0.001090830782496456
1592228767.0183852,-9.596767983414164,-0.5010773388619452,1.8332320165858356,0.4088888888888889,-0.14333333333333334,0.21444444444444444,-0.002299181004371857,0.0446396984710617,0.002064142125613967
1592228767.0283852,-9.620392011468683,-0.5103920114686836,1.6903920114686835,0.4088888888888889,-0.14333333333333334,0.21444444444444444,-0.002309947018132418,0.05567513172503242,-0.0010480689647832872
1592228767.0383852,-9.63,-0.52,1.7041186726443651,0.4088888888888889,-0.14333333333333334,0.21444444444444444,-0.005325788915239431,0.05665901819119428,0.0
1592228767.0483851,-9.63,-0.52,1.7603705406751733,0.4088888888888889,-0.14333333333333334,0.21444444444444444,-0.003572609794641322,0.05578242863089523,0.0
1592228767.0583851,-9.606895036194416,-0.5009850051706308,1.7671949327817993,0.41555555555555557,-0.13777777777777778,0.21444444444444444,-0.0032724923474893677,0.05595471209563193,0.001090830782496456
1592228767.0683851,-9.668382535351029,-0.5091912676755148,1.6427214090796327,0.41555555555555557,-0.13777777777777778,0.21444444444444444,-0.00344893037035905,0.0590813002776783,0.0010026117710616148
1592228767.078385,-9.65112595962468,-0.50028148990617,1.5611259596246803,0.41555555555555557,-0.13777777777777778,0.21444444444444444,-0.00545415391248228,0.060810171750650455,9.211735638369275e-05
1592228767.088385,-9.69018036423068,-0.5096392715386412,1.6001803642306796,0.41555555555555557,-0.13777777777777778,0.21444444444444444,-0.005375455170527714,0.051013275865981096,0.0032528176620007262
1592228767.098385,-9.698341116040158,-0.49331776791968246,1.6083411160401588,0.41555555555555557,-0.13777777777777778,0.21444444444444444,-0.0018146554576902287,0.039440676799259264,0.002362617733791355
1592228767.108385,-9.7,-0.480235198702352,1.620705596107056,0.42777777777777776,-0.13777777777777778,0.2222222222222222,-0.0033238047443951216,0.019250111108143054,0.0021046929696342813
1592228767.118385,-9.699280371605525,-0.49,1.6480809909480705,0.42777777777777776,-0.13777777777777778,0.2222222222222222,-0.00545415391248228,0.0029584952256292633,-0.001090830782496456
1592228767.128385,-9.669542873300502,-0.49022856334974907,1.5706856900492472,0.42777777777777776,-0.13777777777777778,0.2222222222222222,-0.00545415391248228,-0.010141598161421904,-0.0010658983887307791
1592228767.138385,-9.65,-0.49990459321283365,1.6009540678716638,0.42777777777777776,-0.13777777777777778,0.2222222222222222,-0.005464561178512297,-0.02408153534316217,-4.162906412006925e-05
1592228767.148385,-9.65,-0.49146230022945936,1.6853769977054063,0.42777777777777776,-0.13777777777777778,0.2222222222222222,-0.006385472484624145,-0.031448825792056954,-0.003725274288567463
1592228767.158385,-9.62,-0.49942683446620456,1.7417194966013863,0.39444444444444443,-0.13777777777777778,0.23555555555555555,-0.0064824620342057255,-0.03490658503988659,-0.0021191389042199025
1592228767.168385,-9.62,-0.49001772214370637,1.7699468335688808,0.39444444444444443,-0.13777777777777778,0.23555555555555555,-0.0054560870984709554,-0.03490658503988659,-0.0010927639684851322
1592228767.178385,-9.629982067012742,-0.5099820670127418,1.67,0.39444444444444443,-0.13777777777777778,0.23555555555555555,-0.006543028509526406,-0.03380597333012848,0.0
1592228767.188385,-9.620085181689475,-0.5000851816894761,1.67,0.39444444444444443,-0.13777777777777778,0.23555555555555555,-0.005463445793380845,-0.028408059749400683,0.0
1592228767.198385,-9.636331644475865,-0.5163316444758651,1.7108291111896625,0.39444444444444443,-0.13777777777777778,0.23555555555555555,-0.00456340088632919,-0.025689341266448583,-0.0017815060523061793
1592228767.208385,-9.649616553107395,-0.5007668937852108,1.7007668937852107,0.4083350211551256,-0.1431203072818859,0.2291445201506258,-0.002265316699774223,-0.028236117642735887,-0.002181661564992912
1592228767.218385,-9.630428574868178,-0.49021428743408857,1.7195714251318228,0.4088888888888889,-0.14333333333333334,0.2288888888888889,-0.0011142059154370537,-0.035833789891798855,-0.0011142059154370537
1592228767.228385,-9.57079321202798,-0.5097355959906738,1.7397355959906737,0.4088888888888889,-0.14333333333333334,0.2288888888888889,-0.001090830782496456,-0.043532284288522245,-1.4421001619427604e-05
1592228767.238385,-9.57,-0.51,1.7798421445243882,0.4088888888888889,-0.14333333333333334,0.2288888888888889,-0.0032638826668902185,-0.03494102376228319,-0.0010865259421968816
1592228767.248385,-9.554232852155865,-0.49423285215586377,1.8588357392206811,0.4088888888888889,-0.14333333333333334,0.2288888888888889,-0.0015525633254337237,-0.02630693992960837,-0.001090830782496456
1592228767.258385,-9.531313588956122,-0.49,1.88,0.3953931475794218,-0.1319138599176304,0.22266008520759636,-0.001090830782496456,-0.0025953792148265334,-0.001090830782496456
1592228767.268385,-9.58825596719871,-0.5094186557329038,1.8605813442670962,0.39444444444444443,-0.13111111111111112,0.2222222222222222,0.0020865393317264546,0.022209883388471553,-0.001090830782496456
1592228767.278385,-9.599688785335584,-0.500311214664416,1.7049794346306555,0.39444444444444443,-0.13111111111111112,0.2222222222222222,0.004295426622803975,0.03770380183710302,-0.001090830782496456
1592228767.288385,-9.61860403360575,-0.4906979831971247,1.7093020168028752,0.39444444444444443,-0.13111111111111112,0.2222222222222222,0.006392708383560944,0.04426723314810132,-0.002105523409284016
1592228767.298385,-9.6353843719716,-0.4976921859857999,1.7176921859857999,0.39444444444444443,-0.13111111111111112,0.2222222222222222,0.007384072020778573,0.048080411385554044,0.000335600412406599
1592228767.308385,-9.68,-0.51,1.69,0.4011111111111111,-0.15777777777777777,0.23555555555555555,0.006544984694978735,0.04908738521234052,0.001090830782496456
1592228767.318385,-9.715115972251777,-0.5012210069370558,1.5846520832446696,0.4011111111111111,-0.15777777777777777,0.23555555555555555,0.01133318263116993,0.04429918727614932,-0.0008244483919800213
1592228767.3283849,-9.700825399941113,-0.5095873000294435,1.5604126999705565,0.4011111111111111,-0.15777777777777777,0.23555555555555555,0.008861702009517166,0.03108348490808284,-0.0021366429818110728
