time,acc_x,acc_y,acc_z,mag_x,mag_y,mag_z,gyr_x,gyr_y,gyr_z
1592181540.2431445,-9.146178814664541,-0.40154470366613537,3.3107317780031877,0.5511111111111111,-0.3655555555555556,-0.32,-0.07845129797455165,-0.06700176357383462,-0.0853332847313015
1592181540.2531445,-9.205659310344828,-0.41,3.193285793103448,0.5511111111111111,-0.3655555555555556,-0.32,0.02913598487888755,-0.0667241479469288,-0.03445099392134875
1592181540.2631445,-9.252277134670488,-0.41556928366762175,3.13,0.5511111111111111,-0.3655555555555556,-0.32,-0.0007721456633464907,-0.07809403224369103,-0.03863833902593441
1592181540.2731445,-9.261299463286074,-0.42,3.1648021468557026,0.5511111111111111,-0.3655555555555556,-0.32,0.02079345947785436,-0.08757474405760954,-0.004560492320535365
1592181540.2831445,-9.24138354005345,-0.3984588501336257,3.231541149866374,0.5539832644266277,-0.37082116996733594,-0.32,0.04225393920100093,-0.021446003779880637,0.02893852297762955
1592181540.2931445,-9.236413885653517,-0.4277249708816529,3.3882777130703396,0.5577777777777778,-0.37777777777777777,-0.32,0.026917452416270346,-0.031732254757546166,0.07500371714088193
1592181540.3031445,-9.166246708845836,-0.46,3.4853526938342436,0.5577777777777778,-0.37777777777777777,-0.32,0.02753452881909001,-0.04581489286485115,0.06226253088102714
1592181540.3131444,-8.87283111404087,-0.4187272247857614,3.6407533289386946,0.5577777777777778,-0.37777777777777777,-0.32,0.031653967816212776,0.006924711734939658,-0.016988715096109858
1592181540.3231444,-8.884684082738891,-0.40985959232839586,3.714824490410495,0.5577777777777778,-0.37777777777777777,-0.32,0.018812155070437556,0.11999690890460565,-0.024319915336519393
1592181540.3331444,-9.013653590748598,-0.43,3.6514256097956013,0.5577777777777778,-0.38160506624339996,-0.3265610659410666,-0.013193642659882144,0.17167512593164228,-0.03293453146303041
1592181540.3431444,-9.08742795595979,-0.4174279559597894,3.409135471517472,0.5577777777777778,-0.38555555555555554,-0.3333333333333333,0.02773994689992843,0.15605167218239893,-0.1148189735449407
1592181540.3531444,-9.096782197211919,-0.40860148356567333,3.3081126103082235,0.5577777777777778,-0.38555555555555554,-0.3333333333333333,0.05135275293790356,0.1566604392028678,-0.11615523736838165
1592181540.3631444,-9.333139566580346,-0.4513179773749489,3.1324805778928715,0.5577777777777778,-0.38555555555555554,-0.3333333333333333,0.06063826774657993,0.08331749757124593,-0.01577073398573145
1592181540.3731444,-9.277873823829497,-0.5059579412764993,3.148467293957601,0.5577777777777778,-0.38555555555555554,-0.3333333333333333,0.04779164494037614,0.04853584850562539,-0.041313932884064
1592181540.3831444,-9.226545067527892,-0.4109828244274809,3.163454932472108,0.5436204084295687,-0.3778869804919423,-0.3333333333333333,0.071320668756582,-0.014168630011052029,0.09864996718731436
1592181540.3931444,-9.258221144668015,-0.36644228933603146,3.170829292505059,0.5311111111111111,-0.3711111111111111,-0.3333333333333333,0.012435787453388733,-0.015297869868812887,0.14681376175346014
1592181540.4031444,-9.270094184129974,-0.42502354603249354,3.2949764539675064,0.5311111111111111,-0.3711111111111111,-0.3333333333333333,-0.10559650361884783,0.005633947071829473,0.09893850608085085
1592181540.4131444,-9.103476797648954,-0.42488410674503485,3.29023178650993,0.5311111111111111,-0.3711111111111111,-0.3333333333333333,-0.057283067766313395,0.009896948384966894,0.06727753271078109
1592181540.4231443,-9.007463444927454,-0.4185073110145091,3.3144780669564726,0.5311111111111111,-0.3711111111111111,-0.3333333333333333,-0.051469460426997765,0.04785536370133937,0.010190981739348431
1592181540.4331443,-9.1514356958848,-0.4302562916969417,3.3397437083030583,0.5348091023185151,-0.3711111111111111,-0.3377036865784471,-0.04231849162928412,0.0080442915793295,-0.0679561133549379
1592181540.4431443,-9.303127253446448,-0.48343637327677624,3.109884941675504,0.5433333333333333,-0.3711111111111111,-0.3477777777777778,-0.07138862817544768,0.02420846168276891,0.024225697503192235
1592181540.4531443,-9.33268568895337,-0.4619429331398863,2.968585821948172,0.5433333333333333,-0.3711111111111111,-0.3477777777777778,-0.028246243879616648,0.08298737079118566,0.023982714643003934
1592181540.4631443,-9.43331639670999,-0.39748729753249307,2.852210931139994,0.5433333333333333,-0.3711111111111111,-0.3477777777777778,-0.010141115998766145,-0.030181499148077977,0.023384254284494525
1592181540.4731443,-9.483987773716725,-0.43849694342918133,2.9050305657081865,0.5433333333333333,-0.3711111111111111,-0.3477777777777778,0.05748389259623042,-0.025200636156795894,0.04810141418614575
1592181540.4831443,-9.29225656877898,-0.417774343122102,3.201661514683153,0.5463566889919286,-0.37370255881847847,-0.33698007899708055,-0.02797213834992071,-0.07343803280367948,0.06342582476371782
1592181540.4931443,-9.185301290753054,-0.4146987092469457,3.214899569748982,0.5511111111111111,-0.37777777777777777,-0.32,-0.06769254664981539,-0.1618506463791755,0.07210829932917964
1592181540.5031443,-9.242404162102957,-0.4141347207009858,3.148749543629062,0.5511111111111111,-0.37777777777777777,-0.32,2.1107715031876834e-05,-0.18573474974097287,-0.03301883845024322
1592181540.5131443,-9.192065088476683,-0.447806347549694,3.2313539541723992,0.5511111111111111,-0.37777777777777777,-0.32,0.011865469272521582,-0.1317021497812001,-0.053063724491502845
1592181540.5231442,-9.08762225008549,-0.44532884988031457,3.391804399863217,0.5511111111111111,-0.37777777777777777,-0.32,0.016022144417066946,-0.11329371242478066,-0.09372863716120124
1592181540.5331442,-9.132722341416022,-0.4127223414160224,3.36862526818605,0.5553518915831186,-0.3823719566224525,-0.3154058211553253,0.04075767365276399,-0.1204471831574312,-0.17578259168304425
1592181540.5431442,-9.157476383265857,-0.4394062078272605,3.431336032388664,0.5644444444444444,-0.39222222222222225,-0.3055555555555556,0.039269908169872414,-0.06597980522468441,-0.11733570627484821
1592181540.5531442,-9.012965396995709,-0.4,3.428138412017167,0.5644444444444444,-0.39222222222222225,-0.3055555555555556,0.04127401712788602,0.05565788504793988,0.042871990590699766
1592181540.5631442,-9.04485850003345,-0.4291510002007092,3.378302000401418,0.5644444444444444,-0.39222222222222225,-0.3055555555555556,0.034093588792010056,0.04543408367082784,0.007038912756525264
1592181540.5731442,-9.05,-0.43181789357852923,3.436477236697316,0.5644444444444444,-0.39222222222222225,-0.3055555555555556,0.03475794543496802,0.021172049544942777,0.004462646775101135
1592181540.5831442,-9.077160214943355,-0.3898764417975836,3.407778005955437,0.5592318779401642,-0.39222222222222225,-0.3091220484269052,0.06100565516542609,0.028846364245374498,0.017103309710102384
1592181540.5931442,-9.146307452847465,-0.4245641823841787,3.3217432704632848,0.5433333333333333,-0.39222222222222225,-0.32,0.03491697200210777,0.033675730016677806,0.029201745789181804
1592181540.6031442,-9.17185741562953,-0.4341857415629529,3.283257033748188,0.5433333333333333,-0.39222222222222225,-0.32,-0.027853638424935157,0.061996850201035084,-0.035251859620308704
1592181540.6131442,-9.189934140947987,-0.4239736563791943,3.2840395154312083,0.5433333333333333,-0.39222222222222225,-0.32,-0.05063322698895878,0.08896437673809032,-0.044429513649257735
1592181540.6231441,-9.101120125275928,-0.4032088749693414,3.348879874724072,0.5433333333333333,-0.39222222222222225,-0.32,-0.029127772983641095,0.11022114138966577,0.14696287330886912
1592181540.6331441,-9.049913002899903,-0.41,3.4199130028999036,0.5409101548466902,-0.39222222222222225,-0.3241854901132925,0.049764659469384,0.21149231262317958,-0.002295540502720952
1592181540.6431441,-9.111349467755025,-0.40573010644899515,3.4258408515919614,0.5311111111111111,-0.39222222222222225,-0.3411111111111111,0.07001093490443887,0.026962041904316905,0.0017378102312777047
1592181540.6531441,-9.18121567275652,-0.4123647018269562,3.2975686544869585,0.5311111111111111,-0.39222222222222225,-0.3411111111111111,0.055515177355137904,-0.0296440754186185,-0.007518622925293858
1592181540.663144,-9.232258049253625,-0.41451609850725085,3.18,0.5311111111111111,-0.39222222222222225,-0.3411111111111111,-0.02399827721492203,-0.008937736506259192,-0.010345460714722782
1592181540.673144,-9.207861238857662,-0.39,3.1891040708567537,0.5311111111111111,-0.39222222222222225,-0.3411111111111111,-0.03525341138304108,0.0204924822183857,-0.06226226512309527
1592181540.683144,-9.183463988406187,-0.4003919652185636,3.215195982609282,0.5332279929148925,-0.38972045281775325,-0.3422657739131737,-0.04748347315855154,0.04598191265673148,0.11440896184430474
1592181540.693144,-9.180602286147195,-0.4422409144588783,3.24,0.5433333333333333,-0.37777777777777777,-0.3477777777777778,-0.02655872411190596,0.10387813416833014,0.05839467846897113
1592181540.703144,-9.143035005413209,-0.4230350054132082,3.243482497293396,0.5433333333333333,-0.37777777777777777,-0.3477777777777778,-0.08459666311689765,-0.022674006283013665,0.04160234136593575
1592181540.713144,-9.126475738521771,-0.40647573852177005,3.2711455688693793,0.5433333333333333,-0.37777777777777777,-0.3477777777777778,0.023230205000647916,0.010082128715288755,0.047279807816274444
1592181540.723144,-9.13402949344058,-0.4112235947524658,3.304388202623767,0.5433333333333333,-0.37777777777777777,-0.3477777777777778,0.10473149593934307,0.10184072646952821,-0.024143491516734394
1592181540.733144,-9.173213827015521,-0.43678617298447764,3.2948207405232837,0.5476184360206965,-0.37902759939492536,-0.3443854048169486,-0.07943790739827812,0.15283363460265773,0.1542575868769136
1592181540.743144,-9.19,-0.42,3.32,0.57,-0.38555555555555554,-0.32666666666666666,-0.004363323129985824,0.13635384781205698,0.06544984694978735
1592181540.753144,-9.15,-0.43,3.323017612421114,0.57,-0.38555555555555554,-0.32666666666666666,0.01506602903988451,0.09517173813819493,-0.008684074162680057
1592181540.763144,-9.159982034795764,-0.43,3.210017965204236,0.57,-0.38555555555555554,-0.32666666666666666,-0.008652177668352662,0.15869999497081144,0.07568711231343175
1592181540.773144,-9.182628855111076,-0.42737114488892297,3.203144275555385,0.57,-0.38555555555555554,-0.32666666666666666,-0.0446005540523724,-0.00037121407894121633,0.015384078252266247
1592181540.783144,-9.191227255129693,-0.4187727448703058,3.247363530778165,0.5652273411623004,-0.38555555555555554,-0.32748483675312945,0.08191155190592822,0.07935783384872494,0.01324875853986791
1592181540.793144,-9.1842918791683,-0.4060729697920753,3.3157081208316987,0.5311111111111111,-0.38555555555555554,-0.3333333333333333,0.021357859039950224,0.13370401485591024,-0.012013260779223427
1592181540.803144,-9.114227744857265,-0.39647905729671273,3.3223952864835633,0.5311111111111111,-0.38555555555555554,-0.3333333333333333,-0.029989281200226564,0.08373553603917368,0.057459940962805676
1592181540.813144,-9.039495703518794,-0.4058261725313235,3.312156641543853,0.5311111111111111,-0.38555555555555554,-0.3333333333333333,-0.03898901832697908,0.05216672651853383,0.09913099506602215
1592181540.823144,-9.0724853990915,-0.4300116807268008,3.3500116807268006,0.5311111111111111,-0.38555555555555554,-0.3333333333333333,0.007092311340680397,0.1958009400340248,0.11919078282022762
1592181540.833144,-9.113088727678571,-0.40205915178571433,3.318455636160714,0.5314543030753968,-0.3851551649305555,-0.3329901413690476,0.0049893942571050225,0.2010653143270407,0.0683364092101658
1592181540.843144,-9.163111292771225,-0.4365556463856125,3.2658895246992876,0.5377777777777778,-0.37777777777777777,-0.32666666666666666,0.04620302123436069,0.1228403104725724,-0.051292970404678145
1592181540.853144,-9.15,-0.4076724137931034,3.188103448275862,0.5377777777777778,-0.37777777777777777,-0.32666666666666666,0.031051062446580152,0.08888390134617674,-0.04355800159072055
1592181540.863144,-9.161758024102136,-0.37763703615320365,3.128818518076602,0.5377777777777778,-0.37777777777777777,-0.32666666666666666,0.026060352176531368,0.1512202535482716,0.005784097359997912
1592181540.873144,-9.178363595268591,-0.42,3.177927371355383,0.5377777777777778,-0.37777777777777777,-0.32666666666666666,0.0033082424710775497,0.23721801374087528,-0.04084866650120345
1592181540.883144,-9.139188107489995,-0.4204059462550028,3.269594053744997,0.5377777777777778,-0.3780935137538911,-0.3270275077822248,0.047698431437257834,0.23898050510092309,-0.06594879756499443
1592181540.893144,-9.113743675829427,-0.4112310274882843,3.2725126483411437,0.5377777777777778,-0.38555555555555554,-0.33555555555555555,-0.01363814422117914,0.24619204617461912,-0.019355347789378488
1592181540.903144,-9.134800446553168,-0.38450018606381986,3.2274990696809005,0.5377777777777778,-0.38555555555555554,-0.33555555555555555,-0.0044503947470089875,0.2713552440622635,0.002596266566564153
1592181540.9131439,-9.228018543232423,-0.4119814567675774,3.0419814567675774,0.5377777777777778,-0.38555555555555554,-0.33555555555555555,0.0018193027548020976,0.2689873116460695,0.019051829165689198
1592181540.9231439,-9.243960751692063,-0.39,3.036104662154498,0.5377777777777778,-0.38555555555555554,-0.33555555555555555,-0.07719371457328533,0.18598745271103875,0.008230375379531623
1592181540.9331439,-9.220171853140243,-0.39,3.099541724959353,0.5377777777777778,-0.38555555555555554,-0.33555555555555555,-0.05470400679420888,0.25259158728753445,-0.028099152571284185
1592181540.9431438,-9.220070219204029,-0.45007021920402834,3.095694223084563,0.5511111111111111,-0.37777777777777777,-0.32666666666666666,0.023756643066118733,0.10690141668465267,0.04652795297028735
1592181540.9531438,-9.175107135379104,-0.4,3.076803620035828,0.5511111111111111,-0.37777777777777777,-0.32666666666666666,0.001675163629598353,0.162054519455489,-0.021353006857275154
1592181540.9631438,-9.204230539708304,-0.40711526985415225,2.9752564867638984,0.5511111111111111,-0.37777777777777777,-0.32666666666666666,0.0756590211125642,0.3334933706419447,-0.05678574516119653
1592181540.9731438,-9.26143347836043,-0.4261888405465232,2.946660941912831,0.5511111111111111,-0.37777777777777777,-0.32666666666666666,0.06878133125280675,0.34349745941794724,-0.11317766950034684
1592181540.9831438,-9.30945614838562,-0.4101812838714602,2.890634493550111,0.5511111111111111,-0.37777777777777777,-0.32666666666666666,0.13775439676898224,0.24222055309039847,-0.02499691485308453
1592181540.9931438,-9.32213148165703,-0.4024262963314058,2.8881633330173475,0.5311111111111111,-0.35888888888888887,-0.3055555555555556,0.06690921701646406,0.20440823550827808,0.05097961314758582
1592181541.0031438,-9.369456029698657,-0.39676155842188,2.78028467526564,0.5311111111111111,-0.35888888888888887,-0.3055555555555556,0.07064390144902935,0.2794079465904805,0.07494511807046005
1592181541.0131438,-9.409177036574048,-0.34115214879633315,2.6134564463889993,0.5311111111111111,-0.35888888888888887,-0.3055555555555556,0.009983445633028054,0.18841726286647859,0.05068093574405953
1592181541.0231438,-9.333323164088037,-0.37502288080191765,2.80003050773589,0.5311111111111111,-0.35888888888888887,-0.3055555555555556,0.035479455422500764,0.11001345778389948,-0.017847408326737615
1592181541.0331438,-9.300087164959686,-0.44980387884070605,2.8997385051209412,0.5311111111111111,-0.35888888888888887,-0.3055555555555556,0.12521021148967001,0.17980404583614223,-0.11754824840137011
1592181541.0431437,-9.325197802197803,-0.40506593406593405,2.81,0.5844444444444444,-0.3711111111111111,-0.29777777777777775,-0.0126812075253077,0.009250484778599067,-0.014287485820412373
1592181541.0531437,-9.323927771219312,-0.4583935239839063,2.846473847784711,0.5844444444444444,-0.3711111111111111,-0.29777777777777775,-0.01934234536996486,0.00017523934896972442,0.08089671725370748
1592181541.0631437,-9.16132898415657,-0.6062935694315005,2.9647548928238585,0.5844444444444444,-0.3711111111111111,-0.29777777777777775,0.09593221345999424,-0.001220347876336205,0.025889694429120223
1592181541.0731437,-9.280179266311533,-0.5317614945785636,2.8326266575994556,0.5844444444444444,-0.3711111111111111,-0.29777777777777775,0.13888409799670862,0.07447917206736772,-0.10666080255024618
1592181541.0831437,-9.224717971967207,-0.42876194793909855,2.9039340360421626,0.5844444444444444,-0.3711111111111111,-0.29777777777777775,0.07924948070464674,0.12547109120115976,0.011744162218050552
1592181541.0931437,-9.132402987021457,-0.42,3.085194025957086,0.5635880127828866,-0.38014889816445285,-0.30264427849880793,0.11444547588470502,0.16257006936110213,0.049117620853282334
1592181541.1031437,-9.146205213146194,-0.3455191352105309,3.0575895737076104,0.5511111111111111,-0.38555555555555554,-0.3055555555555556,0.013055545125005535,0.20744528023847103,-0.07898752197342919
1592181541.1131437,-9.128297669915876,-0.38072372813459743,2.9982976699158765,0.5511111111111111,-0.38555555555555554,-0.3055555555555556,0.022875183243972787,0.20717890218158888,0.023711331475635353
1592181541.1231437,-9.11,-0.41,3.0040552773883435,0.5511111111111111,-0.38555555555555554,-0.3055555555555556,0.038385183888518984,0.2678365998314648,0.021635720819585216
1592181541.1331437,-9.2088957472661,-0.302113730255164,2.8391800729040098,0.5511111111111111,-0.38555555555555554,-0.3055555555555556,-0.09236598384614195,0.29734599758782326,0.04141021624712063
1592181541.1431437,-9.22,-0.3401579506238386,2.882697438279798,0.5629539605639619,-0.38555555555555554,-0.29649925891514023,-0.03440558328582058,0.24212202900683022,-0.06429670314658253
1592181541.1531436,-9.260122056822398,-0.3459267659065606,2.8237070636262422,0.57,-0.38555555555555554,-0.2911111111111111,-0.01578252353783747,0.4061726928248538,-0.09742174588425906
1592181541.1631436,-9.30307574516577,-0.3863060432320786,2.6809273174032264,0.57,-0.38555555555555554,-0.2911111111111111,-0.047794245156127256,0.38488115679821044,-0.05914088974081155
1592181541.1731436,-9.35416716328963,-0.4441671632896305,2.5772910458879617,0.57,-0.38555555555555554,-0.2911111111111111,0.00786407409398536,0.39844938674252417,0.0029550105337815546
1592181541.1831436,-9.26067906393648,-0.5592530296698706,2.5997962808190556,0.57,-0.38555555555555554,-0.2911111111111111,0.104141974920406,0.30612151087504097,0.01090830782496456
1592181541.1931436,-9.506054387637349,-0.6743535196427675,2.6404079072801165,0.5777777777777777,-0.3711111111111111,-0.2677777777777778,0.06209213943354845,0.2842319389077216,-0.057658433062064945
1592181541.2031436,-9.479235376935877,-0.4615492128503776,2.3592253935748113,0.5777777777777777,-0.3711111111111111,-0.2677777777777778,0.1885447324653038,0.2928376492554809,-0.26312083861063956
1592181541.2131436,-9.5469748460694,-0.5375628848264999,2.25331917330915,0.5777777777777777,-0.3711111111111111,-0.2677777777777778,0.16914291636470524,0.19036369088653116,-0.043504941144349135
1592181541.2231436,-9.599634644024524,-0.3696346440245247,2.099003152621705,0.5777777777777777,-0.3711111111111111,-0.2677777777777778,0.13848483193977243,0.149393139764737,-0.05921681753690043
1592181541.2331436,-9.550960872676635,-0.32096087267663387,2.188238400092838,0.5777777777777777,-0.3711111111111111,-0.2677777777777778,0.10751283722266297,0.11842114504762756,0.09298841364432313
1592181541.2431436,-9.46,-0.31,2.28,0.59,-0.37777777777777777,-0.2611111111111111,0.17562375598192942,0.17344209441693648,0.015271630954950384
1592181541.2531435,-9.436627179681576,-0.4388954700530705,2.3868048711144807,0.59,-0.37777777777777777,-0.2611111111111111,0.23729978534922772,0.05961485332893539,-0.023051501843286908
1592181541.2631435,-9.494154678383294,-0.4133812864668226,2.1916906432334113,0.59,-0.37777777777777777,-0.2611111111111111,0.25293295090314816,0.06908038370052687,-0.13434825802881348
1592181541.2731435,-9.526980748219868,-0.27905775534039107,2.1267933165052932,0.59,-0.37777777777777777,-0.2611111111111111,0.20011661192012892,-0.05783558671269265,0.04099732746236661
1592181541.2831435,-9.49537693553856,-0.3738691933843198,2.19790189503824,0.59,-0.37777777777777777,-0.2611111111111111,0.2509663692027398,-0.13798859395477425,-0.07793939296136734
1592181541.2931435,-9.655075723461238,-0.27044699357713364,2.130893987154267,0.5844444444444444,-0.38555555555555554,-0.24666666666666667,0.1414682885853455,-0.14703487875675877,-0.04868078943303301
1592181541.3031435,-9.559213823857302,-0.32460691192865104,2.2419103678929764,0.5844444444444444,-0.38555555555555554,-0.24666666666666667,-0.02894989499300204,-0.10908266477978378,-0.009682831798055609
1592181541.3131435,-9.483404131170499,-0.2943972458863344,2.208321857859727,0.5844444444444444,-0.38555555555555554,-0.24666666666666667,-0.032085369985424404,-0.1933968252466073,0.032895250419342305
1592181541.3231435,-9.397195137235244,-0.3495325228725404,2.444207294147136,0.5844444444444444,-0.38555555555555554,-0.24666666666666667,-0.021754548075639934,-0.19580856862147153,0.11301630316660549
1592181541.3331435,-9.344628399548816,-0.34077139992480265,2.5230574006767763,0.5844444444444444,-0.38555555555555554,-0.24666666666666667,0.02029582336712544,-0.16522648029946035,0.023181418720697636
1592181541.3431435,-9.3,-0.37,2.63,0.5844444444444444,-0.37777777777777777,-0.2411111111111111,-0.10471975511965977,-0.25089107997418486,0.14944381720201447
1592181541.3531435,-9.309810101801096,-0.3798101018010963,2.6398101018010967,0.5844444444444444,-0.37777777777777777,-0.2411111111111111,-0.006269073698309702,-0.20701631977553972,0.08416673495524975
1592181541.3631434,-9.324523401067967,-0.2867323072462368,2.565325343706961,0.5844444444444444,-0.37777777777777777,-0.2411111111111111,-0.018780096144049213,-0.09400943992131983,-0.09517124968990523
1592181541.3731434,-9.23,-0.45,2.72,0.5844444444444444,-0.37777777777777777,-0.2411111111111111,0.01308996938995747,-0.015271630954950384,-0.05017821599483697
1592181541.3831434,-9.244630834512023,-0.4207383309759547,2.7126845827439885,0.5844444444444444,-0.37777777777777777,-0.2411111111111111,-0.004465771735300909,0.01664789836370121,-0.03262247486957859
1592181541.3931434,-9.27,-0.61,2.74,0.6044444444444445,-0.38,-0.27,-0.002181661564992912,-0.05017821599483697,-0.01308996938995747
1592181541.4031434,-9.240993999190074,-0.7260240032397011,2.817349335493134,0.6044444444444445,-0.38,-0.27,-0.010619165181148542,-0.10080323769177076,-0.00043371396572402555
1592181541.4131434,-9.36,-0.03,2.62,0.6044444444444445,-0.38,-0.27,0.032724923474893676,-0.05235987755982988,-0.06544984694978735
1592181541.4231434,-9.256690222428174,-0.2084441612604263,2.6106082020389247,0.6044444444444445,-0.38,-0.27,0.008137253909466149,-0.08719240944418555,-0.0756947092687155
1592181541.4331434,-9.258751111014762,-0.4912844414576514,2.7325155542066812,0.6044444444444445,-0.38,-0.27,-0.006819389091347375,-0.003534292681184409,-0.13458864055802996
1592181541.4431434,-9.333419304415788,-0.2482903477921063,2.5118933177022273,0.5644444444444444,-0.38666666666666666,-0.29333333333333333,-0.04099652406846635,0.07233158675151569,0.07412022526787174
1592181541.4531434,-9.57,-0.13,2.43,0.5644444444444444,-0.38666666666666666,-0.29333333333333333,-0.2127120025868089,-0.07853981633974483,-0.08072147790473774
1592181541.4631433,-9.255960624575696,-0.35167485324068526,2.5408374266203424,0.5644444444444444,-0.38666666666666666,-0.29333333333333333,-0.1321087513800343,0.11188536463626012,0.026077829944238573
1592181541.4731433,-9.360287221000602,-0.36988032458308195,2.559640973749246,0.5644444444444444,-0.38666666666666666,-0.29333333333333333,-0.03299384746997915,0.0415246752869274,-0.11944309443414462
1592181541.4831433,-9.45822958220631,-0.32907100741403805,2.4372130222421142,0.5644444444444444,-0.38666666666666666,-0.29333333333333333,-0.12469692979412697,0.06645366854009378,0.06752435496460335
1592181541.4931433,-9.539239332533125,-0.4049443385346796,2.3134230036009322,0.5577777777777778,-0.37777777777777777,-0.28555555555555556,0.018248649851058178,0.03354456770191672,0.02447590238561477
1592181541.5031433,-9.520245988321301,-0.5275401167869788,2.3953262218952593,0.5577777777777778,-0.37777777777777777,-0.28555555555555556,-0.06888218470183859,-0.11354555869523192,-0.2887283480010057
1592181541.5131433,-9.529888500620718,-0.43111499379281804,2.2121184882063543,0.5577777777777778,-0.37777777777777777,-0.28555555555555556,0.05313066644508463,-0.20295152720806364,-0.061532004486045205
1592181541.5231433,-9.429812131767147,-0.47996868862785785,2.470407047837848,0.5577777777777778,-0.37777777777777777,-0.28555555555555556,-0.004506775846000198,-0.21224407348933344,-0.061059199492941654
1592181541.5331433,-9.383186348982843,-0.4721977248304739,2.571429577203839,0.5577777777777778,-0.37777777777777777,-0.28555555555555556,-0.04010936322937834,-0.0961118241673619,-0.0542777542770601
1592181541.5431433,-9.37,-0.51,2.69,0.57,-0.38555555555555554,-0.28444444444444444,0.01308996938995747,-0.04799655442984406,-0.17562375598192942
1592181541.5531433,-9.28354443767828,-0.39029229832377166,2.736552995096311,0.57,-0.38555555555555554,-0.28444444444444444,-0.024633386089471902,-0.09950344364214186,-0.13282225649565377
1592181541.5631433,-9.23,-0.29,2.69,0.57,-0.38555555555555554,-0.28444444444444444,-0.12980886311707826,-0.1712604328519436,-0.074176493209759
1592181541.5731432,-9.254422906423793,-0.3714096880793101,2.755127750463448,0.57,-0.38555555555555554,-0.28444444444444444,-0.05432529842928399,-0.12064204241424625,-0.008461389834502814
1592181541.5831432,-9.304965971371786,-0.46494328561964227,2.7025510429423223,0.57,-0.38555555555555554,-0.28444444444444444,-0.10494111420800319,-0.03714268850175541,-0.0441402899001257
1592181541.5931432,-9.4,-0.75,2.7,0.5577777777777778,-0.38555555555555554,-0.30666666666666664,-0.0545415391248228,-0.10690141668465267,-0.08726646259971647
1592181541.6031432,-9.351935680072987,-0.75,2.6839785600243293,0.5577777777777778,-0.38555555555555554,-0.30666666666666664,-0.134060432694307,-0.12175659460422665,0.07526666052032814
1592181541.6131432,-9.29,-0.7,2.67,0.5577777777777778,-0.38555555555555554,-0.30666666666666664,-0.05235987755982988,-0.16907877128695067,0.15817046346198613
1592181541.6231432,-9.238255428045903,-0.6396313327202208,2.738992762605462,0.5577777777777778,-0.38555555555555554,-0.30666666666666664,0.041714408964555576,-0.05901185605341967,0.006710862157725511
1592181541.6331432,-9.200134388271568,-0.5926679853394613,2.9142608645063706,0.5577777777777778,-0.38555555555555554,-0.30666666666666664,-0.05404311658914723,-0.007244324692832649,0.044445531841830116
1592181541.6431432,-9.17,-0.41,2.99,0.57,-0.3655555555555556,-0.29333333333333333,-0.11780972450961724,0.02399827721492203,0.11780972450961724
1592181541.6531432,-9.177704656813926,-0.3945906863721468,2.99,0.57,-0.3655555555555556,-0.29333333333333333,-0.04889301457575897,-0.004576943977165543,0.16571524239046995
1592181541.6631432,-9.310269900848322,-0.4305398016966436,2.699797574363759,0.57,-0.3655555555555556,-0.29333333333333333,0.05554553607553041,-0.006353614195157374,0.08476094326579511
1592181541.6731431,-9.346670065739515,-0.5033401314790307,2.6724974506953636,0.57,-0.3655555555555556,-0.29333333333333333,-0.10328014532951216,0.01945555903316204,0.041083880879408397
1592181541.6831431,-9.420629157485017,-0.2039403175649237,2.677847684165002,0.57,-0.3655555555555556,-0.29333333333333333,-0.0167958780993865,-0.06207623984331337,0.05078503933847011
1592181541.6931431,-9.27,0.13,2.51,0.5644444444444444,-0.37777777777777777,-0.30666666666666664,0.002181661564992912,-0.01090830782496456,0.08944812416470939
1592181541.7031431,-9.328635871526524,-0.29511006856730426,2.7445434861060987,0.5644444444444444,-0.37777777777777777,-0.30666666666666664,0.0037807069054839274,0.006681190920436611,-0.033678367053098804
1592181541.713143,-9.313776083776084,-0.21454454454454455,2.6126565026565025,0.5644444444444444,-0.37777777777777777,-0.30666666666666664,-0.015393758309824476,0.0032114286700523215,0.020245590859306675
1592181541.723143,-9.167016744902964,-0.33298325509703636,2.867030056750508,0.5644444444444444,-0.37777777777777777,-0.30666666666666664,-0.0018562389158042394,0.02167797857016673,0.059787737417661496
1592181541.733143,-9.213875211176706,-0.34290275431369943,2.921291737058902,0.5644444444444444,-0.37777777777777777,-0.30666666666666664,-0.09522529700634914,0.08283667211315401,-0.07531171838867301
1592181541.743143,-9.177434770943725,-0.3310621101348179,2.9478757797303645,0.5763616309313538,-0.37777777777777777,-0.28481849144066596,-0.10979787275830472,0.19757386286283746,0.0776285713212592
1592181541.753143,-9.215510668763645,-0.30269359874181356,2.822570127461797,0.5777777777777777,-0.37777777777777777,-0.2822222222222222,-0.10690141668465267,0.14877535335356365,-0.022565891262177923
1592181541.763143,-9.362181827224349,-0.39478788481623317,2.648860595812404,0.5777777777777777,-0.37777777777777777,-0.2822222222222222,-0.16790596679816527,0.1346270291018137,0.051947350714944864
1592181541.773143,-9.44726787750448,-0.308683417494706,2.4503424824890048,0.5777777777777777,-0.37777777777777777,-0.2822222222222222,-0.20344242857705425,0.06904195680338775,0.032203584899255205
1592181541.783143,-9.314039290848108,-0.37561136036938625,2.6642030753147186,0.5777777777777777,-0.37777777777777777,-0.2822222222222222,-0.14054687266594107,0.06284662112542656,-0.032493899418418626
1592181541.793143,-9.251035984682394,-0.42792803063521295,2.8317121225408517,0.5538737369308272,-0.37777777777777777,-0.2901902358378724,-0.0374022721989052,0.06590188054248722,0.02022499567631026
1592181541.803143,-9.277883284116763,-0.6158885607784286,2.7656445756886283,0.5511111111111111,-0.37777777777777777,-0.2911111111111111,-0.07905484139767618,0.15162835673949351,0.08919348960822984
1592181541.813143,-9.317499879894307,-0.704999759788614,2.7037501801585395,0.5511111111111111,-0.37777777777777777,-0.2911111111111111,-0.054268923139689645,0.1765781739598696,-0.10253746468272885
1592181541.823143,-9.263578636475511,-0.5901046025104603,2.6717893182377557,0.5511111111111111,-0.37777777777777777,-0.2911111111111111,-0.14390979074269666,0.15318695349774805,0.01054156530739378
1592181541.833143,-9.23536188951161,-0.47506645316253004,2.72493354683747,0.5511111111111111,-0.37777777777777777,-0.2911111111111111,-0.17710934698355188,0.13885131755235072,0.10728491051699392
1592181541.843143,-9.245615721273492,-0.37128722217454735,2.7778357504505276,0.552790220925465,-0.37850539203066447,-0.29066334849395004,-0.1760409732476624,0.13049062065495878,0.15053258857687213
1592181541.853143,-9.556807610993657,0.004024841437632154,2.3326876321353063,0.5844444444444444,-0.39222222222222225,-0.2822222222222222,-0.21528514094953705,0.05100268112114244,0.021670748742967386
1592181541.863143,-9.668689008922975,-0.6713939538631413,2.1542615416753708,0.5844444444444444,-0.39222222222222225,-0.2822222222222222,-0.02399827721492203,0.018991243801338223,0.09181768376535152
1592181541.873143,-9.759446086100006,-0.8201384784749985,1.9449307607625006,0.5844444444444444,-0.39222222222222225,-0.2822222222222222,0.022451053299543777,-0.051909425564531646,0.08394271213967108
1592181541.883143,-9.612936168550954,-0.7472688575166462,2.1346615117255383,0.5844444444444444,-0.39222222222222225,-0.2822222222222222,0.102137208502876,-0.16608183549410868,0.08975954971819933
1592181541.893143,-9.54809446663501,-0.46762213345995923,2.4187000363118347,0.5781290094317663,-0.3805629575834319,-0.28902345992818324,0.12375050333277943,-0.16787035954331753,0.04008374270523399
1592181541.903143,-9.299312254627033,-0.08248247335950645,2.5556526920919795,0.57,-0.3655555555555556,-0.29777777777777775,0.2325046468760011,-0.1059186442235014,-0.036111821518584296
1592181541.913143,-9.448786494631758,-0.06836127330947446,2.12148662648333,0.57,-0.3655555555555556,-0.29777777777777775,0.2679221866681092,-0.27710928721016304,-0.009474858784827712
1592181541.923143,-9.805446102278811,-0.15198040082865855,1.891879844510137,0.57,-0.3655555555555556,-0.29777777777777775,0.22290724970869746,-0.41811251132703636,-0.10696583412594116
1592181541.933143,-9.516824094541745,-0.11,2.39677797143343,0.57,-0.3655555555555556,-0.29777777777777775,0.26101353890988876,-0.3336390621663168,-0.22656206179020333
1592181541.943143,-9.22693837149251,0.04379153038388707,2.7446066448614217,0.5665824104359136,-0.3730742525965456,-0.29504370612650865,0.21817545175212877,-0.3081167876658874,-0.259458486347161
1592181541.953143,-9.104876316754886,-0.11942822703212624,3.0540186573030765,0.5644444444444444,-0.37777777777777777,-0.29333333333333333,0.1640713886424947,-0.1824494090761884,-0.3886721661857186
1592181541.9631429,-9.0988147047546,-0.2569617523006135,2.9325206096625767,0.5644444444444444,-0.37777777777777777,-0.29333333333333333,-0.0524057296781317,-0.17791834864787096,-0.3218204380512508
1592181541.9731429,-9.077940044886182,-0.35823982045527414,3.0423597306829113,0.5644444444444444,-0.37777777777777777,-0.29333333333333333,-0.02778138608772234,-0.20284757330562642,-0.35611852256888193
1592181541.9831429,-8.969681966937987,-0.5848309138205925,3.2919283376688764,0.5644444444444444,-0.37777777777777777,-0.29333333333333333,0.01949398912688934,-0.04480333198733427,-0.15522667576666965
1592181541.9931428,-8.990322784587827,-0.7227420884408696,3.282096519265217,0.5693279711519323,-0.37191754572879226,-0.29333333333333333,0.01798110274296571,0.09455051953642737,-0.16878888945279072
1592181542.0031428,-9.071831780976574,-0.7453925244949801,3.172514011531793,0.57,-0.3711111111111111,-0.29333333333333333,-0.021724866405451574,0.09587892811248595,-0.1265883590759036
1592181542.0131428,-9.254245355191257,-0.7355188524590164,2.843348907103825,0.57,-0.3711111111111111,-0.29333333333333333,0.01586854786510991,0.07916755070971587,-0.11480996966187172
1592181542.0231428,-9.367056496476698,-0.5732983063419459,2.737766102113982,0.57,-0.3711111111111111,-0.29333333333333333,-0.04894403583395087,0.04786898292282939,0.05023768643309645
1592181542.0331428,-9.344780087313483,-0.5235850654851111,2.756414934514889,0.57,-0.3711111111111111,-0.29333333333333333,-0.05052130846809627,0.023463274719330005,0.03025539687640167
1592181542.0431428,-9.291888226429927,-0.4981117735700714,2.8062235471401427,0.5817170062678809,-0.3765189601578254,-0.3086555722990238,0.049627762041696194,0.06860691692200767,-0.03013131480708287
1592181542.0531428,-9.311921003234954,-0.6315260194097209,2.760677742721355,0.5844444444444444,-0.37777777777777777,-0.31222222222222223,-0.03838910555153649,0.05041224862248069,-0.01858720935395495
1592181542.0631428,-9.346085084033612,-0.8365105042016807,2.6556596638655465,0.5844444444444444,-0.37777777777777777,-0.31222222222222223,0.10398138184629765,0.042871941413418484,-0.07189262355043974
1592181542.0731428,-9.424005435948787,-0.9504510883818515,2.5659945640512123,0.5844444444444444,-0.37777777777777777,-0.31222222222222223,0.042848898401912736,-0.15023407980022957,0.05266104391562966
1592181542.0831428,-9.446725268870908,-1.0473405920154497,2.566813172177272,0.5844444444444444,-0.37777777777777777,-0.31222222222222223,0.02552303585539089,-0.1523615253093871,0.08730481765270207
1592181542.0931427,-9.438967604242984,-1.2630971872710477,2.6911403816137356,0.5883393325475955,-0.37310391205399646,-0.28651596074142505,0.020038303994891257,-0.053640603867645464,0.19770612112456498
1592181542.1031427,-9.36458928705959,-1.1837075914718365,2.7872343738228573,0.59,-0.3711111111111111,-0.27555555555555555,0.11704443635586412,-0.09219370533213499,0.2615873084460923
1592181542.1131427,-9.329654755182705,-1.0582737759135274,2.784741066387029,0.59,-0.3711111111111111,-0.27555555555555555,0.0780213263513718,-0.028190808818826907,0.35881940160738357
1592181542.1231427,-9.263635230577483,-0.6740839218944744,2.8627295388450356,0.59,-0.3711111111111111,-0.27555555555555555,-0.009520636925087474,-0.02717333349334753,0.37162433974673714
1592181542.1331427,-9.276121790457452,-0.3744952287260207,2.8442868666994587,0.59,-0.3711111111111111,-0.27555555555555555,0.030987277792405166,0.02608902369492419,0.3390927918051471
1592181542.1431427,-9.2518801944488,-0.1303926611259213,2.8504958444409594,0.5747520777795201,-0.3761937518512711,-0.28741505061592876,0.09331558712968019,-0.006071635637220504,0.18326644795265476
1592181542.1531427,-9.235152097970719,-0.06091258782431212,2.879391608117125,0.57,-0.37777777777777777,-0.2911111111111111,0.06241382900712304,-0.09763755435418674,0.035348449218375544
1592181542.1631427,-8.854559159797926,0.32245466631215103,2.8233794203669236,0.57,-0.37777777777777777,-0.2911111111111111,0.06760134462183169,-0.008279263520806324,0.03331607776919954
1592181542.1731427,-8.934853236831524,-0.28705991154000793,2.928603136308806,0.57,-0.37777777777777777,-0.2911111111111111,0.04974504169616649,0.017645755948716695,0.046745278974956284
1592181542.1831427,-9.198581735884094,-0.617875698783295,2.876313132290075,0.57,-0.37777777777777777,-0.2911111111111111,0.004595386053286906,0.010861760197322969,0.03891394331116272
1592181542.1931427,-9.363985693020178,-0.37941324842871316,2.829917714191201,0.57,-0.38793798470981733,-0.28485867607600984,-0.02285241775418187,-0.03132069985925194,0.08192353878604483
1592181542.2031426,-9.388273961301934,-0.41571471426428674,2.815595470226489,0.57,-0.39222222222222225,-0.2822222222222222,-0.0842211107702713,-0.06346297075251037,0.08846118981942386
1592181542.2131426,-9.188411009174311,-0.41294820042342983,2.9318122794636556,0.57,-0.39222222222222225,-0.2822222222222222,-0.18073053764155797,-0.007686654196512641,0.009124857231862807
1592181542.2231426,-9.174303025374106,-0.5955497722836695,2.9944502277163303,0.57,-0.39222222222222225,-0.2822222222222222,-0.12328561342061217,0.027300045274693756,-0.017271960532351985
1592181542.2331426,-9.379142041712404,-0.5124397365532382,2.7024397365532384,0.57,-0.39222222222222225,-0.2822222222222222,-0.04776258260229213,0.01729537949733558,0.05699223236952075
1592181542.2431426,-9.404415591843739,-0.4974458775416821,2.7065627591729347,0.5622116408168972,-0.37876960181504465,-0.28788648344629697,-0.05291710063978961,0.03456280504094156,0.042951348975271975
1592181542.2531426,-9.303676377454085,-0.49058807563557405,2.8495589432733195,0.5577777777777778,-0.3711111111111111,-0.2911111111111111,-0.09050697908784378,-0.06527363430506218,0.11699182347732379
1592181542.2631426,-9.299213355164804,-0.41797774139199356,2.803146579340784,0.5577777777777778,-0.3711111111111111,-0.2911111111111111,-0.08707056294470275,-0.061258557264201804,0.031622780833353736
1592181542.2731426,-9.43056584557082,-0.4,2.5759784462340125,0.5577777777777778,-0.3711111111111111,-0.2911111111111111,-0.0019781190518591563,-0.06414555231307523,-0.13590524300683468
1592181542.2831426,-9.448669996515275,-0.4,2.593192008363341,0.5577777777777778,-0.3711111111111111,-0.2911111111111111,0.018050848330171346,-0.09622523825840266,-0.08630576112534219
1592181542.2931426,-9.337063487109058,-0.3737764529621075,2.793915350521256,0.5612742507161634,-0.3786868024776134,-0.2881973836624564,-0.07723472130497762,-0.0841238294383324,-0.00042709848728495967
1592181542.3031425,-9.248772799551023,-0.46866336170610795,2.988663361706108,0.5644444444444444,-0.38555555555555554,-0.28555555555555556,-0.07572861348506871,-0.09678835113064288,0.022611857920883882
1592181542.3131425,-9.273493987470898,-0.47786573218443223,2.8549569162086263,0.5644444444444444,-0.38555555555555554,-0.28555555555555556,0.06555313589770154,-0.08309463639369627,0.040096010295243324
1592181542.3231425,-9.349428821043187,-0.44,2.7176427947392034,0.5644444444444444,-0.38555555555555554,-0.28555555555555556,0.016934599920053958,-0.07000799532684653,-0.0705889938855765
1592181542.3331425,-9.38968456274908,-0.44,2.71,0.5644444444444444,-0.38555555555555554,-0.28555555555555556,0.008981411310759975,-0.12330011231172791,-0.00014423835859991851
1592181542.3431425,-9.307375665129479,-0.4194168144732175,2.823207520397304,0.5713055062867053,-0.388986086476686,-0.29298837255133814,0.07536274750093358,-0.11780786711772084,0.09169154401025797
1592181542.3531425,-9.22,-0.42615484288953676,2.9757709750566894,0.5777777777777777,-0.39222222222222225,-0.3,-0.012757808413104005,-0.12246898893546987,0.074933042838954
1592181542.3631425,-9.250758708736093,-0.4276965165055626,2.9200273572861573,0.5777777777777777,-0.39222222222222225,-0.3,-0.03558658861722981,-0.16051764959583495,0.09917985470576295
1592181542.3731425,-9.287802111942419,-0.4081319253717208,2.8818680746282794,0.5777777777777777,-0.39222222222222225,-0.3,0.029560078222333884,-0.08639177829933747,0.11160033634811135
1592181542.3831425,-9.290558774203385,-0.39527938710169236,2.904161838694923,0.5777777777777777,-0.39222222222222225,-0.3,0.06635781930182874,-0.09915205269113092,0.03850912063907046
1592181542.3931425,-9.29470064001101,-0.4047006400110109,2.915099786662996,0.5679773511037705,-0.38514413629099475,-0.2956442548115523,0.08478002001642229,-0.11945452857402358,-0.025589819670341983
1592181542.4031425,-9.297174843362098,-0.4071748433620995,2.9484754699137015,0.5577777777777778,-0.37777777777777777,-0.2911111111111111,0.06957826555756068,-0.09404635181690771,-0.09443301064398388
1592181542.4131424,-9.266528353170688,-0.44107538195129437,2.9406604414633613,0.5577777777777778,-0.37777777777777777,-0.2911111111111111,0.01011394601228844,-0.1387886043077337,-0.0058022939399509366
1592181542.4231424,-9.215289976701655,-0.4410749805847133,2.9604950271814015,0.5577777777777778,-0.37777777777777777,-0.2911111111111111,0.004344795102565614,-0.10957991905573243,0.04711404098219168
1592181542.4331424,-9.171152193895736,-0.434135854578198,3.079527078995254,0.5577777777777778,-0.37777777777777777,-0.2911111111111111,0.017704662233717968,-0.03922488917196421,-0.004385832628939922
1592181542.4431424,-9.140715539354664,-0.431431078709329,3.1707155393546644,0.5608725979928896,-0.3813884013620749,-0.2952375380645935,-0.009191136645822036,-0.01721721830037507,-0.009819391555789618
1592181542.4531424,-9.111814017300716,-0.3918140173007162,3.1842479769323786,0.5644444444444444,-0.38555555555555554,-0.3,-0.09508133524614439,0.022425242610100732,0.005222462712423619
1592181542.4631424,-9.170498026686714,-0.3917496711144522,3.1177523021988347,0.5644444444444444,-0.38555555555555554,-0.3,-0.06944682642100207,0.016227363544313,-0.007171889512282655
1592181542.4731424,-9.15382726100821,-0.37794242033606984,3.0710287898319653,0.5644444444444444,-0.38555555555555554,-0.3,-0.05527769016513974,0.008789455929832466,-0.02850522874158095
1592181542.4831424,-9.143073116561787,-0.304004948469676,3.0196976368134973,0.5644444444444444,-0.38555555555555554,-0.3,-0.10844291195649473,0.01802479442730355,0.08853060135687166
1592181542.4931424,-9.191229146560044,-0.3484065214394044,3.097875361919206,0.5644444444444444,-0.37922105029336517,-0.2961018429155752,-0.1149428157706619,0.08425208942091035,0.16080414376636865
1592181542.5031424,-9.209990647650223,-0.3740392798690671,3.0780692073883564,0.5644444444444444,-0.3711111111111111,-0.2911111111111111,-0.1175787040460247,0.05109311620128337,0.06195143505421864
1592181542.5131423,-9.278946987951807,-0.3552626506024096,2.897368674698795,0.5644444444444444,-0.3711111111111111,-0.2911111111111111,-0.09584039255013861,0.025988057702511946,0.07023425704689591
1592181542.5231423,-9.264383797759265,-0.4049439816144786,2.90539212869865,0.5644444444444444,-0.3711111111111111,-0.2911111111111111,-0.12789450366569335,0.07520621741294296,0.05554682069628176
1592181542.5331423,-9.258032034892466,-0.4,2.944002669574372,0.5644444444444444,-0.3711111111111111,-0.2911111111111111,-0.15377656376603732,0.06632018193266354,0.018306155179412063
1592181542.5431423,-9.326589805413116,-0.42046116752130946,2.929538832478691,0.5598975183285979,-0.37338457416903437,-0.2983104107945348,-0.06425310774853323,0.10460988300702065,-0.035851796377074745
1592181542.5531423,-9.391313381674356,-0.4897139090309822,2.7354876730388926,0.5511111111111111,-0.37777777777777777,-0.31222222222222223,-0.04992855452635789,0.037669860032773006,-0.06750667778054073
1592181542.5631423,-9.444790995521332,-0.5036120059715565,2.618821010450224,0.5511111111111111,-0.37777777777777777,-0.31222222222222223,-0.05125619028190053,-0.07503115017115315,-0.06869311219765926
1592181542.5731423,-9.45915241714165,-0.46457620857082543,2.5925427485750476,0.5511111111111111,-0.37777777777777777,-0.31222222222222223,0.033723297310129775,-0.03847389184996644,-0.07214324634591006
1592181542.5831423,-9.468558388654195,-0.4414416113458057,2.633918791490646,0.5511111111111111,-0.37777777777777777,-0.31222222222222223,0.07118864054819715,-0.0749174492352036,-0.11110748441139841
1592181542.5931423,-9.516598465473146,-0.4332992327365729,2.6322676896845696,0.5594847020933977,-0.38516624040920716,-0.30975940134507907,0.04212485318459033,-0.19986939976815923,-0.06508902653750379
1592181542.6031423,-9.546750254682236,-0.45179296293393933,2.612689444400909,0.57,-0.39444444444444443,-0.30666666666666664,-0.04890693354069644,-0.19911504178779363,-0.0050478598360614935
1592181542.6131423,-9.31038932314575,-0.5722080076406867,2.808008897378541,0.57,-0.39444444444444443,-0.30666666666666664,0.11594415081481815,-0.3574193819198777,-0.11446139739337463
1592181542.6231422,-9.360260052847762,-0.5002600528477619,2.8240248018208933,0.57,-0.39444444444444443,-0.30666666666666664,0.15856760657396635,-0.37735653233092015,-0.09765194333273809
1592181542.6331422,-9.266178059801941,-0.42789039515431204,3.034616479184694,0.57,-0.39444444444444443,-0.30666666666666664,0.16173285816972707,-0.2947753250606816,-0.03080327418525556
1592181542.6431422,-9.012260638297873,-0.31180186170212765,3.376502659574468,0.5617235520094562,-0.38422059692671395,-0.3091009160756501,0.1569367512538568,-0.17138373154411404,-0.09639419225245444
1592181542.6531422,-8.809142492318744,-0.25,3.5928175252384182,0.5511111111111111,-0.3711111111111111,-0.31222222222222223,0.091539771841262,-0.1592430128938322,-0.14476331263824502
1592181542.6631422,-8.749281317494601,-0.35209449244060476,3.8292813174946003,0.5511111111111111,-0.3711111111111111,-0.31222222222222223,-0.08758004699960908,0.04206086233905185,0.11595062961742897
1592181542.6731422,-8.959932363237991,-0.4173862202005287,3.4559194074638593,0.5511111111111111,-0.3711111111111111,-0.31222222222222223,-0.07831172102263037,0.14945119522821726,0.10227879749998355
1592181542.6831422,-9.25876632996633,-0.40393323713323714,3.0209252525252523,0.5511111111111111,-0.3711111111111111,-0.31222222222222223,-0.029757989672134777,0.13998810351111715,0.03298852779674371
1592181542.6931422,-9.396560335577016,-0.4265603355770169,2.872653724839853,0.5584902647257539,-0.3719792468304809,-0.313090357941592,0.025429520413105363,0.07326571175747268,0.05631571315919043
1592181542.7031422,-9.36,-0.39,2.83,0.57,-0.37333333333333335,-0.31444444444444447,0.017453292519943295,-0.05235987755982988,0.08290313946973066
1592181542.7131422,-9.146402910806225,-0.42410072770155605,3.1389927229844394,0.57,-0.37333333333333335,-0.31444444444444447,0.012320831247405108,0.08682695508968655,-0.08673257769175893
1592181542.7231421,-9.190324308946945,-0.41475676828979186,3.05459461381632,0.57,-0.37333333333333335,-0.31444444444444447,0.022701031105843462,0.12926044795410824,0.06956553375211717
1592181542.7331421,-9.202396907678786,-0.407603092321214,3.0528092769636417,0.57,-0.37333333333333335,-0.31444444444444447,0.0564533056240096,0.1687189111992092,-0.018028223403925202
1592181542.7431421,-9.234024403071421,-0.399282633848743,3.0589239507731145,0.5720141883758166,-0.3788004160676928,-0.313868962051354,0.006483943149140078,0.09634914629716435,-0.08635324894684077
1592181542.753142,-9.288134281964496,-0.407074670166471,2.9652089521309666,0.5777777777777777,-0.39444444444444443,-0.31222222222222223,-0.022728341316034465,0.08991544008050983,-0.02480587024709699
1592181542.763142,-9.258351648351649,-0.5107692307692308,2.938021978021978,0.5777777777777777,-0.39444444444444443,-0.31222222222222223,0.01246663751424521,0.11734222560283304,-0.053990130157846566
1592181542.773142,-9.352648057336854,-0.5051089211618257,2.877351942663146,0.5777777777777777,-0.39444444444444443,-0.31222222222222223,-0.003690554993666814,0.01910476341603893,0.05921079687826622
1592181542.783142,-9.358547620400357,-0.417679487907884,2.868263735015056,0.5777777777777777,-0.39444444444444443,-0.31222222222222223,-0.01400419065482117,-0.00850448474954673,0.07309845003884456
1592181542.793142,-9.253278780248985,-0.3762704574066303,2.9855325919709053,0.5735974728400242,-0.3956056402604871,-0.31384789636468197,0.0486761684045593,0.0061516203423034165,-0.008073963553001638
1592181542.803142,-9.16624000983647,-0.4,3.1057440059018813,0.5577777777777778,-0.4,-0.32,-0.03557328879663482,0.057168224240328844,0.029569360461743473
1592181542.813142,-9.14,-0.4,3.09,0.5577777777777778,-0.4,-0.32,-0.06763150851478027,0.15162547876700738,0.05017821599483697
1592181542.823142,-9.163557627750839,-0.4,3.0771152555016785,0.5577777777777778,-0.4,-0.32,0.05233953383020481,0.10034479537632841,0.00432117092220267
1592181542.833142,-9.182111255877189,-0.396972186030703,3.0657774882456237,0.5577777777777778,-0.4,-0.32,-0.04063380195740211,0.14124049535698435,0.002199581517801162
1592181542.843142,-9.189081689358156,-0.40394554042789665,3.0187159627674354,0.5577777777777778,-0.39748205520051866,-0.32,-0.09577238156950946,-0.0036417350817978707,-0.04001013642176238
1592181542.853142,-9.153156065345847,-0.47,3.0515791912872205,0.5577777777777778,-0.38555555555555554,-0.32,-0.05477054913268789,0.09323791119332006,-0.05178431929502988
1592181542.863142,-9.287017397934429,-0.39947390309835723,2.883275340218572,0.5577777777777778,-0.38555555555555554,-0.32,-0.14449342996961212,0.04749903820687139,-0.04733335068661697
1592181542.873142,-9.363606474105884,-0.3404906374823948,2.6868841633765097,0.5577777777777778,-0.38555555555555554,-0.32,-0.17179840578062505,0.07982596454087074,0.04184552912393068
1592181542.883142,-9.353725019984012,-0.4327124966693312,2.7889874766853184,0.5577777777777778,-0.38555555555555554,-0.32,-0.063232725391332,0.17469656434959163,-0.005917749728651171
1592181542.893142,-9.304847309401227,-0.4361354820509204,2.8515935538472386,0.55863655954424,-0.3845536434946831,-0.31713739411179287,-0.0722904076280055,0.13011170925399182,0.008956790860143608
1592181542.903142,-9.286530891131836,-0.4223981683488768,2.9134691088681643,0.5644444444444444,-0.37777777777777777,-0.29777777777777775,-0.04051699782713611,0.09006667393977125,0.09941388368750056
1592181542.913142,-9.32158513671832,-0.4361382877605606,2.8127657552112115,0.5644444444444444,-0.37777777777777777,-0.29777777777777775,-0.06372073102298037,0.12102526285042528,-0.0364591965937438
1592181542.923142,-9.336610955694235,-0.43,2.7137233101403533,0.5644444444444444,-0.37777777777777777,-0.29777777777777775,-0.006664492780132807,0.06397109740899834,0.017526218012324523
1592181542.933142,-9.32734149199323,-0.43,2.7786095560473894,0.5644444444444444,-0.37777777777777777,-0.29777777777777775,0.04166999152154409,0.04484662255173296,0.04241984004798352
1592181542.943142,-9.319169161424872,-0.42584580712435666,2.8333233543005147,0.5638905520610253,-0.37777777777777777,-0.29777777777777775,-0.016747842870635316,0.003987738889357692,0.08672268002389497
1592181542.953142,-9.28256096421564,-0.38685975894608987,2.87685975894609,0.5577777777777778,-0.37777777777777777,-0.29777777777777775,0.06326818538479445,0.10449196788254123,0.03283132610377589
1592181542.963142,-9.243066300955263,-0.4,2.8573342476118415,0.5577777777777778,-0.37777777777777777,-0.29777777777777775,0.053290999078039525,0.15748114981727274,-0.03966314580606699
1592181542.973142,-9.324201965194744,-0.34898638569906476,2.7421747365928733,0.5577777777777778,-0.37777777777777777,-0.29777777777777775,-0.012488443429868872,0.06589211962220287,0.032692742223443684
1592181542.983142,-9.402833606048636,-0.30442174951569523,2.716810547499483,0.5577777777777778,-0.37777777777777777,-0.29777777777777775,-0.11124533140146087,0.08695880026989426,0.1003758404028516
1592181542.993142,-9.294521969822583,-0.4896640689769524,2.935142099154369,0.5590697691556588,-0.37777777777777777,-0.2982802188691759,-0.10991739830162696,0.013027966937256462,0.0873284650524175
1592181543.0031419,-9.337234586608579,-0.3660176153044796,2.785044038261199,0.5777777777777777,-0.37777777777777777,-0.3055555555555556,-0.049914986822206894,0.055815948494353645,0.004807341569532162
1592181543.0131419,-9.283726871835553,-0.39804405142443827,2.854132154273315,0.5777777777777777,-0.37777777777777777,-0.3055555555555556,-0.1313984946573004,-0.027596575690569707,0.00030562299718185984
1592181543.0231419,-9.272969679728801,-0.3618787189152028,2.7486058364744093,0.5777777777777777,-0.37777777777777777,-0.3055555555555556,-0.09922572587667446,0.04643619292364876,-0.06432594188213306
1592181543.0331419,-9.270784001200097,-0.40151999849987813,2.8607359972997806,0.5777777777777777,-0.37777777777777777,-0.3055555555555556,-0.17530261657775542,0.08159763620017649,-0.03630634374730276
1592181543.0431418,-9.242661218863837,-0.4349732532571954,2.9267473991664206,0.577186395808036,-0.37741637768515784,-0.3057526828788028,-0.14066157512289618,0.007266262585620284,0.07845196563775782
1592181543.0531418,-9.327192675954077,-0.32333915687253256,2.8003487316785405,0.5577777777777778,-0.3655555555555556,-0.31222222222222223,-0.03391562044170228,0.08355173754310957,-0.03394603817169474
1592181543.0631418,-9.35202626641651,-0.43290085149372204,2.6760932313465147,0.5577777777777778,-0.3655555555555556,-0.31222222222222223,-0.12204741869394971,0.0526429362619411,0.07627707845017612
1592181543.0731418,-9.436662560647578,-0.3926798059277508,2.511352221021142,0.5577777777777778,-0.3655555555555556,-0.31222222222222223,-0.07533502959576444,0.06092692616389943,0.12703852751784991
1592181543.0831418,-9.397673550407927,-0.4844090544871795,2.691632247960373,0.5577777777777778,-0.3655555555555556,-0.31222222222222223,-0.026990393949354964,-0.06443474181820284,0.04870061227864285
1592181543.0931418,-9.39003532925408,-0.40038862179487184,2.7298233537296035,0.5577777777777778,-0.3655555555555556,-0.31222222222222223,-0.015325584487971588,-0.06110193911495045,-0.006290632325021625
1592181543.1031418,-9.31981744469997,-0.463637592166718,2.83,0.5777777777777777,-0.38,-0.2911111111111111,0.017021087772626363,0.06239787936775823,-0.004920906564174016
1592181543.1131418,-9.337015749417095,-0.42403149883419117,2.7732992389248166,0.5777777777777777,-0.38,-0.2911111111111111,-0.08622717166414277,-0.015202911159053374,0.03133176398139781
1592181543.1231418,-9.33,-0.42674985711564106,2.673499714231282,0.5777777777777777,-0.38,-0.2911111111111111,-0.0408206376991139,-0.03589620900373649,-0.042456572147544475
1592181543.1331418,-9.331943969204449,-0.4683361847733105,2.7722241231822067,0.5777777777777777,-0.38,-0.2911111111111111,0.011882497163652587,-0.030445982945764533,-0.04824849994847027
1592181543.1431417,-9.339660174613835,-0.42135930154466084,2.741359301544661,0.5775512275203343,-0.38,-0.29171524513096037,-0.0647455321651721,-0.13644109962279935,0.11170414901768845
1592181543.1531417,-9.317061375023195,-0.4911841250695862,2.8288158749304135,0.5644444444444444,-0.38,-0.32666666666666666,-0.04707818381188406,-0.01655384798811494,0.013472741891293674
1592181543.1631417,-9.323002871938671,-0.44399425612265664,2.7927873634698446,0.5644444444444444,-0.38,-0.32666666666666666,-0.08608473130765444,-0.008287807707686265,-0.023200523489182327
1592181543.1731417,-9.351163704307,-0.38104536961625063,2.6609270349255016,0.5644444444444444,-0.38,-0.32666666666666666,-0.025293498319381963,-9.898114799254329e-05,-0.08941582725369598
1592181543.1831417,-9.316476243920688,-0.4111906098017209,2.7664762439206885,0.5644444444444444,-0.38,-0.32666666666666666,0.017848162652806584,-0.07547524703141818,0.10574827020425602
1592181543.1931417,-9.300784885895998,-0.3719622147399925,2.750784885895997,0.5644444444444444,-0.38,-0.32666666666666666,-0.009538423511203202,-0.03268370615015289,0.10061328529850419
1592181543.2031417,-9.33095426205321,-0.4082156965399077,2.820830041406882,0.5644444444444444,-0.38,-0.3055555555555556,-0.09183797341414429,-0.10471975511965977,0.01613148243368563
1592181543.2131417,-9.367702347523306,-0.42229765247669326,2.7340557115579016,0.5644444444444444,-0.38,-0.3055555555555556,-0.04384211014047376,-0.10023871097250865,0.04602186033174917
1592181543.2231417,-9.379564776850936,-0.4,2.650870446298129,0.5644444444444444,-0.38,-0.3055555555555556,0.08840366358654922,-0.07588339996649729,-0.03293536297761055
1592181543.2331417,-9.32857962305381,-0.40489444726265267,2.7609981659968,0.5644444444444444,-0.38,-0.3055555555555556,-0.0033415764525345053,-0.021690961750919106,-0.1786156553408436
1592181543.2431417,-9.271296093963398,-0.4294445311585437,2.916482030670777,0.5644444444444444,-0.38,-0.3055555555555556,0.012726415883370583,0.033654345183865085,-0.11702168471987408
1592181543.2531416,-9.22,-0.36,2.95,0.5577777777777778,-0.37333333333333335,-0.32666666666666666,0.04145156973486533,-0.05890486225480862,0.01308996938995747
1592181543.2631416,-9.17389361648081,-0.4038936164808088,3.0635390047501714,0.5577777777777778,-0.37333333333333335,-0.32666666666666666,-0.024228818330840708,-0.07514972585572194,-0.024684497255273715
1592181543.2731416,-9.15,-0.38,2.96,0.5577777777777778,-0.37333333333333335,-0.32666666666666666,0.11999138607461016,0.14726215563702155,-0.12980886311707826
1592181543.2831416,-9.260897067972465,-0.3826912039173975,2.87,0.5577777777777778,-0.37333333333333335,-0.32666666666666666,0.03921846318123393,-0.049815649228100604,-0.16171079812266348
1592181543.2931416,-9.269314455437597,-0.4079433663127897,2.87,0.5577777777777778,-0.37333333333333335,-0.32666666666666666,-0.0636193247966077,-0.025942591304673083,-0.11304648774029197
1592181543.3031416,-9.327944877723331,-0.3858897554466607,2.783834633169991,0.5644444444444444,-0.38666666666666666,-0.31222222222222223,-0.07518824773220426,0.013505653036891267,0.12440700845116746
1592181543.3131416,-9.316580277399552,-0.3734197226004477,2.7514506934988807,0.5644444444444444,-0.38666666666666666,-0.31222222222222223,0.020471347473449336,-0.03557335349907749,-0.04926252332948131
1592181543.3231416,-9.297048095308135,-0.39147595234593324,2.724759523459332,0.5644444444444444,-0.38666666666666666,-0.31222222222222223,-0.007431415063164189,0.03615480735020023,-0.0043958924267716425
1592181543.3331416,-9.290942388401373,-0.39726440289965664,2.81,0.5644444444444444,-0.38666666666666666,-0.31222222222222223,0.10926869844384376,-0.00978751145057961,0.040741967871394724
1592181543.3431416,-9.354953071346813,-0.38126173216329645,2.81,0.5644444444444444,-0.38666666666666666,-0.31222222222222223,0.08483001026591612,0.04781796782596415,0.011066417941053994
1592181543.3531415,-9.453380238891098,-0.2007323344475351,2.6226479044435616,0.57,-0.39444444444444443,-0.3055555555555556,-0.016291653736628886,-0.038295934811844325,-0.0356377662539505
1592181543.3631415,-9.40743829290302,-0.1464042677424492,2.634876585806041,0.57,-0.39444444444444443,-0.3055555555555556,0.10350449122757231,-0.14037369155344634,0.07766803183625384
1592181543.3731415,-9.474978908010163,-0.07451584296054839,2.6479368199031685,0.57,-0.39444444444444443,-0.3055555555555556,0.002682290197926188,-0.202669467508395,-0.052649252831884694
1592181543.3831415,-9.78,0.34,2.82,0.57,-0.39444444444444443,-0.3055555555555556,0.04363323129985824,-0.22143864884678055,0.08726646259971647
1592181543.3931415,-9.885211459754434,0.6030286493860846,2.9515143246930426,0.57,-0.39444444444444443,-0.3055555555555556,0.09145318920465967,-0.4634076358450758,0.26133110937319365
1592181543.4031415,-9.4,1.28,2.89,0.5777777777777777,-0.39444444444444443,-0.31222222222222223,0.017453292519943295,-0.6686792696703274,-0.2083486794568231
1592181543.4131415,-8.372811928761685,0.7718572100067895,3.429353423512822,0.5777777777777777,-0.39444444444444443,-0.31222222222222223,-0.0653653584110898,-0.3948364765108054,-0.0959012710145226
1592181543.4231415,-9.07484076433121,0.28378980891719746,3.1615195632393083,0.5777777777777777,-0.39444444444444443,-0.31222222222222223,-0.13369128769008543,-0.2006597616619106,0.06502006557688383
1592181543.4331415,-8.85,0.34,3.29,0.5777777777777777,-0.39444444444444443,-0.31222222222222223,-0.08726646259971647,-0.09817477042468103,0.06326818538479445
1592181543.4431415,-9.222140927915492,0.1737242662505252,3.3691789208330833,0.5777777777777777,-0.39444444444444443,-0.31222222222222223,-0.06653746959901796,-0.17331737005221315,0.07190526580175216
1592181543.4531415,-9.18,-0.1,3.21,0.5644444444444444,-0.38666666666666666,-0.32,-0.06326818538479445,-0.1778054175469223,0.06763150851478027
1592181543.4631414,-8.971931990217772,-0.2783440083847677,3.180275998602539,0.5644444444444444,-0.38666666666666666,-0.32,-0.21133712642994862,-0.1929365502084709,0.037369243191683055
1592181543.4731414,-8.989641809853865,-0.4985422775852459,3.108363182512178,0.5644444444444444,-0.38666666666666666,-0.32,-0.18028829147979358,-0.09717345211169802,0.03836034939075861
1592181543.4831414,-9.09,-0.44,3.1,0.5644444444444444,-0.38666666666666666,-0.32,-0.24870941840919195,0.08072147790473774,0.08944812416470939
1592181543.4931414,-9.231139762446919,-0.4321589020862822,3.1156821958274357,0.5644444444444444,-0.38666666666666666,-0.32,-0.1896915726965126,-0.03218222693690971,0.014178987603611082
1592181543.5031414,-8.95,-0.32,3.12,0.5577777777777778,-0.38,-0.31222222222222223,-0.11562806294462433,0.006544984694978735,-0.004363323129985824
1592181543.5131414,-9.327703605875055,-0.4293352543322528,3.288972665786209,0.5577777777777778,-0.38,-0.31222222222222223,0.007975153039901456,-0.025982177406212257,-0.09110242206649515
1592181543.5231414,-9.271399115296804,-0.3704663717656012,3.1295336282343986,0.5577777777777778,-0.38,-0.31222222222222223,-0.26024963396341944,-0.051228887767361383,0.10319355708564468
1592181543.5331414,-9.299330918005012,-0.3719710160601309,3.1256871969574074,0.5577777777777778,-0.38,-0.31222222222222223,-0.050762100183755564,0.05375147869651168,0.07184886059753644
1592181543.5431414,-9.284210602209845,-0.190527226518142,3.2542098812163163,0.5577777777777778,-0.38,-0.31222222222222223,-0.0639570649121029,-0.11201026570335171,0.06855011941544961
1592181543.5531414,-9.233902904183667,-0.06783912319242932,3.1269347946792845,0.5433333333333333,-0.37777777777777777,-0.31222222222222223,0.06164206461084866,-0.13473136112178416,0.09968043975862635
1592181543.5631413,-9.17092684898289,-0.15278054694867305,2.9927805469486732,0.5433333333333333,-0.37777777777777777,-0.31222222222222223,-0.02157179225189071,-0.07917318299373374,0.012674680720775875
1592181543.5731413,-9.181457570715473,-0.1752628951747088,3.0185424292845258,0.5433333333333333,-0.37777777777777777,-0.31222222222222223,0.004169115320123725,-0.14837059217424384,-0.09364337586298278
1592181543.5831413,-9.221761116578689,-0.05628970206674421,2.9827674689093673,0.5433333333333333,-0.37777777777777777,-0.31222222222222223,0.05496678452926885,-0.11878384996423419,0.027497250900325083
1592181543.5931413,-9.2742977543169,-0.2439205511317885,3.065325042497987,0.5433333333333333,-0.37777777777777777,-0.31222222222222223,0.0025703670173080964,-0.08276131292476116,0.06679456403429565
1592181543.6031413,-9.12,-0.1964495523832567,3.23,0.5311111111111111,-0.3711111111111111,-0.32,0.06968025394571434,-0.029347016703371143,-0.006657261349920424
1592181543.6131413,-9.126320570621088,-0.4373588587578225,3.225084000628042,0.5311111111111111,-0.3711111111111111,-0.32,0.06410756453882901,-0.013972606934487385,-0.14182632781870275
1592181543.6231413,-9.20855726144127,-0.26867748965449695,3.159398858933862,0.5311111111111111,-0.3711111111111111,-0.32,0.017059846612203812,-0.055092363395658074,-0.12564685714979662
1592181543.6331413,-9.097252409016981,-0.16418408212518146,3.110557877616691,0.5311111111111111,-0.3711111111111111,-0.32,-0.014663080877798237,-0.09792223168106534,0.03696653658944907
1592181543.6431413,-9.28796575785663,-0.27421101414805615,3.1252281352197406,0.5311111111111111,-0.3711111111111111,-0.32,0.0013396877027613378,-0.03391115735882706,0.03376598287333715
1592181543.6531413,-9.251575348924934,0.026124104111655982,3.134460109392682,0.5377777777777778,-0.3711111111111111,-0.3211111111111111,0.18111087964788114,-0.12047790853649407,-0.11665341713403714
1592181543.6631413,-9.089629755897995,-0.23629755897995364,3.2159273148779493,0.5377777777777778,-0.3711111111111111,-0.3211111111111111,-0.0071911825565858,-0.12411424446166601,0.09453841988900316
1592181543.6731412,-9.080096822582846,-0.14096822582844676,3.1110650484112914,0.5377777777777778,-0.3711111111111111,-0.3211111111111111,-0.023829289928829576,0.022509076756232288,0.1132562906827774
1592181543.6831412,-9.129215249294674,-0.03172645155172005,3.139529149576804,0.5377777777777778,-0.3711111111111111,-0.3211111111111111,0.03183465203989858,-0.2068494110502017,-0.015398819977646916
1592181543.6931412,-9.13,-0.24200860679689024,3.2350383409779164,0.5377777777777778,-0.3711111111111111,-0.3211111111111111,0.11805392363338046,-0.04066980799604325,-0.11235190017283982
1592181543.7031412,-9.284517721783073,-0.3005595864530935,3.2764058044924544,0.5777777777777777,-0.37777777777777777,-0.3211111111111111,0.20957696720711322,-0.03614233228346205,-0.024410192962780516
1592181543.7131412,-8.895650833652095,-0.06418941115586256,2.932533132326801,0.5777777777777777,-0.37777777777777777,-0.3211111111111111,-0.035579104074164265,-0.06741895322876404,-0.035586761955138525
1592181543.7231412,-9.443024773305133,-0.4700011250365637,3.1779076569988525,0.5777777777777777,-0.37777777777777777,-0.3211111111111111,0.11060557298308518,-0.04682956209394018,-0.1014728135865749
1592181543.7331412,-9.226052705882354,-0.18975717647058826,2.927287529411765,0.5777777777777777,-0.37777777777777777,-0.3211111111111111,0.10348098201645016,0.05858023101393766,0.06517819158503578
1592181543.7431412,-8.9819150170401,-0.18425531143499385,3.0240424914799506,0.5777777777777777,-0.37777777777777777,-0.3211111111111111,0.10098308030193036,0.026574515631374848,0.004827545148872889
1592181543.7531412,-9.578796240071895,-0.6487102572198878,3.389111510529256,0.57,-0.37777777777777777,-0.30666666666666664,0.07196356739752055,0.0066387774367153325,-0.08070271935639042
1592181543.7631412,-9.157450531047552,-0.20235335595610596,3.0850989379048963,0.57,-0.37777777777777777,-0.30666666666666664,0.06005967857216484,0.03751571420515972,-0.0731496479621223
1592181543.7731411,-9.037301793662685,-0.31325988277290556,3.3253964126746287,0.57,-0.37777777777777777,-0.30666666666666664,0.011667577199551353,-0.045154125639721626,-0.02475754658950883
1592181543.7831411,-8.99288836552049,-0.21794300518134713,3.3028883655204897,0.57,-0.37777777777777777,-0.30666666666666664,0.0633780391866304,-0.19490320096728517,-0.06027500326498528
1592181543.7931411,-9.176786524195718,-0.14275685128954146,3.2103424683860555,0.57,-0.37777777777777777,-0.30666666666666664,0.2371535804844897,0.0016605222633424566,-0.055118085770866104
1592181543.803141,-8.77,-0.14,3.18,0.5577777777777778,-0.38555555555555554,-0.33555555555555555,0.1778054175469223,0.04581489286485115,0.10035643198967394
1592181543.813141,-9.265796891665397,-0.17198689623647723,3.020065518817614,0.5577777777777778,-0.38555555555555554,-0.33555555555555555,0.11238237182579221,0.02313490368152605,-0.08893424696346248
1592181543.823141,-9.52668339212082,-0.3075711659794327,3.0984589398380447,0.5577777777777778,-0.38555555555555554,-0.33555555555555555,0.13078274756202057,-0.010378418441922665,-0.08764835362879156
1592181543.833141,-9.458226574155201,-0.3290859362049776,3.1372578086149328,0.5577777777777778,-0.38555555555555554,-0.33555555555555555,0.17381706184781853,0.0503418315712497,-0.13345035586069262
1592181543.843141,-9.067983738978935,-0.33,3.146702039667036,0.5577777777777778,-0.38555555555555554,-0.33555555555555555,0.12297448373955663,-0.009073919879023104,-0.09832615791831509
1592181543.853141,-9.289464705882352,-0.40677463235294115,3.2950187499999997,0.5682039624183006,-0.3789207107843137,-0.3099640114379085,0.17508856712926707,-0.0451737089475514,-0.15019099618395165
1592181543.863141,-9.057570557899671,-0.21541537740271918,3.088730426629161,0.57,-0.37777777777777777,-0.3055555555555556,0.19065430975410022,0.022105560512615703,-0.15283086468090526
1592181543.873141,-9.145019429119692,-0.3775291436795395,3.1939493883425283,0.57,-0.37777777777777777,-0.3055555555555556,0.11394089912389624,-0.08829784585192192,-0.047395982615244844
1592181543.883141,-9.389156065558351,-0.4969506431208409,3.271695863804171,0.57,-0.37777777777777777,-0.3055555555555556,0.17105807754724034,-0.02562409653718213,-0.09836063257931149
1592181543.893141,-9.06302726473175,-0.16600809146877749,3.156682145998241,0.57,-0.37777777777777777,-0.3055555555555556,0.09856773813665161,0.008800174202953641,-0.04742989805924273
1592181543.903141,-9.3856780140697,-0.1489290046090402,3.4545310099458235,0.5650605554207883,-0.3906203336837282,-0.318398111461506,0.14667801826683619,-0.0014599685543689941,-0.05988508401318843
1592181543.913141,-9.14,-0.1,3.28,0.5644444444444444,-0.39222222222222225,-0.32,0.13199052468207118,-0.19307704850187268,-0.09599310885968812
1592181543.923141,-9.0774980199258,-0.1468764850556505,3.1393705448330484,0.5644444444444444,-0.39222222222222225,-0.32,0.11409351517619264,-0.13086363450524732,0.004571039792391235
1592181543.933141,-9.050603538780631,-0.22577522853557985,3.16577522853558,0.5644444444444444,-0.39222222222222225,-0.32,0.11113306807856986,0.09360257134172081,-0.03492474087960754
1592181543.943141,-9.074809428872992,-0.29450451506977837,3.184885657323795,0.5644444444444444,-0.39222222222222225,-0.32,0.14428146404183362,0.08200355907070225,-0.1069271299469116
1592181543.953141,-9.28,-0.56,3.24,0.57,-0.39222222222222225,-0.31222222222222223,0.1341721862470641,-0.04581489286485115,0.1407171709420428
1592181543.963141,-9.156849682089014,-0.5326332626864478,3.096324629103851,0.57,-0.39222222222222225,-0.31222222222222223,-0.009866027234850971,-0.130148147390532,-0.01973990625283667
1592181543.973141,-9.026051424072113,-0.6956278678287312,3.159410007873802,0.57,-0.39222222222222225,-0.31222222222222223,0.20899563738934876,-0.18319521330213587,-0.09784471644189098
1592181543.983141,-9.0708611599297,-0.6464235500878734,3.189072934973638,0.57,-0.39222222222222225,-0.31222222222222223,0.14981908983061498,-0.17464124143706222,-0.19110530955670996
1592181543.993141,-9.29534085778781,-0.5897923250564334,3.3279819413092553,0.57,-0.39222222222222225,-0.31222222222222223,0.10988581151170845,-0.11250134301773043,-0.174542774687311
1592181544.003141,-9.291682242990653,-0.5308411214953271,3.3408411214953273,0.5545240567670474,-0.39222222222222225,-0.30038767739702316,0.03122290725725059,-0.0797223992441335,-0.009338327072586472
1592181544.013141,-9.186304716399507,-0.5107005240443897,3.311401048088779,0.5511111111111111,-0.39222222222222225,-0.29777777777777775,0.1236612548947306,-0.011588395758873021,-0.01282634074215315
1592181544.023141,-9.455232079431708,-0.48177106877623505,3.1688553438811753,0.5511111111111111,-0.39222222222222225,-0.29777777777777775,0.2028143950945449,-0.0034656859813929223,-0.010652682884571663
1592181544.033141,-9.094516245954692,-0.3264577346278317,3.092057216828479,0.5511111111111111,-0.39222222222222225,-0.29777777777777775,0.09827505625273658,0.019348132662877073,0.1136017300347442
1592181544.043141,-9.253102199692224,-0.3374970580248031,3.2618566126550195,0.5511111111111111,-0.39222222222222225,-0.29777777777777775,0.14964120751017146,0.06980803536440341,0.04589181485087131
1592181544.0531409,-8.572876137158852,-0.26365290412876136,3.219114065780266,0.5626240572272763,-0.40277575616204025,-0.3054530751885545,0.16114906508081128,0.13589911870279658,-0.07981201968621691
1592181544.0631409,-8.976044000649456,-0.28802727715538234,3.421825783406397,0.5644444444444444,-0.40444444444444444,-0.30666666666666664,0.13742980121417844,0.08136820117187296,-0.08413247157905163
1592181544.0731409,-8.85989950817493,-0.06494137976870926,3.0773869466967962,0.5644444444444444,-0.40444444444444444,-0.30666666666666664,0.12926436122229815,-0.04583681678008623,-0.18069328438149795
1592181544.0831409,-9.112956694992558,-0.22671563685246532,3.3766064141341396,0.5644444444444444,-0.40444444444444444,-0.30666666666666664,0.08591678928313348,0.024977767738952522,-0.2411015427378746
1592181544.0931408,-9.220449079007459,-0.25391383772263665,3.4121723245547266,0.5644444444444444,-0.40444444444444444,-0.30666666666666664,0.08157534483784731,-0.021448632545345146,-0.17992613606165242
1592181544.1031408,-9.136348837209303,-0.286406976744186,3.311976744186046,0.5693346253229974,-0.40444444444444444,-0.29493023255813955,0.23077159407655837,0.04838722405892419,-0.11476554558172017
1592181544.1131408,-9.11456211447425,-0.2352546263089944,3.2452546263089945,0.57,-0.40444444444444444,-0.29333333333333333,0.1871919452313363,0.0011375404351395696,-0.11302429321211109
1592181544.1231408,-9.06701376522796,-0.24569462110291418,3.195138924220583,0.57,-0.40444444444444444,-0.29333333333333333,0.04190592068912824,-0.09888688291379995,-0.03536093599414951
1592181544.1331408,-8.979792251544078,-0.38701291409320604,3.2312034437581887,0.57,-0.40444444444444444,-0.29333333333333333,-0.002489535946427434,-0.14981967710667027,0.03456277836990267
1592181544.1431408,-8.972279682282135,-0.4568390468464049,3.227720317717865,0.57,-0.40444444444444444,-0.29333333333333333,-0.026140218322389552,-0.046666557099729694,-0.048447844685085895
1592181544.1531408,-9.587466123168447,-0.8113451580918807,3.567123498953399,0.5761360214461458,-0.4009381464752182,-0.2871973118871874,-0.09732849628450915,-0.034060310899714716,0.032051220999772465
1592181544.1631408,-9.335274092820114,-0.6402726641903751,3.4128401159230988,0.5777777777777777,-0.4,-0.28555555555555556,-0.02936476037305777,0.010141222118574551,0.004924077563830481
1592181544.1731408,-8.946419791424061,-0.22981005615506042,3.0915099759335454,0.5777777777777777,-0.4,-0.28555555555555556,-0.0363092551633824,0.014034718105859226,-0.02720756613301903
1592181544.1831408,-9.386946745562131,-0.51986614069691,3.393557396449704,0.5777777777777777,-0.4,-0.28555555555555556,0.032329728606789246,-0.06904452524121409,-0.002584315105114418
1592181544.1931407,-9.368744688600218,-0.4398628141313585,3.3657278135243414,0.5777777777777777,-0.4,-0.28555555555555556,0.08137621474930037,-0.1047163119242798,0.006197486822783677
1592181544.2031407,-9.067875205116339,-0.29799974754912273,3.3279997475491228,0.5777777777777777,-0.3952083420989888,-0.2730972450129264,0.048937531949208815,0.034019949408285344,-0.08732080448747999
1592181544.2131407,-9.082782204246714,-0.32,3.333608897876643,0.5777777777777777,-0.39444444444444443,-0.27111111111111114,0.0418562249395997,0.006052445368152026,-0.04035204760093704
1592181544.2231407,-9.278491560175471,-0.3273257200076292,3.312674279992371,0.5777777777777777,-0.39444444444444443,-0.27111111111111114,0.013850409311762651,0.009691603950076275,-0.023669186696094302
1592181544.2331407,-9.132335766423356,-0.21924574209245745,3.2338564476885647,0.5777777777777777,-0.39444444444444443,-0.27111111111111114,0.032385200019517654,0.05101425418580141,0.07844028798367764
1592181544.2431407,-9.086686688084928,-0.24182567397681243,3.214365134795363,0.5801719669103381,-0.3916512237897906,-0.2679188589343639,0.0011555888607980291,0.010942743885426105,0.05655193461920166
1592181544.2531407,-9.155926805419751,-0.3483489314150021,3.2356697862830006,0.5837227421582778,-0.38750865266719436,-0.263184491937111,-0.06507775465046395,-0.0634245190044119,-0.052093988508921024
1592181544.2631407,-9.155180487804879,-0.47373658536585367,3.299278048780488,0.5844444444444444,-0.38666666666666666,-0.26222222222222225,0.020070222172781135,-0.12784483559600782,0.00018517517673598272
1592181544.2731407,-9.144302256615925,-0.48436015477165534,3.282964668003502,0.5844444444444444,-0.38666666666666666,-0.26222222222222225,0.04397557353882513,-0.10809961452103678,-0.013597814014429232
1592181544.2831407,-9.136404948174091,-0.4488222667834044,3.231632163131584,0.5844444444444444,-0.38666666666666666,-0.26222222222222225,0.029330707388549183,-0.05684258299507099,-0.06873142775664455
1592181544.2931406,-9.217192127014332,-0.4482785276803235,3.2512701433073676,0.5844444444444444,-0.38666666666666666,-0.26222222222222225,0.004600338987703734,-0.028638702628479527,-0.08568402174999395
1592181544.3031406,-9.432135664069921,-0.4351187535626069,3.379050921527646,0.5823879494162603,-0.3890659108662149,-0.26667796144995465,-0.0047848982414427504,-0.049786279644903314,0.020514997311704197
1592181544.3131406,-9.288252882112308,-0.18968389735961325,3.2323793231684643,0.5777777777777777,-0.39444444444444443,-0.27666666666666667,0.07618388147458068,-0.010802997422905771,0.03196633159565664
1592181544.3231406,-9.048043593053274,-0.05934786435109128,3.1651739615113823,0.5777777777777777,-0.39444444444444443,-0.27666666666666667,0.08798736836913915,-0.032582649546855094,-0.014484356286123302
1592181544.3331406,-9.116486730774058,-0.060728614828391383,3.175734515051847,0.5777777777777777,-0.39444444444444443,-0.27666666666666667,0.03832645142239098,-0.03522192877509622,0.0018663178297832865
1592181544.3431406,-9.479798262572498,-0.1502401516482965,3.3021037435034772,0.5777777777777777,-0.39444444444444443,-0.27666666666666667,-0.014515068913832543,-0.05819650283432385,-0.02110825622944434
1592181544.3531406,-8.878753987160334,-0.01586385109217911,3.1373089191262564,0.5798929579234016,-0.4000849248327748,-0.27913437683656117,0.0069471038472455685,-0.07391029297358148,0.05976380285804058
1592181544.3631406,-8.928044462502902,-0.2752304388205247,3.3424959368469933,0.5844444444444444,-0.4122222222222222,-0.28444444444444444,0.016769972006552197,-0.10309306986117844,0.03753222765008877
1592181544.3731406,-9.215849508746706,-0.3324842239795511,3.335660196501318,0.5844444444444444,-0.4122222222222222,-0.28444444444444444,-0.004706456896378594,-0.0738608937933358,-0.006949809346746331
1592181544.3831406,-9.301816363539388,-0.3470633100432023,3.3183924475972053,0.5844444444444444,-0.4122222222222222,-0.28444444444444444,-0.056768756212920664,-0.0523750627341982,-0.07600744124566297
1592181544.3931406,-9.260676942303686,-0.37,3.385145059065076,0.5844444444444444,-0.4122222222222222,-0.28444444444444444,-0.03922771219828181,-0.04579379487905585,-0.04651541091013452
1592181544.4031405,-8.936800313292554,-0.35118118752797256,3.398635312546621,0.5914143749896398,-0.40107033334990966,-0.27050458335405375,-0.016600140143807583,-0.08169473070120499,0.08101920652126426
1592181544.4131405,-8.855852011882257,-0.47102889549014315,3.4553416149068323,0.5955555555555555,-0.39444444444444443,-0.26222222222222225,0.0033847274347513587,-0.0833179085061214,0.097591206886975
1592181544.4231405,-9.100494947239127,-0.7742150075372676,3.4183959577913017,0.5955555555555555,-0.39444444444444443,-0.26222222222222225,0.08497682029789333,-0.05730025510688644,0.01801362910720021
1592181544.4331405,-9.097991845993501,-0.7993905953037828,3.344085892955674,0.5955555555555555,-0.39444444444444443,-0.26222222222222225,0.11010743329197888,-0.03177908203311528,-0.04283552241790019
1592181544.4431405,-9.222189870393597,-0.7530633697664696,3.3424810368512214,0.5955555555555555,-0.39444444444444443,-0.26222222222222225,0.10314289449559229,0.03571983805562523,-0.05576768947581027
1592181544.4531405,-9.019130838001262,-0.3332733612790741,3.256570093111251,0.5766814638951746,-0.40485773639499945,-0.2674288681974997,0.13487689441478212,0.08406915530968448,0.0013120561372432019
1592181544.4631405,-8.923990441118859,-0.2069952205594296,3.255425840319674,0.5633333333333334,-0.4122222222222222,-0.27111111111111114,0.1778054175469223,0.03629595628491224,0.02370495031329014
1592181544.4731405,-9.143708279278217,-0.3011248378346503,3.2004573062861184,0.5633333333333334,-0.4122222222222222,-0.27111111111111114,0.1572158096323464,0.020735240706861068,-0.04282421026250372
1592181544.4831405,-9.451170407475196,-0.4314410943069068,3.3280175320296697,0.5633333333333334,-0.4122222222222222,-0.27111111111111114,0.19290986694181567,0.005699934974062008,-0.02357575235446367
1592181544.4931405,-9.429623536536132,-0.48176019378280177,3.4182398062171986,0.5633333333333334,-0.4122222222222222,-0.27111111111111114,0.21181317916045633,0.008416395841615269,-0.015271630954950384
1592181544.5031404,-8.866702543251217,-0.47505381487682374,3.454175635812804,0.5712206454241853,-0.4099024245484422,-0.25858420367269924,0.17464233005667448,0.08928001638327228,0.006591947034335195
1592181544.5131404,-9.076841247305044,-0.43095177998632805,3.380951779986328,0.5822222222222222,-0.4066666666666667,-0.2411111111111111,0.19033864278296958,0.09347141233236472,0.0370882466048795
1592181544.5231404,-9.081219726992515,-0.30714663143989435,3.239951563188023,0.5822222222222222,-0.4066666666666667,-0.2411111111111111,0.13724005776084872,0.14077288929112675,-0.03831453061532136
1592181544.5331404,-9.220252316680096,-0.29729905318291705,3.3581635273972603,0.5822222222222222,-0.4066666666666667,-0.2411111111111111,0.05787825292601574,0.11169547403855891,-0.14988117134481535
1592181544.5431404,-9.430551378446115,-0.16797827903091062,3.2422890559732664,0.5822222222222222,-0.4066666666666667,-0.2411111111111111,0.12736747993720524,0.05904520305723506,-0.147402496439448
1592181544.5531404,-9.143819511628807,-0.15997832901203513,3.222404318718316,0.5822222222222222,-0.4066666666666667,-0.2411111111111111,0.07459786517179141,0.08779573144964258,-0.15510511118839906
1592181544.5631404,-9.021033339832327,-0.26550984597387406,3.391536361863911,0.5822222222222222,-0.4066666666666667,-0.2411111111111111,0.026991947344463876,0.07369966680805165,-0.17252034346912218
1592181544.5731404,-9.431554473690197,-0.12768910526196056,3.3434663421070594,0.5822222222222222,-0.4066666666666667,-0.2411111111111111,0.059869653281536955,0.04615402641522075,-0.061420173064988065
1592181544.5831404,-9.280838606830589,-0.11,3.413483889667166,0.5822222222222222,-0.4066666666666667,-0.2411111111111111,0.036373918693787186,0.004972051075466673,0.14075063200899057
1592181544.5931404,-9.225655107618723,-0.21628886231636488,3.438190126409293,0.5822222222222222,-0.4066666666666667,-0.2411111111111111,-0.008311854780327452,0.005715401735690358,0.11337792165421846
1592181544.6031404,-9.344148251041798,-0.36371511554489205,3.3521463147703834,0.5843332257626992,-0.4066666666666667,-0.2411111111111111,-0.011876312815350142,0.06732074778169378,-0.018482182370268697
1592181544.6131403,-9.730972735363125,-0.36650306086675116,2.94412799007578,0.59,-0.4066666666666667,-0.2411111111111111,0.03145914674532173,-0.12457457569332006,-0.01086241650540213
1592181544.6231403,-9.87166817626905,-0.39,2.8525377072421536,0.59,-0.4066666666666667,-0.2411111111111111,0.03509435416327855,-0.20284903309371805,-0.01942007850607403
1592181544.6331403,-8.946115963187944,-0.42484057668743647,3.133236697343379,0.59,-0.4066666666666667,-0.2411111111111111,0.07420811726352065,-0.26134408105389384,0.048563569163567105
1592181544.6431403,-8.974812701384264,-0.5430966824473926,3.4196450236710887,0.59,-0.4066666666666667,-0.2411111111111111,0.06375444775582287,-0.18454615210366743,0.05887042096104413
1592181544.6531403,-9.035385089578117,-0.5037010209978809,3.428981699094587,0.5831832016952417,-0.41243472677069287,-0.24478169481367323,0.09351666451263278,-0.07871213019866355,-0.0406939771444095
1592181544.6631403,-8.857272800580597,-0.35573058624304493,3.276347471978066,0.5755555555555556,-0.41888888888888887,-0.24888888888888888,0.07800148198050942,-0.09377247962784206,-0.09612769244949697
1592181544.6731403,-9.270942166868478,-0.6848059735916509,3.640292913567434,0.5755555555555556,-0.41888888888888887,-0.24888888888888888,0.06559149204707053,-0.09889337399326906,-0.07445286468287722
1592181544.6831403,-9.233637701804367,-0.45233641975308647,3.398439933523267,0.5755555555555556,-0.41888888888888887,-0.24888888888888888,-0.008387898239196404,-0.15604525990045576,-0.11469409735798688
1592181544.6931403,-9.20155696394559,-0.36209584169096704,3.3173652805636555,0.5755555555555556,-0.41888888888888887,-0.24888888888888888,-0.006875982988276928,-0.1192380624953012,-0.09890639763769227
1592181544.7031403,-9.221887784253228,-0.3852873957262027,3.363704719460633,0.5813468936883404,-0.41888888888888887,-0.24663670183725034,0.08563601274997888,-0.054188524294971355,-0.07146680522553915
1592181544.7131402,-8.996613044749928,-0.445103831529687,3.4972916057326704,0.5955555555555555,-0.41888888888888887,-0.2411111111111111,0.09203306449807772,-0.012624156888511198,-0.110474772860131
1592181544.7231402,-8.828919796113967,-0.44491286921669426,3.506364685893526,0.5955555555555555,-0.41888888888888887,-0.2411111111111111,0.11215918398875879,0.04768233585644217,-0.011660873664104312
1592181544.7331402,-9.242517045454546,-0.5204157196969698,3.4964550189393937,0.5955555555555555,-0.41888888888888887,-0.2411111111111111,0.09900998939171465,0.12878729389136814,-0.04232061891792809
1592181544.7431402,-9.2718147734237,-0.46326345578427486,3.49595118785825,0.5955555555555555,-0.41888888888888887,-0.2411111111111111,0.06375557702538209,0.17522783383916382,-0.10998925940745435
1592181544.7531402,-9.184420955882354,-0.3652711397058824,3.4893014705882353,0.5877001633986928,-0.4169250408496732,-0.2368561070261438,0.11190740758263504,0.23542494426573787,-0.11265986025015672
1592181544.7631402,-9.648712770724421,-0.3293356235997013,3.32,0.5688888888888889,-0.4122222222222222,-0.22666666666666666,0.11365928853428561,0.23174453131921302,-0.08694033759684196
1592181544.7731402,-9.174289564882557,-0.17,3.286857912976511,0.5688888888888889,-0.4122222222222222,-0.22666666666666666,0.14663924379626597,0.09646889391061772,-0.029103458448395833
1592181544.7831402,-9.369248311215445,-0.35957217457960045,3.325849662243089,0.5688888888888889,-0.4122222222222222,-0.22666666666666666,0.07599876018407362,0.12987254238256343,-0.000534728144804486
1592181544.7931402,-9.458034276811219,-0.47240457024149574,3.388860407315354,0.5688888888888889,-0.4122222222222222,-0.22666666666666666,0.024149942228565858,0.12770303405890726,0.05506613497244249
1592181544.8031402,-9.178224531285295,-0.4630257510729614,3.3146261576688505,0.5740135029992721,-0.4203361945636624,-0.2215420525562834,0.003680291070107764,0.06967296616849229,0.045473376834912115
1592181544.8131402,-9.709772362936839,-0.5817898364860532,3.290511381853158,0.5822222222222222,-0.43333333333333335,-0.21333333333333335,0.030571153463252513,0.006935466441903164,0.05804022410090453
1592181544.8231401,-8.947773023852818,-0.6505674403679538,3.1957637180447107,0.5822222222222222,-0.43333333333333335,-0.21333333333333335,0.018586944448784407,0.08505638972917881,0.050854836778631715
1592181544.8331401,-8.871152979677014,-0.5907327657758068,3.1281142545471794,0.5822222222222222,-0.43333333333333335,-0.21333333333333335,0.008966443299354658,0.011240919511306152,0.07815189871271272
1592181544.8431401,-8.991200102260692,-0.5112499543479054,3.0756999379131513,0.5822222222222222,-0.43333333333333335,-0.21333333333333335,-0.10365079593058907,-0.049621864806875866,0.10174727012060872
1592181544.85314,-9.379010011123471,-0.5009037819799778,3.102797552836485,0.5822222222222222,-0.426866734643431,-0.2153754171301446,-0.20159559967931023,0.03811021793586687,0.12359649687399256
1592181544.86314,-9.49,-0.82,3.63,0.5822222222222222,-0.4122222222222222,-0.22,-0.01090830782496456,0.030543261909900768,-0.04363323129985824
1592181544.87314,-9.099862450725489,-0.5432874835751629,3.3162749867203445,0.5822222222222222,-0.4122222222222222,-0.22,-0.06669611860282491,0.10741955291978965,0.020570343996891564
1592181544.88314,-9.543176604687611,-0.7257737883213412,3.445773788321341,0.5822222222222222,-0.4122222222222222,-0.22,-0.07446081223967235,0.14376067456646058,0.035526512429089066
1592181544.89314,-9.281299119915976,-0.686271051392561,3.346248596573829,0.5822222222222222,-0.4122222222222222,-0.22,-0.05891221057705499,0.05509369047813019,0.05861898881515978
1592181544.90314,-9.453209104367135,-0.7414663212435233,3.3069711324944486,0.5822222222222222,-0.4122222222222222,-0.21418936590180113,-0.06340714317729455,0.09919612231092745,-0.05254215368799316
1592181544.91314,-9.33,-0.64,3.22,0.5822222222222222,-0.4122222222222222,-0.1988888888888889,0.01090830782496456,0.13635384781205698,-0.1908953869368798
1592181544.92314,-8.729490683570704,-0.7336689443209572,3.3517708076068162,0.5822222222222222,-0.4122222222222222,-0.1988888888888889,-0.0372826989185673,0.06942683979029432,-0.06330419618118706
1592181544.93314,-9.169436779974399,-0.7950301047740956,3.4030180628644575,0.5822222222222222,-0.4122222222222222,-0.1988888888888889,0.06904499104202595,0.09295111159576139,-0.010614254640056067
1592181544.94314,-9.223610683745394,-0.7324823786181974,3.375401982181831,0.5822222222222222,-0.4122222222222222,-0.1988888888888889,0.04878428342491101,0.0674591745021103,-0.030247848900751398
1592181544.95314,-8.934958974358974,-0.7608490842490843,3.3972600732600733,0.5850715506715506,-0.4153089947089947,-0.20031355311355312,-0.01512219113346552,-0.06718318905032568,0.04603593593769988
1592181544.96314,-8.99,-0.58,3.24,0.5955555555555555,-0.4266666666666667,-0.20555555555555555,-0.006544984694978735,-0.04145156973486533,-0.04145156973486533
1592181544.97314,-9.223690844233056,-0.7884359889021006,3.3767839873166863,0.5955555555555555,-0.4266666666666667,-0.20555555555555555,0.009152256177644856,0.03459217673824909,0.011471925346986905
1592181544.98314,-8.908647361311878,-0.5848240479632218,3.1997262968316784,0.5955555555555555,-0.4266666666666667,-0.20555555555555555,-0.055863491925051925,0.05425496953656819,0.028100621943047993
1592181544.99314,-9.04,-0.7349036689862436,3.474903668986243,0.5955555555555555,-0.4266666666666667,-0.20555555555555555,-0.09269960034517583,0.03922787583582655,-0.00025953112479567067
1592181545.00314,-9.067693769297758,-0.5475528461721163,3.294476288496556,0.5947163504253203,-0.4266666666666667,-0.20275820512143844,-0.03912438921899706,-0.046501465956518225,-0.02289155593571278
1592181545.01314,-9.190846441588338,-0.6030455112219452,3.4705699693075003,0.5822222222222222,-0.4266666666666667,-0.16111111111111112,0.042767895725876595,-0.06819293168559132,0.08191345588260907
1592181545.02314,-8.82,-0.53,3.42,0.5822222222222222,-0.4266666666666667,-0.16111111111111112,-0.06326818538479445,-0.08290313946973066,-0.01308996938995747
1592181545.03314,-9.126408129920286,-0.6431150665940486,3.464583601524979,0.5822222222222222,-0.4266666666666667,-0.16111111111111112,-0.03086364653146679,-0.1398711384227372,0.03840861795407448
1592181545.04314,-9.313445193759437,-0.6272408656265728,3.32,0.5822222222222222,-0.4266666666666667,-0.16111111111111112,0.013974184634809051,-0.056865145937486705,0.018817846618067704
1592181545.05314,-8.974118006627418,-0.5905900331370846,3.387947109352379,0.579476884470611,-0.4236925507690878,-0.16545789588449564,0.036895158712292056,-0.12207383653957676,0.11649295773066896
1592181545.06314,-8.929543246777508,-0.6417868484961704,3.5976041472071736,0.5688888888888889,-0.4122222222222222,-0.18222222222222223,0.023218617477609976,0.0698385406070328,0.07079212600712476
1592181545.07314,-9.093522140966396,-0.5448864910942617,3.391401812553277,0.5688888888888889,-0.4122222222222222,-0.18222222222222223,0.02541969985599283,0.09341906828268635,0.07399472886294256
1592181545.08314,-9.282565675707687,-0.5183700106597181,3.2969728769394764,0.5688888888888889,-0.4122222222222222,-0.18222222222222223,-0.026331412190953533,-0.016134321384997208,0.03368921633622739
1592181545.09314,-8.762071252010829,-0.6362137560324872,3.5229991760505355,0.5688888888888889,-0.4122222222222222,-0.18222222222222223,-0.03772630150759292,-0.023390952351123828,-0.012856797729776182
1592181545.1031399,-8.819200713359274,-0.5944802204928663,3.4358401426718546,0.5698488975356679,-0.4143022409569102,-0.18030220492866408,0.0660432249396434,-0.05499513231401652,-0.06937669628418285
1592181545.1131399,-9.243307299489336,-0.7328165076137441,3.490490791875592,0.5755555555555556,-0.4266666666666667,-0.1688888888888889,0.05773798561722074,0.0288969712306029,0.04123742138058731
1592181545.1231399,-9.203127039125926,-0.7128121601456789,3.4164060800728393,0.5755555555555556,-0.4266666666666667,-0.1688888888888889,0.0876075696533796,-0.017417758236125916,0.014757597743703922
1592181545.1331398,-9.393834849379799,-0.6842986414648553,3.366821264028352,0.5755555555555556,-0.4266666666666667,-0.1688888888888889,0.023201126686803533,-0.004017813916278853,-0.042734897035128255
1592181545.1431398,-9.324310410069508,-0.5856465714684034,3.3323275776224333,0.5755555555555556,-0.4266666666666667,-0.1688888888888889,-0.07816367079059935,-0.07256845686595341,0.07590206145958729
1592181545.1531398,-8.896365731327098,-0.43863657313270976,3.4086365731327097,0.5741161267001039,-0.4235479041465215,-0.16409079270405014,-0.08398228858870302,-0.10480705707085754,0.19082127491462314
1592181545.1631398,-9.254009102379236,-0.49053758111031004,3.41946241888969,0.5688888888888889,-0.4122222222222222,-0.14666666666666667,-0.16497188580081326,-0.15458638241900985,0.17159738513267597
1592181545.1731398,-9.305866161874551,-0.5860137624066305,3.353759848562366,0.5688888888888889,-0.4122222222222222,-0.14666666666666667,-0.06297401936338143,-0.05751127095890568,0.03881038189016937
1592181545.1831398,-9.060194542015672,-0.7009267765468792,3.31,0.5688888888888889,-0.4122222222222222,-0.14666666666666667,0.031756409572898714,0.01024848439568903,0.048549878663566484
1592181545.1931398,-8.898101354600835,-0.6580318210965053,3.2924254568772042,0.5688888888888889,-0.4122222222222222,-0.14666666666666667,-0.010494087655673365,-0.01619546215468247,-1.5169857387236502e-05
1592181545.2031398,-9.130105797435814,-0.5710952176922316,3.23,0.5688888888888889,-0.4116725443019896,-0.14897531393164365,-0.06693777163138646,-0.09608543453944327,-0.0667911578766974
1592181545.2131398,-9.04,-0.49,3.23,0.5688888888888889,-0.4066666666666667,-0.17,-0.10035643198967394,-0.017453292519943295,-0.039269908169872414
1592181545.2231398,-9.43804070139511,-0.5751050812747984,3.3575525406373994,0.5688888888888889,-0.4066666666666667,-0.17,-0.03032953558686921,-0.06773800867104397,-0.0009155550927043097
1592181545.2331398,-9.071133384365133,-0.627735623385322,3.353206870155966,0.5688888888888889,-0.4066666666666667,-0.17,0.03136678644094057,-0.013523076492815471,-0.05305950809614926
1592181545.2431397,-9.263144702842377,-0.6123794142980189,3.289234711455642,0.5688888888888889,-0.4066666666666667,-0.17,0.06294690236491962,-0.11981251707356125,-0.03666173270848478
1592181545.2531397,-9.09870843542177,-0.6524781239061953,3.4318585929296463,0.5728495313654571,-0.40895967020573254,-0.16478862832030491,0.007626270230866015,0.02713369982110365,-0.06340334607678035
1592181545.2631397,-8.79,-0.49,3.31,0.59,-0.41888888888888887,-0.14222222222222222,-0.06326818538479445,0.02181661564992912,-0.0545415391248228
1592181545.2731397,-9.162511865468476,-0.6374881345315249,3.4224644035945744,0.59,-0.41888888888888887,-0.14222222222222222,-0.01788739623414275,0.11213851874003523,-0.035981883960469266
1592181545.2831397,-9.119464966967525,-0.5440904438447939,3.3444114636642785,0.59,-0.41888888888888887,-0.14222222222222222,0.03416857158315152,0.11556518310190017,-0.01570615655091831
1592181545.2931397,-9.023442469961505,-0.3109952560563052,3.2353511296029867,0.59,-0.41888888888888887,-0.14222222222222222,-0.012556070138128608,0.017652566269454058,0.031095018600755607
1592181545.3031397,-9.248200324328055,-0.3986502432460408,3.468650243246041,0.5897625427932849,-0.4187514136639486,-0.14245967942893728,0.0171342820064547,0.00024539270268353493,0.09589261828972416
1592181545.3131397,-9.087040122975472,-0.26816049190188695,3.3529598770245284,0.5688888888888889,-0.4066666666666667,-0.16333333333333333,0.0013608470639213267,0.025691085614840452,-0.05047717561090113
1592181545.3231397,-9.082584659985505,-0.2632619398695424,3.303137480318896,0.5688888888888889,-0.4066666666666667,-0.16333333333333333,0.039001541933326916,0.05069537441694873,0.065006568302263
1592181545.3331397,-9.291962458558924,-0.4061017959787249,3.2043938273666135,0.5688888888888889,-0.4066666666666667,-0.16333333333333333,0.06326818538479445,0.11355380113325426,0.025541368151785263
1592181545.3431396,-9.611942681010023,-0.6175915001326828,3.400133091102084,0.5688888888888889,-0.4066666666666667,-0.16333333333333333,0.04137897979935045,0.08484888374430019,-0.01567590790869522
1592181545.3531396,-9.21944957182195,-0.6777928404998941,3.47241322964263,0.5699463726746082,-0.4086053869404854,-0.16333333333333333,-0.01984554809928932,-0.10772870787301195,-0.12673187991488882
1592181545.3631396,-9.8,-0.56,3.22,0.5755555555555556,-0.41888888888888887,-0.16333333333333333,0.002181661564992912,-0.002181661564992912,-0.08726646259971647
1592181545.3731396,-8.687770485379831,-0.4695143752755057,3.2685872067394817,0.5755555555555556,-0.41888888888888887,-0.16333333333333333,-0.023314404265127514,-0.041148154540968214,-0.06067716174626047
1592181545.3831396,-9.563141112119503,-0.8346321960312982,3.422306163997155,0.5755555555555556,-0.41888888888888887,-0.16333333333333333,-0.06293854680547298,0.032056977249716664,-0.054047081255840616
1592181545.3931396,-9.15109681663682,-0.6823562735280143,3.373952340923212,0.5755555555555556,-0.41888888888888887,-0.16333333333333333,-0.04874743001763465,0.001357348957306912,0.011090664463944818
1592181545.4031396,-8.79851869449216,-0.4140903110266438,3.151674829136362,0.5755555555555556,-0.41888888888888887,-0.16333333333333333,-0.11229054574401368,-0.05382483048928539,0.08968346549393993
1592181545.4131396,-9.85,-0.82,3.66,0.5488888888888889,-0.4122222222222222,-0.14888888888888888,-0.14289883250703572,-0.08290313946973066,-0.03490658503988659
1592181545.4231396,-8.926374817129114,-0.3370177787696199,3.0116962979493667,0.5488888888888889,-0.4122222222222222,-0.14888888888888888,-0.009095990759835002,-0.09689890224023913,0.12567461201706992
1592181545.4331396,-9.029969943842444,-0.3933383426929263,3.166766853858525,0.5488888888888889,-0.4122222222222222,-0.14888888888888888,0.09575037607463524,-0.08835893269130629,-0.0018142262496095712
1592181545.4431396,-8.93,-0.41,3.5,0.5488888888888889,-0.4122222222222222,-0.14888888888888888,-0.10690141668465267,-0.09381144729469522,0.01090830782496456
1592181545.4531395,-9.324448727833463,-0.20839287244067506,3.166909963162855,0.5488888888888889,-0.4122222222222222,-0.14888888888888888,-0.07247927152966814,-0.015405449997230425,0.024294697607458546
1592181545.4631395,-9.38,-0.45,3.7,0.5555555555555556,-0.4266666666666667,-0.13444444444444445,-0.02617993877991494,-0.10253809355466686,-0.08072147790473774
1592181545.4731395,-9.255192949023344,-0.17658091154518027,3.1206939812609176,0.5555555555555556,-0.4266666666666667,-0.13444444444444445,0.031978994087974555,0.029017796470697372,-0.022074555468118293
1592181545.4831395,-8.952012093905621,-0.3571045767133033,3.3903284325349774,0.5555555555555556,-0.4266666666666667,-0.13444444444444445,0.053327579233370136,-0.025615381468366796,-0.11132979647619835
1592181545.4931395,-9.202153186930905,-0.5226513122656669,3.5032029994643814,0.5555555555555556,-0.4266666666666667,-0.13444444444444445,-0.02124987442924269,-0.1208087788248579,-0.0030744250548989565
1592181545.5031395,-9.06575579615885,-0.4664876807712909,3.3748289846200934,0.5555555555555556,-0.4266666666666667,-0.13444444444444445,-0.0002447253695217373,0.08136578087495625,-0.0765924467639223
1592181545.5131395,-9.59,-0.75,3.77,0.5755555555555556,-0.41888888888888887,-0.09888888888888889,0.01090830782496456,-0.030543261909900768,-0.20180369476184434
1592181545.5231395,-8.549547867374429,-0.027942329750060016,3.12868281362533,0.5755555555555556,-0.41888888888888887,-0.09888888888888889,0.06122089541022988,-0.202992409050231,0.04081393027348659
1592181545.5331395,-8.767503230616303,-0.14837897614314116,3.1993593439363814,0.5755555555555556,-0.41888888888888887,-0.09888888888888889,-0.016053049646208902,0.06388419032270322,-0.03893908066317294
1592181545.5431395,-8.95,-0.68,3.85,0.5755555555555556,-0.41888888888888887,-0.09888888888888889,0.04799655442984406,0.032724923474893676,-0.10471975511965977
1592181545.5531394,-9.321738846272918,-0.6115217914760414,3.4880437549447905,0.5755555555555556,-0.41888888888888887,-0.09888888888888889,-0.003225025767741231,0.00924836588433375,0.004126102800208975
1592181545.5631394,-8.92,-0.73,3.36,0.5755555555555556,-0.4266666666666667,-0.09888888888888889,-0.0370882466048795,-0.08508480103472357,0.02181661564992912
1592181545.5731394,-8.948160896078381,-0.6719735667083407,3.2757862373383,0.5755555555555556,-0.4266666666666667,-0.09888888888888889,-0.12049478863024543,-0.04385199306727645,0.07291413204906937
1592181545.5831394,-9.314438636036641,-0.908783271785526,3.477895544578198,0.5755555555555556,-0.4266666666666667,-0.09888888888888889,-0.05931271400198345,0.08482960595741228,0.010928815506454108
1592181545.5931394,-9.11,-0.32,2.93,0.5755555555555556,-0.4266666666666667,-0.09888888888888889,-0.08072147790473774,-0.02399827721492203,0.05017821599483697
1592181545.6031394,-8.96428982855594,-0.38856949244426375,3.152850850443857,0.5755555555555556,-0.4266666666666667,-0.09888888888888889,-0.09755096335186897,0.05640926436581608,0.035218673375164766
1592181545.6131394,-9.43,-0.88,3.84,0.5555555555555556,-0.4266666666666667,-0.11888888888888889,-0.019634954084936207,0.0,-0.002181661564992912
1592181545.6231394,-8.722526323763352,-0.250443148246345,3.2868616013938334,0.5555555555555556,-0.4266666666666667,-0.11888888888888889,0.03324716046795312,0.024682969576392044,-0.04890650281078876
1592181545.6331394,-9.379337783475533,-0.5391839441227179,3.5352809336457276,0.5555555555555556,-0.4266666666666667,-0.11888888888888889,-0.04847520640575404,-0.02781071175204107,-0.1465138942316019
1592181545.6431394,-8.873168084106158,-0.4005528014017693,3.37,0.5555555555555556,-0.4266666666666667,-0.11888888888888889,-0.04281686806862243,0.016499287599519026,0.0037603103443286734
1592181545.6531394,-9.410921834266421,-0.4095153639044403,3.37,0.5555555555555556,-0.4266666666666667,-0.11888888888888889,-0.135694939214262,-0.03433923555388369,-0.006016328723633386
1592181545.6631393,-9.22,-0.38,3.32,0.5488888888888889,-0.4122222222222222,-0.10444444444444445,0.002181661564992912,0.017453292519943295,0.13199052468207118
1592181545.6731393,-9.444660987142912,-0.780482629254758,3.476285904099418,0.5488888888888889,-0.4122222222222222,-0.10444444444444445,0.010705735318089606,-0.018774020930717655,-0.04381849647554817
1592181545.6831393,-8.957749982131372,-0.5133750268029448,3.2927501012555687,0.5488888888888889,-0.4122222222222222,-0.10444444444444445,0.047287474138475005,0.10215626509693358,0.05797763140026145
1592181545.6931393,-8.926403317515284,-0.6009901244068231,3.6176897097174128,0.5488888888888889,-0.4122222222222222,-0.10444444444444445,-0.07836689510758303,-0.014558680632056713,-0.021240584619815133
1592181545.7031393,-9.643653541960582,-0.6278870078235219,3.554930315078449,0.5488888888888889,-0.4122222222222222,-0.10444444444444445,0.04486088810586136,0.1233390767734644,-0.005592612148266642
1592181545.7131393,-9.87,-0.42,3.36,0.5555555555555556,-0.41888888888888887,-0.07555555555555556,-0.01308996938995747,-0.06763150851478027,0.056723200689815706
1592181545.7231393,-8.780244934986392,-0.40046567886301787,3.345098276383429,0.5555555555555556,-0.41888888888888887,-0.07555555555555556,0.010758553614122894,0.06671187252397284,0.04682029117904807
1592181545.7331393,-8.998422966059882,-0.4179274974681243,3.0491661689475187,0.5555555555555556,-0.41888888888888887,-0.07555555555555556,0.04938727940575738,-0.04042467219073119,-0.10596811037647294
1592181545.7431393,-9.336936315675077,-0.7386703945938469,3.4212715129720013,0.5555555555555556,-0.41888888888888887,-0.07555555555555556,-0.05893020986096989,0.008701298653810375,0.0874054002436923
1592181545.7531393,-9.403237566440751,-0.8215469580509395,3.5290110454662216,0.5555555555555556,-0.41888888888888887,-0.07555555555555556,0.024241752180226228,0.0918732606950065,-0.05724149026273573
1592181545.7631392,-8.53,-0.39,3.17,0.5488888888888889,-0.4266666666666667,-0.08333333333333333,0.13853550937704992,-0.02181661564992912,0.032724923474893676
1592181545.7731392,-9.347590202052599,-0.6097823123797306,3.556816869788326,0.5488888888888889,-0.4266666666666667,-0.08333333333333333,-0.038876021349076,0.03572225918016578,0.0672482483729506
1592181545.7831392,-9.148920040051495,-0.1519982835073666,3.119613073952224,0.5488888888888889,-0.4266666666666667,-0.08333333333333333,-0.01079050246939528,0.003976515876401398,0.12251764780884115
1592181545.7931392,-9.57,-0.39,3.44,0.5488888888888889,-0.4266666666666667,-0.08333333333333333,-0.056723200689815706,0.11780972450961724,0.04363323129985824
1592181545.8031392,-9.071382335963055,-0.1050756205503175,3.1788193188377907,0.5488888888888889,-0.4266666666666667,-0.08333333333333333,-0.07399010534467206,0.08500260566539017,0.005646041059174267
1592181545.8131392,-8.78,-0.17,3.5,0.5422222222222223,-0.41888888888888887,-0.08333333333333333,0.01308996938995747,0.12980886311707826,-0.1908953869368798
1592181545.8231392,-9.29594847500098,-0.47758466778904507,3.351168709134333,0.5422222222222223,-0.41888888888888887,-0.08333333333333333,-0.01505065454570107,0.10491523425091877,-0.10755584681973716
1592181545.8331392,-8.967122992604647,-0.40918794725127444,3.1475174113874065,0.5422222222222223,-0.41888888888888887,-0.08333333333333333,0.026721555595693402,-0.10260894808267335,-0.07599876515333061
1592181545.8431392,-9.348381861105645,-0.613628762541806,3.319250442651977,0.5422222222222223,-0.41888888888888887,-0.08333333333333333,-0.012053004144822143,0.0930496040371972,-0.1036645485570914
1592181545.8531392,-9.092581546330907,-0.4733511705685619,3.3027471965374775,0.5422222222222223,-0.41888888888888887,-0.08333333333333333,-0.03725615256675738,0.028241508095078027,0.20777435694253682
1592181545.8631392,-9.03,-0.03,3.1,0.5422222222222223,-0.4266666666666667,-0.08333333333333333,-0.03490658503988659,0.06763150851478027,0.12762720155208535
1592181545.8731391,-8.731329927421644,-0.25839476138344886,3.372316830880266,0.5422222222222223,-0.4266666666666667,-0.08333333333333333,-0.10773213410576318,-0.0435232769015577,0.10367142883304697
1592181545.8831391,-9.59,-0.29,3.33,0.5422222222222223,-0.4266666666666667,-0.08333333333333333,-0.06326818538479445,-0.01308996938995747,0.2683443724941282
1592181545.8931391,-9.049622162247974,-0.1380187331322432,3.2455659628512463,0.5422222222222223,-0.4266666666666667,-0.08333333333333333,-0.15445039972898125,0.02927752414370509,0.04177038533584582
1592181545.903139,-9.143188587062733,-0.20659429353136605,3.3711762751612273,0.5422222222222223,-0.4266666666666667,-0.08333333333333333,-0.16801833965817398,0.003046268070298584,0.08429442303800988
1592181545.913139,-9.35,-0.45,3.43,0.5422222222222223,-0.4066666666666667,-0.06222222222222222,-0.12326387842209952,-0.0545415391248228,0.05017821599483697
1592181545.923139,-8.619683913831286,-0.5519045701630763,3.336587477350513,0.5422222222222223,-0.4066666666666667,-0.06222222222222222,-0.1075161208038811,0.10200969837393675,0.07055766703017845
1592181545.933139,-10.03,-0.74,3.22,0.5422222222222223,-0.4066666666666667,-0.06222222222222222,-0.05235987755982988,0.015271630954950384,0.08726646259971647
1592181545.943139,-8.62195281104524,-0.5753161182509052,3.096487088688179,0.5422222222222223,-0.4066666666666667,-0.06222222222222222,-0.12691141031089123,0.06736788275689687,-0.10405253108674216
1592181545.953139,-9.57381733964354,-0.5928718155271373,3.0246813009767393,0.5422222222222223,-0.4066666666666667,-0.06222222222222222,-0.021783004309737397,-0.04669559785065888,-0.08823020736717432
1592181545.963139,-9.48,-0.27,2.77,0.5366666666666666,-0.41888888888888887,-0.05444444444444444,0.006544984694978735,-0.04799655442984406,0.028361600344907853
1592181545.973139,-9.39715280278478,-0.6497163205697596,3.2256595846837115,0.5366666666666666,-0.41888888888888887,-0.05444444444444444,-0.06876524277661872,-0.04799655442984406,-0.051467240774985434
1592181545.983139,-8.94,-0.44,2.94,0.5366666666666666,-0.41888888888888887,-0.05444444444444444,-0.12762720155208535,-0.08726646259971647,-0.02181661564992912
1592181545.993139,-9.13965899606534,-0.7062119947537857,3.368897102658877,0.5366666666666666,-0.41888888888888887,-0.05444444444444444,-0.06067565766481091,-0.021121563819517644,0.05562131462932805
1592181546.003139,-9.133065003853984,-0.6461300077079669,3.4500590944127123,0.5366666666666666,-0.41888888888888887,-0.05444444444444444,-0.0035190217859510722,-0.051223923374211396,0.07222202248188979
1592181546.013139,-9.13,-0.6,3.4,0.5366666666666666,-0.41888888888888887,-0.04777777777777778,0.004363323129985824,-0.030543261909900768,-0.17344209441693648
1592181546.023139,-9.089794793843815,-0.5276306289188676,3.2150560516815503,0.5366666666666666,-0.41888888888888887,-0.04777777777777778,0.0008547570106432422,0.08523942002840441,0.002863353080028219
1592181546.033139,-9.386311407160699,-0.7287938622576424,3.345035089806114,0.5366666666666666,-0.41888888888888887,-0.04777777777777778,0.04391474271483436,-0.04311920308195197,0.08400162566035929
1592181546.043139,-9.062768948509614,-0.5501536848626367,3.1251792990064096,0.5366666666666666,-0.41888888888888887,-0.04777777777777778,-0.06999786458143917,-0.05781961961161109,-0.05934130892972776
1592181546.053139,-9.03139897683285,-0.52,3.2754577992180356,0.5366666666666666,-0.41888888888888887,-0.04777777777777778,-0.051474379880140676,0.04442833743072458,-0.15775226462730302
1592181546.063139,-9.03132553171136,-0.38988297567041863,3.219882975670419,0.5472687945750029,-0.42563569755783015,-0.040067139298987774,-0.01816349254280649,-0.05117342821220211,-0.007982324079089609
1592181546.073139,-9.03,-0.4843484333535081,3.3055524000186227,0.5488888888888889,-0.4266666666666667,-0.03888888888888889,0.0019993401110536095,0.05273995938748498,-0.16554823567832885
1592181546.083139,-8.825161896803843,-0.5256047628995195,3.3626746048325327,0.5488888888888889,-0.4266666666666667,-0.03888888888888889,-0.03473932583906094,0.12474308172676746,-0.037277837415624654
1592181546.093139,-9.178376380266338,-0.53,3.260241457750818,0.5488888888888889,-0.4266666666666667,-0.03888888888888889,0.0451209816002926,0.19311519992206524,-0.027486030421058634
1592181546.103139,-9.222165564998427,-0.49520695624803274,3.191289738747246,0.5488888888888889,-0.4266666666666667,-0.03888888888888889,0.02161506775275398,0.13491030820950406,-0.11783590513510207
1592181546.113139,-9.26850011044842,-0.7557862349711257,3.437429076335637,0.5210316934372601,-0.4201666543946199,-0.03424602298028408,-0.022985414551405486,0.040906033863080046,-0.207039778902257
1592181546.123139,-9.154919420737244,-0.47645178863264936,2.998016388233158,0.5155555555555555,-0.41888888888888887,-0.03333333333333333,-0.0028924743964780265,0.019265483934754343,-0.19888309289648773
1592181546.133139,-9.113282717330952,-0.6691178813702532,3.1925524467083504,0.5155555555555555,-0.41888888888888887,-0.03333333333333333,-0.034289791505192534,-0.05001889565989978,-0.1423751031150967
1592181546.143139,-9.068675509148205,-0.7365297963407177,3.25,0.5155555555555555,-0.41888888888888887,-0.03333333333333333,-0.021617237990327914,-0.0217964008280344,-0.2482918335477678
1592181546.1531389,-8.97197770769261,-0.5978101431957531,3.155206762130502,0.5155555555555555,-0.41888888888888887,-0.03333333333333333,0.006181766186469758,0.012022280485606397,-0.24981123250227633
1592181546.1631389,-9.300056113308319,-0.8914501571848696,3.488662069431768,0.5394609892318035,-0.4083704980713398,-0.04576415884498229,-0.08956582459596141,0.0014679367694684087,-0.303666670147403
1592181546.1731389,-9.307613545816732,-0.9761932270916335,3.413795219123506,0.5433333333333333,-0.4066666666666667,-0.04777777777777778,0.03538902776962735,0.046962829290702196,-0.23929963393925768
1592181546.1831388,-9.225334180946051,-0.8526702690207183,2.9866740832779497,0.5433333333333333,-0.4066666666666667,-0.04777777777777778,-0.0461006264171189,-0.07286347425186977,-0.1079210741234072
1592181546.1931388,-9.16235948116121,-0.7805938409953234,3.1046871966822556,0.5433333333333333,-0.4066666666666667,-0.04777777777777778,0.06697333319573759,0.05093129638328242,-0.08559955997099737
1592181546.2031388,-9.143338894231713,-0.6967278365488411,3.14,0.5433333333333333,-0.4066666666666667,-0.04777777777777778,0.04295211237158711,-0.03626154369747202,-0.14175886713158076
1592181546.2131388,-9.116090723099546,-0.7715766255354517,3.147969758966818,0.5176529988846976,-0.3907271487330307,-0.012356626814142319,0.017010362636966824,-0.06643467026540864,-0.20951252985630528
1592181546.2231388,-9.135172925949501,-0.8503458518990028,3.3429924322795106,0.5111111111111111,-0.38666666666666666,-0.0033333333333333335,-0.017328617327601947,-0.08636426476602856,-0.17349131642975443
1592181546.2331388,-9.116038482532751,-0.8120769650655022,3.2122693777292577,0.5111111111111111,-0.38666666666666666,-0.0033333333333333335,-0.048393707340283545,-0.04806651764869959,-0.21002124696120766
1592181546.2431388,-9.149078220206887,-0.9172346606206603,3.302865948703415,0.5111111111111111,-0.38666666666666666,-0.0033333333333333335,0.006842385633837059,0.07544894878599688,-0.11316422600858887
1592181546.2531388,-9.141236943796152,-0.9124738875923021,3.2774564793205037,0.5111111111111111,-0.38666666666666666,-0.0033333333333333335,-0.03467470472357062,0.005929308232362984,-0.09109006718207846
1592181546.2631388,-9.167061650646337,-0.9789479615512098,3.3067109711634073,0.5259357713696461,-0.4014913269252016,-0.025570323721135782,0.004574330370511165,-0.05939289784984134,-0.04262816288448414
1592181546.2731388,-9.17205973343258,-0.9385376008932103,3.234716801190947,0.5311111111111111,-0.4066666666666667,-0.03333333333333333,0.011487990085365902,0.03245753786427871,-0.1928972774778447
1592181546.2831388,-9.239098081072928,-0.9353551291273174,3.0794814024178017,0.5311111111111111,-0.4066666666666667,-0.03333333333333333,0.10453159269450074,-0.027026036916613344,-0.1336987175458232
1592181546.2931387,-9.237635688773723,-0.94,3.0921833928613114,0.5311111111111111,-0.4066666666666667,-0.03333333333333333,0.0455345521294004,-0.07675555667478319,-0.11392274380831174
1592181546.3031387,-9.223903804230416,-0.8912304338433136,3.134384783078343,0.5311111111111111,-0.4066666666666667,-0.03333333333333333,0.03256141775908142,-0.026565522620741605,-0.1344345195135894
1592181546.3131387,-9.177118704453441,-0.9171750607287449,3.2929376518218625,0.5263465227170491,-0.4019020782726046,-0.01665727395411606,0.0077714494652971755,-0.026512681915446985,-0.0632220790148784
1592181546.3231387,-9.114457069550078,-0.8868665811417575,3.35759048840832,0.5244444444444445,-0.4,-0.01,-0.02310486151493547,-0.04145156973486533,-0.08022289236977097
1592181546.3331387,-9.122143276570759,-0.8404756312389899,3.2788079859072226,0.5244444444444445,-0.4,-0.01,0.06503606146212283,0.0406739604747651,-0.0009851425387431417
1592181546.3431387,-9.13,-0.7743365871294288,3.2659038322487346,0.5244444444444445,-0.4,-0.01,0.06521282984917984,-0.02213329573609854,0.08650493178229034
1592181546.3531387,-9.249833232202628,-0.5403057409618509,3.1368519642193036,0.5244444444444445,-0.4,-0.01,0.11699862075410283,-0.07776812759772626,-0.001312951251292313
1592181546.3631387,-9.325525724275725,-0.29803134365634365,2.96131993006993,0.5391076284826285,-0.4,-0.0169003219003219,0.12609223318638088,0.034901681205200055,0.0746596571440141
1592181546.3731387,-9.306383063710804,-0.2788935490313561,3.0055741961254245,0.5433333333333333,-0.4,-0.01888888888888889,0.07155867362068821,0.031805985140447884,0.09683797440283197
1592181546.3831387,-9.202721282375407,-0.3850065893870525,3.0977278717624595,0.5433333333333333,-0.4,-0.01888888888888889,0.0680320949299979,-0.02151976979163324,0.17429226236333875
1592181546.3931386,-9.155943836633071,-0.5944305858131239,3.2282995379569557,0.5433333333333333,-0.4,-0.01888888888888889,0.06191017666220268,0.012739407698251923,0.19655545405996236
1592181546.4031386,-9.082909023759695,-0.6483863720300382,3.2851591160901146,0.5433333333333333,-0.4,-0.01888888888888889,0.04269609445193856,0.010229006149074085,0.1794019812762219
1592181546.4131386,-8.917342233490473,-0.765449035376144,3.4527912688666165,0.5294646700735518,-0.40897384093279987,-0.01888888888888889,0.08503450087108114,0.012401583129799464,0.24505699561604605
1592181546.4231386,-9.00785389478354,-0.9024962105807979,3.358219157824689,0.5244444444444445,-0.4122222222222222,-0.01888888888888889,0.06339989647709485,0.02612791572141295,0.239426004439392
1592181546.4331386,-9.145357584889416,-0.881486842813324,3.136844427702739,0.5244444444444445,-0.4122222222222222,-0.01888888888888889,0.07522899258715562,0.006921372090844164,0.21616652508317205
1592181546.4431386,-9.177719229256784,-0.7691230829728667,3.1029123082972867,0.5244444444444445,-0.4122222222222222,-0.01888888888888889,0.05501630574301669,0.026287005772959025,0.18689581705249247
1592181546.4531386,-9.19434081102636,-0.46774892128995316,3.0482421627369582,0.5244444444444445,-0.4122222222222222,-0.01888888888888889,0.020221938424941757,0.02634822219790544,0.14333613740182438
1592181546.4631386,-9.243176937618147,-0.37317693761814746,3.1925111531190926,0.5291242176013442,-0.40364263810123924,-0.003289645032556186,0.06284900942739202,-0.005201675044790662,0.13332067837688621
1592181546.4731386,-9.214431128219374,-0.40793841025437516,3.2660307948728122,0.5311111111111111,-0.4,0.0033333333333333335,0.003967664835925838,-0.04416325757474559,0.10180651530853843
1592181546.4831386,-9.115628543026785,-0.5062287418392843,3.224071357566965,0.5311111111111111,-0.4,0.0033333333333333335,-0.011063985886183264,-0.07364035344094597,0.12826154862194203
1592181546.4931386,-9.11,-0.4867869658033593,3.1833934829016797,0.5311111111111111,-0.4,0.0033333333333333335,0.051560482737388974,-0.04149093753528893,0.12441130041770491
1592181546.5031385,-9.152689136896416,-0.39422971229880543,3.163202662030546,0.5311111111111111,-0.4,0.0033333333333333335,0.04526071909734655,-0.05311160929979492,0.14713087175730438
1592181546.5131385,-9.274753553770086,-0.4366976977750309,3.216018618665019,0.5346708041477819,-0.40355969303667083,0.0033333333333333335,0.018530976701538214,-0.06627782998733585,0.12954900706656625
1592181546.5231385,-9.304106198942815,-0.43128495915425274,3.2156424795771263,0.5377777777777778,-0.4066666666666667,0.0033333333333333335,0.006886334529462981,-0.01862946076106081,-0.02527791974554689
1592181546.5331385,-9.276694129309394,-0.28694129309395305,3.043676616367441,0.5377777777777778,-0.4066666666666667,0.0033333333333333335,-0.008014404286335895,-0.021798641392294857,-0.07413155756567336
1592181546.5431385,-9.28910551878482,-0.23910551878481978,3.055527593924099,0.5377777777777778,-0.4066666666666667,0.0033333333333333335,-0.07800112741801393,-0.12691089747580242,0.10873545742150137
1592181546.5531385,-9.227042330521712,-0.18746485473289598,3.0683099031552636,0.5377777777777778,-0.4066666666666667,0.0033333333333333335,-0.05632380872571516,-0.18093963916963882,0.15388402839676155
1592181546.5631385,-9.214928056135925,-0.08193795088106595,3.126124098237868,0.5232828740752421,-0.4066666666666667,-0.005821342689320771,0.03513612951566086,-0.05572409309331147,0.08332593476493723
