time,acc_x,acc_y,acc_z,mag_x,mag_y,mag_z,gyr_x,gyr_y,gyr_z
1592181567.1931188,-8.8621266249306,-0.6457467501388011,4.1189366875347,0.48333333333333334,-0.4088888888888889,-0.37333333333333335,0.03537584714780104,0.08866363988247983,0.06648844700100237
1592181567.2031188,-8.87818658702353,-0.6136268259529416,4.110906706488236,0.48333333333333334,-0.4088888888888889,-0.37333333333333335,-0.043458307427321895,0.01683696571403448,0.15670975723697642
1592181567.2131188,-8.87834872101858,-0.5,4.11834872101858,0.4888888888888889,-0.39555555555555555,-0.38666666666666666,-0.03947133249873806,0.02724055591308155,0.013830618200212818
1592181567.2231188,-8.868679372457873,-0.49603811737361997,4.09811435212086,0.4888888888888889,-0.39555555555555555,-0.38666666666666666,0.049068801157405716,0.04132830141959518,0.003951938579682802
1592181567.2331188,-8.861106141489923,-0.47110614148992447,4.023318424469773,0.4888888888888889,-0.39555555555555555,-0.38666666666666666,-0.06989123270682818,0.031730359440143144,-0.015261873126568508
1592181567.2431188,-8.866117181686445,-0.4848535228919437,4.055824227470333,0.4888888888888889,-0.39555555555555555,-0.38666666666666666,0.07171914406244323,0.06492231087873161,-0.039289944970757176
1592181567.2531188,-8.833263227979478,-0.5259209650256531,4.105105158030784,0.4888888888888889,-0.39555555555555555,-0.38666666666666666,0.08784629087606638,-0.03184057000300723,-0.09483900621768132
1592181567.2631187,-8.87,-0.54,4.1,0.4711111111111111,-0.39555555555555555,-0.37333333333333335,-0.02181661564992912,0.04363323129985824,0.004363323129985824
1592181567.2731187,-8.879980638194885,-0.5499806381948841,4.0900193618051155,0.4711111111111111,-0.39555555555555555,-0.37333333333333335,0.06963575827436139,-0.039109392726880805,0.006540760604373693
1592181567.2831187,-8.875042240481427,-0.5925633607221387,4.013633838676079,0.4711111111111111,-0.39555555555555555,-0.37333333333333335,0.03883968582214091,-0.038225154604782645,0.10558625928480912
1592181567.2931187,-8.83846032313277,-0.535380969398311,4.11153967686723,0.4711111111111111,-0.39555555555555555,-0.37333333333333335,-0.04698194454295906,0.005878344226551424,0.05008217561466005
1592181567.3031187,-8.822682491018865,-0.48804747305659524,4.127317508981135,0.4711111111111111,-0.39555555555555555,-0.37333333333333335,0.052841536172312964,0.0661166515547328,-0.10739797068615702
1592181567.3131187,-8.812763015566947,-0.4596705544843155,4.175855476649579,0.4711111111111111,-0.4011111111111111,-0.3655555555555556,-0.038293839578056696,-0.026409463161276424,0.024614976497073653
1592181567.3231187,-8.834988570216577,-0.5212471425541442,4.13503428935027,0.4711111111111111,-0.4011111111111111,-0.3655555555555556,-0.03738027963787646,-0.017372109393340798,0.056102836151762675
1592181567.3331187,-8.873289491711192,-0.5289035027629356,4.025614011051743,0.4711111111111111,-0.4011111111111111,-0.3655555555555556,0.016793025305657867,0.1381096285550395,-0.1103412424841403
1592181567.3431187,-8.898321356112175,-0.5211190959252167,3.9944763837008668,0.4711111111111111,-0.4011111111111111,-0.3655555555555556,-0.016063439370269772,0.03092516334087243,0.05702671139161803
1592181567.3531187,-8.874462541951875,-0.5370249720320825,4.05809988812833,0.4711111111111111,-0.4011111111111111,-0.3655555555555556,0.09671558594936752,0.06736146382875524,-0.06269256163999694
1592181567.3631186,-8.868798472790836,-0.5127908367450205,4.12,0.4633333333333333,-0.39555555555555555,-0.38,0.0828018792222916,0.03672485378428797,0.06980484044594024
1592181567.3731186,-8.860843103645298,-0.45494137812821395,4.113255170837618,0.4633333333333333,-0.39555555555555555,-0.38,0.009171255474348104,-0.02953649652332656,0.017586071967950978
1592181567.3831186,-8.872921476562297,-0.38587952994889624,4.040973825520766,0.4633333333333333,-0.39555555555555555,-0.38,0.08253533178312689,0.14694347198057198,-0.022200382986882525
1592181567.3931186,-8.937086310209725,-0.08469174925097948,4.058987669970039,0.4633333333333333,-0.39555555555555555,-0.38,0.050062131386904796,0.13552705137602675,0.10535259535640538
1592181567.4031186,-8.993474302834754,0.11669393869555196,4.050932242452178,0.4633333333333333,-0.39555555555555555,-0.38,0.18801973173854247,0.09422764235356199,0.1624687993236439
1592181567.4131186,-8.89,0.18,4.13,0.4711111111111111,-0.39555555555555555,-0.3655555555555556,-0.07199483164476608,0.11780972450961724,0.056723200689815706
1592181567.4231186,-8.850150711844336,0.20871894932314233,4.07009419490271,0.4711111111111111,-0.39555555555555555,-0.3655555555555556,0.16644295163047512,0.01108503902798495,0.008656775784358936
1592181567.4331186,-8.94527857108282,-0.4488450554237862,4.064762089162109,0.4711111111111111,-0.39555555555555555,-0.3655555555555556,-0.07212525189902652,0.08420734201233496,-0.01323369567825581
1592181567.4431186,-9.06,-0.29,3.65,0.4711111111111111,-0.39555555555555555,-0.3655555555555556,-0.056723200689815706,-0.06981317007977318,0.10035643198967394
1592181567.4531186,-8.994740726098703,-0.4123611385649338,3.935509323318179,0.4711111111111111,-0.39555555555555555,-0.3655555555555556,-0.022909458902736567,0.012051678457365808,-0.022440840816034535
1592181567.4631186,-8.89,-0.13,4.08,0.48333333333333334,-0.41333333333333333,-0.37333333333333335,-0.05235987755982988,-0.02399827721492203,0.04145156973486533
1592181567.4731185,-8.841801419443069,-0.15292730659498716,4.0495496451392325,0.48333333333333334,-0.41333333333333333,-0.37333333333333335,-0.09101125990721581,-0.0675042436374656,-0.016057648467225304
1592181567.4831185,-8.919769571080462,-0.27988478554023044,4.029539142160922,0.48333333333333334,-0.41333333333333333,-0.37333333333333335,0.02931160301270836,0.03207139018250587,-0.04787828152354911
1592181567.4931185,-8.899849360953612,-0.26948782724227627,3.9901807668556675,0.48333333333333334,-0.41333333333333333,-0.37333333333333335,-0.07635815477475191,-0.024593121800949636,0.14899357571977256
1592181567.5031185,-8.86060555025356,-0.13605887086210447,4.037273339695727,0.48333333333333334,-0.41333333333333333,-0.37333333333333335,-0.07635815477475191,-0.17955937317831527,0.03169867826839638
1592181567.5131185,-8.862523100558027,-0.27189232541852115,4.171261550279014,0.4711111111111111,-0.3888888888888889,-0.3655555555555556,0.04866446432901987,-0.012855059894018285,-0.06405355003193985
1592181567.5231185,-8.899118683627028,-0.29988983545337844,4.1890085190804065,0.4711111111111111,-0.3888888888888889,-0.3655555555555556,0.024437461040294043,-0.07384001474969427,-0.009754667390456929
1592181567.5331185,-8.820802894153344,-0.2901003617691679,4.100903255922511,0.4711111111111111,-0.3888888888888889,-0.3655555555555556,-0.13040309792775553,-0.04393976888000195,0.09276046130563106
1592181567.5431185,-8.78072378068972,-0.13289512275888168,4.070542835517291,0.4711111111111111,-0.3888888888888889,-0.3655555555555556,0.08972566961925582,-0.02435356223017763,-0.09898524340211086
1592181567.5531185,-8.772357319178157,-0.13,4.16935485068394,0.4711111111111111,-0.3888888888888889,-0.3655555555555556,-0.007898385020677468,-0.11320280227840462,-0.025838875743074335
1592181567.5631185,-8.849397230518598,-0.17962326907412435,4.18015069237035,0.4633919359218029,-0.4131491537695719,-0.35673364105348904,-0.0046263309320104945,-0.050860392481338446,0.09958384657122647
1592181567.5731184,-8.83043196848178,-0.05280779513156042,4.04302377937245,0.4633333333333333,-0.41333333333333333,-0.3566666666666667,0.1002291914214047,-0.08219633269424223,0.07474193863014973
1592181567.5831184,-8.994230977556931,-0.25287356051150417,4.088303228693215,0.4633333333333333,-0.41333333333333333,-0.3566666666666667,0.0013720479498183363,0.0625230510872391,0.04677735585844586
1592181567.5931184,-8.842064868336545,-0.1856775850995504,4.006387283236994,0.4633333333333333,-0.41333333333333333,-0.3566666666666667,-0.026503614965858013,-0.07424655299026615,0.07216367571578834
1592181567.6031184,-8.799663439012962,-0.157247579259722,4.098593823207871,0.4633333333333333,-0.41333333333333333,-0.3566666666666667,-0.0631082576326363,-0.05033814374699511,0.09899553412956502
1592181567.6131184,-8.846312849162011,-0.18754189944134078,4.120614525139665,0.47480446927374304,-0.4018621973929236,-0.3848230912476722,-0.05165297046055843,-0.033127129238272254,0.10894900966185274
1592181567.6231184,-8.981475317480811,-0.2933020351634938,4.12,0.47555555555555556,-0.4011111111111111,-0.38666666666666666,-0.02559238911828344,0.08610657309511507,0.08859488918585098
1592181567.6331184,-8.850494221087711,-0.26279845895672316,3.980494221087712,0.47555555555555556,-0.4011111111111111,-0.38666666666666666,0.01455327960507409,0.05525989047469909,0.028424612716564497
1592181567.6431184,-8.79340751541808,-0.1761335277525458,4.025910981498303,0.47555555555555556,-0.4011111111111111,-0.38666666666666666,-0.13806972770979994,0.03609603230704628,-0.14982156892420279
1592181567.6531184,-8.77522935086526,-0.1404587017305222,4.074311947404217,0.47555555555555556,-0.4011111111111111,-0.38666666666666666,-0.13333153844838663,-0.12863304430943603,-0.03605239837599333
1592181567.6631184,-8.927572189514997,-0.22629411581472136,4.160032084228888,0.46485620935391986,-0.4011111111111111,-0.393475341522253,-0.059828278052245734,-0.12064296913803574,-0.039019074514563296
1592181567.6731184,-8.764043968353988,-0.19572475436999698,4.063739410487993,0.4633333333333333,-0.4011111111111111,-0.39444444444444443,-0.02506387956022149,-0.0687635550791354,0.05850619694047469
1592181567.6831183,-8.88669208109513,-0.24500953041067405,4.031663489863109,0.4633333333333333,-0.4011111111111111,-0.39444444444444443,-0.039818442380720576,-0.16427843537423537,0.06399401976441434
1592181567.6931183,-9.008996657093084,-0.46799331418616696,4.202578040397382,0.4633333333333333,-0.4011111111111111,-0.39444444444444443,-0.029561878860230713,-0.029774996348434918,0.011746191594711124
1592181567.7031183,-8.88054400246923,-0.3211848450943323,4.065864423781782,0.4633333333333333,-0.4011111111111111,-0.39444444444444443,-0.11563210321450819,-0.08252596344161486,0.05138120635275505
1592181567.7131183,-8.849153003605688,-0.21211749098578134,4.1632240288455,0.4569489987981042,-0.3957908323317535,-0.3667789947917848,-0.048021897562861446,0.003829818640199642,-0.013849966535582764
1592181567.7231183,-8.991986277474124,-0.21,4.151068496336784,0.45666666666666667,-0.39555555555555555,-0.3655555555555556,0.03484082312831011,-0.08007294164558727,0.00939309452127219
1592181567.7331183,-8.783924094535005,-0.013567358668186091,4.159821632066591,0.45666666666666667,-0.39555555555555555,-0.3655555555555556,-0.07429572091159654,-0.07008556700509559,-0.11337105984909579
1592181567.7431183,-8.567726367147793,0.09979670664769263,4.028243952022769,0.45666666666666667,-0.39555555555555555,-0.3655555555555556,0.0018913351448985039,-0.2023582244334668,0.012126206311947801
1592181567.7531183,-8.948058057639658,-0.1259691947585111,4.068656398252837,0.45666666666666667,-0.39555555555555555,-0.3655555555555556,-0.011364027011198423,-0.12839285082020263,-0.005567889931497816
1592181567.7631183,-8.58259372152217,0.020571284919712163,4.1,0.47414406770784234,-0.4120048741825444,-0.3655555555555556,-0.058478100376856176,-0.018469842741032277,-0.08892065333917265
1592181567.7731183,-9.023233857215283,-0.34294003779324334,4.391763838318662,0.47555555555555556,-0.41333333333333333,-0.3655555555555556,-0.14363650198466762,-0.025024905992106786,0.027527074827156148
1592181567.7831182,-8.790795732893804,-0.22294759975276424,4.193146532976215,0.47555555555555556,-0.41333333333333333,-0.3655555555555556,-0.04788315877058723,-0.08899638941994917,-0.006414783204697926
1592181567.7931182,-8.897900691238728,-0.173899878016695,4.020799349422373,0.47555555555555556,-0.41333333333333333,-0.3655555555555556,-0.025132705745213257,-0.12000239639751224,-0.05484716690319979
1592181567.8031182,-8.82423054582248,-0.2452474282823362,4.116291480072701,0.47555555555555556,-0.41333333333333333,-0.3655555555555556,-0.004597027324688075,0.0028442458644211965,-0.055116908468960314
1592181567.8131182,-8.89449750684739,-0.3240375026336119,4.187615001053445,0.4647908326895615,-0.4094188886547901,-0.37240583374300634,-0.026380653482502254,-0.031145406017662705,-0.09078984832543999
1592181567.8231182,-9.052164442293064,-0.41885277643316504,4.216655832929949,0.4633333333333333,-0.4088888888888889,-0.37333333333333335,-0.022789394418414998,-0.041694764426986795,0.03776110536844138
1592181567.8331182,-8.968663207482761,-0.20199221683621219,4.110218474772991,0.4633333333333333,-0.4088888888888889,-0.37333333333333335,-0.04024016442947259,0.046981464406943355,0.0508568293689141
1592181567.8431182,-8.706967346159354,-0.009152145892013186,4.09,0.4633333333333333,-0.4088888888888889,-0.37333333333333335,-0.038148248542040686,0.04315658193946343,-0.08146137019278421
1592181567.8531182,-8.76055485642375,-0.32859016893566717,4.2106658277085,0.4633333333333333,-0.4088888888888889,-0.37333333333333335,-0.11825761281511774,-0.04263071359180941,-0.076188683524022
1592181567.8631182,-8.753009279133508,-0.2883201796387412,4.025754053429317,0.4633333333333333,-0.4088888888888889,-0.3841887087364748,-0.0773530610328027,-0.11753916908223783,-0.022009977590306262
1592181567.8731182,-8.900540031178018,-0.5019337350799228,4.358675864957305,0.4633333333333333,-0.4088888888888889,-0.38666666666666666,-0.10867638027019695,-0.028667588290504004,-0.01308996938995747
1592181567.8831182,-8.797788448025484,-0.25252400805733827,4.082944676066894,0.4633333333333333,-0.4088888888888889,-0.38666666666666666,0.02460795080212233,-0.07220199087052338,0.05902024595775878
1592181567.8931181,-8.81948240857955,-0.09103518284090095,4.018247068096591,0.4633333333333333,-0.4088888888888889,-0.38666666666666666,-0.08220002820079689,-0.025710173117020278,0.004006478397927837
1592181567.9031181,-8.79202162102837,-0.19026486674349266,4.260529733486985,0.4633333333333333,-0.4088888888888889,-0.38666666666666666,-0.004932912028943984,0.0435282765738539,0.0167103487427483
1592181567.9131181,-8.950592261392949,-0.2148519346517627,4.264555803955288,0.4583168816279736,-0.3888230820674501,-0.392519193656253,0.025532231036870443,0.04352555514007269,-0.150316819488443
1592181567.923118,-8.896464231532267,-0.07835453378457229,4.082135138289182,0.45666666666666667,-0.38222222222222224,-0.39444444444444443,-0.0838070179722441,-0.0008910466968330283,-0.11233632288861431
1592181567.933118,-9.120516714422159,-0.4298156638013372,4.1550553963705825,0.45666666666666667,-0.38222222222222224,-0.39444444444444443,-0.08221884371238235,0.0212450494920709,0.060410354595503354
1592181567.943118,-8.858728444191776,-0.2469191775630093,3.9872370665150654,0.45666666666666667,-0.38222222222222224,-0.39444444444444443,-0.020285690356169644,-0.06275615433528835,0.0644523476242356
1592181567.953118,-8.730411529459463,-0.3039711763513389,4.1507509997972765,0.45666666666666667,-0.38222222222222224,-0.39444444444444443,0.07188932898269682,-0.07020932775102648,0.006687517826470958
1592181567.963118,-8.71406068601583,-0.38703034300791556,4.181575197889182,0.45666666666666667,-0.3869091175608326,-0.3889763998827323,0.004957667606464766,-0.04574869469071548,-0.03933610634400808
1592181567.973118,-8.98643144271778,-0.33348423942350114,4.0431158390117155,0.45666666666666667,-0.3888888888888889,-0.38666666666666666,0.042675552566404214,0.01709501190605408,-0.10217981294077763
1592181567.983118,-8.80547234436473,-0.2963360333256191,3.972672066651238,0.45666666666666667,-0.3888888888888889,-0.38666666666666666,0.013362311034983435,0.003008986406556762,-0.05195505084314131
1592181567.993118,-8.9487447876175,-0.2822687115697223,4.099163191744999,0.45666666666666667,-0.3888888888888889,-0.38666666666666666,0.08770868504429911,-0.0077367340932280974,-0.10659156800878491
1592181568.003118,-8.788602261048304,-0.2185006280689734,4.121550188420692,0.45666666666666667,-0.3888888888888889,-0.38666666666666666,0.01550170569005041,0.028841182223703264,-0.04779556602427616
1592181568.013118,-8.817663905657728,-0.2333476063456409,4.216695212691282,0.4617473910805372,-0.377880652658836,-0.392594178482849,-0.039164240159213624,-0.010821323143726615,-0.0044689911406446126
1592181568.023118,-8.768274994280485,-0.25968809578281093,4.2645321436742165,0.4633333333333333,-0.37444444444444447,-0.39444444444444443,-0.04554270508781093,-0.002009464530007197,-0.037192396695605166
1592181568.033118,-8.811060744115414,-0.2843867375348013,4.1073591495823845,0.4633333333333333,-0.37444444444444447,-0.39444444444444443,-0.0011836521717840665,-0.0563832789334478,0.04004130305883598
1592181568.043118,-8.74467313390041,-0.2383948198413457,4.076860842970468,0.4633333333333333,-0.37444444444444447,-0.39444444444444443,0.00033466183807833935,-0.08944812416470939,0.05234434341220569
1592181568.053118,-8.711655586734214,-0.25496676020264036,4.119138966835534,0.4633333333333333,-0.37444444444444447,-0.39444444444444443,-0.030702103010679733,-0.10343382424222049,0.12091577472072389
1592181568.063118,-8.943541372493646,-0.30794267156170574,4.084114656876588,0.45479529480058994,-0.3798777416925539,-0.3991015563713954,-0.02666004603055621,-0.052484948810237554,0.023115731652085386
1592181568.073118,-8.646678598342124,-0.2806678598342125,4.099332140165788,0.45111111111111113,-0.38222222222222224,-0.4011111111111111,-0.16075502136252617,-0.09825985029354944,0.05590569412373229
1592181568.083118,-8.711588129863648,-0.36698459514032267,4.147301767361663,0.45111111111111113,-0.38222222222222224,-0.4011111111111111,0.03556568174337019,-0.11943732115280217,0.04384082003329246
1592181568.093118,-8.609865638995938,-0.3759798458493907,4.087939537548173,0.45111111111111113,-0.38222222222222224,-0.4011111111111111,0.028288317785308825,-0.06234715426946193,-0.05330289344304211
1592181568.103118,-8.434754955132629,-0.35647549551326296,4.029426486539789,0.45111111111111113,-0.38222222222222224,-0.4011111111111111,0.0316249925756238,-0.07602715147291797,-0.10368238483404732
1592181568.113118,-8.835892411143131,-0.6279007364713416,4.328768491834775,0.4393048706727861,-0.38222222222222224,-0.4011111111111111,-0.05622553315894766,-0.00920447415316894,-0.04648203561047018
1592181568.123118,-9.06675570109682,-0.5226824745521975,4.202261106288961,0.43666666666666665,-0.38222222222222224,-0.4011111111111111,-0.05199216438198527,0.006514341930158351,-0.05819706603256698
1592181568.133118,-8.773179713552286,-0.4306475061775784,4.080647506177579,0.43666666666666665,-0.38222222222222224,-0.4011111111111111,-0.05084057060235048,-0.024921177159156368,-0.11359865657941465
1592181568.143118,-8.686429558513346,-0.32315319902053485,4.073987683952772,0.43666666666666665,-0.38222222222222224,-0.4011111111111111,0.019051495682544828,0.005337763719892107,-0.14115887714441525
1592181568.153118,-8.789527965697951,-0.3684979514054312,4.239613911386375,0.43666666666666665,-0.38222222222222224,-0.4011111111111111,-0.015552596535821701,0.012968237040032759,-0.032865260751932926
1592181568.163118,-8.987172745787817,-0.44,4.320942418070728,0.44893106214898476,-0.38222222222222224,-0.39225349215165917,-0.020457368998160717,0.03463958294870712,0.07827281424856536
1592181568.1731179,-8.819281914893617,-0.3919729843225084,4.228250979843225,0.45666666666666667,-0.38222222222222224,-0.38666666666666666,-0.006926561700222108,0.10849132087316674,-0.016269777766985544
1592181568.1831179,-8.877495327102803,-0.45874766355140184,4.316054636951833,0.45666666666666667,-0.38222222222222224,-0.38666666666666666,-0.07564327243016258,0.03066136335910563,0.042581453984628745
1592181568.1931179,-8.687455309450895,-0.26833701303325974,4.029319136813617,0.45666666666666667,-0.38222222222222224,-0.38666666666666666,0.029065307005961424,0.004844217834326904,0.019486412780461218
1592181568.2031178,-8.8984893091633,-0.48211079420378633,4.257624854041844,0.45666666666666667,-0.38222222222222224,-0.38666666666666666,-0.028073675809392767,-0.009741032650233659,-0.05219508675307922
1592181568.2131178,-8.864262612536097,-0.7438090708340411,4.456181416680822,0.4607939527773059,-0.38222222222222224,-0.39560911990638503,-0.047263453884936815,0.030236043048446862,-0.028877090617866093
1592181568.2231178,-9.01570484426633,-0.6247650519112236,4.156732288077996,0.4633333333333333,-0.38222222222222224,-0.4011111111111111,0.013180571567022025,0.07705914565937666,-0.1126965047487526
1592181568.2331178,-8.795958702064897,-0.539149081007488,4.029149081007488,0.4633333333333333,-0.38222222222222224,-0.4011111111111111,-0.021166622086317654,0.0019962673612057974,-0.03265574099163801
1592181568.2431178,-8.749414592356386,-0.5399024320593975,4.003365855980201,0.4633333333333333,-0.38222222222222224,-0.4011111111111111,0.00704515430892242,-0.096418777394536,0.052232161424237034
1592181568.2531178,-8.815291721394171,-0.4864993432699446,4.111126149277597,0.4633333333333333,-0.38222222222222224,-0.4011111111111111,0.012071669624598057,-0.09472467779388988,0.007726121058216379
1592181568.2631178,-8.806655552109182,-0.39663888027295285,4.236688895781637,0.4633333333333333,-0.38222222222222224,-0.3966629618141715,0.03785062702071702,-0.06399419349631484,-0.1462567997696703
1592181568.2731178,-8.789422470847779,-0.44346517491333126,4.387507878978885,0.4633333333333333,-0.38222222222222224,-0.39444444444444443,0.06505861926920715,-0.03634549844680084,-0.16397931786606645
1592181568.2831178,-8.673463804941342,-0.5737908850083797,4.557254689949721,0.4633333333333333,-0.38222222222222224,-0.39444444444444443,0.08087121134025477,-0.03053624407657011,-0.07395540197314879
1592181568.2931178,-9.035768526228143,-0.4133450695848697,4.208427738789104,0.4633333333333333,-0.38222222222222224,-0.39444444444444443,0.0971303651511625,0.0019882781704130686,-0.03579367816392272
1592181568.3031178,-8.758289172042437,-0.3284144586021219,4.111585541397878,0.4633333333333333,-0.38222222222222224,-0.39444444444444443,0.16434679771551658,0.06066780112246324,-0.09976172944759318
1592181568.3131177,-8.729213197969543,-0.43951776649746194,4.216345177664975,0.4592216582064298,-0.36988719684151156,-0.40335307388606884,0.13028783196319982,0.023843235276293104,-0.12014919661928604
1592181568.3231177,-8.89644667975139,-0.5016617598953222,4.201231599607458,0.45666666666666667,-0.3622222222222222,-0.4088888888888889,0.07785844853497643,-0.03313759792695686,-0.08430958681327327
1592181568.3331177,-8.782586854062597,-0.6094516411255044,4.165521124375582,0.45666666666666667,-0.3622222222222222,-0.4088888888888889,0.053043874916122224,-0.1375474105766377,-0.02392248274686947
1592181568.3431177,-8.871772757328632,-0.6478016310337227,4.230851223275292,0.45666666666666667,-0.3622222222222222,-0.4088888888888889,0.08975736519456323,-0.15199689498759378,0.014049188805837538
1592181568.3531177,-9.027881147617887,-0.5757945696432928,4.3475280055542,0.45666666666666667,-0.3622222222222222,-0.4088888888888889,0.17621028246894338,-0.1461135421194757,0.013321100330155058
1592181568.3631177,-8.913549240639385,-0.4708873101598463,4.516869404472797,0.4602492539297063,-0.3622222222222222,-0.41366567190627507,0.19098672113194182,-0.0749964844960758,-0.03399956926727908
1592181568.3731177,-8.627287074725444,-0.3848030105214653,4.490724214730052,0.4633333333333333,-0.3622222222222222,-0.4177777777777778,0.1379956231180991,-0.0039973951015744484,-0.06058060821458718
1592181568.3831177,-8.659392896353223,-0.31725052669060266,4.339016052936114,0.4633333333333333,-0.3622222222222222,-0.4177777777777778,0.13583774155921863,0.0628388574865412,-0.07451752146186971
1592181568.3931177,-8.854528040508264,-0.1673062959778351,4.060667813126971,0.4633333333333333,-0.3622222222222222,-0.4177777777777778,0.1314664736082407,-0.022688905097669188,0.005665921195374485
1592181568.4031177,-8.817429383769083,-0.11755640027195749,3.9665535570801658,0.4633333333333333,-0.3622222222222222,-0.4177777777777778,0.11617192761530902,-0.0568526521455542,0.03615767942149263
1592181568.4131176,-8.795312894315042,-0.3556320976707704,4.228135252191112,0.4602085962100285,-0.36795090694828103,-0.3933006703118902,0.12336833747599067,0.01718299355784463,-0.04970175176327081
1592181568.4231176,-8.515029985540568,-0.25375068148955837,4.164991822125299,0.45666666666666667,-0.37444444444444447,-0.3655555555555556,0.07881415949290309,0.06516836725466194,-0.046086857170687015
1592181568.4331176,-8.737060003647638,-0.39291446288528176,4.269547692868867,0.45666666666666667,-0.37444444444444447,-0.3655555555555556,0.10294096284785587,0.09006207707274952,-0.06706689466091834
1592181568.4431176,-8.798811107416029,-0.2485733288992351,4.200783172597273,0.45666666666666667,-0.37444444444444447,-0.3655555555555556,0.11353183225734273,-0.004830200155949552,-0.029630910922877625
1592181568.4531176,-8.65880910073458,-0.17570920881496271,4.194877356243932,0.45666666666666667,-0.37444444444444447,-0.3655555555555556,0.09991513599596365,-0.03540139446735691,-0.0698484593717897
1592181568.4631176,-8.674081647269471,-0.2406119964189794,4.220611996418979,0.45938776484631455,-0.37217686262807126,-0.38687082462946387,0.08490667432503032,-0.012466682157530848,-0.09788511920705485
1592181568.4731176,-8.734194465504169,-0.3868858984078848,4.378929112964367,0.4633333333333333,-0.3688888888888889,-0.4177777777777778,0.028642371421979534,-0.08637597583318649,-0.06744501697463398
1592181568.4831176,-8.926404743925731,-0.4829693954604007,4.365665837516102,0.4633333333333333,-0.3688888888888889,-0.4177777777777778,0.04996468198078013,-0.03978629999079614,-0.0768868779790606
1592181568.4931176,-8.785803979993615,-0.4593551133340428,4.255226136000851,0.4633333333333333,-0.3688888888888889,-0.4177777777777778,0.15285061743663253,0.02361822188003926,-0.12292677375120778
1592181568.5031176,-8.770083859316609,-0.5555928263629374,4.4122874461351405,0.4633333333333333,-0.3688888888888889,-0.4177777777777778,0.15260330020600632,0.005324819263408775,-0.02925906305156134
1592181568.5131176,-8.677700668896321,-0.5508528428093645,4.40646878483835,0.4633333333333333,-0.3716403443577357,-0.4062216648086213,-0.03198341392124013,0.009600405365014794,0.07204377917987811
1592181568.5231175,-8.460935812837432,-0.4493596280743851,4.2748275344931015,0.4633333333333333,-0.37444444444444447,-0.39444444444444443,-0.10291975345502143,0.027695290540302564,0.005244592689870108
1592181568.5331175,-8.834547861809543,-0.24655736487824192,4.192009503068699,0.4633333333333333,-0.37444444444444447,-0.39444444444444443,0.09653822730135689,-0.020473701669873966,-0.009828437181492395
1592181568.5431175,-8.612578071334214,-0.3346626155878468,4.399667635402906,0.4633333333333333,-0.37444444444444447,-0.39444444444444443,0.005529950080460236,-0.06071082844118531,-0.04596648520080706
1592181568.5531175,-8.528756393577018,-0.29618987364331417,4.4313792304539215,0.4633333333333333,-0.37444444444444447,-0.39444444444444443,0.04255412319138016,-0.07598077409806069,-0.053250295329962345
1592181568.5631175,-8.94894627581517,-0.288435520240524,4.33382261355095,0.46652389531161137,-0.37444444444444447,-0.3912538824661664,0.020590890262989943,-0.07266692302562776,0.019070778387628724
1592181568.5731175,-8.82428409696324,-0.580859971585864,4.596512830758302,0.4711111111111111,-0.37444444444444447,-0.38666666666666666,0.01148491194929429,-0.10610060721901735,-0.027426955376367662
1592181568.5831175,-8.700691476841802,-0.46152260899129116,4.399654261579099,0.4711111111111111,-0.37444444444444447,-0.38666666666666666,0.11440123848218017,-0.04312009550769974,-0.028875107002986067
1592181568.5931175,-8.893571689164538,-0.4292853378734444,4.312142364911427,0.4711111111111111,-0.37444444444444447,-0.38666666666666666,0.14515876114750875,0.028205685255561608,0.028673430523600343
1592181568.6031175,-8.729882154882155,-0.49658810325476993,4.504336219336219,0.4711111111111111,-0.37444444444444447,-0.38666666666666666,0.031892590030304833,0.041224204011401255,-0.018171943102800108
1592181568.6131175,-8.77218757104964,-0.41419969685486924,4.4634069723380065,0.46784468022399056,-0.37444444444444447,-0.3899330975537872,-0.015268324154548728,0.012305100314624288,0.0325037811980329
1592181568.6231174,-9.001534273248476,-0.42065120975011716,4.33,0.4633333333333333,-0.37444444444444447,-0.39444444444444443,-0.07602987894052138,0.00336559430047567,0.08551746748290663
1592181568.6331174,-8.572148349163275,-0.43564450474898236,4.248652193577567,0.4633333333333333,-0.37444444444444447,-0.39444444444444443,0.04752785735007398,0.06611885036049074,-0.07179452531383278
1592181568.6431174,-8.560942676161623,-0.40464649643939093,4.147205413699493,0.4633333333333333,-0.37444444444444447,-0.39444444444444443,0.041598518808291296,0.06686757933633919,-0.04822427399281082
1592181568.6531174,-8.68883946068825,-0.3658904914948655,4.234416006898173,0.4633333333333333,-0.37444444444444447,-0.39444444444444443,-0.05352715286059488,-0.006274265069880063,0.05176666296756139
1592181568.6631174,-8.606852470272463,-0.47667457320308354,4.456603414375332,0.4674122391796622,-0.37444444444444447,-0.39444444444444443,0.00875769515587492,-0.02691578399488571,0.11699755075888425
1592181568.6731174,-8.900560209547633,-0.5920588998749321,4.35,0.47555555555555556,-0.37444444444444447,-0.39444444444444443,0.05684541945365678,-0.021306323995677764,0.030014694071502996
1592181568.6831174,-8.732950214107571,-0.5956420874311796,4.226667921509576,0.47555555555555556,-0.37444444444444447,-0.39444444444444443,0.04408083585603767,-0.001034880212974027,0.026320431173293746
1592181568.6931174,-8.659178938294662,-0.48469362833129803,4.146323539975576,0.47555555555555556,-0.37444444444444447,-0.39444444444444443,0.10402596762248115,-0.017541524361125035,-0.06820901177366963
1592181568.7031174,-8.819068378620484,-0.43440623188660354,4.203050778985825,0.47555555555555556,-0.37444444444444447,-0.39444444444444443,0.13100087734963642,-0.050067433433152286,-0.06718749691248331
1592181568.7131174,-8.941193646344312,-0.36358093903293626,4.214252900412677,0.470995181118984,-0.37444444444444447,-0.397139211156964,0.04223280944033931,-0.05981724287192121,-0.017567106523567466
1592181568.7231174,-8.819643894310879,-0.29956010473696737,4.189727683884789,0.45111111111111113,-0.37444444444444447,-0.4088888888888889,0.10533029318652096,0.02181661564992912,0.04981445859345651
1592181568.7331173,-8.72597952828139,-0.4091140187818362,4.257546773531613,0.45111111111111113,-0.37444444444444447,-0.4088888888888889,0.07944235945367914,-0.04669818586889471,0.07281189479056714
1592181568.7431173,-8.683005843249509,-0.6487861654562229,4.561907454283078,0.45111111111111113,-0.37444444444444447,-0.4088888888888889,0.13219854405558265,-0.05352009974480399,-0.021274335645590906
1592181568.7531173,-8.825355491804777,-0.5219646609534598,4.4649418020355585,0.45111111111111113,-0.37444444444444447,-0.4088888888888889,0.15947606395013791,-0.016738921638208996,0.03162705661758549
1592181568.7631173,-9.031622278414503,-0.39418180026928507,4.173062953597583,0.4544786341627168,-0.37291375214826006,-0.40674591967423074,0.05572239183620216,-0.04176279556778802,0.14397744781887994
1592181568.7731173,-8.686477073649296,-0.35572960220504074,4.297153068136693,0.4633333333333333,-0.3688888888888889,-0.4011111111111111,0.0368358402202725,-0.06624182103078419,0.0489204137770155
1592181568.7831173,-8.868084875867316,-0.4988944468776653,4.34,0.4633333333333333,-0.3688888888888889,-0.4011111111111111,0.0565617674904052,-0.07887359582400887,-0.015986664359691382
1592181568.7931173,-8.985355733560171,-0.5750818742468278,4.315081874246828,0.4633333333333333,-0.3688888888888889,-0.4011111111111111,0.16404776826778955,-0.0071529177503404096,-0.003934011972091131
1592181568.8031173,-9.024504954023808,-0.4633819231591703,4.252417492337302,0.4633333333333333,-0.3688888888888889,-0.4011111111111111,0.1241602040223011,0.004256720449623528,0.0351169912055032
1592181568.8131173,-8.62001239157373,-0.3149896736885584,4.221237092110698,0.4625003442103814,-0.37138785625774473,-0.402082931754555,0.08835864509321975,-0.0332692124403029,-0.0038118250392069463
1592181568.8231173,-8.41,-0.49,4.44,0.45666666666666667,-0.3888888888888889,-0.4088888888888889,0.06544984694978735,-0.05235987755982988,-0.10690141668465267
1592181568.8331172,-8.70366735683694,-0.4534784581785178,4.34466942734776,0.45666666666666667,-0.3888888888888889,-0.4088888888888889,0.027000637572679526,-0.07255570127136778,0.0889284658323836
1592181568.8431172,-8.717803641280726,-0.32926788042690874,4.256705461921089,0.45666666666666667,-0.3888888888888889,-0.4088888888888889,0.030463400053221158,-0.06600887994654461,0.01216070609719476
1592181568.8531172,-8.78,-0.35,4.35,0.45666666666666667,-0.3888888888888889,-0.4088888888888889,0.032724923474893676,-0.05017821599483697,-0.08508480103472357
1592181568.8631172,-9.007389532813798,-0.5315930218758653,4.601784880731041,0.45767861773716434,-0.3878769378183912,-0.40834399215862094,0.05972552050163475,-0.033600125418427565,0.028541715368688075
1592181568.8731172,-8.637175729768956,-0.3682150799410098,4.342738359980337,0.4711111111111111,-0.37444444444444447,-0.4011111111111111,-0.09112306867059838,-0.0788838752822144,0.09427281414734032
1592181568.8831172,-8.631132723632723,-0.4687319137319137,4.400348530348531,0.4711111111111111,-0.37444444444444447,-0.4011111111111111,-0.05735254523081375,-0.05791433946264002,0.06940345090107138
1592181568.8931172,-8.873721017202692,-0.650517483171279,4.450517483171279,0.4711111111111111,-0.37444444444444447,-0.4011111111111111,0.04213650050667219,-0.018251120606281156,0.06018977035397399
1592181568.9031172,-8.681328638582208,-0.5513317003764207,4.337999387641158,0.4711111111111111,-0.37444444444444447,-0.4011111111111111,0.06864970630909364,-0.03766864253046909,0.019053890179471532
1592181568.9131172,-8.8224914312729,-0.5955218059331048,4.353726115904346,0.4713256028750651,-0.374176329739502,-0.4011111111111111,0.06502869335610396,-0.08705588580287478,-0.002649313953407459
1592181568.9231172,-8.52801163685324,-0.3442085016349298,4.277036689748028,0.47555555555555556,-0.3688888888888889,-0.4011111111111111,0.03993114171690791,-0.03159407038584574,0.036860806603297235
1592181568.9331172,-8.86,-0.39,4.34,0.47555555555555556,-0.3688888888888889,-0.4011111111111111,0.017453292519943295,0.0370882466048795,-0.01308996938995747
1592181568.9431171,-8.723758528370325,-0.3564355010507528,4.352080490543225,0.47555555555555556,-0.3688888888888889,-0.4011111111111111,-0.056853332905109646,0.019592623431891755,0.058795895366036924
1592181568.9531171,-8.55,-0.35,4.41,0.47555555555555556,-0.3688888888888889,-0.4011111111111111,-0.08072147790473774,0.05890486225480862,0.015271630954950384
1592181568.9631171,-9.007318320193583,-0.45731832019358365,4.380866833190227,0.47670027493733685,-0.36970654559016125,-0.40356408121492815,0.018869644033177705,0.005761963863206241,0.0030789509870479937
1592181568.973117,-8.76,-0.21,4.27,0.48333333333333334,-0.37444444444444447,-0.4177777777777778,0.05235987755982988,-0.08726646259971647,-0.004363323129985824
1592181568.983117,-8.740004436666585,-0.5004005323999902,4.421606566266545,0.48333333333333334,-0.37444444444444447,-0.4177777777777778,-0.0207689922093141,-0.01099375457823103,0.05253367485785204
1592181568.993117,-8.58666627963681,-0.5066660474188979,4.2733309337482295,0.48333333333333334,-0.37444444444444447,-0.4177777777777778,-0.042905875679288295,-0.051633332532693754,0.08072147790473774
1592181569.003117,-8.601123611532083,-0.5411236115320841,4.449325868739637,0.48333333333333334,-0.37444444444444447,-0.4177777777777778,-0.05865972824545555,0.025591609377905247,0.04262822853888472
1592181569.013117,-8.541297983489935,-0.48129798348993524,4.352109223171144,0.48333333333333334,-0.37444444444444447,-0.4177777777777778,-0.07171165557556737,0.08595677327967241,-0.07810209926464962
1592181569.023117,-9.05,-0.84,4.67,0.45666666666666667,-0.3688888888888889,-0.39222222222222225,-0.004363323129985824,0.15817046346198613,0.08944812416470939
1592181569.033117,-8.764580959652315,-0.7489322840194985,4.304580959652317,0.45666666666666667,-0.3688888888888889,-0.39222222222222225,0.07518339914788649,0.01565486638931309,0.15357420084030138
1592181569.043117,-8.7,-0.67,4.24,0.45666666666666667,-0.3688888888888889,-0.39222222222222225,0.12762720155208535,0.0,0.13635384781205698
1592181569.053117,-8.654244292237443,-0.8645296803652968,4.497454337899543,0.45666666666666667,-0.3688888888888889,-0.39222222222222225,0.04676127573551017,0.0868029840412174,-0.037108668551035826
1592181569.063117,-8.831247108307045,-0.6237413249211357,4.243718191377498,0.45756735599953263,-0.369720294426919,-0.39222222222222225,0.11208601724919945,0.15061528458178694,-0.07041524902586402
1592181569.073117,-8.838243912505158,-0.601626083367726,4.414731737515477,0.4711111111111111,-0.38222222222222224,-0.39222222222222225,0.08564529807319161,0.07152302369591909,-0.11045595834507396
1592181569.083117,-8.82,-0.48,4.36,0.4711111111111111,-0.38222222222222224,-0.39222222222222225,0.07635815477475191,0.074176493209759,-0.056723200689815706
1592181569.093117,-8.786547472900613,-0.3895886117278307,4.3178354446911325,0.4711111111111111,-0.38222222222222224,-0.39222222222222225,0.05191112256898963,0.04970598328257117,0.03814594074900471
1592181569.103117,-8.715467669602816,-0.32546766960281587,4.295467669602815,0.4711111111111111,-0.38222222222222224,-0.39222222222222225,-0.01266610282350581,0.04363323129985824,-0.02285266029492807
1592181569.113117,-8.734902337742234,-0.34490233774223317,4.316863272839126,0.47198263782084143,-0.3818409292867152,-0.3926035151577293,0.027025533958548863,0.04641399417587773,-0.0796419295538197
1592181569.123117,-8.83,-0.44,4.45,0.4888888888888889,-0.37444444444444447,-0.4,0.2127120025868089,0.10035643198967394,-0.22798363354175932
1592181569.133117,-8.907096774193548,-0.44193548387096776,4.287741935483871,0.4888888888888889,-0.37444444444444447,-0.4,0.03286567583392548,-0.012104702876734867,-0.05095235396951188
1592181569.143117,-8.750122121423587,-0.3727192370318678,4.206748080949058,0.4888888888888889,-0.37444444444444447,-0.4,0.0025787655832778507,0.03570079307645647,0.006683019574178096
1592181569.153117,-8.951827871517866,-0.5525819272319976,4.316237670267731,0.4888888888888889,-0.37444444444444447,-0.4,-0.012315663592619416,0.0035192565028967556,0.05908273266422461
1592181569.163117,-8.959405101709,-0.4389234743649962,4.217733677782997,0.4888888888888889,-0.37444444444444447,-0.4,-0.02719352028200915,-0.036155028002142535,-0.11201261926375732
1592181569.173117,-8.806693588638323,-0.5594691229184627,4.478366985797903,0.5022222222222222,-0.38222222222222224,-0.38555555555555554,0.005725438613188444,-0.10180793630146173,-0.0036595964606480798
1592181569.183117,-8.736705974099632,-0.49670597409963135,4.353294025900369,0.5022222222222222,-0.38222222222222224,-0.38555555555555554,-0.03493929758982013,-0.07221461667292482,0.03294470850305241
1592181569.193117,-8.803790528405331,-0.4925394649777862,4.2839110501937805,0.5022222222222222,-0.38222222222222224,-0.38555555555555554,0.1334948379712139,0.045339748877163875,-0.06956652415560913
1592181569.203117,-8.86013435908549,-0.3726295734460216,4.260403077256474,0.5022222222222222,-0.38222222222222224,-0.38555555555555554,0.12397992942280318,-0.015217201702015116,0.020577133711931553
1592181569.213117,-8.905581319752953,-0.6983327915628272,4.396743959258858,0.5022222222222222,-0.38222222222222224,-0.38555555555555554,0.058706253594622795,-0.18129326298637274,0.09328705109015777
1592181569.2231169,-8.655276472280837,-0.5725534720890082,4.477957749856129,0.4888888888888889,-0.37444444444444447,-0.39222222222222225,0.1687817380439517,-0.04445946290252221,-0.13515632465564428
1592181569.2331169,-8.746918038175288,-0.4076721527011481,4.2907541145258605,0.4888888888888889,-0.37444444444444447,-0.39222222222222225,0.1267128019498443,-0.06510651171934696,-0.07116745674139392
1592181569.2431169,-8.778650381967367,-0.44377251721210975,4.3816259549184196,0.4888888888888889,-0.37444444444444447,-0.39222222222222225,0.09056909862534142,-0.09280754964538836,-0.04316667300516604
1592181569.2531168,-8.78935382032519,-0.2511171736710524,4.4425301556597745,0.4888888888888889,-0.37444444444444447,-0.39222222222222225,0.11449180659148504,-0.06544984694978735,-0.11816341492994237
1592181569.2631168,-8.689852187083705,-0.3046949761856968,4.358336465993904,0.4888888888888889,-0.37444444444444447,-0.39222222222222225,0.17210120402952533,-0.06544984694978735,-0.030496940567707118
1592181569.2731168,-8.837156547210068,-0.48082233392398654,4.5344881206379055,0.47522310217497,-0.3797589170554129,-0.4020919570711637,0.08910840570020792,-0.004330897610034572,-0.10604150925227136
1592181569.2831168,-8.901002946593001,-0.20911491712707186,4.242123756906078,0.4688888888888889,-0.38222222222222224,-0.4066666666666667,0.14123205110696702,-0.062367235496518174,-0.04006788202516383
1592181569.2931168,-8.566557848443843,-0.33069237708615246,4.291380807397384,0.4688888888888889,-0.38222222222222224,-0.4066666666666667,0.04491029548387698,-0.1469973819271294,-0.10648343709523873
1592181569.3031168,-8.832603602841678,-0.4489349345963013,4.356414214027965,0.4688888888888889,-0.38222222222222224,-0.4066666666666667,-0.0350589298666933,-0.08315098426820634,0.07667188548187387
1592181569.3131168,-8.939349805432771,-0.51,4.3670123540745776,0.4688888888888889,-0.38222222222222224,-0.4066666666666667,-0.05629764934068811,-0.08528410050444862,0.07513717764705453
1592181569.3231168,-8.863526677821156,-0.36496729706434117,4.4446024100458015,0.4776177089729795,-0.3775220883307889,-0.4066666666666667,-0.03963114020611158,-0.055123190178377246,0.027357510234581724
1592181569.3331168,-8.65838028169014,-0.45556338028169013,4.607746478873239,0.48333333333333334,-0.37444444444444447,-0.4066666666666667,-0.002688667421646189,0.0003687315321114805,0.0009064650164407172
1592181569.3431168,-8.63566670899164,-0.4782707830724301,4.45512488889695,0.48333333333333334,-0.37444444444444447,-0.4066666666666667,0.100972338132843,0.06402269860647732,-0.011062843340052758
1592181569.3531168,-8.638352809795398,-0.4681605711322937,4.416321142264588,0.48333333333333334,-0.37444444444444447,-0.4066666666666667,0.07752464282725043,0.06417111291879243,-0.09053443030311141
1592181569.3631167,-8.6,-0.5439466957499745,4.4603955216250295,0.48333333333333334,-0.37444444444444447,-0.4066666666666667,-0.04170857914829357,0.027586854335008952,0.02106722482879897
1592181569.3731167,-8.849563552222135,-0.6356746190058247,4.436567461900583,0.48698192327810136,-0.3795524703671197,-0.3971803328102698,0.015081194686530838,0.028166812242200835,0.053284033089116375
1592181569.3831167,-8.755297656231924,-0.5793503158186992,4.384856898267047,0.4888888888888889,-0.38222222222222224,-0.39222222222222225,0.09268939655713182,0.008947684551383322,-0.07877771391166154
1592181569.3931167,-8.410411827852053,-0.45569922904264665,4.299118766468235,0.4888888888888889,-0.38222222222222224,-0.39222222222222225,0.0727408589819121,0.004477228559601438,-0.061526390394728375
1592181569.4031167,-8.836163308935431,-0.5040778317269368,4.365922168273063,0.4888888888888889,-0.38222222222222224,-0.39222222222222225,0.08276562949464894,-0.11790387477137196,-0.21128664588476542
1592181569.4131167,-8.509409739836219,-0.5344735125733749,4.335526487426625,0.4888888888888889,-0.38222222222222224,-0.39222222222222225,0.11426434660076998,0.10092931775536357,-0.03804370180109978
1592181569.4231167,-8.837326732673267,-0.5347524752475248,4.6039603960396045,0.4888888888888889,-0.38222222222222224,-0.4,0.040760350229125,-0.03408576187681995,0.011880335254911896
1592181569.4331167,-8.49367516367809,-0.3013638715773843,4.526439354737103,0.4888888888888889,-0.38222222222222224,-0.4,0.039786645905275544,0.0509550282865007,-0.12063135060504815
1592181569.4431167,-8.863476595544695,-0.3669531910893881,4.4794952533132815,0.4888888888888889,-0.38222222222222224,-0.4,0.1313910496489326,0.04511347606035277,0.07846640390998005
1592181569.4531167,-8.764584026473482,-0.16230498166532512,4.301741704677577,0.4888888888888889,-0.38222222222222224,-0.4,0.04375046073087941,-0.023939662499411443,0.05005532801937569
1592181569.4631166,-8.892127358912441,-0.35737125480726234,4.579336016456488,0.4888888888888889,-0.38222222222222224,-0.4,-0.031542443784689754,-0.061586114757196025,0.06806015301222919
1592181569.4731166,-8.52,-0.48,4.36,0.48333333333333334,-0.37444444444444447,-0.38555555555555554,0.07199483164476608,0.05890486225480862,0.019634954084936207
1592181569.4831166,-8.710761451857794,-0.7277156444266193,4.504669836995445,0.48333333333333334,-0.37444444444444447,-0.38555555555555554,-0.06804119114458314,-0.04614713891519929,0.17266122869965855
1592181569.4931166,-8.738106324998805,-0.6513620500071712,4.335979825022709,0.48333333333333334,-0.37444444444444447,-0.38555555555555554,0.02871293786853355,-0.0543603684914436,0.037834936624661704
1592181569.5031166,-8.73,-0.7,4.49,0.48333333333333334,-0.37444444444444447,-0.38555555555555554,0.15162547876700738,-0.03490658503988659,-0.05235987755982988
1592181569.5131166,-8.595891420911528,-0.518558981233244,4.340113941018767,0.48333333333333334,-0.37444444444444447,-0.38555555555555554,0.1567886469881803,-0.014253912155194975,-0.02138086823279246
1592181569.5231166,-8.834039411240395,-0.6973746717737467,4.49606200766062,0.51,-0.38222222222222224,-0.39222222222222225,0.014896747383292403,-0.10701204754380592,0.021950003355644516
1592181569.5331166,-8.982809755227608,-0.5852877970484641,4.291404877613804,0.51,-0.38222222222222224,-0.39222222222222225,0.04561694907401069,-0.032563164003558215,-0.1324332476127888
1592181569.5431166,-8.96499718151071,-0.7177254791431793,4.3039775930101465,0.51,-0.38222222222222224,-0.39222222222222225,0.016078301548404464,0.018519066169189056,-0.03217981553313319
1592181569.5531166,-8.571297554711329,-0.47375354486596394,4.361297554711327,0.51,-0.38222222222222224,-0.39222222222222225,0.14889282771157802,-0.022742674893071545,-0.07046420151794351
1592181569.5631166,-8.743357590026218,-0.6832179356840922,4.533357590026219,0.51,-0.38222222222222224,-0.39222222222222225,0.10727496888155874,-0.0700727888566229,0.019299807723274554
1592181569.5731165,-8.563115271553178,-0.3000501180665992,4.38396992916004,0.5022222222222222,-0.39555555555555555,-0.36444444444444446,0.1070769399839036,0.06764244258074138,-0.08590716895729957
1592181569.5831165,-8.75227900386638,-0.3888924377416489,4.331107562258351,0.5022222222222222,-0.39555555555555555,-0.36444444444444446,0.0394836681464621,0.07131871093449896,0.002430262322080671
1592181569.5931165,-8.61,-0.3788149041360183,4.342370191727963,0.5022222222222222,-0.39555555555555555,-0.36444444444444446,0.1165649699140643,-0.04095178429640234,-0.024207525208265253
1592181569.6031165,-8.633112698696195,-0.3796302911234149,4.374445436685122,0.5022222222222222,-0.39555555555555555,-0.36444444444444446,0.15325749721651913,0.07929955981526245,-0.09597619796275639
1592181569.6131165,-8.812900517949634,-0.45454188247901406,4.486812823718521,0.5022222222222222,-0.39555555555555555,-0.36444444444444446,0.13201137106423355,0.10218000336387768,-0.010991693353614052
1592181569.6231165,-8.548873105610717,-0.25462706066796525,4.502738134828258,0.48333333333333334,-0.3888888888888889,-0.36444444444444446,0.1004360327346934,0.03488404186014475,-0.10776365444222673
1592181569.6331165,-8.842211668928087,-0.5045318860244233,4.616024423337856,0.48333333333333334,-0.3888888888888889,-0.36444444444444446,-0.054156714154064214,-0.07598517057232437,0.0045098526380823595
1592181569.6431165,-8.627299978739991,-0.31864998936999506,4.332430019134009,0.48333333333333334,-0.3888888888888889,-0.36444444444444446,0.054953876407356717,0.007781996542580485,-0.22453767196629731
1592181569.6531165,-8.53469535008017,-0.271743987172635,4.4204024585783,0.48333333333333334,-0.3888888888888889,-0.36444444444444446,0.07073509991214177,0.05306230028925358,-0.10050277005830387
1592181569.6631165,-8.796231961517906,-0.3688861571352218,4.4428198824158205,0.48333333333333334,-0.3888888888888889,-0.36444444444444446,0.12208769348323883,0.09218808586723229,-0.10865397538704943
1592181569.6731164,-8.87051827336103,-0.5289000774593339,4.499190902049151,0.5366666666666666,-0.39555555555555555,-0.39222222222222225,0.11888957093876555,-0.13728890049252523,-0.17068409996263503
1592181569.6831164,-8.952476438380756,-0.6224952876761511,4.478742931514227,0.5366666666666666,-0.39555555555555555,-0.39222222222222225,0.015405328956341544,-0.024680474816308265,0.0640213442652054
1592181569.6931164,-8.39067139322421,-0.5104739246288542,4.310868861819566,0.5366666666666666,-0.39555555555555555,-0.39222222222222225,-0.0475226638205848,-0.03467394783170477,0.14054053898768254
1592181569.7031164,-8.560808305458687,-0.6299862999074799,4.5298218987972385,0.5366666666666666,-0.39555555555555555,-0.39222222222222225,0.07194700930030534,0.02390562142252935,0.09599011996315933
1592181569.7131164,-9.001103836025907,-0.6225236637961711,4.432807629350225,0.5366666666666666,-0.39555555555555555,-0.39222222222222225,0.04589749509619242,-0.02656531234793945,0.09436202532540228
1592181569.7231164,-8.654163409008135,-0.6280784266116305,4.524235279834891,0.4955555555555556,-0.4088888888888889,-0.36444444444444446,-0.020279467287832132,-0.06222012968336469,0.13177376228984217
1592181569.7331164,-8.775379310344826,-0.5732344827586207,4.350462068965517,0.4955555555555556,-0.4088888888888889,-0.36444444444444446,0.027087209072115443,-0.03094649315087877,-0.13011805722163416
1592181569.7431164,-8.68206896551724,-0.638551724137931,4.359793103448276,0.4955555555555556,-0.4088888888888889,-0.36444444444444446,0.045408652435507645,-0.03908935686794197,0.03986422287206012
1592181569.7531164,-8.650105839416058,-0.600021897810219,4.310014598540145,0.4955555555555556,-0.4088888888888889,-0.36444444444444446,0.13851679804610928,-0.026176753872520792,0.015266853593859158
1592181569.7631164,-8.861497393117832,-0.6437580813347237,4.339172054223149,0.4955555555555556,-0.4088888888888889,-0.36444444444444446,0.10114492406311143,-0.019815583832861583,0.005725098534370346
1592181569.7731164,-8.654252780296883,-0.5518042098229202,4.36090210491146,0.47555555555555556,-0.39555555555555555,-0.38,0.008414667927256323,-0.18546638081056266,0.03514827452928321
1592181569.7831163,-8.975512902053426,-0.685908822460476,4.428020397964747,0.47555555555555556,-0.39555555555555555,-0.38,0.1505745654929291,0.06154065671507673,-0.1116037041319325
1592181569.7931163,-8.651584590223514,-0.39056242049791023,4.285110848628022,0.47555555555555556,-0.39555555555555555,-0.38,0.07470803286872034,-0.06317145170828015,0.02142254485298148
1592181569.8031163,-8.875868753790884,-0.6819120048523304,4.808346008491578,0.47555555555555556,-0.39555555555555555,-0.38,-0.05150575904203697,0.020877248144095265,0.08587189094520309
1592181569.8131163,-8.721842797462479,-0.233745938418691,4.266736809531177,0.47555555555555556,-0.39555555555555555,-0.38,0.12035730300737393,0.019509718677136058,0.007737927905668032
1592181569.8231163,-8.55,-0.09,4.26,0.51,-0.4011111111111111,-0.3655555555555556,-0.0370882466048795,-0.06763150851478027,0.028361600344907853
1592181569.8331163,-8.901896459021431,-0.49339350180505426,4.723473385052615,0.51,-0.4011111111111111,-0.3655555555555556,-0.0033835109193311175,0.0016504481721802966,0.03210657097663545
1592181569.8431163,-8.667742820559722,-0.16040241448692155,4.099568319004939,0.51,-0.4011111111111111,-0.3655555555555556,0.10710693263599187,0.017635263925400907,0.0526296421872188
1592181569.8531163,-8.33,-0.47,4.7,0.51,-0.4011111111111111,-0.3655555555555556,0.01090830782496456,-0.04581489286485115,0.056723200689815706
1592181569.8631163,-8.614352574102965,-0.39606833073322933,4.682938845553823,0.51,-0.4011111111111111,-0.3655555555555556,0.07852766574413324,-0.09978630698382066,-0.005312907492907852
1592181569.8731163,-8.51,-0.01,4.34,0.51,-0.4088888888888889,-0.4011111111111111,-0.008726646259971648,-0.10253809355466686,-0.03490658503988659
1592181569.8831162,-8.725291655037678,-0.40868825006977394,4.730714485068378,0.51,-0.4088888888888889,-0.4011111111111111,0.012148621698224555,-0.027735050037797138,-0.00011447177622625482
1592181569.8931162,-8.6,-0.1,4.28,0.51,-0.4088888888888889,-0.4011111111111111,-0.028361600344907853,0.10471975511965977,0.02399827721492203
1592181569.9031162,-8.86668800512123,-0.3166840041609987,4.613360006401536,0.51,-0.4088888888888889,-0.4011111111111111,0.028002499933673923,0.001082538478396497,0.040362048263542546
1592181569.9131162,-8.699838769491585,-0.12649566461228742,4.519882741448426,0.51,-0.4088888888888889,-0.4011111111111111,0.08293511677912271,-0.006535391502161118,-0.029142116382225573
1592181569.9231162,-8.637321940824522,-0.21821653962789936,4.723931644947136,0.49632921709513794,-0.3962697046690162,-0.37482114398637634,-0.1275712787052325,0.15176347543226293,0.058438704423488516
1592181569.9331162,-8.678976572428843,-0.25923242932163154,4.54511713785579,0.4955555555555556,-0.39555555555555555,-0.37333333333333335,-0.039739664063281846,0.11889820115043505,-0.028087212053696492
1592181569.9431162,-8.68,-0.1693558044129061,4.358711608825812,0.4955555555555556,-0.39555555555555555,-0.37333333333333335,-0.04499844490896202,-0.006775898779682377,-0.08195955088643712
1592181569.9531162,-8.670914258188825,-0.42348651252408487,4.548972061657033,0.4955555555555556,-0.39555555555555555,-0.37333333333333335,-0.0240106777960718,-0.019634954084936207,-0.08131985849004938
1592181569.9631162,-8.8395014163257,-0.4217497639457168,4.471124173810009,0.4955555555555556,-0.39555555555555555,-0.37333333333333335,0.012081234160954583,0.00964046166082699,-0.06993579841945656
1592181569.9731162,-9.13,-0.95,4.71,0.5022222222222222,-0.4011111111111111,-0.38,-0.01308996938995747,-0.06981317007977318,-0.02617993877991494
1592181569.9831161,-8.86877188992495,-0.7837639299522401,4.377527859904481,0.5022222222222222,-0.4011111111111111,-0.38,-0.04763004984125909,-0.09053721835055416,0.0014521255811263574
1592181569.9931161,-8.259132212039159,-0.6640887315142678,4.394377994167882,0.5022222222222222,-0.4011111111111111,-0.38,-0.03602161358916827,-0.11255437854020606,-0.01818541697087002
1592181570.0031161,-8.545311337732453,-0.7173293341331733,4.314005998800241,0.5022222222222222,-0.4011111111111111,-0.38,-0.01770901937645176,-0.153313485417594,-0.013381293843687178
1592181570.0131161,-8.936527399274581,-0.8903487893343789,4.573863542789923,0.5022222222222222,-0.4011111111111111,-0.38,0.00698315626780076,-0.014764893486849784,-0.09962015061825927
1592181570.023116,-8.53555910543131,-0.510479233226837,4.327074902378417,0.5086968011675147,-0.4011111111111111,-0.38,0.04432947331154749,-0.1185319110234106,-0.03265831967844732
1592181570.033116,-8.39534314072188,-0.5672916519320084,4.613897022420256,0.51,-0.4011111111111111,-0.38,-0.00274846050047213,-0.1500266634394782,-0.06761546121279574
1592181570.043116,-8.873135868869253,-0.4877981815853502,4.456305288769369,0.51,-0.4011111111111111,-0.38,-0.01090830782496456,-0.09775536840888294,-0.02973720096133916
1592181570.053116,-8.490801154817756,-0.33328040418621435,4.537813063875857,0.51,-0.4011111111111111,-0.38,-0.023102307939944788,-0.11210244746716556,-0.04294668893801276
1592181570.063116,-8.462444795256339,-0.23685982711818726,4.5402317925418245,0.51,-0.4011111111111111,-0.38,0.042493028259894,-0.15831072603434992,-0.015473908106770753
1592181570.073116,-8.697267427304267,-0.254948317178726,4.40641796916914,0.5148539329414897,-0.3904324586398337,-0.36737977435212676,-0.0453589592290182,-0.19877290264317451,0.07270865688875033
1592181570.083116,-8.363135524329346,-0.4205890140517942,4.613040297294158,0.5155555555555555,-0.3888888888888889,-0.3655555555555556,0.020426746992022016,-0.1414654876994883,0.04592165772183501
1592181570.093116,-8.618227690667615,-0.5725456402967175,4.524022564740372,0.5155555555555555,-0.3888888888888889,-0.3655555555555556,-0.0037956434139227307,-0.128750253827513,0.016149218443626965
1592181570.103116,-8.630165788771027,-0.566777192514018,4.508305701871495,0.5155555555555555,-0.3888888888888889,-0.3655555555555556,0.10596717917952311,-0.1946720545624116,-0.016272037990032573
1592181570.113116,-8.476039492293095,-0.39726203476610755,4.503740847491004,0.5155555555555555,-0.3888888888888889,-0.3655555555555556,0.05129058648182319,-0.06428471102170294,-0.005430192699962845
1592181570.123116,-8.55771186103032,-0.48448304713335194,4.793495756803059,0.5043747648202009,-0.4056600749919209,-0.3832584742198671,0.013510586160067863,0.06938238340635572,0.06656471173454369
1592181570.133116,-8.704512024282046,-0.5145470464627597,4.85545295353724,0.5022222222222222,-0.4088888888888889,-0.38666666666666666,0.023599180358472825,-0.028528675991257996,0.03333311957776585
1592181570.143116,-8.54841998596929,-0.28200561228466753,4.592696235092369,0.5022222222222222,-0.4088888888888889,-0.38666666666666666,0.06141677456102971,0.03827303389331241,-0.08326229990509311
1592181570.153116,-8.527689369828135,-0.40280925100785064,4.6948610227031615,0.5022222222222222,-0.4088888888888889,-0.38666666666666666,-0.07064361795747258,0.11973725235952823,-0.1818842868191343
1592181570.163116,-8.739284089506445,-0.4793064837509478,4.587606284495072,0.5022222222222222,-0.4088888888888889,-0.38666666666666666,0.07531854654826378,0.04733035344323187,-0.17239275332775958
1592181570.173116,-8.686737811257586,-0.7628365766896841,4.735106089139987,0.5022222222222222,-0.40287628746134707,-0.36347520401757694,0.03448901529025297,0.011016592010613504,-0.05127689875032315
1592181570.183116,-8.699530450510483,-0.7704695494895166,4.627482567409981,0.5022222222222222,-0.4011111111111111,-0.3566666666666667,0.08143196261059374,0.0269340369871535,0.03317170225989009
1592181570.193116,-8.621958254819539,-0.7159791274097695,4.4855457312654,0.5022222222222222,-0.4011111111111111,-0.3566666666666667,-0.06151027023190336,-0.07151859127415015,-0.043062438558183744
1592181570.203116,-8.757914777514745,-0.7892400593828993,4.586218753761586,0.5022222222222222,-0.4011111111111111,-0.3566666666666667,-0.03795564155923952,-0.07355980157049508,-0.006136541375063122
1592181570.213116,-8.584103363999445,-0.5960891767838337,4.52205674886244,0.5022222222222222,-0.4011111111111111,-0.3566666666666667,0.03096986654481036,0.007393772292939291,-0.016562499039325745
1592181570.223116,-8.472352895871843,-0.3528342575477511,4.594705791743684,0.5022222222222222,-0.40764111384952423,-0.3566666666666667,-0.07437476497860462,-0.026051566210933526,-0.004736678952337509
1592181570.233116,-8.523862475753138,-0.3496749930723249,4.61065001385535,0.5022222222222222,-0.4088888888888889,-0.3566666666666667,-0.061236539501619065,-0.04145156973486533,0.0339139078684354
1592181570.243116,-8.790991608152082,-0.5167443055317692,4.655997602329166,0.5022222222222222,-0.4088888888888889,-0.3566666666666667,-0.04161447510262298,0.055737922123813594,0.06365004154499701
1592181570.253116,-8.714074406095921,-0.47558942178395336,4.635656656207979,0.5022222222222222,-0.4088888888888889,-0.3566666666666667,0.015374308886068382,0.028905304437304116,0.057024389287761844
1592181570.263116,-8.548059018643485,-0.42599508177970946,4.604004918220291,0.5022222222222222,-0.4088888888888889,-0.3566666666666667,0.03492804482423857,-0.08567438365655668,-0.047042342623309356
1592181570.2731159,-8.711034873830451,-0.5289225971080238,4.679138077686419,0.49782566235075454,-0.41181992880320073,-0.3566666666666667,-0.04585262503254736,-0.03278585164732119,-0.002661045662772754
1592181570.2831159,-8.497269064951587,-0.31594741677857086,4.485286592692063,0.4955555555555556,-0.41333333333333333,-0.3566666666666667,-0.07693961252876903,-0.050192555843981385,0.083345207722387
1592181570.2931159,-8.634498623112716,-0.2781711138543348,4.356371664609249,0.4955555555555556,-0.41333333333333333,-0.3566666666666667,-0.05256258915809649,-0.04938984707587576,-0.006129928295257589
1592181570.3031158,-8.513655827392654,-0.3865376690429387,4.577978589868081,0.4955555555555556,-0.41333333333333333,-0.3566666666666667,-0.07352591649174216,0.029955257537648217,0.058631218040797246
1592181570.3131158,-8.532102028820292,-0.40925241801891665,4.696868954952708,0.4955555555555556,-0.41333333333333333,-0.3566666666666667,-0.08156766305601258,0.06258509732100068,-0.0049946102841745554
1592181570.3231158,-8.732523104977412,-0.4463330432259936,4.6802859629491484,0.5176189094726954,-0.41039155281104805,-0.3426932091858115,-0.06843151438021429,0.05174703400694655,-0.018721204166754005
1592181570.3331158,-8.77727269035533,-0.44030294416243654,4.60909076142132,0.5288888888888889,-0.4088888888888889,-0.33555555555555555,-0.058640405005204406,0.04363323129985824,0.10154666680367992
1592181570.3431158,-8.573332918326694,-0.31012325697211157,4.422468874501992,0.5288888888888889,-0.4088888888888889,-0.33555555555555555,-0.10288834910596895,0.07379948296919499,0.1523794992481354
1592181570.3531158,-8.590866087974252,-0.32043304398712574,4.434842485126304,0.5288888888888889,-0.4088888888888889,-0.33555555555555555,-0.07907666722519076,0.08883828879503518,0.05864292668604763
1592181570.3631158,-8.671850230849769,-0.3556938365686628,4.371068259444244,0.5288888888888889,-0.4088888888888889,-0.33555555555555555,-0.0074459877428283,0.08602426015979621,0.011040451443776841
1592181570.3731158,-8.71,-0.4113056886851427,4.402115440716816,0.5210211386631474,-0.4088888888888889,-0.3480128267463129,-0.0596060034574943,0.10350086139428803,-0.052496805349656075
1592181570.3831158,-8.634413211855827,-0.3795305694846623,4.359061138969325,0.5155555555555555,-0.4088888888888889,-0.3566666666666667,-0.1331069589273863,0.08317971850138275,-0.07135980413365249
1592181570.3931158,-8.69563137077636,-0.5169908464233246,4.441311108599842,0.5155555555555555,-0.4088888888888889,-0.3566666666666667,-0.06489359598098443,0.054869786859892467,-0.08164290879331323
1592181570.4031157,-8.84006462832836,-0.5662419214589551,4.510637117811567,0.5155555555555555,-0.4088888888888889,-0.3566666666666667,-0.06860449132408841,-0.03754753837943724,-0.004723916906550302
1592181570.4131157,-8.839273515618087,-0.45347438279798247,4.4591282187417045,0.5155555555555555,-0.4088888888888889,-0.3566666666666667,-0.04527601222663142,-0.019917463910103066,0.07367209135708991
1592181570.4231157,-8.77339039616789,-0.37768267305351605,4.505194157603361,0.5192465786293577,-0.4088888888888889,-0.365894224351172,-0.07697211917331828,-0.010993025061125303,0.007152567461498616
1592181570.4331157,-8.774682225263511,-0.4073411126317559,4.567976662104732,0.5222222222222223,-0.4088888888888889,-0.37333333333333335,-0.11036916326354043,-0.12247013264922772,0.04157885820764819
1592181570.4431157,-8.655024291497975,-0.34751214574898787,4.462796671165092,0.5222222222222223,-0.4088888888888889,-0.37333333333333335,-0.14419367269026223,-0.07446377475794279,-0.02397707888392614
1592181570.4531157,-8.71856698108824,-0.3990446540588263,4.47928349054412,0.5222222222222223,-0.4088888888888889,-0.37333333333333335,-0.07127969147887034,-0.01414719481913414,0.025726089106271832
1592181570.4631157,-8.677376093817243,-0.3862446205709367,4.524660558026108,0.5222222222222223,-0.4088888888888889,-0.37333333333333335,-0.11835218631730221,0.006396875193381705,0.000661798319735063
1592181570.4731157,-8.673927654894293,-0.3190602468532323,4.561879506293535,0.5258688066044781,-0.4088888888888889,-0.3690789848873681,-0.2218486935109574,-0.035837050500209855,0.0038007781095611565
1592181570.4831157,-8.673138773524899,-0.26656938676244996,4.526546937553785,0.5288888888888889,-0.4088888888888889,-0.3655555555555556,-0.23272607618155203,-0.018049908839714808,0.008584614190413231
1592181570.4931157,-8.681983770067584,-0.264925759364872,4.426066125668919,0.5288888888888889,-0.4088888888888889,-0.3655555555555556,-0.20483992220025896,0.028033334357099343,0.05225017237121765
1592181570.5031157,-8.59286345400707,-0.19446269939822333,4.3735082147292,0.5288888888888889,-0.4088888888888889,-0.3655555555555556,-0.16548082188060872,0.02225929351595608,0.027647934021762022
1592181570.5131156,-8.437017004309189,-0.21423713054517496,4.504914978454056,0.5288888888888889,-0.4088888888888889,-0.3655555555555556,-0.19723323334605541,-0.016891132475365313,0.03758728993638225
1592181570.5231156,-8.540948638346366,-0.38804417023617715,4.709441191496051,0.5224084917235386,-0.4051086572091013,-0.3542148605161927,-0.17056016124181816,0.018238611808477703,0.16080291201596528
1592181570.5331156,-8.703782828765162,-0.32906312673097127,4.592171712348391,0.5155555555555555,-0.4011111111111111,-0.3422222222222222,-0.11628999960702358,0.037345249712550085,0.11894930983382015
1592181570.5431156,-8.619692225344574,-0.27,4.497747223337348,0.5155555555555555,-0.4011111111111111,-0.3422222222222222,-0.09096686481458016,-0.0325091804136693,0.13096326365814254
1592181570.5531156,-8.656059231968259,-0.45441263993198244,4.682853903925181,0.5155555555555555,-0.4011111111111111,-0.3422222222222222,-0.06528939883412471,-0.02519808287366335,0.133020298619012
1592181570.5631156,-8.641751850734082,-0.41075431837952026,4.641654565144064,0.5155555555555555,-0.4011111111111111,-0.3422222222222222,-0.09731748575940496,-0.0937928371936464,0.1482813152603279
1592181570.5731156,-8.56,-0.1966549003322259,4.510035299003323,0.5186682355112587,-0.4104491509782207,-0.35674806201550385,-0.1167795508042704,-0.04894201660847708,0.11952347946529097
1592181570.5831156,-8.57692768973171,-0.22924691406097894,4.636551146762198,0.5222222222222223,-0.4211111111111111,-0.37333333333333335,-0.05667231422599301,0.08885345764257432,0.03322435840112682
1592181570.5931156,-8.679478034832337,-0.35976449181180137,4.62388926436184,0.5222222222222223,-0.4211111111111111,-0.37333333333333335,0.0063908449462485376,0.034616339552763276,0.04093357397883088
1592181570.6031156,-8.73374601976555,-0.3790475741208104,4.580920584003586,0.5222222222222223,-0.4211111111111111,-0.37333333333333335,-0.014662163313943329,0.02318796930011808,0.09721899096131857
1592181570.6131155,-8.656325127242537,-0.4176964588672707,4.618775042414179,0.5222222222222223,-0.4211111111111111,-0.37333333333333335,-0.030906307782716604,-0.03208285991717837,0.10545762026181771
1592181570.6231155,-8.576356880326346,-0.47634759077507166,4.620901490367139,0.5287866589478125,-0.4211111111111111,-0.36323419990934835,-0.050182269326231196,-0.02737620023661124,0.03769651066171323
1592181570.6331155,-8.631304577930669,-0.5880746985219067,4.660310361773712,0.5366666666666666,-0.4211111111111111,-0.3511111111111111,-0.017304098637545375,0.010271367883693615,-0.03425587208680777
1592181570.6431155,-8.695391498881431,-0.6138255033557047,4.545302013422819,0.5366666666666666,-0.4211111111111111,-0.3511111111111111,-0.03430138138427334,-0.027888174904629748,0.04296945954854048
1592181570.6531155,-8.615257543638085,-0.5322060349104686,4.523896982544765,0.5366666666666666,-0.4211111111111111,-0.3511111111111111,-0.04772658967843194,-0.043066438164034,0.034438734698866394
1592181570.6631155,-8.537536269097446,-0.4633816921299268,4.587391192707664,0.5366666666666666,-0.4211111111111111,-0.3511111111111111,-0.05481547223697623,-0.08322973048074384,0.08880502557012424
1592181570.6731155,-8.497571258907364,-0.4250475059382423,4.6512143705463185,0.5287750725785167,-0.4211111111111111,-0.34197347585114807,-0.08757285390620152,-0.0696437803828475,0.1273852625394592
1592181570.6831155,-8.513742765273312,-0.4119428367274026,4.664028581636298,0.5155555555555555,-0.4211111111111111,-0.32666666666666666,-0.03463861246180708,-0.0032038234000524787,-0.0024184564143837142
1592181570.6931155,-8.577770504171845,-0.4033376974968933,4.565580285815729,0.5155555555555555,-0.4211111111111111,-0.32666666666666666,-0.053318396939496464,-0.012128593671920256,-0.01115579260040047
1592181570.7031155,-8.631359114440441,-0.3377348092659303,4.495226519073407,0.5155555555555555,-0.4211111111111111,-0.32666666666666666,-0.012009990444097729,0.05071820546776684,-0.05606990451013226
1592181570.7131155,-8.62024360624241,-0.313853836254554,4.503975639375759,0.5155555555555555,-0.4211111111111111,-0.32666666666666666,0.07493754989678396,0.047788752658550496,-0.10432594011674584
1592181570.7231154,-8.589733606557377,-0.34669626593806924,4.539733606557377,0.5177580449301761,-0.4170732139243068,-0.33437537947783846,0.07586986394633935,-0.04476479437933315,-0.1294892139328631
1592181570.7331154,-8.626251007990616,-0.35781174400703764,4.611874496004692,0.5222222222222223,-0.4088888888888889,-0.35,0.09241082408852078,-0.06211154170485685,-0.12214234028526845
1592181570.7431154,-8.615534859316586,-0.38106971863317374,4.614465140683413,0.5222222222222223,-0.4088888888888889,-0.35,0.09785024701486901,-0.08135542894846445,-0.016915711192490135
1592181570.7531154,-8.609835624202919,-0.4255753152897832,4.599835624202919,0.5222222222222223,-0.4088888888888889,-0.35,0.11704311330573583,-0.05056828422207657,0.0018230492062864083
1592181570.7631154,-8.619024284787779,-0.5208777113208907,4.692731137854003,0.5222222222222223,-0.4088888888888889,-0.35,0.12466890179936707,0.026488550270300552,0.0301705070226342
1592181570.7731154,-8.559825303819444,-0.5298253038194445,4.791685836226852,0.5261692627957819,-0.4088888888888889,-0.3460529594264403,0.07769640308607632,0.07316824014817419,0.03346670261051708
1592181570.7831154,-8.414287152686214,-0.3633344520892767,4.699048977536979,0.5366666666666666,-0.4088888888888889,-0.33555555555555555,0.10679694400284909,0.07853816883562628,-0.15630020632625907
1592181570.7931154,-8.561809783749737,-0.35273777031282805,4.599721464063266,0.5366666666666666,-0.4088888888888889,-0.33555555555555555,0.11862977519654963,-0.019634954084936207,-0.040143015571328905
1592181570.8031154,-8.554518442094402,-0.28545679649213307,4.490024761413464,0.5366666666666666,-0.4088888888888889,-0.33555555555555555,0.07265191862166633,0.0017938356298386401,0.012874448012760595
1592181570.8131154,-8.801993155178835,-0.41511145000265987,4.63059794655365,0.5366666666666666,-0.4088888888888889,-0.33555555555555555,0.05570274109499719,0.058224555858262944,-0.027463874446025716
1592181570.8231153,-8.957391944990176,-0.5961738703339882,4.855130157170923,0.5335217474350578,-0.4138309048242742,-0.3378019264352761,0.11567079072208214,0.05791850691562592,-0.02784940278691836
1592181570.8331153,-8.582291279458776,-0.5668738383763289,4.943887443312764,0.5288888888888889,-0.4211111111111111,-0.3411111111111111,0.07643357464150694,-0.011786908724345024,-0.016165478020943688
1592181570.8431153,-8.730057448013593,-0.4402308708903093,4.666184696712247,0.5288888888888889,-0.4211111111111111,-0.3411111111111111,0.0036444580832043078,0.05734109394153485,-0.01083263782004019
1592181570.8531153,-8.668430067717974,-0.33597745858424916,4.4735248494505235,0.5288888888888889,-0.4211111111111111,-0.3411111111111111,0.10540540630742992,0.08154477053318424,-0.047131905468804386
1592181570.8631153,-8.460360391818131,-0.06339477698344145,4.1939312296693805,0.5288888888888889,-0.4211111111111111,-0.3411111111111111,0.1205939661870884,0.08481231887061404,-0.05267077024677887
1592181570.8731153,-8.597704726251754,-0.26327562002807675,4.481061066916237,0.5263206468049706,-0.41811482867987315,-0.3445354338896688,0.057206341230589174,0.056831416003755464,-0.0050075105176837775
1592181570.8831153,-8.614403492536113,-0.45698708405423893,4.766060032994004,0.5222222222222223,-0.41333333333333333,-0.35,0.03716409079238821,-0.003546856940149624,0.020451420274772408
1592181570.8931153,-8.846207660483117,-0.2788538636060323,4.462469237955425,0.5222222222222223,-0.41333333333333333,-0.35,0.0598245200980205,-0.05117840868242056,-0.04235946471577563
1592181570.9031153,-8.622093084871501,-0.3217442373929171,4.442093084871501,0.5222222222222223,-0.41333333333333333,-0.35,0.1464439602969401,0.08784352489655951,-0.018265033240009984
1592181570.9131153,-8.569910217049836,-0.28982043409967156,4.439461302299015,0.5222222222222223,-0.41333333333333333,-0.35,0.1612413359188438,0.1058615798658032,-0.06755315811015429
1592181570.9231153,-8.60005452067242,-0.33502726033621083,4.578433287899439,0.5246427549766941,-0.41333333333333333,-0.3436693758729197,0.06063329131158117,-0.0033617015891292453,-0.07813853995466474
1592181570.9331152,-8.635273398106014,-0.26182265404009347,4.478554175378182,0.5366666666666666,-0.41333333333333333,-0.31222222222222223,0.12526794291540766,-0.0101183912529145,-0.060768410678557455
1592181570.9431152,-8.525508483999378,-0.230868637000467,4.417012698200903,0.5366666666666666,-0.41333333333333333,-0.31222222222222223,0.12378849217223335,0.05113962782066257,-0.06307867818900949
1592181570.9531152,-8.523577451444813,-0.3963145428706774,4.669261724301279,0.5366666666666666,-0.41333333333333333,-0.31222222222222223,0.10694789713414846,0.07650679403320057,-0.06182116812272679
1592181570.9631152,-8.598521350259666,-0.34174264281592615,4.57997114829775,0.5366666666666666,-0.41333333333333333,-0.31222222222222223,0.067312064416617,0.08511045097955147,-0.07302019999138279
1592181570.9731152,-8.521531245154288,-0.020918747092572493,4.149201038920763,0.5341855326407194,-0.4146693285780741,-0.31126793990455026,0.09207134469352724,-0.025697699896227954,-0.0489871654513498
1592181570.9831152,-8.589534012799241,-0.34558852808722446,4.533872955676701,0.5222222222222223,-0.4211111111111111,-0.30666666666666664,0.054707219230398466,-0.0452320132924264,-0.03485311649145799
1592181570.9931152,-8.527321688175169,-0.4754335622106417,4.617206280333699,0.5222222222222223,-0.4211111111111111,-0.30666666666666664,0.03690326575021537,-0.03887896472287451,-0.0802422403779417
1592181571.0031152,-8.573511861152515,-0.4676810752090544,4.485429098350302,0.5222222222222223,-0.4211111111111111,-0.30666666666666664,0.075635802844105,-0.006386966765391924,-0.1256984954415182
1592181571.0131152,-8.552896757211274,-0.5982692940445289,4.649194786677878,0.5222222222222223,-0.4211111111111111,-0.30666666666666664,0.09066615140758577,0.04877795823755201,-0.06775469706035595
1592181571.0231152,-8.723435239119949,-0.6628093347679294,4.746091715207954,0.5260593543493406,-0.4211111111111111,-0.30666666666666664,0.08993957068984032,0.006508479320222246,0.005146124636127868
1592181571.0331151,-8.65,-0.56,4.68,0.5366666666666666,-0.4211111111111111,-0.30666666666666664,-0.002181661564992912,-0.07199483164476608,-0.03490658503988659
1592181571.0431151,-8.666605184329079,-0.3937384720617025,4.426043587989716,0.5366666666666666,-0.4211111111111111,-0.30666666666666664,0.06257875213131484,-0.02708333407757789,-0.07816309288484678
1592181571.0531151,-8.775222781044132,-0.3799043706169866,4.369904370616987,0.5366666666666666,-0.4211111111111111,-0.30666666666666664,0.140095296171374,0.05782090856657031,-0.12574071414513852
1592181571.0631151,-8.690293420428805,-0.3614697360796502,4.379410525206764,0.5366666666666666,-0.4211111111111111,-0.30666666666666664,0.0728616120020951,-0.03336621681802493,-0.03217936442474242
1592181571.073115,-8.824937906333943,-0.5238797835480983,4.6181122746914784,0.5366666666666666,-0.4208367829814476,-0.3059220617432942,-0.017523191981460372,-0.1007682697647606,-0.060751634905145596
1592181571.083115,-8.78267533580303,-0.45267533580302916,4.619425417706207,0.5366666666666666,-0.41333333333333333,-0.28555555555555556,0.14518699034105895,-0.06840051383998769,-0.11409544033466634
1592181571.093115,-8.55,-0.22,4.33,0.5366666666666666,-0.41333333333333333,-0.28555555555555556,0.04799655442984406,-0.08944812416470939,-0.11780972450961724
1592181571.103115,-8.603747141896436,-0.5087357094821788,4.660609280430397,0.5366666666666666,-0.41333333333333333,-0.28555555555555556,0.01432120703981763,-0.019634954084936207,-0.18152404281215415
1592181571.113115,-8.52348031581616,-0.18008818948969613,4.32651968418384,0.5366666666666666,-0.41333333333333333,-0.28555555555555556,0.04561356463814434,0.0005476475428983323,-0.07220647122688313
1592181571.123115,-8.570355987055017,-0.2549661665195646,4.46044498381877,0.5366666666666666,-0.4147537674479422,-0.28555555555555556,-0.04469261123896409,0.04264686224719485,-0.007662612879751878
1592181571.133115,-8.93,-0.68,4.91,0.5366666666666666,-0.4211111111111111,-0.28555555555555556,0.08726646259971647,0.04799655442984406,0.06544984694978735
1592181571.143115,-8.378332952075946,-0.24305472949788404,4.428943440466659,0.5366666666666666,-0.4211111111111111,-0.28555555555555556,0.12785156234982345,0.046311774208931226,0.01651997904991416
1592181571.153115,-8.58,-0.68,4.96,0.5366666666666666,-0.4211111111111111,-0.28555555555555556,0.056723200689815706,0.074176493209759,0.04145156973486533
1592181571.163115,-8.415725716302877,-0.335725716302877,4.5071504775352516,0.5366666666666666,-0.4211111111111111,-0.28555555555555556,0.007397822646283938,0.054718327687246576,-0.0038174050123076647
1592181571.173115,-8.590791528175002,-0.519454664914586,4.632524155522919,0.5376292374155093,-0.4211111111111111,-0.2840154423574073,0.08523640602405096,0.042002255043706964,-0.12023510922347047
1592181571.183115,-8.69,-0.66,4.74,0.5422222222222223,-0.4211111111111111,-0.27666666666666667,0.01308996938995747,0.06544984694978735,0.008726646259971648
1592181571.193115,-8.631711664104536,-0.6137600883935435,4.5177762298232125,0.5422222222222223,-0.4211111111111111,-0.27666666666666667,0.004457439775132039,0.025394829883711924,-0.006768433121985119
1592181571.203115,-8.707996240601503,-0.5247460056390977,4.394247415413534,0.5422222222222223,-0.4211111111111111,-0.27666666666666667,0.04674153516067767,-0.038284777249852825,0.0059446689386903895
1592181571.213115,-8.581126403541655,-0.4406695942448098,4.376620789375034,0.5422222222222223,-0.4211111111111111,-0.27666666666666667,0.03157265690955968,0.048610912258219494,-0.0223777356240168
1592181571.223115,-8.521228154733215,-0.5380042485585248,4.556315535800353,0.5422222222222223,-0.4211111111111111,-0.27666666666666667,0.03483959959045358,0.015941485449280486,-0.07954923253966006
1592181571.233115,-8.687252976614012,-0.40933447179925053,4.517724965608842,0.5366666666666666,-0.43555555555555553,-0.27111111111111114,-0.018907112626438252,0.03685415341859735,-0.012284717806199118
1592181571.243115,-8.833701522077188,-0.5821269025964846,4.659664247679186,0.5366666666666666,-0.43555555555555553,-0.27111111111111114,0.10492246428467437,0.06968535561576689,0.021710776123933163
1592181571.253115,-8.617246564017774,-0.39850883538286663,4.382276015293996,0.5366666666666666,-0.43555555555555553,-0.27111111111111114,0.02721440752962766,0.11723612810197714,0.03238675127819125
1592181571.263115,-8.732969160804377,-0.4722331770056136,4.630417288424643,0.5366666666666666,-0.43555555555555553,-0.27111111111111114,-0.04839134401862755,0.1246424542889648,-0.11842273063790355
1592181571.273115,-9.135533108441042,-0.357789864685593,4.355564189061138,0.5362338964063559,-0.4362356231074724,-0.27111111111111114,-0.17525619028976425,0.17453123001457596,-0.1087019510786244
1592181571.283115,-8.89,-0.49,4.45,0.5288888888888889,-0.4477777777777778,-0.27111111111111114,-0.13199052468207118,0.15598880189699318,0.08290313946973066
1592181571.293115,-8.316748340735565,-0.2991870851838914,4.300270971605369,0.5288888888888889,-0.4477777777777778,-0.27111111111111114,-0.05353938359282221,0.061971861004617254,0.025296016915242178
1592181571.303115,-8.762707784345844,-0.44238159675236804,4.3196246706075065,0.5288888888888889,-0.4477777777777778,-0.27111111111111114,-0.05385818697306446,0.05196653832104493,0.0003772576226624023
1592181571.313115,-8.90067265499006,-0.5156805310730225,4.389968495668154,0.5288888888888889,-0.4477777777777778,-0.27111111111111114,-0.07370531224280061,0.11117933647448694,-0.018395654453860086
1592181571.3231149,-8.61113460360912,-0.2805763065951086,4.170576306595109,0.5289129016636851,-0.44774175861558346,-0.27109510259458036,-0.04790618556481716,0.05877913165998858,-0.06969922672821753
1592181571.3331149,-9.009180859691808,-0.50495682457898,4.384773627212442,0.5422222222222223,-0.42777777777777776,-0.26222222222222225,-0.06261585181966906,0.012789068498568963,-0.007285527705089158
1592181571.3431149,-8.56,-0.32,4.18,0.5422222222222223,-0.42777777777777776,-0.26222222222222225,-0.18871372537188688,0.05890486225480862,-0.008726646259971648
1592181571.3531148,-9.042615705384634,-0.5165893277086819,4.364006594418988,0.5422222222222223,-0.42777777777777776,-0.26222222222222225,-0.0394577298348975,0.1617354783998504,0.03316557182502716
1592181571.3631148,-8.753448333959746,-0.3936083930584896,4.334919970450628,0.5422222222222223,-0.42777777777777776,-0.26338806879301185,-0.03415563246786457,0.07972133880395975,-0.023499225560259258
1592181571.3731148,-9.057859744164647,-0.491454917767208,4.438202413198719,0.5422222222222223,-0.42777777777777776,-0.2682199959391214,-0.040085299196340685,0.1479125061814351,-0.11185125981455336
1592181571.3831148,-9.24,-0.55,4.5,0.5422222222222223,-0.42777777777777776,-0.27111111111111114,-0.04363323129985824,0.18871372537188688,-0.16471544815696484
1592181571.3931148,-8.200440275138506,-0.328077777480395,4.227740277814951,0.5422222222222223,-0.42777777777777776,-0.27111111111111114,-0.19842636143959533,0.07654541459433098,0.07887433816898351
1592181571.4031148,-8.548498174697192,-0.43093005826463265,4.257781592244276,0.5422222222222223,-0.42777777777777776,-0.27111111111111114,-0.16505514767850188,0.023822401420408368,-0.023475212211415644
1592181571.4131148,-8.11,-0.52,4.34,0.5422222222222223,-0.42777777777777776,-0.27111111111111114,-0.08508480103472357,0.15162547876700738,-0.06981317007977318
1592181571.4231148,-9.302529565977279,-0.559099330032042,4.447523157588115,0.5422222222222223,-0.42777777777777776,-0.27111111111111114,-0.15225973665367828,-0.022176338786796063,-0.01649972911234881
1592181571.4331148,-8.58,-0.4,4.27,0.5555555555555556,-0.4011111111111111,-0.2577777777777778,-0.061086523819801536,0.10690141668465267,-0.019634954084936207
1592181571.4431148,-8.801384219893217,-0.43764739116924206,4.307647391169242,0.5555555555555556,-0.4011111111111111,-0.2577777777777778,-0.10362488753294548,0.13491566697503074,0.15080619240258372
1592181571.4531147,-8.82749597636263,-0.5415861538831103,4.40863124264335,0.5555555555555556,-0.4011111111111111,-0.2577777777777778,-0.023506435138786197,0.058999719384036746,0.07896402685495862
1592181571.4631147,-8.75,-0.45,4.31,0.5555555555555556,-0.4011111111111111,-0.2577777777777778,-0.10035643198967394,-0.02399827721492203,0.13199052468207118
1592181571.4731147,-8.665822802623062,-0.5005063184261631,4.402594917114632,0.5555555555555556,-0.4011111111111111,-0.2577777777777778,0.0263594157649273,-0.07174627781810511,0.1411728324903756
1592181571.4831147,-8.34424096573614,-0.4105356817649661,4.361071363529932,0.5422222222222223,-0.41333333333333333,-0.23444444444444446,0.03144908538508671,0.062128626646069704,0.05556423023177813
1592181571.4931147,-8.44,-0.44,4.42,0.5422222222222223,-0.41333333333333333,-0.23444444444444446,-0.008726646259971648,0.08944812416470939,0.02181661564992912
1592181571.5031147,-8.921732566669032,-0.5490395400014197,4.433465133338066,0.5422222222222223,-0.41333333333333333,-0.23444444444444446,-0.0499686761284754,-0.030793894097923782,0.025276062573922165
1592181571.5131147,-8.820338481387319,-0.49438242325351955,4.27561757674648,0.5422222222222223,-0.41333333333333333,-0.23444444444444446,-0.04264021227082587,-0.054371827660919816,0.08303981928773252
1592181571.5231147,-8.70892763632224,-0.46255075323492584,4.307449246765074,0.5422222222222223,-0.41333333333333333,-0.23444444444444446,-0.061737843303829226,0.09493692405165186,-0.06453278414911158
1592181571.5331147,-8.8,-0.38,4.32,0.5422222222222223,-0.41333333333333333,-0.23444444444444446,0.07853981633974483,0.11780972450961724,-0.1112647398146385
1592181571.5431147,-8.567071091571949,-0.5420437486596612,4.646131245978983,0.5422222222222223,-0.41333333333333333,-0.23444444444444446,-0.07010172675363323,-0.0047722969484502095,-0.1802279134011239
1592181571.5531147,-8.459380688074425,-0.4943897889935057,4.450637513763735,0.5422222222222223,-0.41333333333333333,-0.23444444444444446,0.029851813297225548,0.09767804911557544,-0.11281456716804901
1592181571.5631146,-8.551310802502622,-0.6125659108169687,4.532669885356769,0.5422222222222223,-0.41333333333333333,-0.23444444444444446,-0.04201136463572333,-0.02191869241567754,0.023850024273595435
1592181571.5731146,-8.922944197316554,-0.7035781707714006,4.47957940038335,0.5422222222222223,-0.41333333333333333,-0.23444444444444446,-0.061867159584296116,0.1195538465929036,0.07018021248693196
1592181571.5831146,-8.911632215039477,-0.7444666172675474,4.378344022280706,0.5422222222222223,-0.41333333333333333,-0.23444444444444446,0.11534582995529047,0.027614683531934452,-0.05939468672197761
1592181571.5931146,-8.69,-0.49,4.05,0.5422222222222223,-0.41333333333333333,-0.23444444444444446,-0.01090830782496456,0.074176493209759,-0.0916297857297023
1592181571.6031146,-8.896385308422143,-0.678891753262285,4.218891753262286,0.5422222222222223,-0.41333333333333333,-0.23444444444444446,-0.015196777124445535,-0.09266596915724074,-0.010954344960069787
1592181571.6131146,-8.99902170046247,-0.564759871931697,4.150978299537531,0.5422222222222223,-0.41333333333333333,-0.23444444444444446,0.02187948103120426,-0.1712604328519436,0.023935411833646888
1592181571.6231146,-8.678219672714338,-0.6766675560298826,4.471780327285663,0.5422222222222223,-0.41333333333333333,-0.23444444444444446,-0.007417882155721367,-0.1712604328519436,0.05323277502057251
1592181571.6331146,-8.556725600627361,-0.6134512012547231,4.384829257859842,0.5422222222222223,-0.41333333333333333,-0.21333333333333335,0.03517130222699844,0.07677451664895779,0.11604178075761935
1592181571.6431146,-8.59767426060963,-0.5319661216540604,4.318224104352552,0.5422222222222223,-0.41333333333333333,-0.21333333333333335,0.0036114655799142116,-0.0034639398443041605,0.13040153516141123
1592181571.6531146,-8.97784383670234,-0.6537613951644867,4.295568767340467,0.5422222222222223,-0.41333333333333333,-0.21333333333333335,0.10038842623378996,0.08561919138239127,0.16166605080898724
1592181571.6631145,-8.498326238597746,-0.49087944911464854,4.2217588982292975,0.5422222222222223,-0.41333333333333333,-0.21333333333333335,0.035299604093412054,0.04398910240471847,-0.020922294394195396
1592181571.6731145,-8.48332248256126,-0.5884038633518154,4.416807726703631,0.5422222222222223,-0.41333333333333333,-0.21333333333333335,0.09749252805654766,0.027622543467051196,-0.05201875637576321
1592181571.6831145,-9.03015960185344,-0.5258606487043076,4.268673416852582,0.5288888888888889,-0.42777777777777776,-0.22,0.12281328125486612,0.11536523019730582,-0.033492455001963434
1592181571.6931145,-8.62,-0.37,4.08,0.5288888888888889,-0.42777777777777776,-0.22,-0.008726646259971648,-0.05017821599483697,0.032724923474893676
1592181571.7031145,-8.702749933065595,-0.6619274431057564,4.4089919678714855,0.5288888888888889,-0.42777777777777776,-0.22,0.05315949887158277,-0.014572301822771597,-0.050077018440316215
1592181571.7131145,-8.93784340219749,-0.5626078298901256,4.288254809230878,0.5288888888888889,-0.42777777777777776,-0.22,0.15992976409853596,0.12786570805855943,-0.16903715192096486
1592181571.7231145,-8.639560857660989,-0.5775219571169505,4.392653699818654,0.5288888888888889,-0.42777777777777776,-0.22,0.08265301600136211,0.10427596390258004,-0.06898409912146607
1592181571.7331145,-9.11,-0.77,4.84,0.5555555555555556,-0.42777777777777776,-0.19111111111111112,0.210530341021816,0.017453292519943295,-0.07635815477475191
1592181571.7431145,-8.31748925778957,-0.18312357651036654,4.146684355115171,0.5555555555555556,-0.42777777777777776,-0.19111111111111112,0.13240279104838787,0.03822387447203599,0.030117625573205232
1592181571.7531145,-8.860735920429596,-0.7716019892601117,4.650563182816178,0.5555555555555556,-0.42777777777777776,-0.19111111111111112,0.09376885633009016,-0.1122660026065292,0.04487996925156952
1592181571.7631145,-8.87,-0.54,4.28,0.5555555555555556,-0.42777777777777776,-0.19111111111111112,0.17562375598192942,0.02617993877991494,-0.02181661564992912
1592181571.7731144,-8.662135481852316,-0.34753285356695873,4.102930225281602,0.5555555555555556,-0.42777777777777776,-0.19111111111111112,0.09920228796870656,-0.024207842327704513,0.04368749978997617
1592181571.7831144,-8.85,-0.61,4.45,0.5555555555555556,-0.4211111111111111,-0.19111111111111112,0.09599310885968812,-0.006544984694978735,-0.017453292519943295
1592181571.7931144,-9.085701209176177,-0.4558876709232682,4.18710249745734,0.5555555555555556,-0.4211111111111111,-0.19111111111111112,0.07819317647531042,0.05081035298801607,-0.08074194099773066
1592181571.8031144,-8.66463832818808,-0.7222502968416054,4.345694609356447,0.5555555555555556,-0.4211111111111111,-0.19111111111111112,0.14001708087489131,0.1172674435407077,-0.043278808436735074
1592181571.8131144,-8.968706756306474,-0.5490321252866579,4.254194123757816,0.5555555555555556,-0.4211111111111111,-0.19111111111111112,0.21577258909754485,0.054048538944834884,0.012878811883774774
1592181571.8231144,-8.426117132832866,-0.5243689605833122,4.361067837472314,0.5555555555555556,-0.4211111111111111,-0.19111111111111112,0.07139133511079357,-0.014106587160712308,0.007498144033336838
1592181571.8331144,-8.868572910558838,-0.5,4.363095485093139,0.5555555555555556,-0.42777777777777776,-0.18222222222222223,0.11224882947663403,-0.050321291900998155,0.01910269990582626
1592181571.8431144,-8.444823412838842,-0.5003368957463373,4.285283459551278,0.5555555555555556,-0.42777777777777776,-0.18222222222222223,-0.0020113471261658765,0.016130306017794575,-0.030960941472028717
1592181571.8531144,-8.874429072301714,-0.5125641997536245,4.151864872548091,0.5555555555555556,-0.42777777777777776,-0.18222222222222223,0.0632630170403308,-0.02166404612136238,0.01688870257073495
1592181571.8631144,-9.055200234953535,-0.6177501101344689,4.231049948603915,0.5555555555555556,-0.42777777777777776,-0.18222222222222223,-0.026954497514646947,-0.016220607282335646,-0.09712762413239386
1592181571.8731143,-8.773638633073906,-0.4857681092533932,4.292641549015083,0.5555555555555556,-0.42777777777777776,-0.18222222222222223,0.05558831928204275,-0.07188901861033568,-0.03570041163253175
1592181571.8831143,-8.97,-0.62,4.28,0.5688888888888889,-0.43555555555555553,-0.18222222222222223,0.06326818538479445,0.08726646259971647,-0.1407171709420428
1592181571.8931143,-8.53750294002352,-0.502046256370051,4.240682085456684,0.5688888888888889,-0.43555555555555553,-0.18222222222222223,0.009656696025526247,0.06367740728163848,0.02762290564605932
1592181571.9031143,-9.019822989668377,-0.5799711003540207,4.1600288996459795,0.5688888888888889,-0.43555555555555553,-0.18222222222222223,0.06979110284336693,-0.0326902463891124,-0.10903263885214558
1592181571.9131143,-8.500817259608516,-0.58,4.319748535505072,0.5688888888888889,-0.43555555555555553,-0.18222222222222223,0.015357351333629206,-0.06104194922288855,-0.08076605250165073
1592181571.9231143,-8.567618680254046,-0.5499472532204241,4.274920879830636,0.5688888888888889,-0.43555555555555553,-0.18222222222222223,-0.017510830330782212,-0.06272564688408817,-0.05449550887615166
1592181571.9331143,-8.964369420043564,-0.5940781253739917,4.2217477680174245,0.5366666666666666,-0.41333333333333333,-0.15555555555555556,-0.033296879221114684,-0.06813991362253227,-0.05134306734432587
1592181571.9431143,-9.081095580628864,-0.7150494382563091,4.267707315899632,0.5366666666666666,-0.41333333333333333,-0.15555555555555556,-0.05069278307889862,-0.08146068259791647,-0.018613010419721566
1592181571.9531143,-8.291800565871752,-0.30088732494828696,3.93255831094415,0.5366666666666666,-0.41333333333333333,-0.15555555555555556,-0.002819628601485644,0.025456487584048275,-0.052906706448252225
1592181571.9631143,-9.462945209226001,-0.7752126903090528,4.447307138298842,0.5366666666666666,-0.41333333333333333,-0.15555555555555556,-0.012394339767971628,0.056620173915208516,-0.06662482952443884
1592181571.9731143,-9.027034734251071,-0.6528518552283709,4.378479168565959,0.5366666666666666,-0.41333333333333333,-0.15555555555555556,0.11690953303882157,-0.0017751234814077574,-0.09665669675698435
1592181571.9831142,-8.76,-0.53,4.32,0.5377777777777778,-0.4211111111111111,-0.15555555555555556,-0.01090830782496456,-0.05235987755982988,0.01308996938995747
1592181571.9931142,-9.108332260141662,-0.6792852543464263,4.353174500965872,0.5377777777777778,-0.4211111111111111,-0.15555555555555556,0.08860805100574881,-0.1328776587955889,-0.06471372933223662
1592181572.0031142,-8.090111741322474,-0.44662352142718637,4.079035291836339,0.5377777777777778,-0.4211111111111111,-0.15555555555555556,0.1346155676071495,-0.16560414103631546,0.14691628697632164
1592181572.0131142,-7.69,-0.31,4.04,0.5377777777777778,-0.4211111111111111,-0.15555555555555556,-0.02399827721492203,0.06326818538479445,-0.04363323129985824
1592181572.0231142,-9.15871436098589,-0.7134236871377553,4.437120192026228,0.5377777777777778,-0.4211111111111111,-0.15555555555555556,0.028259676222850347,0.03988962726789627,-0.02713071968793012
1592181572.0331142,-7.93,-0.35,4.14,0.5311111111111111,-0.41333333333333333,-0.15555555555555556,0.03490658503988659,0.039269908169872414,0.1712604328519436
1592181572.0431142,-8.49354200307935,-0.6992372976829773,4.584483833414699,0.5311111111111111,-0.41333333333333333,-0.15555555555555556,0.14486514623983127,0.2505288761445693,-0.027011303484964527
1592181572.0531142,-9.63,-0.85,4.55,0.5311111111111111,-0.41333333333333333,-0.15555555555555556,0.09599310885968812,-0.008726646259971648,0.02617993877991494
1592181572.0631142,-8.41794978078916,-0.3934057393383818,4.209629732961339,0.5311111111111111,-0.41333333333333333,-0.15555555555555556,0.03622505990277968,0.045607943700854206,0.08051452874074082
1592181572.0731142,-8.690368382152721,-0.44658264285992144,4.359873964289882,0.5311111111111111,-0.41333333333333333,-0.15555555555555556,0.1271317512772019,0.04712938914913851,0.10921844022094382
1592181572.0831141,-8.46,-0.25,4.29,0.5511111111111111,-0.4088888888888889,-0.13444444444444445,-0.06326818538479445,-0.13853550937704992,-0.039269908169872414
1592181572.0931141,-8.46,-0.25,4.29,0.5511111111111111,-0.4088888888888889,-0.13444444444444445,-0.06326818538479445,-0.13853550937704992,-0.039269908169872414
1592181572.1031141,-9.119717772692601,-0.3732439795140024,4.311748937561295,0.5511111111111111,-0.4088888888888889,-0.13444444444444445,0.0268845748133288,-0.0808061103028131,-0.08988198407057318
1592181572.113114,-8.709070815796132,-0.3525582465098093,4.3267441753490195,0.5511111111111111,-0.4088888888888889,-0.13444444444444445,0.016945999380218867,-0.09274593099182199,0.033637950771671685
1592181572.123114,-8.66207601753566,-0.2828987248815008,4.404202550236999,0.5511111111111111,-0.4088888888888889,-0.13444444444444445,0.029362687677621513,-0.08345131003586401,0.12209917982307912
1592181572.133114,-8.44182217928645,-0.2682591025683734,4.5408501282521065,0.5345929059743644,-0.41439495726780445,-0.13444444444444445,0.023150366042705362,-0.05501851187045218,-0.0577255484130704
1592181572.143114,-8.917861087664296,-0.26114506210056676,4.498015434703968,0.5311111111111111,-0.41555555555555557,-0.13444444444444445,0.11114790924656742,-0.08713313737589659,0.06603228981785614
1592181572.153114,-8.616505089232737,-0.005344379022319601,4.108016568533479,0.5311111111111111,-0.41555555555555557,-0.13444444444444445,0.05752114671819124,0.03985567767811428,0.00022678963961253462
1592181572.163114,-8.827225595902013,-0.37583839385301776,4.470429214689966,0.5311111111111111,-0.41555555555555557,-0.13444444444444445,0.02353232974968415,-0.05451107679537398,0.048392835088383886
1592181572.173114,-8.935003642292216,-0.29482881226585267,4.309766893298183,0.5311111111111111,-0.41555555555555557,-0.13444444444444445,0.036012513695361265,-0.04468512546256876,0.06435345379303577
1592181572.183114,-8.727618851049192,-0.105187478500172,4.1120061919504645,0.5311111111111111,-0.41304514008332377,-0.14097152467224705,0.04292147078102808,-0.011975948603209796,0.03700644367726195
1592181572.193114,-8.585310837438424,-0.16,4.0998460591133,0.5311111111111111,-0.41,-0.14888888888888888,0.05273446777582904,-0.05805234844375905,0.03684928480735429
1592181572.203114,-8.976959755611635,-0.4960419710452916,4.346041971045292,0.5311111111111111,-0.41,-0.14888888888888888,0.08348296478405538,-0.07377603414709195,-0.04889338568813242
1592181572.213114,-8.327538104224125,-0.3404272511733682,4.304170900469347,0.5311111111111111,-0.41,-0.14888888888888888,0.025115181951381488,-0.14551966073994183,0.12410587184435601
1592181572.223114,-8.581916129424643,-0.3965773628512347,4.371698698455176,0.5311111111111111,-0.41,-0.14888888888888888,-0.01617165591513448,-0.12653912405249082,0.06098889837907391
1592181572.233114,-8.9,-0.59,4.42,0.5377777777777778,-0.41,-0.12777777777777777,0.10690141668465267,-0.039269908169872414,-0.03490658503988659
1592181572.243114,-8.429825197266585,-0.41714161664212634,4.330113640653906,0.5377777777777778,-0.41,-0.12777777777777777,-0.024335818238569146,-0.07245633539183655,-0.013787949535000323
1592181572.253114,-9.123991022902416,-0.732642565503069,4.4634932266176355,0.5377777777777778,-0.41,-0.12777777777777777,0.01869516957876033,-0.05937673070405228,-0.026276683905150547
1592181572.263114,-8.890460610060817,-0.6421842440243271,4.434351515722974,0.5377777777777778,-0.41,-0.12777777777777777,-0.12401040143556984,-0.22303773858092535,0.03139212584351476
1592181572.273114,-8.758440808469683,-0.41418671799807505,4.372872954764196,0.5377777777777778,-0.41,-0.12777777777777777,-0.09906874772140456,-0.16549761267376933,0.03293385064112736
1592181572.283114,-8.708020280057944,-0.281979719942057,4.3640608401738294,0.5422334889210795,-0.42604056011588604,-0.12777777777777777,0.009379775265425827,-0.11888949423637617,0.08478562581287036
1592181572.293114,-8.68061588930924,-0.27020529643641367,4.55609936770814,0.5433333333333333,-0.43,-0.12777777777777777,0.060459481537146365,-0.1594787447047093,0.027657967017602134
1592181572.303114,-8.893381734507656,-0.29064984527493454,4.504933745933508,0.5433333333333333,-0.43,-0.12777777777777777,0.053578028193239,-0.0619908323190099,0.09751064723225897
1592181572.313114,-8.485544968324852,-0.22919929379997922,4.320698411049953,0.5433333333333333,-0.43,-0.12777777777777777,-0.0019531070833554987,-0.11302738482996283,-0.04492760868204837
1592181572.323114,-8.537737695233172,-0.4346981501310786,4.486995163017391,0.5433333333333333,-0.43,-0.12777777777777777,-0.0570774800371125,-0.008345864433079442,-0.06158765429263766
1592181572.333114,-9.071874541990326,-0.7987377253407592,4.486598636963213,0.5320072223036462,-0.41146636376960277,-0.10615520217564774,0.03871913694816638,-0.025104775799951774,-0.03464438916075803
1592181572.343114,-8.62270940296318,-0.5565996772773947,4.21001466920933,0.5311111111111111,-0.41,-0.10444444444444445,-0.0037219779963132762,-0.10596612169804688,-0.0284150457727139
1592181572.353114,-8.926116422123398,-0.9413591457406865,4.5826698266450085,0.5311111111111111,-0.41,-0.10444444444444445,-0.00969039306320088,-0.1119054754522788,-0.07925996857151466
1592181572.3631139,-8.549484725976605,-0.5152044111666626,4.2791892926345,0.5311111111111111,-0.41,-0.10444444444444445,0.10165223552045426,-0.15810188696517008,0.05764052876023838
1592181572.3731139,-8.598055726600986,-0.3419442733990148,4.25542487684729,0.5311111111111111,-0.41,-0.10444444444444445,0.06015958633221218,-0.01703062917641751,-0.034578798450072376
1592181572.3831139,-8.81164081632653,-0.5664326530612245,4.606979591836734,0.5236226757369615,-0.41,-0.1241015873015873,0.09636532703689916,0.04557624580386417,0.015777420248385465
1592181572.3931139,-8.785536969876397,-0.511073939752794,4.550181333728074,0.5222222222222223,-0.41,-0.12777777777777777,-0.022212910735110378,-0.010829186059969624,-0.010439713208606809
1592181572.4031138,-8.807134039300074,-0.4032164901749816,4.366082450874908,0.5222222222222223,-0.41,-0.12777777777777777,-0.019396514375981208,-0.0453875545470919,-0.019054668430551938
1592181572.4131138,-8.677132288565925,-0.526993521274733,4.453182236035721,0.5222222222222223,-0.41,-0.12777777777777777,-0.044571687672139926,-0.09384979159159348,0.04405301301098267
1592181572.4231138,-8.652247603623284,-0.56,4.4065143782602965,0.5222222222222223,-0.41,-0.12777777777777777,-0.011298986339898703,-0.05078915189946107,0.09364102616945105
1592181572.4331138,-9.013057851239669,-0.9388913525498892,4.644168514412417,0.5394445564290354,-0.4042592219310623,-0.0952467020537974,-0.014484016388753584,-0.13080954259523617,0.14286870877851285
1592181572.4431138,-8.881981636375071,-0.9490783598515816,4.697834098484372,0.5422222222222223,-0.4033333333333333,-0.09,0.025657127548331674,-0.09005137053197451,0.03787750565478969
1592181572.4531138,-8.776874483155359,-0.6100007190881962,4.230626325818862,0.5422222222222223,-0.4033333333333333,-0.09,0.06940418207416886,-0.06517695295832257,-0.0017047834330267686
1592181572.4631138,-8.848650459716378,-0.6760620227520648,4.320553218014648,0.5422222222222223,-0.4033333333333333,-0.09,0.030765269857842233,-0.04196800169952549,-0.00289120304639235
1592181572.4731138,-8.650353281739232,-0.6540753431401508,4.488303893188397,0.5422222222222223,-0.4033333333333333,-0.09,0.035829111551477395,-0.054353966324114676,-0.01819335872814258
1592181572.4831138,-8.769465150891415,-0.5729874283542861,4.577138288102853,0.5468972699860315,-0.4033333333333333,-0.10636266717333248,0.008644365031183321,-0.053183173448554055,-0.03144883902741326
1592181572.4931138,-8.730271739130435,-0.4352445652173913,4.490217391304348,0.5488888888888889,-0.4033333333333333,-0.11333333333333333,0.04788984272286071,0.03857924628856352,0.053827163530850944
1592181572.5031137,-8.498166901078292,-0.43363994374120957,4.522733239568683,0.5488888888888889,-0.4033333333333333,-0.11333333333333333,-0.02757607944386964,0.07497060574565234,0.0295470413921778
1592181572.5131137,-8.730050944033994,-0.5085465256651698,4.564636631416293,0.5488888888888889,-0.4033333333333333,-0.11333333333333333,0.03572156084107375,0.16555499648990318,0.048641866512337865
1592181572.5231137,-8.587139860406575,-0.6005656203516534,4.599402341813189,0.5488888888888889,-0.4033333333333333,-0.11333333333333333,0.06942899328258136,0.10186289264047733,0.05941942784151735
1592181572.5331137,-8.664748113591534,-0.6563687028397883,4.479888537524657,0.5361514832093122,-0.3997951650890065,-0.09847302670716052,0.05234771888991008,0.04046432672165757,0.056723200689815706
1592181572.5431137,-8.903221033229226,-0.6522315805642313,4.384463161128463,0.5288888888888889,-0.3977777777777778,-0.09,0.04363323129985824,-0.09279866863541511,0.043164751006807174
1592181572.5531137,-8.483178041400508,-0.5303155468037077,4.076799385236059,0.5288888888888889,-0.3977777777777778,-0.09,0.059299889587790866,-0.028416506000738806,-0.14263740195112307
1592181572.5631137,-8.94707040460247,-0.9268739979251155,4.482209516174668,0.5288888888888889,-0.3977777777777778,-0.09,0.16243381348880387,-0.08841264252500111,-0.18526448613348656
1592181572.5731137,-8.884152668130824,-0.8306934963692844,4.433397637561583,0.5288888888888889,-0.3977777777777778,-0.09,0.0852571419816426,-0.022791523674015796,-0.02524131192449086
1592181572.5831137,-8.516675195711109,-0.7498029181516342,4.690184288281702,0.5239217358636166,-0.39281062475250544,-0.10738503558845329,0.09231214891314825,-0.04589809492033169,-0.07682413944969574
1592181572.5931137,-8.492260063110905,-0.6940775802355115,4.659843377203109,0.5222222222222223,-0.39111111111111113,-0.11333333333333333,0.1378159707623046,-0.04264709273515391,-0.09969331131426809
1592181572.6031137,-8.613483300693378,-0.7417996083205419,4.622474461440746,0.5222222222222223,-0.39111111111111113,-0.11333333333333333,0.10129928207585227,-0.014757076149805173,-0.04860926264261346
1592181572.6131136,-8.674759407701725,-0.6694116288202545,4.380908775901499,0.5222222222222223,-0.39111111111111113,-0.11333333333333333,0.09462814034976025,-0.03594492672538519,-0.004806620390852966
1592181572.6231136,-8.798382608695652,-0.7147797101449276,4.274657004830918,0.5222222222222223,-0.39111111111111113,-0.11333333333333333,0.07807987570836178,-0.047413724069727596,-0.02626024922013353
1592181572.6331136,-8.711416096448355,-0.7678540241120887,4.313979146301727,0.5222222222222223,-0.39111111111111113,-0.09527077223851417,0.04185150547825568,-0.11081269726358638,-0.10684930987699091
1592181572.6431136,-8.803612941315386,-0.8804227181485417,4.513612941315385,0.5222222222222223,-0.39111111111111113,-0.08333333333333333,-0.027896158602597178,-0.13718962332055423,-0.06424445897069717
1592181572.6531136,-8.656531340975254,-0.7932482714701601,4.506612536390102,0.5222222222222223,-0.39111111111111113,-0.08333333333333333,0.008035697449643074,-0.0264823932483787,-0.07492817604837067
1592181572.6631136,-8.682117491186977,-0.8233581754087113,4.673176236780467,0.5222222222222223,-0.39111111111111113,-0.08333333333333333,0.05759117856562712,-0.014690587487537852,0.05550970402828348
1592181572.6731136,-8.538343739730529,-0.6694265527440026,4.590509365757476,0.5222222222222223,-0.39111111111111113,-0.08333333333333333,0.09060150833910385,-0.0370882466048795,0.06055840471026723
1592181572.6831136,-8.5293406659095,-0.7782025225656046,4.7263461653416226,0.5423818253066863,-0.39514303172800397,-0.06586167732679778,0.0589442466646734,0.02624501434455906,-0.0008622186285462752
1592181572.6931136,-8.672579349774258,-0.7775556412641513,4.613754112121969,0.5555555555555556,-0.3977777777777778,-0.05444444444444444,0.05603232717019842,-0.04182724891625916,-0.036960099911779544
1592181572.7031136,-8.644039810332904,-0.581513879284797,4.377776844808851,0.5555555555555556,-0.3977777777777778,-0.05444444444444444,0.06196787371311759,0.038588556491740936,-0.09826345497807376
1592181572.7131135,-8.60684912873191,-0.5760280494383077,4.432056098876616,0.5555555555555556,-0.3977777777777778,-0.05444444444444444,0.017990687660943798,0.09691936461876002,-0.05687173521274483
1592181572.7231135,-8.714933027610586,-0.8037449125824019,4.615829941721602,0.5555555555555556,-0.3977777777777778,-0.05444444444444444,0.004656837586451192,0.06665312699322903,-0.017159778063477925
1592181572.7331135,-8.706704545454546,-0.8087272727272727,4.581386363636364,0.5215669191919192,-0.39085416666666667,-0.06262689393939394,-0.017516511122110702,0.039635584398095655,0.03976202160243047
1592181572.7431135,-8.531476025229708,-0.7648471158253126,4.6749867958707085,0.4955555555555556,-0.38555555555555554,-0.06888888888888889,-0.03099293588401179,0.012834658944258264,-0.03181981413839681
1592181572.7531135,-8.455038169837126,-0.7014313067263459,4.650229019022753,0.4955555555555556,-0.38555555555555554,-0.06888888888888889,-0.03843304850801538,-0.008168739818733624,-0.08237854249513207
1592181572.7631135,-8.577751633986928,-0.7677516339869281,4.5412156862745094,0.4955555555555556,-0.38555555555555554,-0.06888888888888889,-0.006199911427836068,0.016962775148467765,-0.05778408709789069
1592181572.7731135,-8.670098739945859,-0.9055430697022221,4.504753150135354,0.4955555555555556,-0.38555555555555554,-0.06888888888888889,-0.028813976349007005,0.020585763723306734,-0.02155811507615817
1592181572.7831135,-8.742670206713445,-1.0665393514128578,4.48,0.5164456244600375,-0.389733569336452,-0.07306690266978529,-0.03452619064526218,-0.026269058806673806,0.03170835938136294
1592181572.7931135,-8.79720347770599,-1.1106460875807609,4.439141740448274,0.5288888888888889,-0.39222222222222225,-0.07555555555555556,0.003635406536991858,-0.05895115099823114,0.016563365324970505
1592181572.8031135,-8.803882975743655,-0.9215307265699401,4.2588238754131424,0.5288888888888889,-0.39222222222222225,-0.07555555555555556,0.01863437914613183,-0.17287669685853368,-0.03151933272323425
1592181572.8131135,-8.718782317662122,-0.824391158831061,4.37444641613693,0.5288888888888889,-0.39222222222222225,-0.07555555555555556,-0.03090148976857006,-0.139382857927563,-0.015018029153498454
1592181572.8231134,-8.673611193054912,-0.7499077078680096,4.5264810990770785,0.5288888888888889,-0.39222222222222225,-0.07555555555555556,-0.04223940984403235,-0.08387283834140583,-0.017635151282451446
1592181572.8331134,-8.622997854790464,-0.5704924917666254,4.657837266217482,0.5206661899534365,-0.39222222222222225,-0.0673328566201032,0.03607450598766265,-0.041049804401492765,-0.07196213671361715
1592181572.8431134,-8.597426436740909,-0.49,4.701286781629546,0.5155555555555555,-0.39222222222222225,-0.06222222222222222,0.059602366672864684,-0.03683578847682466,-0.08992909243437568
1592181572.8531134,-8.574676983542128,-0.49,4.651446818963399,0.5155555555555555,-0.39222222222222225,-0.06222222222222222,-0.03662576222006278,-0.07176064198524708,0.197381690241201
1592181572.8631134,-8.614449542374896,-0.46460026150005945,4.5682503268750745,0.5155555555555555,-0.39222222222222225,-0.06222222222222222,-0.03657499989509298,-0.12460990629791698,0.17603978351654467
1592181572.8731134,-8.668141471158934,-0.45469024519315576,4.531239019227376,0.5155555555555555,-0.39222222222222225,-0.06222222222222222,-0.04818970594500898,-0.11555115254353704,-0.004555974352324063
1592181572.8831134,-8.690917318607148,-0.46454134069642583,4.537248044178555,0.5251428303591211,-0.3891946617579383,-0.06222222222222222,0.017413802404178735,-0.05353102722184748,0.007922537144265773
1592181572.8931134,-8.673094134324355,-0.46723765372974213,4.581049385081032,0.5366666666666666,-0.38555555555555554,-0.06222222222222222,0.0664985925019105,-0.06769210790310332,0.136480939356809
1592181572.9031134,-8.595488033667985,-0.4450697190954264,4.615488033667985,0.5366666666666666,-0.38555555555555554,-0.06222222222222222,-0.007966128905782105,-0.020436788272840636,0.0036223303304165587
1592181572.9131134,-8.56,-0.45034432372557803,4.63172161862789,0.5366666666666666,-0.38555555555555554,-0.06222222222222222,0.013462380474194083,0.013839573310582283,-0.03084374104510424
1592181572.9231133,-8.572002237345018,-0.4519985084366552,4.675999254218327,0.5366666666666666,-0.38555555555555554,-0.06222222222222222,0.078975009722496,0.04973895500405934,0.009608422327948084
1592181572.9331133,-8.601014285714285,-0.4546857142857143,4.666328571428571,0.5313634920634921,-0.3908587301587302,-0.06711746031746031,0.03537096728729223,0.016568161256431884,0.05566976981986199
