time,acc_x,acc_y,acc_z,mag_x,mag_y,mag_z,gyr_x,gyr_y,gyr_z
1592181588.3430986,-8.80078313955749,-0.6908659641482288,4.519371233036512,0.52,-0.44,-0.20777777777777778,0.02971774770960734,0.0840366838890422,0.02200553971981438
1592181588.3530986,-8.63845244474213,-0.6518707300736772,4.6087528466175485,0.52,-0.4301026642851827,-0.20413139093547666,0.030961328469676037,0.06060788802233775,-0.037642356494662035
1592181588.3630986,-8.935700964630225,-0.5421254019292604,4.552125401929261,0.52,-0.41888888888888887,-0.2,-0.04492995200818281,0.005743872956322171,-0.043727933650750214
1592181588.3730986,-8.711314973470841,-0.49,4.28628982244987,0.52,-0.41888888888888887,-0.2,-0.01372722483066341,-0.04853739723644462,-0.09331763320800521
1592181588.3830986,-8.535647067016411,-0.6919215859235358,4.476019638338866,0.52,-0.41888888888888887,-0.2,0.07928842520377893,-0.02241977703341215,-0.06921213571376339
1592181588.3930986,-8.521187843121766,-0.7110413128480588,4.558006240372842,0.52,-0.41888888888888887,-0.2,0.05730543091986654,-0.03409717558806144,-0.01877759271317274
1592181588.4030986,-8.580137992150906,-0.6157361691353336,4.48973920749462,0.52,-0.4248594055506323,-0.2059705166617434,0.06646872902514611,-0.08360080716351115,-0.03854213525890188
1592181588.4130986,-8.659517775349345,-0.6330565695552094,4.536113139110419,0.52,-0.43333333333333335,-0.21444444444444444,0.04477390008108996,0.02401567612949322,0.023138425900355433
1592181588.4230986,-8.701526309702787,-0.5875101191164566,4.4295182144096215,0.52,-0.43333333333333335,-0.21444444444444444,-0.05036517230565688,-0.001939350038796639,0.06716131717760891
1592181588.4330986,-8.627989706762417,-0.6448840215439856,4.519690724117295,0.52,-0.43333333333333335,-0.21444444444444444,-0.05758630830644378,-0.11857864597106962,0.02462522747435328
1592181588.4430985,-8.411441071916872,-0.6672969647251845,4.567026251025431,0.52,-0.43333333333333335,-0.21444444444444444,-0.0030466900772269066,-0.09889259494698832,-0.013208090524731493
1592181588.4530985,-8.445923515598793,-0.6838852733981885,4.673949010399196,0.5222293041112229,-0.4306581683998658,-0.21444444444444444,0.001208879091934005,0.024609815760278646,-0.044265627730019366
1592181588.4630985,-8.522638573527447,-0.7480023151239927,4.655363741596545,0.5255555555555556,-0.4266666666666667,-0.21444444444444444,-0.02007078131623148,0.08349767891318025,-0.03864324261615962
1592181588.4730985,-8.68889878108467,-0.6974384133125131,4.389326217167362,0.5255555555555556,-0.4266666666666667,-0.21444444444444444,0.08968577970237869,0.04608946280567577,0.03185718076931722
1592181588.4830985,-8.744062845995677,-0.6674972320345864,4.428743080086466,0.5255555555555556,-0.4266666666666667,-0.21444444444444444,0.14347912894797996,-0.006407876001697163,0.039473960872793146
1592181588.4930985,-8.763440830449827,-0.713118339100346,4.614454770143351,0.5255555555555556,-0.4266666666666667,-0.21444444444444444,0.003914351630856891,-0.000609959357963416,0.021384338229409217
1592181588.5030985,-8.761327356493588,-0.6254977586850953,4.4954977586850955,0.5255555555555556,-0.4266666666666667,-0.21820428478534568,0.00941831392927403,-0.022953424046654812,0.024659621391235717
1592181588.5130985,-8.708163066428456,-0.6026019165177846,4.4814796166964435,0.5255555555555556,-0.4266666666666667,-0.2222222222222222,0.1256261639894889,-0.08121666582695272,0.06586158817741797
1592181588.5230985,-8.687777751281745,-0.5419444378204363,4.531944437820436,0.5255555555555556,-0.4266666666666667,-0.2222222222222222,-0.026431010646199814,0.0616405883403017,-0.09005845354708007
1592181588.5330985,-8.890151219279863,-0.6666248333015813,4.6930984473233,0.5255555555555556,-0.4266666666666667,-0.2222222222222222,0.030383918320173363,0.0314993234482652,-0.12417325909467651
1592181588.5430984,-8.860578318894872,-0.6619488019979708,4.690963864824788,0.5255555555555556,-0.4266666666666667,-0.2222222222222222,0.09418042104099504,-0.06921518401747277,-0.04748268144122714
1592181588.5530984,-8.481391123799638,-0.511751232805606,4.465400986244485,0.5255555555555556,-0.42419712633734175,-0.2338643409176111,0.10669966395006236,-0.061429301751259505,-0.024723114876714542
1592181588.5630984,-8.362297959088034,-0.570202685287157,4.529797314712843,0.5255555555555556,-0.41888888888888887,-0.2588888888888889,0.030152753844784178,0.01999617021114563,-0.08376196071517623
1592181588.5730984,-8.740834033852096,-0.5279191184823356,4.466672270816767,0.5255555555555556,-0.41888888888888887,-0.2588888888888889,0.07172464563566064,0.020728535798180292,-0.07532060778601593
1592181588.5830984,-8.652143096114324,-0.5505553696888591,4.531388424222148,0.5255555555555556,-0.41888888888888887,-0.2588888888888889,-0.022006910175384947,0.05037278563017973,0.06091332973389353
1592181588.5930984,-8.621367781155016,-0.5586322188449848,4.601537993920973,0.5255555555555556,-0.41888888888888887,-0.2588888888888889,-0.092254443843448,0.05983455511624329,0.07994297617911413
1592181588.6030984,-8.707077242859059,-0.4208022663269411,4.366934088775647,0.5293027803853203,-0.42331742732406535,-0.25616363446724183,-0.04998431815358727,-0.08444715434290354,0.06114898657213169
1592181588.6130984,-8.698063513979978,-0.4636014267633184,4.487202853526637,0.5377777777777778,-0.43333333333333335,-0.25,0.04674142753708551,-0.020573789000719607,0.07892037081362922
1592181588.6230984,-8.67746808898614,-0.46698212983223925,4.421943836615609,0.5377777777777778,-0.43333333333333335,-0.25,0.06730787946971796,0.03185448665793444,0.140499561737803
1592181588.6330984,-8.632767759950777,-0.4616841781437835,4.382402385347153,0.5377777777777778,-0.43333333333333335,-0.25,-0.0017317822787666637,-0.02892420758861343,0.10564106804166462
1592181588.6430984,-8.688093896713616,-0.488093896713615,4.594942097026604,0.5377777777777778,-0.43333333333333335,-0.25,-0.07074728996112226,-0.0630691386410713,0.023913605529770506
1592181588.6530983,-8.701364973394586,-0.3995376276564101,4.544306441484615,0.5325793847521051,-0.43333333333333335,-0.2481652730497626,-0.010385695436985958,0.02970461612008576,-0.019896260278925507
1592181588.6630983,-8.817590099675215,-0.5120692126777915,4.511382461641841,0.5188888888888888,-0.43333333333333335,-0.24333333333333335,-0.05228516011033108,-0.013090360324945038,0.006921308487385735
1592181588.6730983,-8.629892241379311,-0.5227984084880637,4.242299403183024,0.5188888888888888,-0.43333333333333335,-0.24333333333333335,0.0015049558640476647,-0.0023332060271500817,-0.00962108409986347
1592181588.6830983,-8.775603539823008,-0.5458867256637168,4.3042076696165195,0.5188888888888888,-0.43333333333333335,-0.24333333333333335,0.0034453520219309888,0.029985683272759217,-0.006524390839497977
1592181588.6930983,-8.699175373797626,-0.5591753737976259,4.484742538861127,0.5188888888888888,-0.43333333333333335,-0.24333333333333335,-0.05060339631958732,0.06937219685049045,-0.022887258231133842
1592181588.7030983,-8.837181615965413,-0.6352122560230584,4.653073091262257,0.5205414051540183,-0.43636294648607066,-0.2521467534140237,-0.11117031437988059,-0.04102192204547827,-0.046018644020126814
1592181588.7130983,-8.821743864181583,-0.601372947038199,4.483098357630559,0.5255555555555556,-0.44555555555555554,-0.2788888888888889,0.0007448004973679423,0.012636647573721632,-0.04196769634979816
1592181588.7230983,-8.655549701274875,-0.5978011949005034,4.417264665757163,0.5255555555555556,-0.44555555555555554,-0.2788888888888889,0.034192775180333236,0.0034039134150893775,-0.03252242931919293
1592181588.7330983,-8.706494923617042,-0.5378498908814878,4.361119650820761,0.5255555555555556,-0.44555555555555554,-0.2788888888888889,-0.017687833041163236,-0.059913821213701826,0.09742602102904774
1592181588.7430983,-8.78716477809254,-0.5907088054768649,4.550708805476865,0.5255555555555556,-0.44555555555555554,-0.2788888888888889,0.00801058469343203,-0.06813580744829983,0.08742601419847043
1592181588.7530982,-8.848404436322388,-0.5570426617934336,4.54943600730985,0.5272352105082586,-0.44435580201791053,-0.2788888888888889,0.022851973469953164,0.0003991028749873605,0.16593537215324466
1592181588.7630982,-8.683358286408302,-0.47986375179419233,4.540892348459755,0.5333333333333333,-0.44,-0.2788888888888889,-0.03444438207964496,0.05460098861960476,0.03623668317719231
1592181588.7730982,-8.593866090712742,-0.48049946004319655,4.473965982721382,0.5333333333333333,-0.44,-0.2788888888888889,0.047392827889855466,0.041102880845428014,0.08900018852211297
1592181588.7830982,-8.619864520800729,-0.5068328233397958,4.519864520800729,0.5333333333333333,-0.44,-0.2788888888888889,0.046910743237269625,0.030548001218152016,0.14144299854873724
1592181588.7930982,-8.538697063943822,-0.3864872953465172,4.419461886039552,0.5333333333333333,-0.44,-0.2788888888888889,-0.026377778950000954,0.12543004905056498,0.004196464832954698
1592181588.8030982,-8.714555824790308,-0.4154821994408201,4.530038024231128,0.5333333333333333,-0.43758036657347005,-0.28171179455317386,-0.06986294368192698,0.06291375179298685,0.003790194740479577
1592181588.8130982,-8.69,-0.35,4.44,0.5333333333333333,-0.4266666666666667,-0.29444444444444445,0.04799655442984406,-0.0370882466048795,-0.04799655442984406
1592181588.8230982,-8.498620436513539,-0.055072987548352464,4.233693424061891,0.5333333333333333,-0.4266666666666667,-0.29444444444444445,0.011578199953583525,0.057171212225580824,-0.014619787414256506
1592181588.8330982,-8.64,-0.56,4.88,0.5333333333333333,-0.4266666666666667,-0.29444444444444445,0.017453292519943295,-0.06326818538479445,0.06763150851478027
1592181588.8430982,-8.607336153171193,-0.2329693792606925,4.345851463540846,0.5333333333333333,-0.4266666666666667,-0.29444444444444445,-0.005639914440588013,-0.02683727924560183,0.06417325563918516
1592181588.8530982,-9.040396952309285,-0.4355827297526103,4.656798984103095,0.5393796966941544,-0.4266666666666667,-0.2969341234753708,-0.04344894646443695,-0.0600251416719186,-0.010648503146074424
1592181588.8630981,-9.02,-0.32,4.65,0.5522222222222222,-0.4266666666666667,-0.3022222222222222,0.02181661564992912,0.03490658503988659,-0.02399827721492203
1592181588.8730981,-8.565631419800107,-0.16505135840084945,4.293788518800637,0.5522222222222222,-0.4266666666666667,-0.3022222222222222,-0.006807047958931445,-0.0686299322854871,0.01594471657869978
1592181588.8830981,-8.6,-0.4928792928561078,4.511750953968024,0.5522222222222222,-0.4266666666666667,-0.3022222222222222,-0.02256564962587316,0.06236835405100347,-0.0010611665922561284
1592181588.893098,-8.745809546047127,-0.5977578658572179,4.562242134142782,0.5522222222222222,-0.4266666666666667,-0.3022222222222222,-0.17398671386020848,0.033099974161304516,0.08113562555574218
1592181588.903098,-9.073691332223442,-0.4943012999893734,4.558602599978746,0.5505588419349887,-0.4266666666666667,-0.3022222222222222,-0.1012819244944508,-0.06469614551365771,0.09603182560525368
1592181588.913098,-8.18,-0.22,4.01,0.5377777777777778,-0.4266666666666667,-0.3022222222222222,-0.0916297857297023,-0.05890486225480862,-0.0545415391248228
1592181588.923098,-8.758033883315369,-0.9650507144239007,4.885626951883481,0.5377777777777778,-0.4266666666666667,-0.3022222222222222,-0.04616620290294725,-0.07408773866138907,-0.04978623683793956
1592181588.933098,-8.786162163452358,-0.46873090509833876,4.314923620393356,0.5377777777777778,-0.4266666666666667,-0.3022222222222222,-0.1160667021033201,-0.03600074851142638,-0.004877077975322372
1592181588.943098,-8.93,-0.5,4.44,0.5377777777777778,-0.4266666666666667,-0.3022222222222222,-0.06763150851478027,-0.030543261909900768,-0.056723200689815706
1592181588.953098,-8.833919534177843,-0.5077628766996005,4.4,0.5331548645309602,-0.42476311415327117,-0.3038538386622755,-0.03390119765717747,-0.09160052753111952,0.08946075992252689
1592181588.963098,-8.63,-0.47,4.4,0.5188888888888888,-0.41888888888888887,-0.3088888888888889,0.056723200689815706,-0.017453292519943295,0.24434609527920614
1592181588.973098,-8.419035835059113,-0.28344116182137524,4.367621307049047,0.5188888888888888,-0.41888888888888887,-0.3088888888888889,-0.10863747529047077,-0.06926931314076619,-0.020967616621635418
1592181588.983098,-8.74,-0.73,4.87,0.5188888888888888,-0.41888888888888887,-0.3088888888888889,-0.004363323129985824,0.06544984694978735,0.10690141668465267
1592181588.993098,-8.43138321300676,-0.18472893008292,4.096112143089679,0.5188888888888888,-0.41888888888888887,-0.3088888888888889,-0.08074598133275951,-0.001272298198715585,0.03436015650604752
1592181589.003098,-8.519736685880618,-0.08031118941381488,4.080047875294433,0.5188888888888888,-0.41888888888888887,-0.3088888888888889,-0.17099148005076698,-0.006529317541512136,0.05013121453443717
1592181589.013098,-8.7,-0.61,4.79,0.5066666666666667,-0.4066666666666667,-0.3088888888888889,-0.02399827721492203,-0.074176493209759,-0.04581489286485115
1592181589.023098,-8.736792680053409,-0.34932664868968766,4.26229180302118,0.5066666666666667,-0.4066666666666667,-0.3088888888888889,-0.030543261909900768,-0.037735142928808335,0.10278809048295898
1592181589.033098,-8.832242617534359,-0.551801390450405,4.5668749282977315,0.5066666666666667,-0.4066666666666667,-0.3088888888888889,-0.035524196043922165,-0.03621394008871113,0.11166172182691797
1592181589.043098,-8.72926450778598,-0.4472060276236148,4.487353126066419,0.5066666666666667,-0.4066666666666667,-0.3088888888888889,-0.035050900637779235,0.043456823800072,-0.00684188376780866
1592181589.053098,-8.503266339781238,-0.6129380174937586,4.69828474953751,0.5066666666666667,-0.4066666666666667,-0.3088888888888889,0.03233280667117069,0.10097950077112681,-0.15393558630807744
1592181589.063098,-8.71613785118499,-0.30880532123532056,4.29852720871435,0.5255555555555556,-0.41888888888888887,-0.33,0.010308416621263736,0.009247923208654533,0.08609913112577962
1592181589.073098,-8.521997479381785,-0.3672377119862029,4.342231410440665,0.5255555555555556,-0.41888888888888887,-0.33,0.00240230233263785,0.03954158477751918,-0.07461227560916966
1592181589.083098,-8.674395778364117,-0.5577994722955145,4.653651715039578,0.5255555555555556,-0.41888888888888887,-0.33,-0.08016426196940446,0.05321066800654744,-0.049431040081549166
1592181589.093098,-8.983656845753899,-0.2579896013864818,4.295979202772964,0.5255555555555556,-0.41888888888888887,-0.33,-0.13767532219154577,0.007754918318544997,0.07718242205580644
1592181589.103098,-8.866175621028306,-0.3828134026574235,4.545626805314847,0.5255555555555556,-0.41888888888888887,-0.33,0.012102487104473952,-0.035496427681375134,0.04194058457439002
1592181589.113098,-8.676850235057085,-0.39738750839489595,4.429100067159167,0.5333333333333333,-0.41333333333333333,-0.33,-0.039564410503360375,-0.032097823978710346,-0.006753773662750047
1592181589.123098,-8.512056525021093,-0.41473913236534793,4.397213045601883,0.5333333333333333,-0.41333333333333333,-0.33,-0.04972955183524083,0.07154616748516995,0.11615972246614079
1592181589.133098,-8.673401235924867,-0.44677487115605385,4.4898238929190795,0.5333333333333333,-0.41333333333333333,-0.33,-0.02653174576196431,0.03548891565179745,0.07038532269508128
1592181589.1430979,-8.758600502772135,-0.23261854747064295,4.481715623816247,0.5333333333333333,-0.41333333333333333,-0.33,-0.037999332034772716,0.0008224335945444887,0.15422331562175814
1592181589.1530979,-8.520279796136231,-0.059294397189985915,4.257838596370398,0.5333333333333333,-0.41333333333333333,-0.33,-0.0017614293268377462,-0.005479810354661593,-0.00569612458934618
1592181589.1630979,-8.753503722084368,-0.27658482434373777,4.660933786078099,0.5188888888888888,-0.41888888888888887,-0.3388888888888889,-0.11460638316928783,-0.03304762817497347,-0.04470320565992326
1592181589.1730978,-8.61,-0.05,4.17,0.5188888888888888,-0.41888888888888887,-0.3388888888888889,-0.10471975511965977,0.01308996938995747,0.14726215563702155
1592181589.1830978,-8.398777538469522,-0.48541972649661363,4.280839452993227,0.5188888888888888,-0.41888888888888887,-0.3388888888888889,-0.13863299546094118,0.06308504515170021,-0.024211365263567056
1592181589.1930978,-8.69837157820852,-0.5659796987203715,4.387845688677717,0.5188888888888888,-0.41888888888888887,-0.3388888888888889,-0.07266284107919592,0.028748317850327203,-0.12347849898100116
1592181589.2030978,-9.015418173964688,-0.7924415528319206,4.6218562712596505,0.5188888888888888,-0.41888888888888887,-0.3388888888888889,-0.08419098061708055,-0.0667705526064312,-0.0007861567563718086
1592181589.2130978,-8.96,-0.68,4.3,0.4988888888888889,-0.41888888888888887,-0.33,0.015271630954950384,0.16035212502697901,0.01308996938995747
1592181589.2230978,-8.753351842367719,-0.2943319226933341,4.171225100407019,0.4988888888888889,-0.41888888888888887,-0.33,0.007317584216283268,0.06636214126199301,0.1567200604635499
1592181589.2330978,-8.64,-0.46,4.52,0.4988888888888889,-0.41888888888888887,-0.33,0.07199483164476608,0.13199052468207118,0.13199052468207118
1592181589.2430978,-8.702682057513163,-0.1346723369785338,4.090024301336574,0.4988888888888889,-0.41888888888888887,-0.33,-0.07593719747642766,0.1500236496519733,-0.021088511506731807
1592181589.2530978,-8.86406662616444,-0.1941298096395302,4.344842041312273,0.4988888888888889,-0.41888888888888887,-0.33,-0.23715575759759613,0.12963969377458417,-0.011823077017009482
1592181589.2630978,-9.0,-0.13,4.39,0.5255555555555556,-0.41888888888888887,-0.36777777777777776,-0.08508480103472357,0.05235987755982988,-0.028361600344907853
1592181589.2730978,-8.593249151391717,-0.10653360488798372,4.444754921928038,0.5255555555555556,-0.41888888888888887,-0.36777777777777776,-0.13884031993378823,0.0967295122066769,-0.011296356249966694
1592181589.2830977,-8.77,-0.2707572049348184,4.319370993789854,0.5255555555555556,-0.41888888888888887,-0.36777777777777776,-0.02919895186011325,-0.09323456720253835,0.020060621998296377
1592181589.2930977,-8.77,-0.5012017381749163,4.312387826115911,0.5255555555555556,-0.41888888888888887,-0.36777777777777776,-0.06271575059562345,-0.03838889654443074,0.04900694817896428
1592181589.3030977,-8.449352491592785,-0.9006475084072149,4.571580862121675,0.5255555555555556,-0.41888888888888887,-0.36777777777777776,-0.059449243841279795,-0.07670304538779313,0.009200395636191294
1592181589.3130977,-8.910009411764706,-0.96,4.383632085561498,0.5316836125965537,-0.3996292810457516,-0.3607742840166369,-0.030939460983414987,-0.18094738353297243,0.07391338715834873
1592181589.3230977,-8.81059034416826,-0.6841820692585512,4.248954482685362,0.5333333333333333,-0.39444444444444443,-0.35888888888888887,-0.025396345921764072,-0.01625383056487509,-0.01969393356956449
1592181589.3330977,-8.73,-0.72,4.24,0.5333333333333333,-0.39444444444444443,-0.35888888888888887,0.0,-0.08072147790473774,0.0545415391248228
1592181589.3430977,-8.73,-0.72,4.24,0.5333333333333333,-0.39444444444444443,-0.35888888888888887,0.0,-0.08072147790473774,0.0545415391248228
1592181589.3530977,-8.630069200161467,-0.6750311400726602,4.205024220056513,0.5333333333333333,-0.39444444444444443,-0.35888888888888887,0.052323644440014534,-0.11723902142016457,-0.029394307164367174
1592181589.3630977,-8.52047729693097,-0.4681140478265079,4.146193242327428,0.5169331224922279,-0.4002638740977399,-0.36629543572035583,0.020579728233470734,-0.061876370215608587,-0.06254687894230718
1592181589.3730977,-8.693824431433464,-0.3315087425817501,4.274175329589357,0.4988888888888889,-0.4066666666666667,-0.37444444444444447,0.013388452182634833,-0.008596478218215985,0.010272934846782055
1592181589.3830976,-8.936578778135049,-0.4124604501607717,4.554868167202573,0.4988888888888889,-0.4066666666666667,-0.37444444444444447,-0.036097730164439,0.02213229015290237,0.012914875265641642
1592181589.3930976,-8.892711402249148,-0.5214057987382823,4.71415059939657,0.4988888888888889,-0.4066666666666667,-0.37444444444444447,-0.0734846017671494,0.04257071892729154,-0.012419937155012734
1592181589.4030976,-8.6152524242082,-0.6770535181271076,4.788590813017312,0.4988888888888889,-0.4066666666666667,-0.37444444444444447,0.013622651176740691,-0.01205586342735139,-0.053758972450418205
1592181589.4130976,-8.78,-0.71,4.61,0.5066666666666667,-0.4088888888888889,-0.38222222222222224,-0.01090830782496456,-0.02399827721492203,-0.10253809355466686
1592181589.4230976,-8.845760894451653,-0.5972670380828817,4.431506143631229,0.5066666666666667,-0.4088888888888889,-0.38222222222222224,-0.16154972452492627,-0.040394621889747795,-0.030804085602304132
1592181589.4330976,-8.923836860183028,-1.022136766507338,4.521005212211467,0.5066666666666667,-0.4088888888888889,-0.38222222222222224,0.10923407524240437,0.1203410136767919,0.0768794520449114
1592181589.4430976,-9.02,-0.62,4.25,0.5066666666666667,-0.4088888888888889,-0.38222222222222224,0.12544553998709243,0.0545415391248228,0.05017821599483697
1592181589.4530976,-8.444117737237468,-0.6775882262762533,4.350779395983443,0.5066666666666667,-0.4088888888888889,-0.38222222222222224,0.03828416370712466,0.16997146987396933,-0.07074837812331652
1592181589.4630976,-8.29,-0.7,4.55,0.4988888888888889,-0.4033333333333333,-0.37444444444444447,-0.01090830782496456,0.12762720155208535,-0.09599310885968812
1592181589.4730976,-9.289060095093378,-0.8095858046174208,4.649091956276654,0.4988888888888889,-0.4033333333333333,-0.37444444444444447,0.09588189234934096,0.14907019923756695,-0.06308398303953194
1592181589.4830976,-8.700314759232675,-0.5553509069555005,4.097311757797208,0.4988888888888889,-0.4033333333333333,-0.37444444444444447,0.02930441522662918,-0.07924786701338928,0.048926386959045005
1592181589.4930975,-8.732827149058284,-0.7173660981855827,4.630877967271473,0.4988888888888889,-0.4033333333333333,-0.37444444444444447,0.13329879253821406,0.08694843982922239,-0.056723200689815706
1592181589.5030975,-8.930890680905938,-0.6945126137416225,4.638495795419459,0.4988888888888889,-0.4033333333333333,-0.37444444444444447,0.20143883634286736,-0.029388220325063705,-0.056723200689815706
1592181589.5130975,-8.65541964701401,-0.5575307910441445,4.352431963431667,0.48444444444444446,-0.3888888888888889,-0.36777777777777776,-0.046779174903333436,0.07992155687635777,-0.005163244158365795
1592181589.5230975,-8.912825792525501,-0.7350522707072417,4.680846700808398,0.48444444444444446,-0.3888888888888889,-0.36777777777777776,0.05391669027349563,0.027637165342234975,-0.05744763569248858
1592181589.5330975,-8.1,-0.39,4.04,0.48444444444444446,-0.3888888888888889,-0.36777777777777776,0.032724923474893676,-0.02399827721492203,-0.08072147790473774
1592181589.5430975,-9.154626479579838,-0.17713960962608766,4.494747197616994,0.48444444444444446,-0.3888888888888889,-0.36777777777777776,0.01372717805901474,0.056214425652122375,-0.03639340526768688
1592181589.5530975,-8.56594232228687,-0.0899926054213937,4.333983731927066,0.48444444444444446,-0.3888888888888889,-0.36777777777777776,-0.12393104087892616,0.10079663609497685,-0.04014305676990762
1592181589.5630975,-8.01,-0.43,4.78,0.5066666666666667,-0.4033333333333333,-0.3888888888888889,-0.01090830782496456,0.1341721862470641,0.030543261909900768
1592181589.5730975,-9.197672215302156,-0.27675197221907677,4.492659947910769,0.5066666666666667,-0.4033333333333333,-0.3888888888888889,-0.05687941599154792,0.08297708851609624,0.11203749911429854
1592181589.5830975,-8.98,-0.44,4.26,0.5066666666666667,-0.4033333333333333,-0.3888888888888889,0.11999138607461016,0.32288591161895097,-0.08508480103472357
1592181589.5930974,-8.162218767220342,-0.12250846256789732,4.12530662048335,0.5066666666666667,-0.4033333333333333,-0.3888888888888889,0.017142006871942866,0.020634674778459317,0.005170776632923257
1592181589.6030974,-8.570180301141267,-0.400833413254052,4.402973050733673,0.5066666666666667,-0.4033333333333333,-0.3888888888888889,0.054246731304253594,0.1416286899415529,-0.013566599776938753
1592181589.6130974,-8.35,-0.6,4.13,0.4988888888888889,-0.39555555555555555,-0.37444444444444447,0.04799655442984406,0.02181661564992912,0.02181661564992912
1592181589.6230974,-8.884121674187023,-0.9087890928893729,4.505554302162751,0.4988888888888889,-0.39555555555555555,-0.37444444444444447,-0.0011633887659284192,0.003609229281124497,-0.0036737252663973548
1592181589.6330974,-8.812944417475729,-0.5131245145631068,3.89830072815534,0.4988888888888889,-0.39555555555555555,-0.37444444444444447,0.0564985477968671,0.023297815584297606,-0.07737125062575785
1592181589.6430974,-9.09,-0.58,4.29,0.4988888888888889,-0.39555555555555555,-0.37444444444444447,0.14508049407202864,-0.08508480103472357,-0.05235987755982988
1592181589.6530974,-8.93561919691306,-0.49637706499457374,4.18064693114675,0.4988888888888889,-0.39555555555555555,-0.37444444444444447,0.06859731401586314,-0.009303301529532071,-0.13866658532963133
1592181589.6630974,-8.69,-0.43,4.31,0.4988888888888889,-0.4033333333333333,-0.38222222222222224,0.08726646259971647,-0.05890486225480862,-0.08072147790473774
1592181589.6730974,-8.419647517504774,-0.2312114099299809,4.286145369191598,0.4988888888888889,-0.4033333333333333,-0.38222222222222224,0.12109423786787807,0.05558914634512295,-0.014800685074474101
1592181589.6830974,-8.610653561948489,-0.18196068584546954,4.171742831862639,0.4988888888888889,-0.4033333333333333,-0.38222222222222224,0.019097664426972232,0.09086468859574671,-0.05230770591755538
1592181589.6930974,-8.64,-0.27,4.25,0.4988888888888889,-0.4033333333333333,-0.38222222222222224,0.1908953869368798,-0.04145156973486533,0.04799655442984406
1592181589.7030973,-8.903761397944558,-0.2817227287975359,4.185524991613552,0.4988888888888889,-0.4033333333333333,-0.38222222222222224,-0.003474817156709692,-0.046566575105749256,0.0607840678570539
1592181589.7130973,-8.581476123415696,-0.4897772372295481,4.076434515426962,0.4928350332152662,-0.3962705017141069,-0.38020427033101467,0.05838535252354671,-0.004612464355945839,0.04802085407856438
1592181589.7230973,-8.856586979365687,-0.4353515475735575,4.004682604126863,0.4922222222222222,-0.39555555555555555,-0.38,0.08261125782836912,-0.10585747870423144,-0.025435333186073862
1592181589.7330973,-8.474373866553616,-0.6420318424833369,4.267344497044207,0.4922222222222222,-0.39555555555555555,-0.38,0.016532718587481093,0.019294440384867717,-0.0385881614107795
1592181589.7430973,-8.713110372622499,-0.3868896273775012,4.126133776426501,0.4922222222222222,-0.39555555555555555,-0.38,0.11517932834145919,0.01862657385087281,-0.19915213962849754
1592181589.7530973,-8.746939339907573,-0.31836396055456495,4.262665477966595,0.4922222222222222,-0.39555555555555555,-0.38,0.0974378513359635,0.011397576054834335,-0.030951276524117166
1592181589.7630973,-8.714417847025496,-0.3,4.392268767705382,0.4853034702549575,-0.3896251967264715,-0.36715088920365124,0.14427631538715635,-0.012621113014676237,-0.07790833965305036
1592181589.7730973,-8.638057074029465,-0.24604280552209765,4.256114148058927,0.48444444444444446,-0.3888888888888889,-0.3655555555555556,0.08001470688074092,0.05535817145342201,0.002323561538922783
1592181589.7830973,-8.898919885550786,-0.3654959465903672,4.401351931330472,0.48444444444444446,-0.3888888888888889,-0.3655555555555556,-0.03947668224523833,0.20505212849050183,-0.041667967257764005
1592181589.7930973,-8.850818532818533,-0.4415855855855856,4.31442471042471,0.48444444444444446,-0.3888888888888889,-0.3655555555555556,0.026336052528967195,0.10531416664257996,-0.12573277805414362
1592181589.8030972,-8.847121628419952,-0.40014860106033046,4.079229518981464,0.48444444444444446,-0.3888888888888889,-0.3655555555555556,-0.03593557351378983,0.13372852572603017,-0.00662003972888911
1592181589.8130972,-9.1,-0.69,4.28,0.4666666666666667,-0.38222222222222224,-0.38,-0.074176493209759,0.01308996938995747,-0.01090830782496456
1592181589.8230972,-8.90982950183831,-0.6125231303785705,4.188436426811038,0.4666666666666667,-0.38222222222222224,-0.38,-0.07110325123468555,0.09529919222317215,-0.007835065849891113
1592181589.8330972,-9.003519757448194,-0.5452960485103611,4.063240121275903,0.4666666666666667,-0.38222222222222224,-0.38,-0.04142106616040177,-0.022562094583548326,-0.006544984694978735
1592181589.8430972,-8.752280303030304,-0.41849763257575756,3.9024614109848486,0.4666666666666667,-0.38222222222222224,-0.38,0.1967475752918483,0.03370822065468381,0.019962719811532914
1592181589.8530972,-8.780328978601446,-0.5981998487858914,4.231644893007227,0.4666666666666667,-0.38222222222222224,-0.38,0.0712412256757638,0.07092227951357552,-0.03877018940688889
1592181589.8630972,-8.695568973525313,-0.4943195541105434,4.347045982350209,0.4933962945760438,-0.38775249006554163,-0.38,0.009321460629990619,0.06879681775757722,-0.09770358016563704
1592181589.8730972,-8.689898226922159,-0.36045797885028225,4.3697964538443195,0.4988888888888889,-0.3888888888888889,-0.38,-0.04550404468766524,0.026379769750963025,0.1438204487823643
1592181589.8830972,-8.726665436351706,-0.27933604002624673,4.260003690944882,0.4988888888888889,-0.3888888888888889,-0.38,-0.07621169070069134,0.14856704585579775,0.04829069043685333
1592181589.8930972,-8.969064867240622,-0.37827632565474806,4.23832518937925,0.4988888888888889,-0.3888888888888889,-0.38,0.1676019659423082,-0.019813050633230245,0.037077586193912736
1592181589.9030972,-8.84871405578509,-0.2936686743989248,4.105136144158495,0.4988888888888889,-0.3888888888888889,-0.38,0.08091042347260208,0.022377714663608078,0.13104080125153086
1592181589.9130971,-8.474478601317479,-0.2822173426689315,4.114434685337863,0.48294011499173695,-0.3888888888888889,-0.3743710209774758,-0.02273286469845765,0.1792214593461501,0.06703879833072919
1592181589.9230971,-8.901538461538461,-0.36268505079825836,4.166342525399129,0.48,-0.3888888888888889,-0.37333333333333335,-0.036489793722755175,0.022416651740736343,0.018064411071530572
1592181589.9330971,-8.941626005538705,-0.26113807200316497,4.061138072003165,0.48,-0.3888888888888889,-0.37333333333333335,0.017719418980132982,0.006190245316152906,0.009790864396449134
1592181589.943097,-8.586905084504028,-0.256423019325394,4.031788490337303,0.48,-0.3888888888888889,-0.37333333333333335,0.058816649881753565,-0.04719922037004311,0.023058434277310805
1592181589.953097,-8.698971361776739,-0.2843834015195792,4.164108708357686,0.48,-0.3888888888888889,-0.37333333333333335,0.006933884038826096,-0.08683293546231285,0.004901406812292668
1592181589.963097,-8.85313876514426,-0.20886839585328282,4.142299013281153,0.5057745951122028,-0.39441201641293233,-0.3843795883814203,0.08874772896392415,0.09500228263121378,0.05814860619959687
1592181589.973097,-8.90366224522808,-0.20871239081203494,4.138712390812035,0.5111111111111111,-0.39555555555555555,-0.38666666666666666,0.05629265602639103,0.07171568342446369,0.05294358319368596
1592181589.983097,-8.437541915452591,-0.2038538332935276,4.028903749701457,0.5111111111111111,-0.39555555555555555,-0.38666666666666666,0.002442606420915639,-0.07295149050154348,0.08196086175916625
1592181589.993097,-8.920805829734732,-0.5308785728973884,4.417951881554596,0.5111111111111111,-0.39555555555555555,-0.38666666666666666,-0.007880596290018737,-0.09437548060799716,0.11252587972146365
1592181590.003097,-9.294615627245168,-0.5476573150857764,4.557622443794137,0.5111111111111111,-0.39555555555555555,-0.38666666666666666,0.046310771957137814,0.04660452995151994,0.16995987323587342
1592181590.013097,-8.41606324016109,-0.22590095298855617,3.878850831372862,0.5004917793107114,-0.3839708299551196,-0.3808743038664487,-0.024105798794503808,0.1071517349251434,0.06788156578056326
1592181590.023097,-8.516053565548278,-0.4942475577183418,4.130802751454392,0.4988888888888889,-0.38222222222222224,-0.38,-0.007530009162141027,0.04123995710419699,-0.0243704153077835
1592181590.033097,-9.290793185463798,-0.4161635046186183,4.145242823164998,0.4988888888888889,-0.38222222222222224,-0.38,0.07235196574519182,0.12176580374522505,-0.03769083120716902
1592181590.043097,-8.852274937133277,-0.41216429170159263,4.1086940486169325,0.4988888888888889,-0.38222222222222224,-0.38,0.012723494136290606,0.09291994686474211,-0.00398880151346399
1592181590.053097,-8.762612935077758,-0.44954825968896567,4.146935324611207,0.4988888888888889,-0.38222222222222224,-0.38,-0.03327370479672231,0.05849327626343716,-0.06325559680442375
1592181590.063097,-8.861978290475047,-0.5086137146519266,4.003270848353761,0.49314641245427115,-0.3937071750914577,-0.3742575235653823,0.035854803001984556,0.020606853465127313,-0.033137687970697716
1592181590.073097,-8.600090739690513,-0.4996329903589079,3.881880418050717,0.4922222222222222,-0.39555555555555555,-0.37333333333333335,-0.037704053855340106,-0.02681059327751639,0.051289284989209934
1592181590.083097,-8.771234838639808,-0.7666412172406324,4.239371345029239,0.4922222222222222,-0.39555555555555555,-0.37333333333333335,0.05117793748114538,-0.04714328707637082,0.0025764586708087317
1592181590.093097,-8.928469606674613,-0.6935709177592372,4.149973778307509,0.4922222222222222,-0.39555555555555555,-0.37333333333333335,0.12617752774697982,0.01063579515272229,-0.011186541183074501
1592181590.103097,-8.788884887103478,-0.6304460451586092,4.168353551144796,0.4922222222222222,-0.39555555555555555,-0.37333333333333335,0.11677685348907837,0.04789924247196517,0.0363548235612031
1592181590.113097,-8.98095122598249,-0.37229544851631485,4.275757759502786,0.48275135483381965,-0.3852237002227528,-0.38969210427693773,0.033877309077382456,-0.02088142885485446,-0.0770471222898573
1592181590.123097,-8.908746025847474,-0.24574920516949506,4.221467855815682,0.48,-0.38222222222222224,-0.39444444444444443,0.01776686301863194,-0.000660470811946319,-0.10379904151233525
1592181590.133097,-8.830077883371759,-0.16840465613226116,4.225291851768543,0.48,-0.38222222222222224,-0.39444444444444443,-0.12345069308487255,0.06867565863453816,-0.05751266209513142
