time,acc_x,acc_y,acc_z,mag_x,mag_y,mag_z,gyr_x,gyr_y,gyr_z
1592298030.3744688,-0.5277080117861653,9.777708011786165,0.5245839764276694,-0.31777777777777777,-0.51,0.3055555555555556,0.032724923474893676,-0.02977094085918137,0.052510586793799045
1592298030.3844688,-0.5456214897339103,9.79,0.4437851026608968,-0.31777777777777777,-0.51,0.3055555555555556,-0.02859601697747821,-0.017588880546494275,0.04733699400735496
1592298030.3944688,-0.5608499207119358,9.806274881067903,0.4,-0.31777777777777777,-0.51,0.3055555555555556,-0.10772203765034935,-0.03156309355268774,0.03383746708520674
1592298030.4044688,-0.5829552746161485,9.82,0.40863684974409903,-0.31777777777777777,-0.51,0.3055555555555556,-0.0517354475562906,-0.03971599804796384,0.006245258293279876
1592298030.4144688,-0.6040534610013963,9.82,0.45242768801117095,-0.31777777777777777,-0.51,0.29699824899705213,0.04699559261067715,-0.043956367887132766,0.03952275982940979
1592298030.4244688,-0.6044432125285842,9.80888642505717,0.5111135749428314,-0.31777777777777777,-0.51,0.28444444444444444,0.05939558870758161,-0.09624451923891222,0.1489555096103765
1592298030.4344687,-0.578654320697516,9.789327160348758,0.4986543206975159,-0.31777777777777777,-0.51,0.28444444444444444,0.08072147790473774,-0.0734172877005199,0.13169694300076756
1592298030.4444687,-0.35740026717657225,9.78,0.5205199465646856,-0.31777777777777777,-0.51,0.28444444444444444,0.031469598027682025,-0.10022979652779836,0.12889007026688165
1592298030.4544687,0.09808822116770091,9.78,0.5201850108547387,-0.31777777777777777,-0.51,0.28444444444444444,0.07315008412570051,-0.09364611782853483,0.03278159109772265
1592298030.4644687,0.12444727053063298,9.795029091024704,0.510038788032938,-0.3277971717942468,-0.5072168349954252,0.27720821543255014,0.07347981534886215,0.04050036584742912,-0.04577681280256198
1592298030.4744687,-0.27872957532659504,9.790536135192362,0.5669813431345132,-0.3377777777777778,-0.5044444444444445,0.27,0.011772831857690569,0.08348034588234562,-0.002824977613541217
1592298030.4844687,-0.44588322815658504,9.737941101020985,0.5858827150992766,-0.3377777777777778,-0.5044444444444445,0.27,0.0626907295326679,-0.02136748953892742,0.11148927488720409
1592298030.4944687,-0.3319610842855094,9.783660180714252,0.4622548644643113,-0.3377777777777778,-0.5044444444444445,0.27,0.024368962552302382,0.07599829065395941,-0.06683339815979025
1592298030.5044687,-0.4302442052980132,9.800061051324503,0.45004070088300224,-0.3377777777777778,-0.5044444444444445,0.27,0.006536105139768016,0.13508320603654347,-0.1989560665560475
1592298030.5144687,-0.55,9.83,0.4650282788138184,-0.33391088352185877,-0.5105209925608887,0.27718137504670676,0.01953624240299828,0.06426030448535298,0.021872724570490124
1592298030.5244687,-0.5714038775986919,9.831945807054426,0.4541625788367204,-0.33,-0.5166666666666667,0.28444444444444444,0.02774904318510372,0.06440742958674298,-0.07744363460036158
1592298030.5344687,-0.6814075286415712,9.888166939443535,0.3604255319148936,-0.33,-0.5166666666666667,0.28444444444444444,-0.03893069728824504,-0.06134539528209612,0.08554005774427609
1592298030.5444686,-0.7284690735397522,9.93,0.3,-0.33,-0.5166666666666667,0.28444444444444444,0.028654442243503983,-0.10923444513780182,0.1033517137212686
1592298030.5544686,-0.6696858940744626,9.908864708966965,0.32958940744625065,-0.33,-0.5166666666666667,0.28444444444444444,0.05759792456637239,-0.10002969756756488,0.04160967441671222
1592298030.5644686,-0.5690791215505244,9.895131869250875,0.37,-0.3263010986275641,-0.5166666666666667,0.28444444444444444,0.002181661564992912,-0.1049928238213641,0.13331247340843724
1592298030.5744686,-0.6099477952829309,9.934986948820733,0.37498694882073275,-0.31777777777777777,-0.5166666666666667,0.28444444444444444,-0.017402040658809872,-0.12169739172600866,0.24723689345851235
1592298030.5844686,-0.6992565811772681,9.944617105411817,0.343063156705457,-0.31777777777777777,-0.5166666666666667,0.28444444444444444,0.00018171064351065608,-0.15181451009162528,0.1365038355041029
1592298030.5944686,-0.806120987891601,9.958706995963867,0.32176748990966747,-0.31777777777777777,-0.5166666666666667,0.28444444444444444,-0.03377432134687872,-0.2276640157197497,0.17475028418727712
1592298030.6044686,-0.8470198146068485,9.980529721910273,0.35350990730342424,-0.31777777777777777,-0.5166666666666667,0.28444444444444444,-0.12842911385163763,-0.19135809253460967,0.34303342349547605
1592298030.6144686,-0.8652870619946091,9.99471293800539,0.36,-0.3230648397723869,-0.5149043126684637,0.28444444444444444,-0.1131958925314678,-0.09394978580767759,0.42465939454022644
1592298030.6244686,-0.8475608969188579,9.98463415758302,0.3414633696679188,-0.3377777777777778,-0.51,0.28444444444444444,-0.12108226713391543,-0.1281860534204899,0.3542804101789311
1592298030.6344686,-0.7748399481804263,9.985604993522553,0.289234954657873,-0.3377777777777778,-0.51,0.28444444444444444,-0.09090593966199555,-0.1986981094161945,0.3155217568142666
1592298030.6444685,-0.708583567399155,9.988566573040337,0.25,-0.3377777777777778,-0.51,0.28444444444444444,-0.036768106166577025,-0.15913273857386617,0.3884717294272453
1592298030.6544685,-0.6698454927425516,9.989845492742552,0.27030901451489686,-0.3377777777777778,-0.51,0.28444444444444444,-0.10066136877659909,-0.13884044616397503,0.45776440871435303
1592298030.6644685,-0.6310412274157449,9.972369846573033,0.32421907943819134,-0.3364611963483156,-0.5150030094319562,0.28233791415730497,-0.1640416799594788,-0.20920053164432842,0.4880811215125881
1592298030.6744685,-0.5442347592959552,9.975705793215994,0.3914710339200373,-0.3322222222222222,-0.5311111111111111,0.27555555555555555,-0.15205664873826807,-0.18361940956576492,0.46692096791341975
1592298030.6844685,-0.485208629009367,9.953472419339578,0.4076043145046835,-0.3322222222222222,-0.5311111111111111,0.27555555555555555,-0.20079656761872766,-0.23446400852249424,0.5799005681998438
1592298030.6944685,-0.4190128655575075,9.890159398573937,0.5139485377699701,-0.3322222222222222,-0.5311111111111111,0.27555555555555555,-0.14536540414775043,-0.22352666489430328,0.7593326113630678
1592298030.7044685,-0.38,9.84,0.7062829966869724,-0.3322222222222222,-0.5311111111111111,0.27555555555555555,-0.17156913434943752,-0.1870050252779411,0.8298423190238049
1592298030.7144685,-0.36445871559633025,9.833339449541285,0.7855412844036698,-0.3376493374108053,-0.5251906218144751,0.2706218144750255,-0.20062879995574268,-0.19102948906977385,0.8287772011021194
1592298030.7244685,-0.31,9.81,0.84,-0.3566666666666667,-0.5044444444444445,0.25333333333333335,-0.05890486225480862,-0.14180800172453928,0.8737554567796613
1592298030.7344685,-0.17742152722291976,9.804724346535783,0.800059353955028,-0.3566666666666667,-0.5044444444444445,0.25333333333333335,-0.008872820822082232,-0.14904874745280075,0.8951964262167389
1592298030.7444685,-0.07475811684410373,9.844274350532311,0.7085487010646223,-0.3566666666666667,-0.5044444444444445,0.25333333333333335,-0.016046545230757152,-0.15291003811845552,0.9563079711330551
1592298030.7544684,-0.08,9.86,0.74,-0.3566666666666667,-0.5044444444444445,0.25333333333333335,-0.09381144729469522,-0.17235126363444003,1.0821041362364843
1592298030.7644684,-0.0471301054909386,9.840695158236407,0.7764349472545308,-0.35833498632524874,-0.5030144561656599,0.25690830403029485,-0.047370440575243714,-0.2679360117143134,1.1676037893350948
1592298030.7744684,0.0,9.77,0.8,-0.36444444444444446,-0.49777777777777776,0.27,-0.0370882466048795,-0.19853120241435498,1.261000384565903
1592298030.7844684,0.19315860399878992,9.768782761750227,0.6181741426253404,-0.36444444444444446,-0.49777777777777776,0.27,0.027722899886742525,-0.270093283748692,1.292732847328865
1592298030.7944684,0.4,9.73,0.56,-0.36444444444444446,-0.49777777777777776,0.27,0.030543261909900768,-0.1636246173744684,1.203186353093591
1592298030.8044684,0.8279876521293172,9.666117521746848,0.4879608260843837,-0.36444444444444446,-0.49777777777777776,0.27,0.058990326480859,-0.24168355758430388,1.341326450566782
1592298030.8144684,1.2408490772485228,9.593144649500328,0.5134276752498359,-0.3697763837219669,-0.49225541209748663,0.26638189834739545,0.023247052952207827,-0.08704179554053063,1.1578585902929635
1592298030.8244684,1.39,9.56,0.53,-0.39555555555555555,-0.46555555555555556,0.24888888888888888,0.08290313946973066,-0.20725784867432664,1.371174293598045
1592298030.8344684,1.4629915503919062,9.51,0.6038704208127189,-0.39555555555555555,-0.46555555555555556,0.24888888888888888,0.10615534761286186,-0.10858775048007407,1.2162191704454972
1592298030.8444684,1.51,9.51,0.53,-0.39555555555555555,-0.46555555555555556,0.24888888888888888,0.008726646259971648,-0.17671458676442586,1.2740903539558606
1592298030.8544683,1.507413477219191,9.494942318146128,0.6098846362922548,-0.39555555555555555,-0.46555555555555556,0.24888888888888888,0.13350722068640394,-0.10541518198003043,1.2222676011307247
1592298030.8644683,1.5318107978977544,9.504567606306736,0.6490539894887721,-0.40038434994956734,-0.4619339597600467,0.2511020863194776,0.17340665414306655,-0.1386298430472037,1.3277005435306015
1592298030.8744683,1.54,9.48,0.69,-0.4222222222222222,-0.44555555555555554,0.2611111111111111,0.2127120025868089,-0.14398966328953217,1.150826475533761
1592298030.8844683,1.8453719193219011,9.451157020169525,0.64,-0.4222222222222222,-0.44555555555555554,0.2611111111111111,0.2128261908764025,-0.08874795037937408,1.2168322809143621
1592298030.8944683,1.93,9.43,0.64,-0.4222222222222222,-0.44555555555555554,0.2611111111111111,0.1974403716318585,-0.09490227807719166,1.332995216210669
1592298030.9044683,2.023196713369378,9.315238455128577,0.7926527527469334,-0.4222222222222222,-0.44555555555555554,0.2611111111111111,0.18015695133190518,-0.13802341946549482,1.2969604056698738
1592298030.9144683,2.1275680992736077,9.257226089588377,0.8339898607748184,-0.42504750134517083,-0.4452473432875975,0.26152206080172186,0.3093531223781995,-0.14507496398255926,1.334207626422843
1592298030.9244683,2.49,9.2,0.71,-0.48333333333333334,-0.4388888888888889,0.27,0.43524148221608594,-0.07744898555724837,1.1791880758786688
1592298030.9344683,2.7561332485107863,9.150237695911168,0.5685102076224625,-0.48333333333333334,-0.4388888888888889,0.27,0.4664278491515358,0.058626587164785374,1.0114473718461714
1592298030.9444683,2.93,9.12,0.44,-0.48333333333333334,-0.4388888888888889,0.27,0.4886921905584123,0.1287180323345818,1.0493792127615906
1592298030.9544683,3.3080365592664585,9.156073118532918,0.26429247413166834,-0.48333333333333334,-0.4388888888888889,0.27,0.5212575941403521,0.1234677331940027,1.091513903735146
1592298030.9644682,3.299193464833632,9.141209802749552,0.2,-0.48431909853667177,-0.43732062606539596,0.26955192490757346,0.5573794511371605,0.22494891144253673,0.8805894170889869
1592298030.9744682,3.28,9.17,0.2,-0.5077777777777778,-0.4,0.2588888888888889,0.5825036378531075,0.2825251726665821,0.5759586531581287
1592298030.9844682,3.293737126708513,9.344902855900655,0.011965707453601804,-0.5077777777777778,-0.4,0.2588888888888889,0.5007411858919448,0.18920615687618333,0.48037569145578424
1592298030.9944682,3.1,9.33,-0.07,-0.5077777777777778,-0.4,0.2588888888888889,0.38288160465625604,0.1810779098944117,0.4177881896961426
1592298031.0044682,3.2108783900335407,9.410878390033542,-0.3456941063727839,-0.5077777777777778,-0.4,0.2588888888888889,0.40574884663070865,0.1685440708123489,0.018704230291081016
1592298031.0144682,3.2993063727839003,9.4993063727839,-0.3698108289410637,-0.5077777777777778,-0.4,0.2588888888888889,0.3917183061771584,0.12469863189500453,-0.23472240665116945
1592298031.0244682,3.56,9.87,-0.36,-0.5077777777777778,-0.38666666666666666,0.2588888888888889,0.2901609881440573,0.1832595714594046,-0.21925698728178766
1592298031.0344682,3.073964407009917,9.38923135443554,-0.7127615813068876,-0.5077777777777778,-0.38666666666666666,0.2588888888888889,0.2668513821439726,0.11520649041235345,-0.5559921671309834
1592298031.0444682,3.1167262302914476,9.224224558050645,-0.6194639273769709,-0.5077777777777778,-0.38666666666666666,0.2588888888888889,0.1741953044727721,0.1183672834064709,-0.66630268659905
1592298031.0544682,3.11,9.5,-0.68,-0.5077777777777778,-0.38666666666666666,0.2588888888888889,0.1712604328519436,0.26070855701665296,-0.6883142237552637
1592298031.0644681,3.0712746878547104,9.538725312145289,-0.4766921112372304,-0.5077777777777778,-0.38666666666666666,0.2588888888888889,0.04770035239358672,0.2427553829329601,-0.8762945171021655
1592298031.0744681,2.72,9.34,-0.26,-0.5111111111111111,-0.39444444444444443,0.2677777777777778,0.030543261909900768,0.23780111058422737,-1.0493792127615906
1592298031.0844681,2.8253218968103844,9.521919639945208,-0.2887241536755593,-0.5111111111111111,-0.39444444444444443,0.2677777777777778,-0.11150053742817927,0.22317895477001326,-0.8791355414960977
1592298031.094468,2.48,9.52,-0.14,-0.5111111111111111,-0.39444444444444443,0.2677777777777778,-0.14289883250703572,-0.06654067773228381,-0.8759371183446542
1592298031.104468,2.28798578247598,9.524861205006863,-0.10128469874828427,-0.5111111111111111,-0.39444444444444443,0.2677777777777778,-0.06354846317296708,-0.16954497725225584,-0.8568169305530169
1592298031.114468,2.408282015036978,9.490490852846579,-0.10987728678835557,-0.5111111111111111,-0.39444444444444443,0.2677777777777778,-0.0654230750800512,-0.04863250924532936,-0.9842905402347378
1592298031.124468,1.99,9.68,0.3,-0.5111111111111111,-0.4,0.2677777777777778,-0.0370882466048795,-0.11890055529211369,-1.0275625971116615
1592298031.134468,2.0167044871429387,9.528096527738183,0.05190347226181653,-0.5111111111111111,-0.4,0.2677777777777778,-0.01635008501552901,-0.10391710293518472,-0.8514646385354483
1592298031.144468,2.0280838351747357,9.601005263407464,-0.01821992507942529,-0.5111111111111111,-0.4,0.2677777777777778,0.00833829415626908,-0.14495599173936854,-0.9841680771808213
1592298031.154468,1.7961947807371537,9.483480584700924,0.059026096314231905,-0.5111111111111111,-0.4,0.2677777777777778,0.00545123876968626,-0.11635491173667036,-1.005359363094
1592298031.164468,1.8187629808985741,9.423298717603803,-0.0538149044928706,-0.5111111111111111,-0.4,0.2677777777777778,0.08094670692398442,-0.023626782373238897,-0.8847307346300672
1592298031.174468,1.75,9.35,-0.02,-0.5066666666666667,-0.44222222222222224,0.24666666666666667,-0.032724923474893676,-0.2781618495365963,-0.9152070265145266
1592298031.184468,1.8045280940139552,9.792339331619537,-0.14203819316929858,-0.5066666666666667,-0.44222222222222224,0.24666666666666667,0.09814192131554966,-0.06394720050647329,-0.9312277773972287
1592298031.194468,1.76,9.73,-0.24,-0.5066666666666667,-0.44222222222222224,0.24666666666666667,0.11562806294462433,-0.025089107997418484,-0.9195703496445125
1592298031.204468,1.3811740100994776,9.631399622895039,-0.19604971717127934,-0.5066666666666667,-0.44222222222222224,0.24666666666666667,0.16134576664264244,0.14724506301536738,-0.8685845486486984
1592298031.214468,1.027672557519173,9.506612204068023,-0.10025008336112037,-0.5066666666666667,-0.4431647586232448,0.24709866251713536,0.018940954374031493,-0.12730748155948302,-0.7353177911773667
1592298031.224468,1.51,9.96,-0.38,-0.5066666666666667,-0.4688888888888889,0.2588888888888889,0.0,-0.148352986419518,-0.8868454261696187
1592298031.234468,0.6680209319306596,9.451311355707603,-0.031311355707602025,-0.5066666666666667,-0.4688888888888889,0.2588888888888889,-0.003833262619400965,-0.040064998935749704,-1.1181111986409555
1592298031.244468,1.0242307233941128,9.728199976164937,-0.26264616851388395,-0.5066666666666667,-0.4688888888888889,0.2588888888888889,0.016865952098620574,-0.11417978390571597,-1.011037323257423
1592298031.254468,1.2128239543651185,9.842558079861043,-0.24843830803544995,-0.5066666666666667,-0.4688888888888889,0.2588888888888889,-0.10421967348702327,-0.07157809695090235,-1.1162315964180833
1592298031.264468,1.180358449632484,9.900238966421655,-0.46808826862675257,-0.5061754579110407,-0.4691676830474875,0.2587163020288041,-0.07286808260599588,-0.043133963317130285,-1.0753295977657893
1592298031.274468,1.21,9.92,-0.31,-0.46555555555555556,-0.4922222222222222,0.24444444444444444,-0.14508049407202864,0.08835729338221293,-0.8759371183446542
1592298031.284468,0.726410189825755,9.779743696278791,0.13307772209093977,-0.46555555555555556,-0.4922222222222222,0.24444444444444444,-0.006656818290483578,0.12544559664038296,-0.93274436419097
1592298031.294468,0.7261529487393158,9.644229423108975,-0.3341946620318564,-0.46555555555555556,-0.4922222222222222,0.24444444444444444,-0.03187045970631356,0.09814064381702406,-0.8506078514880241
1592298031.304468,0.5290271308802981,9.455824988355847,-0.11322659524918491,-0.46555555555555556,-0.4922222222222222,0.24444444444444444,-0.015483878071572598,0.12248608355756563,-0.8889598952003847
1592298031.314468,0.4232091290172333,9.838397764322309,-0.12950628784350257,-0.46555555555555556,-0.4922222222222222,0.24444444444444444,-0.03856978482647227,0.04701292685885518,-0.9546659375027914
1592298031.324468,0.25,9.75,-0.1,-0.44555555555555554,-0.5066666666666667,0.2577777777777778,-0.056723200689815706,0.1265363707695889,-0.8443030256522569
1592298031.334468,0.5741608327911516,9.995852960312297,-0.0820804163955758,-0.44555555555555554,-0.5066666666666667,0.2577777777777778,-0.0001815732904319415,-0.0892226905344217,-0.9563711335947775
1592298031.3444679,0.25521180457497883,9.861680786971665,0.08495763908500423,-0.44555555555555554,-0.5066666666666667,0.2577777777777778,-0.10287557029068066,-0.03509768323119092,-0.9286267198659446
1592298031.3544679,0.34202257303835976,9.839143340593667,0.06712076755530755,-0.44555555555555554,-0.5066666666666667,0.2577777777777778,0.013679830544282054,0.06317473833974016,-0.8976580091900783
1592298031.3644679,0.10041977930984824,9.64284107068925,0.11242129137940346,-0.44555555555555554,-0.5066666666666667,0.2577777777777778,-0.024205160607796997,0.04176148247117374,-0.8276531342351496
1592298031.3744678,0.06,9.95,0.32,-0.4311111111111111,-0.56,0.2311111111111111,-0.04581489286485115,0.1679879405044542,-1.0515608743265834
1592298031.3844678,-0.11193950664551769,9.744525515506208,0.18515123338620576,-0.4311111111111111,-0.56,0.2311111111111111,-0.1302052983374632,0.11728760777945117,-0.9066214251580073
1592298031.3944678,-0.2667783835031998,9.962003318321877,-0.07039251007347713,-0.4311111111111111,-0.56,0.2311111111111111,0.0740775195137316,0.2507599941228633,-0.917675887613342
1592298031.4044678,-0.49112454298855995,9.631366316782639,0.13513916735464088,-0.4311111111111111,-0.56,0.2311111111111111,-0.13923594907457343,0.045460073747251764,-0.9260362140503962
1592298031.4144678,-0.4993690293666706,9.788011557966742,-0.12043991036678861,-0.4311111111111111,-0.56,0.2311111111111111,-0.04840321985070399,0.050856077463521235,-0.877472180603971
1592298031.4244678,-0.49,9.88,-0.07,-0.41888888888888887,-0.57,0.2288888888888889,0.10253809355466686,0.09490227807719166,-0.8737554567796613
1592298031.4344678,-0.28324225352112675,9.813039436619718,-0.18497464788732396,-0.41888888888888887,-0.57,0.2288888888888889,-0.12336005589672526,0.1331277541823583,-0.8529479364226106
1592298031.4444678,-0.6466179670500466,9.552330169053825,-0.10360847421152053,-0.41888888888888887,-0.57,0.2288888888888889,-0.19752164727611043,0.06314468083552205,-0.999831274259598
1592298031.4544678,-0.76,9.5,-0.06,-0.41888888888888887,-0.57,0.2288888888888889,-0.13853550937704992,0.025089107997418484,-0.8999353955595761
1592298031.4644678,-0.76,9.5,-0.06,-0.41888888888888887,-0.57,0.2288888888888889,-0.13853550937704992,0.025089107997418484,-0.8999353955595761
1592298031.4744678,-2.2657806429165137,9.90860379255021,-1.1798770610635378,-0.4163666432558629,-0.5851334737981558,0.21711840926810097,0.145403106543221,-0.021133457384951194,-0.2090731236838007
1592298031.4844677,-1.3991655744866753,8.663516819571864,1.4181564001747486,-0.41555555555555557,-0.59,0.21333333333333335,-0.16617942026872945,0.14399728814428098,0.026146580040389056
1592298031.4944677,-1.6246616038719681,9.062572666256653,1.0007928443458032,-0.41555555555555557,-0.59,0.21333333333333335,0.04256144783401741,0.06779395033171003,-0.10317531817895269
1592298031.5044677,-0.8976433225905102,10.04647556987932,0.19905478839775104,-0.41555555555555557,-0.59,0.21333333333333335,-0.1555021634213936,0.21459925351952203,-0.11111077277954055
1592298031.5144677,-0.615453370665518,10.281637303467587,-0.02281908248976955,-0.41555555555555557,-0.59,0.21333333333333335,0.1243758069009708,0.12870771842733397,-0.31326766449325155
1592298031.5244677,-0.6603143014503396,10.330078575362585,-0.043307141545805034,-0.39324602737490566,-0.6018984150296799,0.21779523896946332,0.11799905284113407,0.04225097827490008,-0.23885841739518177
1592298031.5344677,-0.7604420308158626,9.934174935950637,0.12405694078591273,-0.38222222222222224,-0.6077777777777778,0.22,0.06773652552945572,0.13260877889852812,-0.3940448975715757
1592298031.5444677,-0.8323382109267428,10.154974678522253,-0.04592009148404866,-0.38222222222222224,-0.6077777777777778,0.22,0.09046836114665362,0.2858028838128862,-0.6324590238673338
1592298031.5544677,-0.6355705956327884,10.385911512518577,-0.18925048588087345,-0.38222222222222224,-0.6077777777777778,0.22,0.015762186798785757,0.21203181403600382,-0.7999321148914837
1592298031.5644677,-0.4314717726806573,10.624007854123414,-0.46722729432952304,-0.38222222222222224,-0.6077777777777778,0.22,-0.20197280777592458,0.17699840631467795,-0.6843723461908608
1592298031.5744677,-0.5480230498493249,10.625589243403647,-0.34399231671689173,-0.37666666666666665,-0.6144444444444445,0.1988888888888889,-0.31965906398157545,0.24171262887331127,-1.0023449361456265
1592298031.5844676,-0.4263728289874069,10.676355975843826,-0.3786299798698563,-0.37666666666666665,-0.6144444444444445,0.1988888888888889,-0.3131211096362715,0.08350398750993726,-0.9924600189748589
1592298031.5944676,-0.7786222222222222,10.387218637992833,-0.12915268817204303,-0.37666666666666665,-0.6144444444444445,0.1988888888888889,-0.43139675333337724,0.2991564714097797,-1.0863545446962246
1592298031.6044676,-1.0842720057575819,10.281958577397493,0.25100517782531334,-0.37666666666666665,-0.6144444444444445,0.1988888888888889,-0.524903254032304,0.19241351302239368,-1.3154000443786187
1592298031.6144676,-1.2268183362987546,10.013636072849403,0.2845454908938246,-0.37666666666666665,-0.6144444444444445,0.1988888888888889,-0.49563380927254386,0.13387462350287335,-1.4562592472849643
1592298031.6244676,-1.569087542161769,10.024608364013138,0.3758894204272393,-0.3688888888888889,-0.6266666666666667,0.17777777777777778,-0.4627163451814436,0.18111713180323757,-1.4158541077881621
1592298031.6344676,-1.7424281687471872,9.269442878461284,0.15946040694506952,-0.3688888888888889,-0.6266666666666667,0.17777777777777778,-0.4369190056519534,0.045371527268128105,-1.5385793655710651
1592298031.6444676,-1.831230032706072,9.606924918234819,0.140205005451012,-0.3688888888888889,-0.6266666666666667,0.17777777777777778,-0.5001694397738683,0.06733585650670733,-1.398305949531964
1592298031.6544676,-1.892537463614475,9.453490854206347,0.1505516225248859,-0.3688888888888889,-0.6266666666666667,0.17777777777777778,-0.6322890261887862,0.0032690819087759894,-1.3404187220781252
1592298031.6644676,-2.0658743306860243,9.008844108240197,0.18823355014913573,-0.3688888888888889,-0.6266666666666667,0.17777777777777778,-0.679970369840535,0.15206775778750964,-1.400431447708775
1592298031.6744676,-2.41,8.77,0.38,-0.3422222222222222,-0.6533333333333333,0.16333333333333333,-0.43305982065109305,0.0818123086872342,-1.3842642629880026
1592298031.6844676,-2.5217380526657998,8.755101592977894,0.40979681404421325,-0.3422222222222222,-0.6533333333333333,0.16333333333333333,-0.47043859492780615,0.08018714458824668,-1.194120063406462
1592298031.6944675,-2.5302013534965324,8.50167794580444,0.42,-0.3422222222222222,-0.6533333333333333,0.16333333333333333,-0.4724029430183591,0.014620085356816262,-0.9957382082647106
1592298031.7044675,-2.856500272841586,8.470318157014402,0.8157579064746494,-0.3422222222222222,-0.6533333333333333,0.16333333333333333,-0.23273350554757533,0.020656373774437443,-0.9290026753499354
1592298031.7144675,-2.627655377946356,8.739819561094555,0.8874548902736386,-0.3422222222222222,-0.6533333333333333,0.16333333333333333,-0.07891367191814039,-0.14687736515238042,-0.7598762695431108
1592298031.7244675,-2.760938524590164,8.925881147540982,0.8812356557377049,-0.28788957194899817,-0.6831630236794171,0.15161452641165757,0.0009236296707531497,-0.08889130869766047,-0.6743006246945531
1592298031.7344675,-2.7606763251853885,9.144444520736062,1.2436233177698435,-0.28555555555555556,-0.6844444444444444,0.1511111111111111,0.01642043365626394,-0.19688709183301883,-0.6364286074227592
1592298031.7444675,-3.0219574468085106,9.07268085106383,0.8819148936170212,-0.28555555555555556,-0.6844444444444444,0.1511111111111111,0.025919996125362596,-0.21142621481339818,-0.5861474768499574
1592298031.7544675,-3.096969241606011,9.404846208030055,1.0230725522423105,-0.28555555555555556,-0.6844444444444444,0.1511111111111111,0.07001120491448232,-0.20953396865504734,-0.642083386022891
1592298031.7644675,-3.092824087329993,9.3195372226199,1.0156481746599857,-0.28555555555555556,-0.6844444444444444,0.1511111111111111,0.11974384088576195,-0.30572029936460626,-0.5844076529216894
1592298031.7744675,-2.91,9.32,1.1,-0.26666666666666666,-0.6844444444444444,0.11555555555555555,0.2083486794568231,-0.42760566673861067,-0.7395832705325971
1592298031.7844675,-2.875558942681802,9.416434960490955,1.0380060968272433,-0.26666666666666666,-0.6844444444444444,0.11555555555555555,0.2023375809761166,-0.27883097934112544,-0.6606876029733246
1592298031.7944674,-2.7619081779053083,9.146106169296988,0.558777618364419,-0.26666666666666666,-0.6844444444444444,0.11555555555555555,0.27987321748589306,-0.24907172447253187,-0.678546827896497
1592298031.8044674,-2.8563621533442087,9.236362153344208,0.6543923327895595,-0.26666666666666666,-0.6844444444444444,0.11555555555555555,0.13252170410878436,-0.2086302846302816,-0.497388585393747
1592298031.8144674,-3.033003148189791,9.440821902406116,0.6313171801214302,-0.26666666666666666,-0.6844444444444444,0.11555555555555555,0.1316491341397866,-0.2812228355107536,-0.5080754097455439
1592298031.8244674,-2.8654384106927657,9.247908556403608,0.685059708578315,-0.24164676380722833,-0.6969543958741636,0.10825808388821938,0.1882008759582412,-0.2723991653531271,-0.6848221550548137
1592298031.8344674,-3.1929524536795144,9.346474418230779,0.5929379848076846,-0.24,-0.6977777777777778,0.10777777777777778,0.3235961068621349,-0.23626002329531084,-0.6348615425265899
1592298031.8444674,-3.6175894185726096,9.163272526866907,0.50344778175806,-0.24,-0.6977777777777778,0.10777777777777778,0.1906293071880052,-0.23810229891270948,-0.5144195653190033
1592298031.8544674,-3.520052533992583,9.093866359227917,0.6660811067794999,-0.24,-0.6977777777777778,0.10777777777777778,0.10583923875027494,-0.4473176334560471,-0.4165687711545324
1592298031.8644674,-3.362654963548656,8.907572812012623,0.6870164303072068,-0.24,-0.6977777777777778,0.10777777777777778,0.29552675512940246,-0.3782066721090223,-0.3103283211419554
1592298031.8744674,-3.1707554602184085,9.337036271450858,0.5706973478939157,-0.22674414976599064,-0.7375453284798058,0.10777777777777778,0.21150655799276624,-0.26985358197846043,-0.21520427864255873
1592298031.8844674,-3.2207064035440998,9.2892935964559,0.2594232782923882,-0.22666666666666666,-0.7377777777777778,0.10777777777777778,0.125487978268844,-0.10626449100262958,-0.12708569610605025
1592298031.8944674,-3.169059625492773,9.242013250109505,0.1429536246167324,-0.22666666666666666,-0.7377777777777778,0.10777777777777778,0.11167505559846191,-0.04535398938540934,-0.048889454134088586
1592298031.9044673,-3.287580458821588,9.276451559663311,-0.001881498597128245,-0.22666666666666666,-0.7377777777777778,0.10777777777777778,0.008269357897611351,-0.10541756995923005,0.0297338255015654
1592298031.9144673,-3.426804585174085,9.161144347352238,0.11459509954654262,-0.22666666666666666,-0.7377777777777778,0.10777777777777778,-0.05420161380926447,-0.12941516370557257,0.134307587425095
1592298031.9244673,-3.68661536128592,9.184591705208886,0.2574319508681477,-0.1879289980707829,-0.72034582690963,0.12036752007144,-0.1252886849883052,-0.14118835624554438,0.2534167638789908
1592298031.9344673,-3.72,8.900850790076795,0.2938659482931929,-0.18222222222222223,-0.7177777777777777,0.12222222222222222,-0.19730817895852637,-0.20248119317755833,0.3517450546600367
1592298031.9444673,-3.7802606674414743,8.738869334218828,0.2855653328905861,-0.18222222222222223,-0.7177777777777777,0.12222222222222222,-0.32698336398873346,-0.19972653417003763,0.44032562661692276
1592298031.9544673,-3.7104932155933663,8.626322779811902,0.4390135688132673,-0.18222222222222223,-0.7177777777777777,0.12222222222222222,-0.2998659284764638,-0.27196911962370307,0.39385835860828655
1592298031.9644673,-3.7620916626036083,8.788513529985373,0.599706240858118,-0.18222222222222223,-0.7177777777777777,0.12222222222222222,-0.2767447933366382,-0.2808318852439721,0.4981552539671963
1592298031.9744673,-3.551532624032338,8.836565228997443,0.6365869656408496,-0.18870652141673763,-0.7233357485159339,0.10554831000775401,-0.33055729359602704,-0.20631760353926323,0.750343363810102
1592298031.9844673,-3.619577146546159,8.79,0.5460095222724338,-0.19,-0.7244444444444444,0.10222222222222223,-0.26973242649620977,-0.2408686320249186,0.8582275351675741
1592298031.9944673,-3.4376152962415887,8.998846216970293,0.43316921056950597,-0.19,-0.7244444444444444,0.10222222222222223,-0.17846997751157467,-0.389143005573215,1.0108359880228939
1592298032.0044672,-3.1546089769510717,8.983652244237767,0.5070828952689042,-0.19,-0.7244444444444444,0.10222222222222223,-0.17679477804475657,-0.3140421102211584,1.0566726494063226
1592298032.0144672,-2.9340283384627686,8.959858307686158,0.6616599384467804,-0.19,-0.7244444444444444,0.10222222222222223,-0.18650115133937767,-0.3111208619227663,1.1027526399351262
1592298032.0244672,-2.6890425027650497,9.31561937114868,1.0628306209511773,-0.22920340232790856,-0.7129702779094469,0.10222222222222223,-0.3561115245271125,-0.17562703071488361,1.0264365198613155
1592298032.0344672,-2.569862841467596,9.226897931192136,1.2402057377986055,-0.23555555555555555,-0.7111111111111111,0.10222222222222223,-0.3110755394767659,-0.21579572846902229,1.0915898381375393
1592298032.0444672,-2.3878204958239424,9.266615405011269,1.240401696937558,-0.23555555555555555,-0.7111111111111111,0.10222222222222223,-0.26987526665606737,-0.24011422716463715,1.1490494466784889
1592298032.0544672,-2.2728581360160307,9.218304502515029,1.2690172984909827,-0.23555555555555555,-0.7111111111111111,0.10222222222222223,-0.2281497139001298,-0.20135604061297296,1.196767434230671
1592298032.0644672,-1.9740520718738541,9.102432015131338,1.113782062416768,-0.23555555555555555,-0.7111111111111111,0.10222222222222223,-0.11500827703363842,-0.2004772362774642,1.1332248630388562
1592298032.0744672,-1.9339586357039187,9.07759724238026,1.1091531204644411,-0.2600355587808418,-0.7212407676181262,0.09209256571520723,-0.16022966383535914,-0.06650845943558742,1.2464473720321068
1592298032.0844672,-1.71843092461224,9.192949380786342,1.0729890585547672,-0.2677777777777778,-0.7244444444444444,0.08888888888888889,-0.16513357591151562,0.012818081424090556,1.2088668835758205
1592298032.0944672,-1.6133352633102613,9.464708266442088,1.0235297523488698,-0.2677777777777778,-0.7244444444444444,0.08888888888888889,-0.18007320413092961,-0.1568044632437387,1.0402450516199826
1592298032.1044672,-1.3691411451398137,9.341484687083888,1.0781472322617462,-0.2677777777777778,-0.7244444444444444,0.08888888888888889,-0.1541310488066963,-0.10395418156591797,1.0984920168004206
1592298032.1144671,-1.1606518841415088,9.36058613732978,1.2596411845233808,-0.2677777777777778,-0.7244444444444444,0.08888888888888889,-0.0637907490540158,-0.1375901790258595,1.0870396169706835
1592298032.1244671,-1.1240733895498825,9.423174309807093,1.30820184051442,-0.29438531866740253,-0.6944036724722875,0.07172273347622776,-0.01933472465852657,-0.1253134440796976,1.1081219477659878
1592298032.1344671,-1.1085245269684216,9.470918114941052,1.3309181149410518,-0.3022222222222222,-0.6855555555555556,0.06666666666666667,0.0008440981685494085,-0.05523884522976986,1.114789707243623
1592298032.144467,-1.0536124686303,9.594031171575748,1.3519376568485009,-0.3022222222222222,-0.6855555555555556,0.06666666666666667,0.08284579557177349,0.012387866840346422,0.9380071332384645
1592298032.154467,-0.9282658182254773,9.586752791451556,1.3664944170968902,-0.3022222222222222,-0.6855555555555556,0.06666666666666667,0.17340579014356539,-0.11597009844367198,0.8843336733686786
1592298032.164467,-0.7224877624858116,9.591552568104426,1.3222371594778661,-0.3022222222222222,-0.6855555555555556,0.06666666666666667,0.17383548532803333,-0.12285781557991347,0.8124468936421329
1592298032.174467,-0.5426397183878495,9.456599295969625,1.3015101056045564,-0.32612233956061826,-0.681572202665823,0.04754657279594985,0.2590651703732448,-0.013519303611237474,0.8322857230706066
1592298032.184467,-0.43337781484570476,9.529933277731443,1.2330025020850708,-0.33555555555555555,-0.68,0.04,0.2710655358556352,0.06070350483779069,0.9379143205097968
1592298032.194467,-0.2894475946588623,9.698887088766366,1.1283346834252268,-0.33555555555555555,-0.68,0.04,0.178051751645601,0.05890751315404227,0.9786595206567911
1592298032.204467,-0.3074605187595712,9.874826282542113,1.12,-0.33555555555555555,-0.68,0.04,0.2510612873711187,0.05725311183420322,0.9076297826363029
1592298032.214467,-0.28131588590972945,9.891315885909728,1.099368472485189,-0.33555555555555555,-0.68,0.04,0.28811710450969424,0.05430042774622054,0.8718666399410143
1592298032.224467,-0.15749104832133867,10.16152302619917,1.2213797993405893,-0.3557088665933988,-0.6723556406408181,0.0448645923194794,0.4081837199196011,0.08826146331595186,0.8968524750380802
1592298032.234467,0.052188138299847725,11.949737066884541,1.6043981876926505,-0.36777777777777776,-0.6677777777777778,0.04777777777777778,0.253352062601506,0.21748347070634616,0.6125266212418361
1592298032.244467,-0.08773256951236552,9.35937487774207,2.9748579013553167,-0.36777777777777776,-0.6677777777777778,0.04777777777777778,0.15162645421999157,0.04455308346396647,-0.128568909959621
1592298032.254467,0.1546709755604928,8.846694405170673,2.044426984447586,-0.36777777777777776,-0.6677777777777778,0.04777777777777778,0.20381046206807224,0.06371738469793396,-0.1324313075670363
1592298032.264467,-0.6057941574772685,10.3568417488876,0.5485509769781389,-0.36777777777777776,-0.6677777777777778,0.04777777777777778,0.19101166624838212,0.20838824818805118,0.03318582005623868
1592298032.274467,-0.2879424196506899,9.78977270914746,0.6724866416779647,-0.3800987142338127,-0.6677777777777778,0.05212634358579011,0.2208543901710292,0.07973034343588199,0.033001741686067114
1592298032.284467,0.2597382456716172,10.141813407729547,0.49873061458931645,-0.38666666666666666,-0.6677777777777778,0.05444444444444444,0.21995586368695152,0.06302570892711143,-0.04429254528556998
1592298032.294467,-0.7195389017871605,9.7149087522272,0.5474639598293829,-0.38666666666666666,-0.6677777777777778,0.05444444444444444,0.15389201086585794,0.10722102109268773,-0.10252027722122346
1592298032.304467,-0.6226142750319609,9.900212509347034,0.3586928624840196,-0.38666666666666666,-0.6677777777777778,0.05444444444444444,0.00346844036199237,0.11807521604531421,0.09215945318397185
1592298032.314467,-0.6268714524207012,9.926717863105175,0.39687145242070115,-0.38666666666666666,-0.6677777777777778,0.05444444444444444,-0.016442710946932667,0.09975413799835899,0.17113344242361955
1592298032.324467,-0.47453845237622583,10.072730773811887,0.5011573430738079,-0.38170784752275205,-0.6572402870969591,0.06250252555330571,0.021654898806246194,0.1263973479875262,0.2826485607993225
1592298032.334467,-0.4055971700521498,10.105669742168411,0.5161266912220561,-0.37777777777777777,-0.6488888888888888,0.06888888888888889,0.02372187984514028,0.15218618989640775,0.2796411801339011
1592298032.344467,-0.6328679830513169,10.302792101692098,0.28242792655570637,-0.37777777777777777,-0.6488888888888888,0.06888888888888889,-0.07579094331023743,0.25513356555314504,0.3767123643261916
1592298032.354467,-1.0981670315921177,10.050265874257116,0.5689771660932124,-0.37777777777777777,-0.6488888888888888,0.06888888888888889,0.03532080730136633,0.2748241871298461,0.47704073933517516
1592298032.364467,-1.2276334620986638,9.904842631878918,0.7022709138116648,-0.37777777777777777,-0.6488888888888888,0.06888888888888889,0.06302274673175096,0.2435485060059046,0.5115749756907713
1592298032.374467,-0.7116505197652218,10.35132699243335,0.6343045046319213,-0.3818806229325287,-0.6488888888888888,0.06537216447053092,-0.0843716070597875,0.19129435283795268,0.8593170489841151
1592298032.384467,-0.7811039529149766,10.377792094170047,0.9492277101725921,-0.38555555555555554,-0.6488888888888888,0.06222222222222222,0.02153742266034242,0.18677021941796154,0.9479368085374056
1592298032.3944669,-0.8510225937764665,10.128601480752945,0.7382859328470344,-0.38555555555555554,-0.6488888888888888,0.06222222222222222,0.0748867863788987,0.07476206636073769,1.0650543286211724
1592298032.4044669,-0.8536282755603092,9.771195002187758,0.8489156011473578,-0.38555555555555554,-0.6488888888888888,0.06222222222222222,0.07288291819655206,0.08746920683042697,1.272381585486668
1592298032.4144669,-0.8670181389599563,9.656268433610256,1.0159226147698854,-0.38555555555555554,-0.6488888888888888,0.06222222222222222,0.07770777839503097,0.08848576475703364,1.3423966742807802
1592298032.4244668,-0.86864373221136,9.907432248484099,0.77135626778864,-0.3955294311760096,-0.6371549175707077,0.05459514086540445,0.04333733956922685,0.03723821727674606,1.3563149132568484
1592298032.4344668,-0.9022524960684636,9.602415974838166,0.6683787441026954,-0.40444444444444444,-0.6266666666666667,0.04777777777777778,0.08608299717299822,-0.12684846414674097,1.3529744584005297
1592298032.4444668,-0.4102223098147418,9.594759164367364,0.6649444225463146,-0.40444444444444444,-0.6266666666666667,0.04777777777777778,0.09193987921032368,-0.18811007787619397,1.2283801728200454
1592298032.4544668,-0.31005754291742593,9.901244605351492,1.052589910808478,-0.40444444444444444,-0.6266666666666667,0.04777777777777778,0.10351042059026844,-0.28106470748663137,1.1838166528159837
1592298032.4644668,-0.043344803484058225,9.979590838217108,0.7496080434431959,-0.40444444444444444,-0.6266666666666667,0.04777777777777778,0.04144564608794708,-0.33444247755665996,1.128674030158547
1592298032.4744668,0.34911299146546065,9.675672915602888,0.47258005689692906,-0.41908300305557583,-0.6211141099520996,0.044244332595780554,-0.04206155651571133,-0.29522222336050286,1.078339023466321
1592298032.4844668,0.3909564958283671,9.23916567342074,0.6893772348033373,-0.43666666666666665,-0.6144444444444445,0.04,-0.043318918616105526,-0.24398335178895997,1.096134443365942
1592298032.4944668,0.9374017022737866,9.407826780151586,0.6174017022737865,-0.43666666666666665,-0.6144444444444445,0.04,-0.06712241490692723,-0.14800657159107036,1.2290364927559152
1592298032.5044668,1.2302164794368642,9.493477652957909,0.6285521430982113,-0.43666666666666665,-0.6144444444444445,0.04,-0.026938644959380434,-0.13294335151233433,1.1907333371584723
1592298032.5144668,1.3265047827023038,9.546478946882784,0.5417928213330053,-0.43666666666666665,-0.6144444444444445,0.04,-0.03387577628765145,-0.10336629021034076,1.1399153494580743
1592298032.5244668,1.9031464644459444,9.48334061222059,0.8584698455552467,-0.4551843764199344,-0.6019324783949392,0.03699712814811874,0.11719607535103574,-0.07613008811732441,1.1256480204960324
1592298032.5344667,2.095010497667185,9.313641912908242,0.7856423017107309,-0.4777777777777778,-0.5866666666666667,0.03333333333333333,0.23124009423933484,-0.11598181953703501,1.1245134910242702
1592298032.5444667,1.9099333257995255,9.290693863713415,0.4624816363430896,-0.4777777777777778,-0.5866666666666667,0.03333333333333333,0.17652610441993077,0.07686245907254749,0.7754227753783299
1592298032.5544667,2.152361011520627,9.220594435680482,0.4270562646398011,-0.4777777777777778,-0.5866666666666667,0.03333333333333333,0.25069910647995663,0.08117118031251294,0.7486945938174016
1592298032.5644667,2.1402308467920257,9.291999080150715,0.2981394279245016,-0.4777777777777778,-0.5866666666666667,0.03333333333333333,0.2359845708119924,-0.01989431366724566,0.7271122445220131
1592298032.5744667,2.0733992583436343,9.17127935723115,0.36389369592089,-0.4908185688779014,-0.5740605686032139,0.03333333333333333,0.2083446343488534,-0.024409529858508444,0.6505281960256105
1592298032.5844667,2.67,9.36,0.51,-0.5111111111111111,-0.5544444444444444,0.03333333333333333,0.23889194136672384,0.2159844949342983,0.5475970528132209
1592298032.5944667,1.9189034892765864,9.525881764640516,0.3744921657961996,-0.5111111111111111,-0.5544444444444444,0.03333333333333333,0.10967507123042314,0.3154716806142398,0.540699296667552
1592298032.6044667,1.931952479837736,9.61141980972618,0.47609504032452793,-0.5111111111111111,-0.5544444444444444,0.03333333333333333,0.0808504368923048,0.3593803568725821,0.32476387687539643
1592298032.6144667,1.86,9.49,0.62,-0.5111111111111111,-0.5544444444444444,0.03333333333333333,0.028361600344907853,0.3687008044838021,0.19525871006686563
1592298032.6244667,2.3371035844963246,9.274049800861315,0.19933167114593792,-0.5127639442051902,-0.5465108455928648,0.031349933620438426,0.18147817199418337,0.315310177842121,0.36479782515423326
1592298032.6344666,2.3364245460237942,9.376644708829055,0.7460726361928616,-0.5166666666666667,-0.5277777777777778,0.02666666666666667,0.009631496199977087,0.4722901119234171,0.3283556663924678
1592298032.6444666,2.2078633815355744,9.597148528668704,0.6753494862972498,-0.5166666666666667,-0.5277777777777778,0.02666666666666667,0.10063065542066749,0.3437239002734719,0.25754913459074863
1592298032.6544666,2.3139465206185568,9.685912532216495,0.5470401095360825,-0.5166666666666667,-0.5277777777777778,0.02666666666666667,0.12266267392430448,0.2704515314412444,0.19250659390532396
1592298032.6644666,2.4556587805347183,9.285809963454511,0.34335853048663206,-0.5166666666666667,-0.5277777777777778,0.02666666666666667,-0.05880591326519036,0.4963444975341571,-0.046527573172392166
1592298032.6744666,2.325182333873582,9.180162074554296,0.2658865478119935,-0.5183355843688097,-0.5254412929947776,0.019990995858094725,-0.03534645327114286,0.45678070507869944,-0.12837708141658433
1592298032.6844666,2.64,9.46,0.07,-0.5222222222222223,-0.52,0.0044444444444444444,-0.04145156973486533,0.35452000431134817,-0.10471975511965977
1592298032.6944666,2.4852920330041934,9.433836602191262,0.5945164344650345,-0.5222222222222223,-0.52,0.0044444444444444444,-0.04701122128152655,0.3429324097615821,-0.20912301733678268
1592298032.7044666,2.18,9.81,0.54,-0.5222222222222223,-0.52,0.0044444444444444444,-0.05890486225480862,0.370882466048795,-0.17344209441693648
1592298032.7144666,2.333339217111411,9.363955975495795,0.5593832416156163,-0.5222222222222223,-0.52,0.0044444444444444444,-0.16055010781254686,0.243754072384376,-0.40885778426498304
1592298032.7244666,2.36145390712657,9.370644974483334,0.4169658691954106,-0.5222222222222223,-0.5142688640357757,0.006804323959125074,-0.12256059677134815,0.3179392117600872,-0.35834685458047905
1592298032.7344666,2.25,8.89,0.41,-0.5222222222222223,-0.5011111111111111,0.012222222222222223,-0.04581489286485115,0.39924406639370286,-0.40469822030618513
1592298032.7444665,2.645952432785458,8.820343147926417,0.3415266136932622,-0.5222222222222223,-0.5011111111111111,0.012222222222222223,0.0070201081712125,0.3357757509029002,-0.38242711161960635
1592298032.7544665,2.6292919504940997,8.964272282452269,0.4893706226614219,-0.5222222222222223,-0.5011111111111111,0.012222222222222223,0.07738462204086774,0.3032552484351068,-0.3809557226587985
1592298032.7644665,2.81,9.15,0.65,-0.5222222222222223,-0.5011111111111111,0.012222222222222223,0.09381144729469522,0.3021601267515183,-0.45487643630102215
1592298032.7744665,2.418005193218268,9.33158545898885,0.5966244081258592,-0.5214890619961645,-0.5023330448212073,0.010511515028087504,0.1726386751358615,0.26932923590566576,-0.42241376540771536
1592298032.7844665,2.34,9.55,0.23,-0.5188888888888888,-0.5066666666666667,0.0044444444444444444,0.11562806294462433,0.222529479629277,-0.41560652813114973
1592298032.7944665,2.035490115743112,9.33313735532111,0.43627419850455795,-0.5188888888888888,-0.5066666666666667,0.0044444444444444444,0.2636603252259516,0.30357184926886366,-0.5638310237794016
1592298032.8044665,2.070306598693186,9.475030516263374,0.38754577439506,-0.5188888888888888,-0.5066666666666667,0.0044444444444444444,0.23695136382187343,0.26131768970822145,-0.5224342410916457
1592298032.8144665,2.16,9.57,0.53,-0.5188888888888888,-0.5066666666666667,0.0044444444444444444,0.13853550937704992,0.17671458676442586,-0.5759586531581287
1592298032.8244665,1.8100723071481903,9.55608676857783,0.3839674617833143,-0.5148852735314793,-0.5080012051191365,0.007335944424795763,0.13438660584756895,0.092287833568037,-0.4503164404147155
1592298032.8344665,2.13,9.94,0.24,-0.4988888888888889,-0.5133333333333333,0.01888888888888889,0.11780972450961724,0.10799224746714915,-0.5454153912482279
1592298032.8444664,1.6449811442732465,9.57704773192544,0.18693675250511801,-0.4988888888888889,-0.5133333333333333,0.01888888888888889,0.12612182921481407,0.03820328934095793,-0.583510196933088
1592298032.8544664,1.5525335013449002,9.35447015775317,0.0025335013449002963,-0.4988888888888889,-0.5133333333333333,0.01888888888888889,0.1308797630490161,0.03822956535099261,-0.8431851798442022
1592298032.8644664,1.88,9.32,0.33,-0.4988888888888889,-0.5133333333333333,0.01888888888888889,0.07635815477475191,-0.02945243112740431,-0.9064803802545548
1592298032.8744664,1.8428030388932986,10.082102279169975,0.2485984805533507,-0.4988888888888889,-0.5156563900333035,0.016565832188918706,0.13370855121099903,0.058637318657740946,-0.7527271279609838
1592298032.8844664,1.44,9.78,0.45,-0.4988888888888889,-0.5277777777777778,0.0044444444444444444,0.017453292519943295,0.09708393964218458,-0.7188574856651644
1592298032.8944664,1.4772618985149812,9.946249934407303,0.19119063861048435,-0.4988888888888889,-0.5277777777777778,0.0044444444444444444,0.04268527261859026,-0.028192741090651438,-0.8994808493432881
1592298032.9044664,1.49,10.08,-0.14,-0.4988888888888889,-0.5277777777777778,0.0044444444444444444,-0.008726646259971648,-0.11017390903214205,-0.9675669040743565
1592298032.9144664,1.3898871827639223,9.586965915217347,0.3337085920808291,-0.4988888888888889,-0.5277777777777778,0.0044444444444444444,-0.07865057440226345,0.017906801589697468,-0.7083165417502174
1592298032.9244664,1.2989663423819238,9.439590459752079,0.564534363721952,-0.4979267569782241,-0.5247310267273393,0.003642667852223791,-0.17169018389339236,0.018499449391529414,-0.6223240107643119
1592298032.9344664,1.53,9.2,0.71,-0.4922222222222222,-0.5066666666666667,-0.0011111111111111111,0.032724923474893676,-0.007635815477475192,-0.6708609312353204
1592298032.9444664,1.46700306239991,9.808338437333184,0.268592138903717,-0.4922222222222222,-0.5066666666666667,-0.0011111111111111111,0.030204486210473468,0.031067239486624893,-0.7906394408843631
1592298032.9544663,1.29859254850613,9.752879181049876,0.24392834186406379,-0.4922222222222222,-0.5066666666666667,-0.0011111111111111111,-0.015072006714382594,-0.04090650492606118,-0.8235409619941292
1592298032.9644663,0.7838139658848614,9.269311656005685,0.36683724235963044,-0.4922222222222222,-0.5066666666666667,-0.0011111111111111111,-0.1215510143719652,-0.013153891918754084,-0.8097069629998326
1592298032.9744663,0.892403292808415,9.52121536643927,0.6443923167803651,-0.4917771679984417,-0.5083578727170328,-0.000488035197818345,-0.04787923576418589,0.026565693527839204,-0.9425140060548927
1592298032.9844663,0.92,9.65,0.58,-0.4866666666666667,-0.5277777777777778,0.006666666666666667,0.20398535632683729,-0.031634092692397225,-0.8803004414746399
1592298032.9944663,0.9787038523274478,9.998155430711611,0.7219341894060995,-0.4866666666666667,-0.5277777777777778,0.006666666666666667,-0.053765000678535194,-0.06853528137015522,-0.6912267536174108
1592298033.0044663,0.79,9.46,0.68,-0.4866666666666667,-0.5277777777777778,0.006666666666666667,0.02399827721492203,-0.08835729338221293,-0.8093964406123703
1592298033.0144663,0.6605803151458137,9.926864024772657,0.3376904985888993,-0.4866666666666667,-0.5277777777777778,0.006666666666666667,-0.06993977520469369,0.17928756548689007,-0.8146069833464552
1592298033.0244663,0.3023152673426216,9.419326719673208,0.5253694653147567,-0.48585203556463313,-0.5288067854856097,0.006923918593624626,0.007042936335278015,0.20317485210694458,-0.6929229420368447
1592298033.0344663,0.36,10.15,0.41,-0.46555555555555556,-0.5544444444444444,0.013333333333333334,-0.03490658503988659,0.10144726277217041,-0.6446809924554054
1592298033.0444663,0.16507219591082362,9.557814485387548,-0.1342682222478919,-0.46555555555555556,-0.5544444444444444,0.013333333333333334,-0.11570454836509046,0.01056418643568446,-0.8083798271489093
1592298033.0544662,0.08692196392398958,9.645854393749397,0.55740064628147,-0.46555555555555556,-0.5544444444444444,0.013333333333333334,-0.0871082358427782,0.059983671486528556,-0.7714607141357901
1592298033.0644662,0.14,10.17,0.71,-0.46555555555555556,-0.5544444444444444,0.013333333333333334,-0.12980886311707826,0.13308135546456762,-0.6708609312353204
1592298033.0744662,-0.3854409406734367,9.947103153393908,0.8052899518973811,-0.45954940910980463,-0.5554799869350912,0.012504899340815964,-0.10253809355466686,-0.0013491087283253867,-0.7643454499563732
1592298033.0844662,-0.06,10.24,0.13,-0.43333333333333335,-0.56,0.008888888888888889,-0.10253809355466686,-0.011999138607461015,-0.6534076387153771
1592298033.0944662,-0.35429394230283434,9.855739655433739,0.6314217147476381,-0.43333333333333335,-0.56,0.008888888888888889,-0.05548304408479744,0.11343959505408005,-0.7077851922395674
1592298033.1044662,-0.44,10.12,0.56,-0.43333333333333335,-0.56,0.008888888888888889,-0.12326387842209952,0.042542400517361786,-0.6228643768054763
1592298033.1144662,-0.7907654180191246,10.911314150364067,0.755475041670322,-0.43333333333333335,-0.56,0.008888888888888889,-0.09176926163684228,0.14365937094408202,-0.3569846847410866
1592298033.1244662,-2.0923225041065887,10.415273955101297,0.1371905457200219,-0.4326031108677577,-0.562190667396727,0.008888888888888889,0.07214972603220582,-0.02778411106443528,0.0864079733983796
1592298033.1344662,-2.207150939952546,9.159816389852162,1.4156137981383463,-0.4257984628176269,-0.5826046115471193,0.008888888888888889,-0.02805698798914595,0.06908237915620474,-0.06390209763364801
1592298033.1444662,-0.15168267940529226,9.642895711448661,0.9886871343459825,-0.42444444444444446,-0.5866666666666667,0.008888888888888889,0.10045022786287233,0.07286903026069946,-0.12227410361784305
1592298033.1544662,-0.968284793535509,9.6158204468387,0.65572136312258,-0.42444444444444446,-0.5866666666666667,0.008888888888888889,-0.05763503773890091,0.04541571821329236,-0.06078257813677313
1592298033.1644661,-0.4261336032388664,9.83,0.6483198380566801,-0.42444444444444446,-0.5866666666666667,0.008888888888888889,-0.008806140001206206,0.15987295442009294,-0.06111743805250386
1592298033.1744661,-0.5518750610053685,9.834318204001953,0.5735226939970717,-0.4231249932216257,-0.5858270158885093,0.007449487554904832,-0.017843840817668724,0.07487060017619086,-0.014974141330128997
1592298033.1844661,-0.65,9.87,0.52,-0.4122222222222222,-0.5788888888888889,-0.0044444444444444444,-0.14726215563702155,-0.01854412330243975,-0.030543261909900768
1592298033.194466,-0.3766984557169155,9.83446563714461,0.5088359071384742,-0.4122222222222222,-0.5788888888888889,-0.0044444444444444444,0.023531957653576643,0.01549224026896007,-0.10537762269220852
1592298033.204466,-0.34465926493108734,9.863835183767229,0.47,-0.4122222222222222,-0.5788888888888889,-0.0044444444444444444,-0.013318513473311679,0.0702470801804676,-0.08985645486822619
1592298033.214466,-0.2,9.9,0.47,-0.4122222222222222,-0.5788888888888889,-0.0044444444444444444,-0.14508049407202864,0.022907446432425576,-0.18216874067690814
1592298033.224466,-0.15512195860065367,9.980780474518824,0.4430731751603922,-0.4122222222222222,-0.5788888888888889,-0.0044444444444444444,-0.23124014834116952,0.16879140650176633,-0.15671247918829836
1592298033.234466,-0.16360376235811058,9.931358476748445,0.5348301904064445,-0.4311111111111111,-0.5733333333333334,0.008888888888888889,-0.15635926896062025,0.25235444983959954,-0.11270339523308616
1592298033.244466,-0.26,10.041399148207406,0.5651544719111251,-0.4311111111111111,-0.5733333333333334,0.008888888888888889,-0.2044286991394002,0.17847207869238252,-0.16455159124919458
1592298033.254466,-0.23629755033987432,10.017293061433884,0.748232653584712,-0.4311111111111111,-0.5733333333333334,0.008888888888888889,-0.23733623787368752,0.20024799126880805,-0.18681634855103052
1592298033.264466,-0.13,10.05,0.83,-0.4311111111111111,-0.5733333333333334,0.008888888888888889,-0.12762720155208535,0.09053895494720585,-0.32506757318394386
1592298033.274466,-0.13872403995430446,9.980207680365565,0.9434125194059579,-0.4311111111111111,-0.5733333333333334,0.008888888888888889,-0.22279171485092814,0.2075913063047825,-0.44211992454152055
1592298033.284466,-0.17,10.09,0.98,-0.42444444444444446,-0.5722222222222222,-0.035555555555555556,-0.1974403716318585,0.2498002491916884,-0.3981532356112064
1592298033.294466,-0.4217060017086715,10.387744553609568,1.0594361384023923,-0.42444444444444446,-0.5722222222222222,-0.035555555555555556,-0.2465519289274293,0.16382859480934145,-0.6110481888327772
1592298033.304466,-0.19480943955623567,10.001740627390971,1.0102986323641927,-0.42444444444444446,-0.5722222222222222,-0.035555555555555556,-0.11501470536256692,0.23802914074708523,-0.7166724074295396
1592298033.314466,-0.3429327445289268,9.655513274809024,1.0595893801527805,-0.42444444444444446,-0.5722222222222222,-0.035555555555555556,-0.057836427310774714,0.24486737638659514,-0.8256917148344295
1592298033.324466,-0.6192715326127602,9.76754251322139,0.9699659894228886,-0.42444444444444446,-0.5722222222222222,-0.035555555555555556,-0.0627246249827684,0.04119247338685844,-0.8110271218184484
1592298033.334466,-0.61,9.51,1.26,-0.43,-0.5644444444444444,-0.04,-0.07635815477475191,0.05999569303730508,-0.6795875774952921
1592298033.344466,-0.6783025530899547,9.698302553089954,1.2781090431877835,-0.43,-0.5644444444444444,-0.04,-0.05680378317854415,0.031204293391243233,-0.8251247577259865
1592298033.354466,-0.6915961781649571,9.740224345463913,1.098403821835043,-0.43,-0.5644444444444444,-0.04,0.01859587786113344,0.13033402117118725,-0.9739734849198769
1592298033.364466,-0.6459466634694437,9.784096841600437,1.1440533365305563,-0.43,-0.5644444444444444,-0.04,0.02082131476930482,0.07319130022604706,-0.8749560544648565
1592298033.374466,-0.7824424499862976,9.805648807892574,1.0075575500137024,-0.43,-0.5644444444444444,-0.04,0.18773910737829025,0.09670084848083374,-1.0935948532343727
1592298033.384466,-0.8778892797630068,9.67,1.0138334170920729,-0.41,-0.5777777777777777,-0.04555555555555556,0.11238603895765857,0.11444637528022554,-0.8470670483808944
1592298033.394466,-1.0,9.67,1.04,-0.41,-0.5777777777777777,-0.04555555555555556,0.16471544815696484,0.1287180323345818,-1.0297442586766543
1592298033.404466,-1.1765768896611641,9.780356211989575,0.7745786272806255,-0.41,-0.5777777777777777,-0.04555555555555556,0.1168259865841339,0.0383439814326882,-0.9649056939638004
1592298033.414466,-1.3942808316214492,9.614420910958419,0.5838947722603952,-0.41,-0.5777777777777777,-0.04555555555555556,0.012355047553000343,0.012144484835546008,-0.8790221519205678
1592298033.424466,-1.475986045193738,9.52528795069774,0.6061780123255649,-0.41,-0.5777777777777777,-0.04555555555555556,-0.016813645483214127,-0.04943386712979565,-0.9341185721000838
1592298033.434466,-1.6,9.54,0.61,-0.38333333333333336,-0.6111111111111112,-0.03111111111111111,0.1090830782496456,0.11890055529211369,-0.9086620418195479
1592298033.4444659,-1.6998439995542844,9.500062400178287,0.5401092003120009,-0.38333333333333336,-0.6111111111111112,-0.03111111111111111,0.00017017008826969438,0.19187220376023556,-0.9195533326356855
1592298033.4544659,-1.7440438375853395,9.447213079410709,0.5115846209126842,-0.38333333333333336,-0.6111111111111112,-0.03111111111111111,-0.08357072947646726,0.2243951412744537,-0.6957771839057245
1592298033.4644659,-2.01,9.37,0.34,-0.38333333333333336,-0.6111111111111112,-0.03111111111111111,-0.03490658503988659,0.05781403147231216,-0.7144941625351786
1592298033.4744658,-1.9186007793127877,9.24813437241705,0.6065810603377022,-0.38333333333333336,-0.6111111111111112,-0.03111111111111111,-0.08808049619817881,0.1633310114270483,-0.6530118277584033
1592298033.4844658,-2.12,9.72,0.88,-0.36444444444444446,-0.6233333333333333,-0.05333333333333334,-0.05890486225480862,0.2181661564992912,-0.5061454830783556
1592298033.4944658,-2.12,9.145321511179645,0.7809175019275251,-0.36444444444444446,-0.6233333333333333,-0.05333333333333334,-0.16590627876986905,0.1965497087184709,-0.3904974874509671
1592298033.5044658,-2.28,9.35,0.68,-0.36444444444444446,-0.6233333333333333,-0.05333333333333334,-0.2617993877991494,0.20071286397934787,-0.30325095753401476
1592298033.5144658,-2.501854638566082,9.002749261374827,0.7861043923576916,-0.36444444444444446,-0.6233333333333333,-0.05333333333333334,-0.0787166869129477,0.15441608904260723,-0.28852016550868814
1592298033.5244658,-2.4008672175407018,9.174686247238812,0.932712100139082,-0.36444444444444446,-0.6233333333333333,-0.05333333333333334,-0.1882930286273325,0.2506998298419023,-0.104832559677385
1592298033.5344658,-2.58,9.15,1.09,-0.3377777777777778,-0.6433333333333333,-0.07444444444444444,-0.22143864884678055,0.05126904677733343,0.15817046346198613
1592298033.5444658,-2.4679945527522937,9.093997276376147,1.0806662127293578,-0.3377777777777778,-0.6433333333333333,-0.07444444444444444,-0.09824150093449042,0.0919953766656938,0.18260626139500233
1592298033.5544658,-2.4411432278526632,9.064513803791536,0.9852858069631658,-0.3377777777777778,-0.6433333333333333,-0.07444444444444444,-0.08413731232074084,-0.0026181354115753265,0.29036668361922563
1592298033.5644658,-2.260770304821658,9.318487315719803,0.9284454276751228,-0.3377777777777778,-0.6433333333333333,-0.07444444444444444,-0.09044731226464277,0.08216974086377528,0.3031821612357298
1592298033.5744658,-2.2683759769343754,9.501023446425009,0.8143603459843691,-0.3377777777777778,-0.6433333333333333,-0.07444444444444444,-0.03569040393460806,0.23648466433932766,0.41020702751716126
1592298033.5844657,-2.3089732986767486,9.228213610586012,0.8192299740075614,-0.3496862857067843,-0.6357551919239656,-0.08093999422390254,-0.10477349760977092,0.11426175357073065,0.4118031837050802
1592298033.5944657,-2.3197837168310227,9.347188318803296,0.7906488495069316,-0.35,-0.6355555555555555,-0.0811111111111111,-0.11757379617116105,0.13045143005650794,0.4240500603849739
1592298033.6044657,-2.3887057500956757,9.281294249904324,0.7507395713738997,-0.35,-0.6355555555555555,-0.0811111111111111,-0.12958700763143993,0.042034739434912635,0.5560246129351387
1592298033.6144657,-2.292447693291946,9.38730753737886,0.7304895386583892,-0.35,-0.6355555555555555,-0.0811111111111111,0.013848766614840718,0.05525856722086417,0.5563770994569719
1592298033.6244657,-2.1818671085537686,9.298502938007035,0.8797224650793973,-0.35,-0.6355555555555555,-0.0811111111111111,0.026526729949935365,0.10644361951527485,0.6261891672841315
1592298033.6344657,-2.06,9.41,0.94,-0.35,-0.6355555555555555,-0.057777777777777775,0.01090830782496456,-0.06872233929727672,0.7014041931452212
1592298033.6444657,-2.0256212544946064,9.281079704354774,0.9485946863763484,-0.35,-0.6355555555555555,-0.057777777777777775,-0.037843504194198865,0.010030587810602648,0.7454683309317728
1592298033.6544657,-1.9665444387060425,9.404816658059064,0.8491361096765107,-0.35,-0.6355555555555555,-0.057777777777777775,0.014974685705083514,0.0245521687080766,0.7010414876847939
1592298033.6644657,-1.8876265044884284,9.293236584788506,0.8306473169577013,-0.35,-0.6355555555555555,-0.057777777777777775,0.05886507758907653,-0.0873597768082084,0.6484704669694823
1592298033.6744657,-1.803616781077587,9.407795298530562,0.8535590597061127,-0.35,-0.6355555555555555,-0.057777777777777775,0.1346766748765844,-0.20649228683143508,0.7825986775550732
1592298033.6844656,-1.57,9.41,0.94,-0.37666666666666665,-0.6166666666666667,-0.10777777777777778,0.1974403716318585,-0.00545415391248228,0.6948592084502424
1592298033.6944656,-1.5871569327968111,9.452892331992029,0.8542153360159452,-0.37666666666666665,-0.6166666666666667,-0.10777777777777778,0.0374244674725919,-0.1991576168421208,0.7800138708975715
1592298033.7044656,-1.4150438180956892,9.522180720037897,0.7207929891046897,-0.37666666666666665,-0.6166666666666667,-0.10777777777777778,0.13212027722090816,-0.10969814972307314,0.7582500929204484
1592298033.7144656,-1.1681523233434148,9.629589405187426,0.7598973512968564,-0.37666666666666665,-0.6166666666666667,-0.10777777777777778,0.13818839504501548,-0.08635478760149586,0.9250068079242844
1592298033.7244656,-1.029764641187792,9.59883658693062,0.7522091467326552,-0.37666666666666665,-0.6166666666666667,-0.10777777777777778,0.11219015142265795,-0.09977323592271264,0.8419801589367556
1592298033.7344656,-1.0590938810553776,9.659093881055378,0.7598705544364825,-0.3953110472689114,-0.6166666666666667,-0.07268247311472883,0.1337909375926394,-0.1628479997450848,0.9720926829329378
1592298033.7444656,-0.953371981803336,9.669693456199697,0.7212261752012131,-0.39555555555555555,-0.6166666666666667,-0.07222222222222222,0.14686089074075645,-0.09066456653573735,0.7975274178987831
1592298033.7544656,-0.6443631245601689,9.729155524278678,0.660844475721323,-0.39555555555555555,-0.6166666666666667,-0.07222222222222222,0.017129344180595307,-0.1259990157043197,0.8414151260014816
1592298033.7644656,-0.560173690685837,9.799848020649893,0.6999131546570815,-0.39555555555555555,-0.6166666666666667,-0.07222222222222222,0.06751782822673394,-0.08408633548626475,0.8399444392009396
1592298033.7744656,-0.4242067125707488,9.830176286095389,0.7,-0.39555555555555555,-0.6166666666666667,-0.07222222222222222,0.02154739803080187,-0.04284744303438925,0.8004390363931467
1592298033.7844656,-0.22,9.84,0.79,-0.44222222222222224,-0.5822222222222222,-0.057777777777777775,0.11780972450961724,-0.11890055529211369,0.9042987186895619
1592298033.7944655,-0.21239227824387064,9.847607721756129,0.8052154435122587,-0.44222222222222224,-0.5822222222222222,-0.057777777777777775,0.07299654429784624,-0.0359131845295748,0.7383239771644842
1592298033.8044655,-0.18083526494528596,9.93749420516414,0.7711136865937146,-0.44222222222222224,-0.5822222222222222,-0.057777777777777775,0.02497015210970406,-0.03314759026722749,0.7635461197087906
1592298033.8144655,0.08172163775945407,9.910919818026727,0.8863207278930907,-0.44222222222222224,-0.5822222222222222,-0.057777777777777775,0.06629368742431452,0.06980800075562146,0.799599537480026
1592298033.8244655,1.806278237012756,11.43075286823915,1.0927670490985535,-0.44222222222222224,-0.5822222222222222,-0.057777777777777775,0.04867283375769407,0.18920754531441553,0.20821120819345496
1592298033.8344655,2.594980323567993,10.419160472234367,1.304980323567993,-0.44864985667784096,-0.5640105912646359,-0.07170431909828498,0.11717535418136177,0.34807518335240983,-0.12788381150441727
1592298033.8444655,0.6281694420809529,9.485224261577732,1.6541740610185973,-0.4488888888888889,-0.5633333333333334,-0.07222222222222222,0.13641669621255575,0.3226163529729299,-0.09679343152933059
1592298033.8544655,-0.140764048505984,9.62950542918285,0.5246746453198066,-0.4488888888888889,-0.5633333333333334,-0.07222222222222222,0.12174162609687046,0.1748761603747132,-0.0264839223759566
1592298033.8644655,0.5167292907937728,9.89516432827215,0.8515649625216222,-0.4488888888888889,-0.5633333333333334,-0.07222222222222222,0.12306158832960264,0.21479465495767652,0.03549382644326399
1592298033.8744655,0.48886311072564326,9.739271465741544,1.0507285342584562,-0.4488888888888889,-0.5633333333333334,-0.07222222222222222,0.1387835401404016,0.07926518412048772,-0.015048907844184806
1592298033.8844655,0.07709224952741023,9.836908506616258,0.8745463137996219,-0.47507061541692924,-0.5698787649653434,-0.05804045368620037,0.1365125441013215,0.05932123380793089,0.11285087788249537
1592298033.8944654,0.02628091801151569,9.64326413105182,0.7971348633525261,-0.47555555555555556,-0.57,-0.057777777777777775,0.20629935775482708,-0.005180804863912494,-0.00995592081625829
1592298033.9044654,0.1106936040925498,9.67069360409255,0.696768287932691,-0.47555555555555556,-0.57,-0.057777777777777775,0.20239067950501843,0.062413485517224115,0.0031893536436376144
1592298033.9144654,0.06469752924638442,9.716868313835745,0.7545195492125515,-0.47555555555555556,-0.57,-0.057777777777777775,0.3172570262168515,-0.06784496526388425,-0.1058920648877207
1592298033.9244654,0.01136435529673964,9.629676659836802,0.7252602537833854,-0.47555555555555556,-0.57,-0.057777777777777775,0.2848066280538351,-0.18649506755097944,0.0715741487284135
1592298033.9344654,-0.24936710883810134,9.839340738373021,0.6401845932555538,-0.45671647754514944,-0.5755409052971783,-0.07218413155044127,0.3673424525512752,-0.21603052007838958,0.13204805611218526
1592298033.9444654,-0.28548119469026545,9.769037610619469,0.6187112831858407,-0.45666666666666667,-0.5755555555555556,-0.07222222222222222,0.3374208697943504,-0.18192499309055385,0.08941614737739062
1592298033.9544654,0.4538160840818693,9.784870005004873,0.6010259989990253,-0.45666666666666667,-0.5755555555555556,-0.07222222222222222,0.2976580468886959,-0.06716004020407768,0.05241659857673181
1592298033.9644654,-0.16544676602724107,9.735734864151752,0.45529297107133515,-0.45666666666666667,-0.5755555555555556,-0.07222222222222222,0.32609448759384163,-0.16711455503660788,0.0047960875351265655
1592298033.9744654,-0.5468343642117376,10.016378739930955,0.04452459723820479,-0.45666666666666667,-0.5755555555555556,-0.07222222222222222,0.1977805109340387,-0.23765545988315542,0.05355269913758277
1592298033.9844654,-0.5394181034482759,9.777974137931034,0.2585991379310345,-0.4802873563218391,-0.5647294061302682,-0.06730124521072797,0.3054443737410605,-0.22545638550041514,-0.041272899175663305
1592298033.9944654,-0.41003823541503925,9.823467499897218,0.28800764708300786,-0.48333333333333334,-0.5633333333333334,-0.06666666666666667,0.24748269907384576,-0.13098530817264079,-0.0879101168936107
1592298034.0044653,-0.4329735868102288,9.821787516823688,0.16571668909825032,-0.48333333333333334,-0.5633333333333334,-0.06666666666666667,0.21629537436659116,-0.08625289288038136,-0.04519313400026535
1592298034.0144653,-0.34469203239781504,10.003064607270671,0.07979468826521002,-0.48333333333333334,-0.5633333333333334,-0.06666666666666667,0.20803677869814355,-0.13361639471068193,0.08953935205459981
1592298034.0244653,-0.3850576071392894,9.96270736905198,0.10670507142619294,-0.48333333333333334,-0.5633333333333334,-0.06666666666666667,0.1674626301659219,-0.0735619542135995,0.013477032518667206
1592298034.0344653,-0.4481393064893858,9.891860693510615,0.09482586688826773,-0.47786180151595276,-0.5719314547606457,-0.06041348744680315,0.022420087268892733,-0.08228120852499238,0.020179833826106143
1592298034.0444653,-0.4520529137529138,9.864105827505828,0.0005291375291375244,-0.47555555555555556,-0.5755555555555556,-0.057777777777777775,-0.03703052665438377,-0.25273445686014906,-0.04562784971249581
1592298034.0544653,-0.4344879807129649,9.86,-0.10531610607869299,-0.47555555555555556,-0.5755555555555556,-0.057777777777777775,-0.11626040419311595,-0.1821114454430547,-0.013973909227750395
1592298034.0644653,-0.4223801898123072,9.905718861126157,-0.14523962037538563,-0.47555555555555556,-0.5755555555555556,-0.057777777777777775,0.0318589225680162,-0.1422227244749955,0.048728433218279264
1592298034.0744653,-0.454275870731576,9.931425290243858,-0.06431032317105995,-0.47555555555555556,-0.5755555555555556,-0.057777777777777775,-0.020851194489415026,-0.07045636661143234,0.105019430679602
1592298034.0844653,-0.4864095735236675,9.888723411810659,0.08973402933134478,-0.47128250653977727,-0.567721632359962,-0.049231679746221134,-0.10874654411242286,-0.11433123670382325,0.08671235108579253
1592298034.0944653,-0.4003025334938648,9.843691369726157,0.2378517816430566,-0.4688888888888889,-0.5633333333333334,-0.044444444444444446,-0.19439070082956028,-0.03189477769303531,0.046451893108665716
1592298034.1044652,-0.33005200220470177,9.790052002204702,0.3598959955905965,-0.4688888888888889,-0.5633333333333334,-0.044444444444444446,-0.1636756704195501,0.05339398273667997,0.02002314544154845
1592298034.1144652,-0.29455983110261313,9.805440168897386,0.4054401688973869,-0.4688888888888889,-0.5633333333333334,-0.044444444444444446,-0.12217109227849678,0.024397692310233823,-0.019139509033070982
1592298034.1244652,-0.29339528728594283,9.794907069071085,0.47094175275039996,-0.4688888888888889,-0.5633333333333334,-0.044444444444444446,-0.07121354610021877,0.007511454433872324,-0.06512002732825709
1592298034.1344652,-0.3701025767273921,9.77,0.5343443295585097,-0.4746129438153072,-0.5690573882597516,-0.04253642613563835,-0.09606024517077236,0.06599087610204475,0.025102714289798225
1592298034.1444652,-0.4620910488179756,9.699636243870307,0.5575909390324233,-0.47555555555555556,-0.57,-0.042222222222222223,-0.03985488344201994,0.06413091812545585,0.017145835201389986
1592298034.1544652,-0.551777639493881,9.729444098734703,0.4826114913918274,-0.47555555555555556,-0.57,-0.042222222222222223,-0.09269595346401537,0.026616406852811785,0.04333003419375053
1592298034.1644652,-0.5923197301032437,9.745382895699537,0.4830855215023169,-0.47555555555555556,-0.57,-0.042222222222222223,-0.09564921472307149,0.04674840848531617,0.03540291703644237
1592298034.1744652,-0.6207516313542254,9.74,0.5238725529686619,-0.47555555555555556,-0.57,-0.042222222222222223,-0.06678664851776739,0.07963064712224129,0.08421322609709367
1592298034.1844652,-0.5919415278545301,9.742257309018184,0.54,-0.47555555555555556,-0.5712540605656576,-0.04573359180606358,-0.07114768030524779,0.05599216236088128,0.14251992231180527
1592298034.1944652,-0.5052689729644311,9.758243675678523,0.5235126486429541,-0.47555555555555556,-0.5755555555555556,-0.057777777777777775,-0.09529718476354496,-0.014298161768158207,0.04739451961026432
1592298034.2044652,-0.42241805707362684,9.785860647642124,0.4682787047157512,-0.47555555555555556,-0.5755555555555556,-0.057777777777777775,-0.0856570429596288,0.021852369996527402,0.008833952394599671
1592298034.2144651,-0.3516440861108802,9.811342365555648,0.47402709666694376,-0.47555555555555556,-0.5755555555555556,-0.057777777777777775,-0.0695861365597523,-0.0017061061286871987,0.020023195911106087
1592298034.2244651,-0.3653383588445161,9.784661641155484,0.510096673955576,-0.47555555555555556,-0.5755555555555556,-0.057777777777777775,-0.05998514754464428,0.010239296748900152,0.04363323129985824
1592298034.2344651,-0.4524582580411999,9.738342609324178,0.5316573906758222,-0.46454579769505683,-0.5794413524474963,-0.057777777777777775,-0.06017648631408602,0.019116858741836516,-0.021219595723289207
1592298034.244465,-0.5339979738441701,9.737999631608032,0.54,-0.45666666666666667,-0.5822222222222222,-0.057777777777777775,-0.017455301786442647,-0.01679827164115559,-0.025745535362755735
1592298034.254465,-0.5947001552509013,9.7490363918638,0.54,-0.45666666666666667,-0.5822222222222222,-0.057777777777777775,0.042740887343690304,-0.032449280814990156,0.0320428062021719
1592298034.264465,-0.6141249070129168,9.787732129573273,0.4022678704267262,-0.45666666666666667,-0.5822222222222222,-0.057777777777777775,0.017048149985455535,-0.03289252796112022,-0.06167454114361834
1592298034.274465,-0.5644865422330426,9.780640934604719,0.4093590653952796,-0.45666666666666667,-0.5822222222222222,-0.057777777777777775,0.029424619995666895,-0.07775723174813642,0.07291957021743022
1592298034.284465,-0.4813398989244525,9.807667487365556,0.46,-0.4595175154420975,-0.577816365023829,-0.061146962694196075,-0.023078061017688403,-0.04894122491311785,0.04438580135117496
1592298034.294465,-0.426988467020863,9.800873558377608,0.46,-0.4678212064273682,-0.5649833880465926,-0.07096041567678861,-0.11571589694455615,-0.05487004641243738,0.13554143190321283
1592298034.304465,-0.43,9.823295863427447,0.389775180564675,-0.4688888888888889,-0.5633333333333334,-0.07222222222222222,-0.02180435365190132,-0.01923643914903271,0.07021953498637672
1592298034.314465,-0.4514739016753284,9.815368475418833,0.32073695083766424,-0.4688888888888889,-0.5633333333333334,-0.07222222222222222,-0.011597194278005672,0.057170357154095464,-0.041290792003083186
