time,acc_x,acc_y,acc_z,mag_x,mag_y,mag_z,gyr_x,gyr_y,gyr_z
1592297532.174944,-0.42,9.84,0.5302087598190907,-0.3022222222222222,-0.5788888888888889,0.14,0.07835763903029482,-0.05848052622415979,0.04523393004819855
1592297532.184944,-0.43543831323012633,9.84,0.5408766264602527,-0.3022222222222222,-0.5788888888888889,0.14,0.09936122631993693,-0.13256339473732942,-0.03471357357177083
1592297532.194944,-0.44,9.84,0.5442304810162718,-0.3022222222222222,-0.5788888888888889,0.14,0.02860974644248189,-0.11810168055743749,0.08051877660228804
1592297532.204944,-0.44,9.824806033584732,0.585581899245802,-0.3123515331657337,-0.5738242334171331,0.13493534452824424,0.06052935878243156,-0.06122992859161604,0.054244138991072444
1592297532.214944,-0.4490617713460898,9.82,0.595469114326955,-0.31555555555555553,-0.5722222222222222,0.13333333333333333,0.07046220208167603,-0.05621147634146297,0.03780211721060519
1592297532.2249439,-0.46,9.827262665419061,0.5464240074856302,-0.31555555555555553,-0.5722222222222222,0.13333333333333333,-0.01320049602184254,-0.027319062993124248,-0.036943366312740936
1592297532.2349439,-0.4374455774247095,9.80744557742471,0.5901451268674414,-0.31555555555555553,-0.5722222222222222,0.13333333333333333,0.053122967625839984,0.026824297205145835,0.0950431522636151
1592297532.2449439,-0.44655638544077425,9.8,0.6044812048530752,-0.31555555555555553,-0.5722222222222222,0.13333333333333333,0.06484292458405795,-0.055358399941696446,0.12092311346136378
1592297532.2549438,-0.5593732562371113,9.866248837491408,0.5668755812542963,-0.32438873388774325,-0.5670695348617794,0.1473191990259638,0.13472975334590917,-0.05286579438790939,0.012164234221018255
1592297532.2649438,-0.6065076187298409,9.886030474919364,0.5360304749193638,-0.3288888888888889,-0.5644444444444444,0.15444444444444444,0.15532879528407129,-0.06038102042749624,-0.00616184115019798
1592297532.2749438,-0.6133493883582825,9.86,0.48330122328343506,-0.3288888888888889,-0.5644444444444444,0.15444444444444444,0.11999926706655287,-0.11048935767554646,0.05528802429345821
1592297532.2849438,-0.6486179486563723,9.874308974328187,0.49146346149227926,-0.3288888888888889,-0.5644444444444444,0.15444444444444444,0.00229668853278768,-0.07493028528406884,0.13584849931838155
1592297532.2949438,-0.6495288796102993,9.895706680584551,0.48952887961029923,-0.3288888888888889,-0.5644444444444444,0.15444444444444444,0.005585099152552314,-0.10927122188878391,0.15329322770865297
1592297532.3049438,-0.6726329161218009,9.931755277414533,0.5071940967681674,-0.34339240716524483,-0.5723005168441372,0.13873229964505884,0.04049421441706814,-0.14973102379735362,0.15951076090690217
1592297532.3149438,-0.7070817852719824,9.95,0.5370817852719825,-0.35555555555555557,-0.5788888888888889,0.12555555555555556,0.11783609378760701,-0.09786860102457337,0.08614926253923025
1592297532.3249438,-0.924437636979478,9.96478880255031,0.5473944012751545,-0.35555555555555557,-0.5788888888888889,0.12555555555555556,0.0916986282581653,-0.08494657262713884,0.22279148331692386
1592297532.3349438,-1.0679804693123471,10.022873698354047,0.5877669273957483,-0.35555555555555557,-0.5788888888888889,0.12555555555555556,0.11018655050409237,-0.17651957308429772,0.28032021729199125
1592297532.3449438,-1.1262476662687846,10.049061916567195,0.6113273957089952,-0.35555555555555557,-0.5788888888888889,0.12555555555555556,0.10225821614978614,-0.20804169237130737,0.33411452766560534
1592297532.3549438,-1.3081874587970683,10.08,0.6435347268003258,-0.32969446275685854,-0.5652399788006877,0.1305841013775244,0.14267831438281992,-0.21393464508521876,0.4840387632089996
1592297532.3649437,-1.3202903405918482,10.107593523171413,0.576929089893914,-0.31555555555555553,-0.5577777777777778,0.13333333333333333,0.18334544925970164,-0.2369910575743333,0.46962305545557503
1592297532.3749437,-1.2285916691033787,10.15,0.35036019032935484,-0.31555555555555553,-0.5577777777777778,0.13333333333333333,0.15162547876700738,-0.2997974671338301,0.5756324101124903
1592297532.3849437,-1.1746423927178153,10.153169700910274,0.2709817945383615,-0.31555555555555553,-0.5577777777777778,0.13333333333333333,0.15992373634516638,-0.29636482224971167,0.62137423670533
1592297532.3949437,-1.006557103610675,10.140270800627944,0.19547390109890111,-0.31555555555555553,-0.5577777777777778,0.13333333333333333,0.11270373313004911,-0.32909750366405954,0.6669828736830268
1592297532.4049437,-0.7931917750141323,10.102916195590728,0.17708380440927077,-0.32314835751523147,-0.5660033132340934,0.13333333333333333,0.16135523920189485,-0.3669274336660452,0.7762945207159679
1592297532.4149437,-0.7138849028400598,10.086942451420029,0.20528774289985052,-0.3288888888888889,-0.5722222222222222,0.13333333333333333,0.19801334313704425,-0.3781454587184708,0.8456802606603819
1592297532.4249437,-0.6345811401052749,10.047290570052636,0.20729057005263746,-0.3288888888888889,-0.5722222222222222,0.13333333333333333,-0.029847092214071877,-0.37524777439551454,1.0361122231225754
1592297532.4349437,-0.5371101828946835,9.995410600592075,0.23402287197372157,-0.3288888888888889,-0.5722222222222222,0.13333333333333333,-0.05308898551056214,-0.36952913517045793,1.0858307617123695
1592297532.4449437,-0.35646911099949774,9.9151632345555,0.3396735308890005,-0.3288888888888889,-0.5722222222222222,0.13333333333333333,0.02195906467225412,-0.4054882644992338,1.1321004557874292
1592297532.4549437,-0.31,9.827514714993804,0.4207016728624535,-0.3360899851989536,-0.5637118356739639,0.1372612040479141,0.03544879011749364,-0.38959720062487574,1.1475317644365972
1592297532.4649436,-0.274391796875,9.7829484375,0.466762890625,-0.3411111111111111,-0.5577777777777778,0.14,0.061414880929563945,-0.38784322290409473,1.084222819368019
1592297532.4749436,-0.07754925818353091,9.732662689379072,0.3762179134939948,-0.3411111111111111,-0.5577777777777778,0.14,0.1506105154837881,-0.31626668638009714,1.1709019920157413
1592297532.4849436,0.06444118278800029,9.723836901267273,0.33,-0.3411111111111111,-0.5577777777777778,0.14,0.10536228858050307,-0.3058841185443869,1.186748055694241
1592297532.4949436,0.1101378809869376,9.732396589259796,0.32873276487663283,-0.3411111111111111,-0.5577777777777778,0.14,0.06956678322850175,-0.3156168068526452,1.166007863593788
1592297532.5049436,0.32687956819970765,9.719167884853254,0.26614415832677385,-0.35035908392368525,-0.5479858065644639,0.14326399040443796,0.090380108004292,-0.39796114733892607,1.0556608427180088
1592297532.5149436,0.4875827042409391,9.752417295759061,0.19180150982174618,-0.36,-0.5377777777777778,0.14666666666666667,0.09916734408875097,-0.4187657596405055,0.9942481309262087
1592297532.5249436,0.6121883958261668,9.745223598211215,0.11935299850934526,-0.36,-0.5377777777777778,0.14666666666666667,0.1284139293257589,-0.39225901571999255,1.018597233898543
1592297532.5349436,0.6885133579693463,9.78157084873084,0.13768583025383171,-0.36,-0.5377777777777778,0.14666666666666667,0.13308974799557732,-0.43238359411705984,1.0158250807897706
1592297532.5449436,0.8118674441757929,9.81258023989001,0.17741976010998908,-0.36,-0.5377777777777778,0.14666666666666667,0.07342850899591377,-0.4261315221667119,1.046790138078288
1592297532.5549436,0.8565435606060606,9.702774621212122,0.4056534090909091,-0.3842929292929293,-0.5322106481481481,0.1436300505050505,0.1552119981579427,-0.43492745517264,1.1110762299454597
1592297532.5649436,0.9657566549167376,9.727121672541632,0.5104055751387707,-0.41333333333333333,-0.5255555555555556,0.14,0.17800713351026715,-0.43306410777827187,1.1896701460282397
1592297532.5749435,1.0584945091887046,9.590015688032272,0.3375117660242044,-0.41333333333333333,-0.5255555555555556,0.14,0.25706086239586995,-0.5482453906068517,1.3863803451362755
1592297532.5849435,1.1260068895643365,9.50351286727457,0.25507031408308006,-0.41333333333333333,-0.5255555555555556,0.14,0.23228559605873175,-0.5632851667186028,1.4394636603853412
1592297532.5949435,1.4960980163829103,9.516588098297461,0.09219603276582075,-0.41333333333333333,-0.5255555555555556,0.14,0.3982560813659969,-0.3638306331206145,1.2797901681816912
1592297532.6049435,1.5834356252884172,9.431057529610829,-0.03123288724811568,-0.42519817463979903,-0.5230837136167086,0.14296621032661644,0.37286269054958443,-0.37984939375478033,1.2636189825033957
1592297532.6149435,1.7255085983127838,9.375288367942893,-0.18275429915639196,-0.44,-0.52,0.14666666666666667,0.28547244206297917,-0.37671484482985135,1.3412037001521544
1592297532.6249435,2.426906153317291,9.519312478514953,-0.5903437607425231,-0.44,-0.52,0.14666666666666667,0.40221657090138574,-0.30487351676256824,1.2505336213426537
1592297532.6349435,2.4417153963560048,9.410251120862348,-0.6,-0.44,-0.52,0.14666666666666667,0.3226486353724769,-0.2533055173152385,1.2566508229899556
1592297532.6449435,2.4694368928552186,9.489717369054246,-0.5008457380905352,-0.44,-0.52,0.14666666666666667,0.24293283958944148,-0.31223836819411166,1.2059210788516235
1592297532.6549435,2.503388834476004,9.604407443682664,-0.39191269063942913,-0.45500116599039225,-0.5041164124807611,0.1524024066041696,0.18579273481425193,-0.3259610562398742,1.134377779097544
1592297532.6649435,2.63,9.52,-0.41,-0.4777777777777778,-0.48,0.16111111111111112,0.15817046346198613,-0.23125612588924865,1.016654289286697
1592297532.6749434,2.71023648552275,9.283158750534874,-0.25976351447725005,-0.4777777777777778,-0.48,0.16111111111111112,0.167693131466275,-0.30722733213225495,0.8431624376761729
1592297532.6849434,2.8694985875706216,9.308546845574387,-0.3773491054613936,-0.4777777777777778,-0.48,0.16111111111111112,0.18244221873325436,-0.25063534589313774,0.7319641718827915
1592297532.6949434,3.0166016910177946,9.620752113772243,-0.23172674850532424,-0.4777777777777778,-0.48,0.16111111111111112,0.19547454537186798,-0.13304785912186387,0.7368000254579167
1592297532.7049434,2.9836165058183406,9.63942809484094,-0.02276698836331864,-0.4801270900353469,-0.4729520632272926,0.15876179885354197,0.2522700089616776,-0.12993727260273377,0.7616998982230675
1592297532.7149434,2.8973835179845198,9.59971922901806,-0.2401403854909698,-0.48444444444444446,-0.46,0.15444444444444444,0.1560758001632251,-0.2735179963169246,0.7295673778439274
1592297532.7249434,3.151439868889987,9.464856013111001,-0.34543196066699616,-0.48444444444444446,-0.46,0.15444444444444444,0.2849476677387951,-0.08543834700696992,0.7892379354247817
1592297532.7349434,3.2126083120722955,9.302526526621998,-0.5483974343689645,-0.48444444444444446,-0.46,0.15444444444444444,0.2764306020649411,0.023073337815881605,0.7310492798821048
1592297532.7449434,3.14,9.18,-0.68,-0.48444444444444446,-0.46,0.15444444444444444,0.24870941840919195,0.0032724923474893677,0.7275841319251362
1592297532.7549434,3.34917949339474,9.37044439057892,-0.24716236415787984,-0.4939639190760267,-0.45796011257894664,0.15444444444444444,0.2974668177249004,0.13134531587964196,0.6852524235247346
1592297532.7649434,3.3708199018920815,9.193826208829712,-0.16967764540995095,-0.5155555555555555,-0.4533333333333333,0.15444444444444444,0.4956652518043356,0.02399980605974683,0.6321329985558404
1592297532.7749434,3.3466736811552136,9.186429141571729,-0.701816994412597,-0.5155555555555555,-0.4533333333333333,0.15444444444444444,0.29788830644313946,0.2906549134094791,0.5719871457435015
1592297532.7849433,3.306577439850016,9.40064055827518,-0.5880210394750547,-0.5155555555555555,-0.4533333333333333,0.15444444444444444,0.1939462705518143,0.33951977446375,0.5454737900631642
1592297532.7949433,3.2629651684184093,9.941625354234674,-0.7627047386734584,-0.5155555555555555,-0.4533333333333333,0.15444444444444444,0.08610922797757098,0.27049625602613764,0.5529659812909621
1592297532.8049433,2.9498688664928596,9.797336083116074,-0.7234409899217868,-0.5243771698855554,-0.4511279297508333,0.1560197327176587,-0.038424545087098784,0.24558553101012548,0.5207104658809654
1592297532.8149433,2.52,9.26,-0.53,-0.5466666666666666,-0.44555555555555554,0.16,-0.008726646259971648,0.19634954084936207,0.2901609881440573
1592297532.8249433,2.859350288213655,9.606883237262116,-0.9069695565275323,-0.5466666666666666,-0.44555555555555554,0.16,-0.02258578674567141,0.09460046144380505,0.189635068673072
1592297532.8349433,3.2127332711755003,9.614583662052643,-0.9103700781754285,-0.5466666666666666,-0.44555555555555554,0.16,-0.19954129466371393,0.0824040000885123,0.16133280091155142
1592297532.8449433,3.46,9.66,-0.87,-0.5466666666666666,-0.44555555555555554,0.16,-0.2083486794568231,0.19634954084936207,0.2923426497090502
1592297532.8549433,3.6210778020285015,9.471366670946205,-1.0755055206059827,-0.5561629648649805,-0.44436851828076634,0.15208641816807178,-0.16457364995857254,0.12448379808298424,0.09117830726840137
1592297532.8649433,3.84,9.51,-0.76,-0.5733333333333334,-0.44222222222222224,0.13777777777777778,-0.2530727415391778,0.18980455615438332,0.12980886311707826
1592297532.8749433,3.9430313748441432,9.497328685208275,-0.9389546807806814,-0.5733333333333334,-0.44222222222222224,0.13777777777777778,-0.3132483568424983,0.42091118168498354,0.06305534306208438
1592297532.8849432,3.6971143538523292,9.311007296167741,-1.0531815069301786,-0.5733333333333334,-0.44222222222222224,0.13777777777777778,-0.22563189911764087,0.3272144114102214,0.15563559742672392
1592297532.8949432,3.5664703247480403,9.085686450167973,-0.8947054871220604,-0.5733333333333334,-0.44222222222222224,0.13777777777777778,-0.32451153043792774,0.28789479635493365,0.14347466412055068
1592297532.9049432,3.6128951761970067,9.11,-0.84,-0.5677268962958546,-0.43781716454991754,0.13737731798938643,-0.31570929746068305,0.2752791904903348,-0.03930210429636074
1592297532.9149432,3.76,9.11,-0.84,-0.5577777777777778,-0.43,0.13666666666666666,-0.28361600344907856,0.001090830782496456,0.04581489286485115
1592297532.9249432,3.7651198022993446,9.117799505748362,-0.5962200494251638,-0.5577777777777778,-0.43,0.13666666666666666,-0.2551818529532772,0.2853602544112696,-0.14933926997326333
1592297532.9349432,3.5914488506713425,8.931811063339179,-0.4320615857612951,-0.5577777777777778,-0.43,0.13666666666666666,-0.36001663022196717,0.2177654629351301,-0.21770716546699054
1592297532.9449432,3.35,8.63,-0.24,-0.5577777777777778,-0.43,0.13666666666666666,-0.4025165587411922,-0.02945243112740431,-0.3272492347489368
1592297532.9549432,3.5739796947707525,9.10437766424783,-0.15117698740685304,-0.564534762219836,-0.4253768001185918,0.1252864823432003,-0.4411750110176904,0.21418061840780428,-0.4649396173777371
1592297532.9649432,3.37,8.88,0.08,-0.5788888888888889,-0.41555555555555557,0.10111111111111111,-0.43524148221608594,0.0643590161672909,-0.30325095753401476
1592297532.9749432,3.5179869458935005,9.087051485597641,-0.09906453970414053,-0.5788888888888889,-0.41555555555555557,0.10111111111111111,-0.2875227451303488,-0.22297830889733525,-0.2107803076130118
1592297532.9849432,3.32,8.92,-0.13,-0.5788888888888889,-0.41555555555555557,0.10111111111111111,-0.4974188368183839,0.001090830782496456,-0.38288160465625604
1592297532.9949431,3.5827365439093484,9.22557507082153,0.29611331444759204,-0.5788888888888889,-0.41555555555555557,0.10111111111111111,-0.23987956039812858,-0.07602627028172042,-0.6232389056747074
1592297533.0049431,3.636944907169034,9.275663143229245,0.1391207559741951,-0.5728034379595697,-0.4262775405262609,0.09038912614040578,-0.2281754548314941,-0.039983571910754565,-0.48266095389226166
1592297533.0149431,3.77,9.15,0.25,-0.5555555555555556,-0.45666666666666667,0.06,-0.20398535632683729,-0.014180800172453926,-0.5737769915931358
1592297533.024943,3.6466555405441206,9.049949932448541,0.23005006755145832,-0.5555555555555556,-0.45666666666666667,0.06,-0.04650448956392915,-0.010568970998059056,-0.7228177542041873
1592297533.034943,3.66,9.11,0.17,-0.5555555555555556,-0.45666666666666667,0.06,-0.0916297857297023,0.01854412330243975,-0.7701265324424978
1592297533.044943,3.989328510528355,9.224143650691126,0.10238418808939413,-0.5555555555555556,-0.45666666666666667,0.06,-0.03589124970540425,0.1506885564434494,-0.6495264455995022
1592297533.054943,3.736480909090909,9.242937272727273,0.046771818181818185,-0.5615749494949495,-0.45817151515151516,0.06326050505050505,0.0706550931109909,0.039306996416477294,-0.5476895750968636
1592297533.064943,3.45,8.91,0.07,-0.5822222222222222,-0.4633333333333333,0.07444444444444444,0.09599310885968812,0.020725784867432664,-0.6752242543653063
1592297533.074943,3.2215199438657094,9.109488314352026,0.17879985966427375,-0.5822222222222222,-0.4633333333333333,0.07444444444444444,0.0228709126978469,0.08897863182058316,-0.639629857742264
1592297533.084943,3.0910568504425413,9.395797647732422,0.025787627931388224,-0.5822222222222222,-0.4633333333333333,0.07444444444444444,0.1039209610535594,0.10299649907590347,-0.541791580448471
1592297533.094943,3.066481873380669,9.258126223769308,0.048585075453412715,-0.5822222222222222,-0.4633333333333333,0.07444444444444444,0.03445192298988104,0.08063802754840191,-0.6770680153406063
1592297533.104943,3.214903828540026,9.419278866703303,0.033461561946632475,-0.5766452952311169,-0.46588942487092333,0.06700854178963722,0.09730154629580953,-0.003943762581720255,-0.5921087036257837
1592297533.114943,3.12,9.53,0.16,-0.5555555555555556,-0.47555555555555556,0.03888888888888889,-0.0916297857297023,0.05126904677733343,-0.5170537909033202
1592297533.124943,3.1503007870142645,9.167629365469748,-0.1318531726512543,-0.5555555555555556,-0.47555555555555556,0.03888888888888889,0.14228320796286587,-0.05496558416535745,-0.4251273131513938
1592297533.134943,3.3109094651264503,9.19090946512645,-0.17842985412539558,-0.5555555555555556,-0.47555555555555556,0.03888888888888889,0.06384473810278583,0.126005198004138,-0.5724076788879063
1592297533.144943,3.37312548980207,9.281249673465286,-0.1971875816336783,-0.5555555555555556,-0.47555555555555556,0.03888888888888889,-0.023384702709473605,0.2971826592054974,-0.7043380270864096
1592297533.154943,3.2711362067265015,9.259255350626296,-0.17173192622546601,-0.5571342779805153,-0.4800661910554405,0.041820801963814096,-0.024916429882623454,0.3163451228407803,-0.5404323634819684
1592297533.164943,3.04,9.06,-0.1,-0.5633333333333334,-0.49777777777777776,0.05333333333333334,-0.0370882466048795,0.20071286397934787,-0.6664976081053345
1592297533.174943,2.8972833117723154,9.06495687796464,-0.10203751617076326,-0.5633333333333334,-0.49777777777777776,0.05333333333333334,-0.014171392403738997,0.3990942476769176,-0.6100281819766041
1592297533.184943,2.98,9.32,-0.04,-0.5633333333333334,-0.49777777777777776,0.05333333333333334,-0.06981317007977318,0.32615840396644036,-0.5912302841130791
1592297533.194943,2.615115916878031,9.323437903261691,0.08304231744760379,-0.5633333333333334,-0.49777777777777776,0.05333333333333334,-0.009354651807247896,0.2485085129400177,-0.6621342849753488
1592297533.204943,2.8926265224532806,9.429815291164347,-0.08695850249480894,-0.5614746404134944,-0.5025089961191861,0.04894005915916847,0.004599866440027897,0.23037617936686972,-0.6450478255920735
1592297533.214943,2.74,9.15,-0.07,-0.5511111111111111,-0.5288888888888889,0.024444444444444446,0.2127120025868089,0.04908738521234052,-0.5497787143782138
1592297533.224943,2.6972401901875753,9.699032342337636,0.3044803803751502,-0.5511111111111111,-0.5288888888888889,0.024444444444444446,-0.15578361924288447,0.4157258190464413,-0.7597422383180543
1592297533.234943,2.5162531433361277,9.51553706142977,0.08182349419231229,-0.5511111111111111,-0.5288888888888889,0.024444444444444446,0.005344247910758833,0.31378234028342283,-0.6681860642016949
1592297533.244943,2.27,9.41,-0.08,-0.5511111111111111,-0.5288888888888889,0.024444444444444446,0.06981317007977318,0.23780111058422737,-0.8508480103472356
1592297533.254943,2.3008681273253413,9.533026043819762,0.15684167011161637,-0.5502719213632814,-0.5303274998851684,0.021447338202195583,0.02732803930584962,0.03385318251491275,-0.6006116994082656
1592297533.264943,2.06,9.31,-0.2,-0.5433333333333333,-0.5422222222222223,-0.0033333333333333335,-0.08944812416470939,0.12435470920459597,-0.8224864100023278
1592297533.2749429,2.365199765413093,9.432773012731227,0.007386799599247373,-0.5433333333333333,-0.5422222222222223,-0.0033333333333333335,0.17414036685977494,-0.18337611013401484,-0.7027071232492806
1592297533.2849429,2.5110604138413755,9.717798241392886,-0.06326217244848856,-0.5433333333333333,-0.5422222222222223,-0.0033333333333333335,0.036578979090517445,-0.01947590342663704,-0.8746519241264383
1592297533.2949429,2.257607564621356,9.629862292509705,0.10380378231067801,-0.5433333333333333,-0.5422222222222223,-0.0033333333333333335,0.04052784532791853,-0.037045051183275154,-0.686913615587904
1592297533.3049428,2.195384154061438,9.527739721463316,0.072692077030719,-0.5424359743230937,-0.5433439209850218,-0.0028098739106935285,0.11174680749968657,0.0644324311796399,-0.7736088754242958
1592297533.3149428,2.35,9.75,0.15,-0.5166666666666667,-0.5755555555555556,0.012222222222222223,0.25089107997418486,0.06654067773228381,-0.7483099167925688
1592297533.3249428,2.0025106658047833,9.675641887524241,0.11998577892695539,-0.5166666666666667,-0.5755555555555556,0.012222222222222223,0.09108204342081849,0.06765167513428862,-0.9222212024200244
1592297533.3349428,2.1,9.83,-0.01,-0.5166666666666667,-0.5755555555555556,0.012222222222222223,0.06981317007977318,0.25198191075668136,-0.8486663487822427
1592297533.3449428,1.8163109084164357,9.48525847207978,0.06631461801994457,-0.5166666666666667,-0.5755555555555556,0.012222222222222223,0.17665657828433892,0.09042374729697164,-0.8594071056464638
1592297533.3549428,2.0354519585881214,9.702842525882424,0.11886298964703033,-0.5161613287320135,-0.5757134736601347,0.011243129973831676,0.20423341350544458,0.10957361198077066,-0.6426035135845694
1592297533.3649428,1.8591400127091717,9.725831156299279,0.04291557814963873,-0.4988888888888889,-0.5811111111111111,-0.022222222222222223,0.20259879536044434,0.10319820419694015,-0.6120481589336011
1592297533.3749428,1.79,9.48,-0.08,-0.4988888888888889,-0.5811111111111111,-0.022222222222222223,0.16907877128695067,-0.09708393964218458,-0.7461282552275759
1592297533.3849428,1.4838387123220287,9.164217746563551,0.0769193561610144,-0.4988888888888889,-0.5811111111111111,-0.022222222222222223,0.17440888653395134,0.037106281546628206,-0.9655739386767508
1592297533.3949428,1.6131459562170936,9.42,0.13820216935196547,-0.4988888888888889,-0.5811111111111111,-0.022222222222222223,0.1499341534331711,0.08644521958394047,-0.9405410867154885
1592297533.4049428,1.5301266774870355,9.42,0.08008867424092475,-0.4988888888888889,-0.5811111111111111,-0.022222222222222223,0.20608134399639955,0.04478762658541613,-0.8074179090897693
1592297533.4149427,1.1,9.46,0.02,-0.48,-0.62,-0.0011111111111111111,0.2127120025868089,0.06654067773228381,-0.9457502884244272
1592297533.4249427,1.3093311403508772,9.889491959064328,0.05831505847953217,-0.48,-0.62,-0.0011111111111111111,0.07033785330702659,0.038587341539889256,-0.9925802599341016
1592297533.4349427,1.11,9.88,-0.16,-0.48,-0.62,-0.0011111111111111111,-0.08290313946973066,0.00545415391248228,-1.0319259202416473
1592297533.4449427,0.7717973231357553,9.648801784576163,-0.20119821542383684,-0.48,-0.62,-0.0011111111111111111,-0.040794800149652886,0.0016572192321292025,-1.206286194297473
1592297533.4549427,0.8598725619241354,9.59140181883451,-0.25910793346894817,-0.48,-0.6201557576482789,-0.001380147049047372,-0.11421012650926965,0.028507140170501197,-1.1429608637666382
1592297533.4649427,0.85,9.7,-0.19,-0.48,-0.6322222222222222,-0.022222222222222223,-0.004363323129985824,-0.044724062082354694,-1.0406525665016189
1592297533.4749427,0.7133779813113799,9.91324403737724,-0.008411467294914897,-0.48,-0.6322222222222222,-0.022222222222222223,-0.19310627053517038,0.025421061055511486,-1.197963925285075
1592297533.4849427,0.5531827055854484,10.030482119899053,0.1252090376648731,-0.48,-0.6322222222222222,-0.022222222222222223,-0.15606603942728092,0.07025155929001413,-1.097926324825789
1592297533.4949427,0.14,9.89,0.15,-0.48,-0.6322222222222222,-0.022222222222222223,-0.2083486794568231,0.03599741582238304,-1.0122909661567112
1592297533.5049427,0.13052700625960495,10.051040893586716,0.31104089358671616,-0.48,-0.6322222222222222,-0.022222222222222223,-0.1401480205056565,0.14863183742355213,-0.9616571436020572
1592297533.5149426,0.04,9.79,0.43,-0.4533333333333333,-0.6644444444444444,-0.03666666666666667,-0.2596177262341565,0.23561944901923448,-1.0777408131064985
1592297533.5249426,-0.06427213722763098,9.933092257765415,0.36672693555864627,-0.4533333333333333,-0.6644444444444444,-0.03666666666666667,-0.10761548857379731,-0.002238807544789896,-0.9536528694270611
1592297533.5349426,-0.038776361309890525,10.039732240178191,0.3180688119046491,-0.4533333333333333,-0.6644444444444444,-0.03666666666666667,-0.13108326529944414,0.24619194163339875,-0.8328190346087775
1592297533.5449426,-0.2576449240014829,9.805289848002966,0.260597841993327,-0.4533333333333333,-0.6644444444444444,-0.03666666666666667,-0.2260648091766854,0.18671187178040724,-0.7543411036086873
1592297533.5549426,-0.24127724337086104,9.772554486741722,0.3342524048311253,-0.4533333333333333,-0.6644444444444444,-0.03666666666666667,-0.27337888933206167,0.08940555598916174,-0.7507702296346968
1592297533.5649426,-0.04,10.11,0.24,-0.39555555555555555,-0.6766666666666666,-0.044444444444444446,-0.21707532571679475,0.1854412330243975,-0.729765793490129
1592297533.5749426,-0.1250868309664148,10.053275446022392,0.23054590767039837,-0.39555555555555555,-0.6766666666666666,-0.044444444444444446,-0.16138612507485198,0.32672679761599305,-0.7637980827713162
1592297533.5849426,-1.2295219785436249,11.287484097598027,-0.3052805468527485,-0.39555555555555555,-0.6766666666666666,-0.044444444444444446,-0.13207213245351399,0.9049767467094048,-0.029236967969426153
1592297533.5949426,-2.391491599153929,8.67216546274494,0.6811663407431057,-0.39555555555555555,-0.6766666666666666,-0.044444444444444446,0.15517016728592822,0.3884771786827559,0.10808449595771503
1592297533.6049426,-0.7426966516342739,10.262373787763899,-0.04698168176557449,-0.39555555555555555,-0.6766666666666666,-0.044444444444444446,-0.05390058842798376,0.2688777507416098,-0.1530257055015812
1592297533.6149426,-0.24,9.77,0.83,-0.3622222222222222,-0.7088888888888889,-0.022222222222222223,0.0916297857297023,0.19634954084936207,-0.006544984694978735
1592297533.6249425,-0.7966028804107995,9.892641312632888,0.5375476391061901,-0.3622222222222222,-0.7088888888888889,-0.022222222222222223,0.08339711378965764,0.3167523679725152,-0.010661320665001067
1592297533.6349425,-0.8907495316908923,9.822964218812984,0.13604770824935386,-0.3622222222222222,-0.7088888888888889,-0.022222222222222223,0.08376539577033298,0.3018293830715386,-0.08767526872015743
1592297533.6449425,-1.0779003039945958,9.861198378695489,0.10559918934774493,-0.3622222222222222,-0.7088888888888889,-0.022222222222222223,0.0835369930004533,0.14901703360952398,-0.1728011239478985
1592297533.6549425,-1.0555311016693036,9.980500791097047,0.16525039554852355,-0.3622222222222222,-0.7088888888888889,-0.022222222222222223,-0.002679924815876686,0.2490611929624352,0.01996689041502797
1592297533.6649425,-1.12,10.12,0.09,-0.35555555555555557,-0.6888888888888889,-0.06555555555555556,-0.10471975511965977,0.3457933580513765,-0.06326818538479445
1592297533.6749425,-1.1944196839367873,10.177881976395279,0.007311462292458493,-0.35555555555555557,-0.6888888888888889,-0.06555555555555556,-0.037972345424315906,0.2510841956458211,-0.21029288511913297
1592297533.6849425,-1.2184252021412412,10.206850404282482,-0.20377964924854974,-0.35555555555555557,-0.6888888888888889,-0.06555555555555556,-0.14071724423906942,0.15957046110276443,-0.23004503911841154
1592297533.6949425,-1.2817869694839663,10.369285212206412,-0.34797476791817145,-0.3556614500434943,-0.689047730620797,-0.06563497642150962,-0.1216287823838237,0.15338899337935755,-0.30660372140526154
1592297533.7049425,-1.3580340305887486,10.3387863877645,-0.2615614319994183,-0.3601797944052592,-0.6958252471634443,-0.06902373469283327,-0.1914938010993308,-0.004084540868293435,-0.44966066448939523
1592297533.7149425,-1.43,10.31,-0.18,-0.36444444444444446,-0.7022222222222222,-0.07222222222222222,-0.2574360646691636,-0.15271630954950383,-0.5846852994181004
1592297533.7249424,-1.3481028013197904,10.26508863298182,-0.15886523905026848,-0.36444444444444446,-0.7022222222222222,-0.07222222222222222,-0.2845250408631522,-0.16366717226622263,-0.5218619290958715
1592297533.7349424,-1.1378043928317267,10.149763699294818,-0.10459468202109078,-0.36444444444444446,-0.7022222222222222,-0.07222222222222222,-0.35408503403717356,-0.19178716950678446,-0.3605419449263325
1592297533.7449424,-0.8303280362759916,9.870298214796355,-0.28946321336655906,-0.36444444444444446,-0.7022222222222222,-0.07222222222222222,-0.4762864246013748,-0.08157158529628498,-0.4492325378127046
1592297533.7549424,-0.8931537235998201,9.927412475999837,-0.1866575432002941,-0.36444444444444446,-0.7022222222222222,-0.07222222222222222,-0.3984089318010003,-0.035468109558463246,-0.6218090618583347
1592297533.7649424,-0.9712887754045754,9.953435354197579,-0.07134915979434803,-0.3581048886435174,-0.7034492330224016,-0.07651676002285021,-0.34314997255660606,-0.03221005255001984,-0.7410554272409579
1592297533.7749424,-1.094305752044443,9.888308719505885,0.08061298781960598,-0.33317988030472073,-0.7082734281847494,-0.09340144309106733,-0.35420097178271076,-0.15456040112475108,-0.703955644124749
1592297533.7849424,-1.377037137142548,9.642633655873292,0.2681344937564193,-0.33,-0.7088888888888889,-0.09555555555555556,-0.40415955663798114,-0.059046972757312355,-0.5902576232256107
1592297533.7949424,-1.3714663735631594,9.550396922413173,0.5430760459789007,-0.33,-0.7088888888888889,-0.09555555555555556,-0.3474494545238525,-0.1602101979122567,-0.6597950648156843
1592297533.8049424,-1.362849335894565,9.45991802689293,0.8188212513739227,-0.33,-0.7088888888888889,-0.09555555555555556,-0.2896411153754215,-0.26360722728343405,-0.7312330123812251
1592297533.8149424,-1.591721904761905,9.61716,0.4822057142857143,-0.33693185185185187,-0.7148304761904761,-0.08169185185185185,-0.26469289436620574,-0.06252683600728068,-0.8209638180072547
1592297533.8249424,-1.45,9.33,0.79,-0.3377777777777778,-0.7155555555555555,-0.08,-0.41560652813114973,-0.0839939702522271,-0.5803219762881145
1592297533.8349423,-1.3821866363192978,9.499533409201755,0.6798032840188587,-0.3377777777777778,-0.7155555555555555,-0.08,-0.36105151101259103,0.0565545484260937,-0.6006645250441873
1592297533.8449423,-1.3505291463818725,9.60788341447251,0.8255022557540845,-0.3377777777777778,-0.7155555555555555,-0.08,-0.2896532331482642,0.09455595258011584,-0.8751226862267716
1592297533.8549423,-1.3350640814985213,9.550256325994084,1.0241669405192244,-0.3377777777777778,-0.7155555555555555,-0.08,-0.2366577636303094,0.18532598422499805,-0.8262727721909965
1592297533.8649423,-1.3793461295085423,9.865553680658088,1.011046192786332,-0.31255642269563383,-0.7331008460474817,-0.11509058098385244,-0.16973497238201077,0.05988249144587113,-0.8459711385341593
1592297533.8749423,-1.595174897942848,9.680906907868406,0.9447954854718643,-0.31222222222222223,-0.7333333333333333,-0.11555555555555555,-0.2046423170894646,0.07346199162541829,-0.74477294622206
1592297533.8849423,-1.6811137818192348,9.397053951521821,1.0448023515102371,-0.31222222222222223,-0.7333333333333333,-0.11555555555555555,-0.17950634403769117,0.1395805979866277,-0.7157038661054465
1592297533.8949423,-1.9013445835601523,9.774947101843743,0.7709133511632861,-0.31222222222222223,-0.7333333333333333,-0.11555555555555555,-0.25024026313280434,0.22579043138932997,-0.857346393788696
1592297533.9049423,-2.0679008590790247,9.718226882236806,0.7241134411184035,-0.31222222222222223,-0.7333333333333333,-0.11555555555555555,-0.1309367126487166,0.16174306378207842,-0.8072595973442944
1592297533.9149423,-2.0415203046642283,9.365574450435503,0.8869593906715433,-0.2805443066081805,-0.7333333333333333,-0.14286410349869497,-0.30596320682549627,0.21676573394801335,-0.7596604633179368
1592297533.9249423,-2.1203817787418657,9.440381778741866,0.9837787418655097,-0.28,-0.7333333333333333,-0.14333333333333334,-0.3404849637401996,0.23935619516179066,-0.9112019501968399
1592297533.9349422,-2.2544227253550835,9.810479538742793,1.0960959077485586,-0.28,-0.7333333333333333,-0.14333333333333334,-0.14446244355555019,0.15813094749945328,-0.875901866915345
1592297533.9449422,-2.287077517196991,9.383220966249649,0.9713817933142926,-0.28,-0.7333333333333333,-0.14333333333333334,-0.1630043634177289,0.04712157290190733,-0.8140102787645723
1592297533.9549422,-2.380380824461256,9.183396804076876,0.9635872163075039,-0.28,-0.7333333333333333,-0.14333333333333334,-0.08939285758843381,0.08660143223841214,-0.6889377126120615
1592297533.9649422,-2.4767197511897177,9.322346086109341,1.0278131674598119,-0.26214378203286665,-0.7469880882493765,-0.11707418926401952,-0.3427988156166153,0.07212162585495473,-0.6980645431938183
1592297533.9749422,-2.574131172408287,9.341766396551035,0.9594016206937848,-0.2611111111111111,-0.7477777777777778,-0.11555555555555555,-0.25536770563485034,0.20477490340073554,-0.7142393407021512
1592297533.9849422,-2.720558621275151,9.215735631208082,0.9189509579194612,-0.2611111111111111,-0.7477777777777778,-0.11555555555555555,-0.2593041860847999,0.1701175254491887,-0.6724481105519811
1592297533.9949422,-2.767450355479284,9.455910762441775,0.8575827408678598,-0.2611111111111111,-0.7477777777777778,-0.11555555555555555,-0.19957683819752764,0.06570443653177722,-0.5868362069894706
1592297534.0049422,-2.6082888400023783,9.41530947143112,0.988731791426363,-0.2611111111111111,-0.7477777777777778,-0.11555555555555555,-0.08808690432625076,0.13305255893282206,-0.6032906477790262
1592297534.0149422,-2.7602605863192182,9.396628664495115,1.3206351791530946,-0.22367897213174084,-0.7477777777777778,-0.13587585957292797,-0.21922323193184065,0.014786619874133544,-0.8365801569038659
1592297534.0249422,-2.5742162733356815,9.666977809087706,1.1342162733356815,-0.2222222222222222,-0.7477777777777778,-0.13666666666666666,-0.3397043270473321,0.09888713402832613,-0.8643653722840042
1592297534.0349422,-2.9163613487669853,9.126636470390874,1.0,-0.2222222222222222,-0.7477777777777778,-0.13666666666666666,-0.055009730796860556,0.08157395822687492,-0.7693814699477932
1592297534.0449421,-2.848726224783862,9.161273775216138,1.0500090572251957,-0.2222222222222222,-0.7477777777777778,-0.13666666666666666,-0.12723999928750385,0.08726942656973066,-0.7493997595850606
1592297534.0549421,-2.970569574346249,9.509515365527772,1.2993729719412102,-0.2222222222222222,-0.7477777777777778,-0.13666666666666666,-0.4272977397211963,0.10939073458944647,-0.8192853140807438
1592297534.0649421,-2.9784917442439567,9.507026395433476,1.3785346511895185,-0.2222222222222222,-0.7420594056877243,-0.16239934107190743,-0.40099838874167826,0.06432157279368952,-0.7814441682188302
1592297534.074942,-3.0051598389770304,9.043454889888705,1.0639166469334598,-0.2222222222222222,-0.7411111111111112,-0.16666666666666666,-0.3517134979291971,0.03154885135727436,-0.6929575517557742
1592297534.084942,-3.0078301642550986,8.770245375830624,1.0889247188102291,-0.2222222222222222,-0.7411111111111112,-0.16666666666666666,-0.4131511782744405,-0.04388435803668529,-0.7105013635222057
1592297534.094942,-3.213826724469812,9.093248079272886,1.3516080545001088,-0.2222222222222222,-0.7411111111111112,-0.16666666666666666,-0.4233650969914601,-0.09210336218226763,-0.7415790583154598
1592297534.104942,-3.27774543393699,9.048785388598366,1.441464231433061,-0.2222222222222222,-0.7411111111111112,-0.16666666666666666,-0.29386184352120676,0.0015073635290624304,-0.7173882263258304
1592297534.114942,-3.560793955938329,8.52311161521012,1.0056438156022915,-0.18772770963897112,-0.7345851222440095,-0.16666666666666666,-0.1856284974114884,0.006987415158455024,-0.585666120237027
1592297534.124942,-3.475849195809355,9.031549358123064,1.3759362549800798,-0.1811111111111111,-0.7333333333333333,-0.16666666666666666,-0.12663713217874378,-0.003150484123624484,-0.5251938963087224
1592297534.134942,-3.6467409910533752,9.242715840788854,1.6163579203944272,-0.1811111111111111,-0.7333333333333333,-0.16666666666666666,-0.10294931165149473,-0.09666565137381682,-0.7192580985046825
1592297534.144942,-3.579606515078213,9.171372359296887,1.7529918561522335,-0.1811111111111111,-0.7333333333333333,-0.16666666666666666,-0.09993925650173807,-0.14582403043873027,-0.6673628316505222
1592297534.154942,-3.482029096477795,8.94188361408882,1.8301607963246553,-0.1811111111111111,-0.7333333333333333,-0.16666666666666666,-0.04782783481417462,-0.11050049007039328,-0.5267359581550038
1592297534.164942,-3.2769350784086826,8.840289294122341,1.2638701568173656,-0.14665363180506233,-0.7454400152516748,-0.17877334858500812,-0.07048183224332255,0.03473687316801582,-0.5906128097313508
1592297534.174942,-3.286712858524009,8.708217853689977,1.160547856912665,-0.14,-0.7477777777777778,-0.1811111111111111,-0.041540861071879216,0.06891674130266523,-0.5070037696898493
1592297534.184942,-3.342088463542381,8.882284531220009,1.5139306770504841,-0.14,-0.7477777777777778,-0.1811111111111111,0.022894015576546533,0.11465511858310626,-0.49349224085061183
1592297534.194942,-3.370244059605316,8.798616995569876,1.5243084977849377,-0.14,-0.7477777777777778,-0.1811111111111111,-0.04201952222604993,0.052341777588730876,-0.4202619988529036
1592297534.204942,-3.3826876107745942,8.970476988099644,1.538103538943965,-0.14,-0.7477777777777778,-0.1811111111111111,-0.036984183944484356,0.06610154520314802,-0.44500818143937393
1592297534.214942,-3.2640022924512855,8.895382020632063,1.5967502865564107,-0.1444165711478631,-0.738208540290741,-0.18479158706766372,-0.10323088809748507,0.1424348855814657,-0.410209603984954
1592297534.224942,-3.50661691668356,9.23505042570444,1.7503334684776,-0.14666666666666667,-0.7333333333333333,-0.18666666666666668,-0.08163952378906408,0.1251746289669412,-0.5698774595056066
1592297534.234942,-3.698158289724555,9.318901464443632,1.7489014644436331,-0.14666666666666667,-0.7333333333333333,-0.18666666666666668,-0.08910624113255786,0.10096793621194965,-0.5695669980912118
1592297534.244942,-3.8177118731335598,9.24915250746576,1.8333899701369583,-0.14666666666666667,-0.7333333333333333,-0.18666666666666668,-0.08702607768832296,0.16559375171873394,-0.669317300650101
1592297534.254942,-3.9214671096585474,9.066909048229537,1.810313464906737,-0.14666666666666667,-0.7333333333333333,-0.18666666666666668,-0.13127722326177674,0.13446283284113997,-0.7040768969703328
1592297534.264942,-4.186478752325082,8.985085491486622,1.9384103591357846,-0.14354795631230027,-0.7387910764534745,-0.201480540849907,-0.09724146160058128,0.16520869439825608,-0.5676803806469647
1592297534.274942,-4.206782357194505,8.92323571945047,1.784222704266088,-0.14222222222222222,-0.7411111111111112,-0.20777777777777778,-0.03807732961373746,0.19909357576787629,-0.4796883013338365
1592297534.284942,-4.317504970969538,8.679996023224371,1.3149948301916805,-0.14222222222222222,-0.7411111111111112,-0.20777777777777778,-0.09790460045278142,0.07499116759515961,-0.3872435396296746
1592297534.294942,-4.281056852834287,8.736554158486152,1.4402752830109862,-0.14222222222222222,-0.7411111111111112,-0.20777777777777778,-0.12524258412823286,0.05072944119120523,-0.3452997752352187
1592297534.304942,-4.209363706863125,8.973080263668088,1.6133260953858084,-0.14222222222222222,-0.7411111111111112,-0.20777777777777778,-0.04211884179475925,0.037085877992090836,-0.13684838032500576
1592297534.314942,-4.178995276090667,8.891244095113334,1.4830622047556667,-0.12680489945703713,-0.7457363079406667,-0.19775651798040747,0.16618721016067609,0.01640420525196895,-0.09295020584207037
1592297534.3249419,-4.09904887020494,8.907377824487652,1.5759485023646873,-0.12,-0.7477777777777778,-0.19333333333333333,0.1911825683462496,0.02171286348406897,-0.10864284806522242
1592297534.3349419,-4.004543095759345,8.806338279412957,1.5736163139544312,-0.12,-0.7477777777777778,-0.19333333333333333,0.046602435010910374,0.04472689242250226,-0.021815200479855336
1592297534.3449419,-3.9768395768857685,9.077713751212528,1.7592699431844427,-0.12,-0.7477777777777778,-0.19333333333333333,0.01090830782496456,0.06935525192413884,0.014186040433037768
1592297534.3549418,-3.913535108958838,9.03820823244552,1.7300726392251815,-0.12,-0.7477777777777778,-0.19333333333333333,0.055703683299879556,0.07308566242726255,0.12859125297003016
1592297534.3649418,-4.004911796705005,8.588383587193038,1.20977230338825,-0.11719977204434773,-0.7386770369219079,-0.2024340741892032,0.10917123989199842,0.016728756407260896,0.2421768526378716
1592297534.3749418,-3.937085601387041,8.541576952542236,1.1531539050844724,-0.11555555555555555,-0.7333333333333333,-0.20777777777777778,0.08581633192357808,0.020547300479086598,0.25804136337601885
1592297534.3849418,-3.6945186080881367,8.893232567513099,1.3619325540776568,-0.11555555555555555,-0.7333333333333333,-0.20777777777777778,-0.04546532285512248,0.11703625030060162,0.3385469470330029
1592297534.3949418,-3.6555751857056817,9.064424814294318,1.3833989158803455,-0.11555555555555555,-0.7333333333333333,-0.20777777777777778,-0.028626150351985895,0.13916512963396163,0.3602465921715168
1592297534.4049418,-3.4216823965534515,9.32705580603146,1.5164720969842702,-0.11555555555555555,-0.7333333333333333,-0.20777777777777778,0.09208858821692004,0.2663968116741615,0.433925949691398
1592297534.4149418,-3.5158222095995457,9.184948168134053,1.6158222095995456,-0.12121481428886996,-0.7333333333333333,-0.19583045378522518,0.18072883474979995,0.2872133285359736,0.4457377078784353
1592297534.4249418,-3.5835007576597553,9.035642532431533,1.6704653139668109,-0.12555555555555556,-0.7333333333333333,-0.18666666666666668,0.2216030172948804,0.23125209428640098,0.39149867195082777
1592297534.4349418,-3.4862975401130916,8.985536898303625,1.404049197738167,-0.12555555555555556,-0.7333333333333333,-0.18666666666666668,0.21479118448386902,0.24086983339951185,0.4207702760185551
1592297534.4449418,-3.5658473006979725,8.895523954228194,1.0128203788993875,-0.12555555555555556,-0.7333333333333333,-0.18666666666666668,0.11708730355361988,0.2250893400629746,0.5470790622783105
1592297534.4549417,-3.6883214240717077,9.03066595871056,0.9687121798448497,-0.12555555555555556,-0.7333333333333333,-0.18666666666666668,0.060464566305664796,0.20561289493831414,0.5523643989789383
1592297534.4649417,-3.4854594930803917,9.23520719950241,1.0896396361374592,-0.13741141001053922,-0.7366266262374954,-0.17810410511584512,0.12178584596509773,0.2340175934443315,0.5392084606271904
1592297534.4749417,-3.335427055702918,9.286489579386132,1.0386146267525578,-0.14555555555555555,-0.7388888888888889,-0.17222222222222222,0.06927064813887639,0.28625102734913854,0.6143655277581739
1592297534.4849417,-3.239925649580958,9.173283766387305,1.1370966555447548,-0.14555555555555555,-0.7388888888888889,-0.17222222222222222,0.02004993003876404,0.28097692260238355,0.7252274238735423
1592297534.4949417,-3.1958373115725607,9.185588505044329,1.0429856783387814,-0.14555555555555555,-0.7388888888888889,-0.17222222222222222,0.028484784725538295,0.14207420004144933,0.7998555768927548
1592297534.5049417,-3.200804018316709,9.268927975577721,1.1681658443079763,-0.14555555555555555,-0.7388888888888889,-0.17222222222222222,-0.0012370054374225897,0.12598547624889112,0.9225687693542356
1592297534.5149417,-3.1067303522021983,9.21752897629552,1.376464144171091,-0.1585339448474123,-0.7356442915659247,-0.18682291017556105,0.07709607451406653,0.1955945322706746,0.8621635545949635
1592297534.5249417,-3.0140896268235675,9.180965583944547,1.2757999516402032,-0.17222222222222222,-0.7322222222222222,-0.20222222222222222,0.14948443651542734,0.21340560813554063,0.6995550472584261
1592297534.5349417,-2.945707522210154,9.397703233352829,1.0824128999916451,-0.17222222222222222,-0.7322222222222222,-0.20222222222222222,0.06763667300173334,0.19881458085140422,0.7039452422434788
1592297534.5449417,-2.9873835465024476,9.32103939681036,1.0521865624506554,-0.17222222222222222,-0.7322222222222222,-0.20222222222222222,0.027212119967994844,0.19404287210919202,0.7104123316215666
1592297534.5549417,-2.9159311257231995,9.408482119937602,0.820203976857611,-0.17222222222222222,-0.7322222222222222,-0.20222222222222222,0.005206512945194367,-0.0003840298169762689,0.6748569823697225
1592297534.5649416,-2.947306803493792,9.394039794759312,0.8887528886451764,-0.1934663742117426,-0.7265225716884485,-0.20222222222222222,-0.023715347386803608,-0.0035445698384978415,0.585849575741904
1592297534.5749416,-2.9994439686408856,9.307334475261875,0.7849426839712761,-0.21777777777777776,-0.72,-0.20222222222222222,-0.003078961331133683,-0.04061492358098011,0.5911754155906181
1592297534.5849416,-2.87751225249951,9.085278050055544,0.9452878520551526,-0.21777777777777776,-0.72,-0.20222222222222222,0.09259822505604333,-0.06563396875016561,0.564813047046885
1592297534.5949416,-2.60041176934606,9.181552417764456,0.6845933580500119,-0.21777777777777776,-0.72,-0.20222222222222222,0.12182403685993866,-0.023354379861808442,0.4806175301656786
1592297534.6049416,-2.4508305239978956,9.665916947600211,0.38633220959915815,-0.21777777777777776,-0.72,-0.20222222222222222,0.14182685642968718,0.012995695864218011,0.5158836300648914
1592297534.6149416,-2.38975155775683,9.641500239654897,0.507123741811791,-0.22394436455947878,-0.716402824377341,-0.20479163338126433,0.034294201805824126,0.09509302968151223,0.5165758662007637
1592297534.6249416,-2.2950550891920254,9.623604407135362,0.5839559286463798,-0.2311111111111111,-0.7122222222222222,-0.20777777777777778,-0.07653557216330065,0.10681270799037833,0.5968163564386597
1592297534.6349416,-2.478389554448782,9.59137649750976,0.47942872526585006,-0.2311111111111111,-0.7122222222222222,-0.20777777777777778,-0.023618446676738986,0.003617904964630922,0.6511238980603329
1592297534.6449416,-2.459305388871001,9.551620759300999,0.5330099815589966,-0.2311111111111111,-0.7122222222222222,-0.20777777777777778,0.025719218194467493,-0.07690291559728425,0.6222425365253745
1592297534.6549416,-2.4023069466882068,9.611479060519448,0.7345582204548279,-0.2311111111111111,-0.7122222222222222,-0.20777777777777778,-0.17641118208474602,-0.003880359054941912,0.524877353446007
1592297534.6649415,-2.29622053903004,9.466616170901203,1.00622053903004,-0.24580901488317747,-0.7109624018989023,-0.2048381970233645,-0.14693619388501403,-0.13328795433064253,0.6190418766438761
1592297534.6749415,-2.288030571198713,9.30166371681416,1.0009847144006436,-0.27,-0.7088888888888889,-0.2,-0.09637468023879467,-0.08065671256946161,0.6442846777479433
1592297534.6849415,-2.1977088620981386,9.515490958121827,0.9377088620981388,-0.27,-0.7088888888888889,-0.2,-0.0067592055878611295,0.006437874248537538,0.5660458034052726
1592297534.6949415,-2.13,9.53,0.87,-0.27,-0.7088888888888889,-0.2,-0.01308996938995747,0.0032724923474893677,0.5148721293383272
1592297534.7049415,-1.9463983712518036,9.552595520942461,1.0014085509280306,-0.27,-0.7088888888888889,-0.2,-0.18120738823737567,-0.08297343079330477,0.5712485738730143
1592297534.7149415,-1.9234441805225653,9.466223277909739,1.1158907363420427,-0.2749749274214833,-0.7088888888888889,-0.20918448139350754,-0.11947317667674962,-0.1392765488159905,0.6695472704117439
1592297534.7249415,-1.9229630271019136,9.44,1.0803879123733657,-0.28444444444444444,-0.7088888888888889,-0.22666666666666666,-0.04683837908522795,-0.09562181647021772,0.7817794085468304
1592297534.7349415,-1.7402117083472841,9.465264635434105,1.2233592603085481,-0.28444444444444444,-0.7088888888888889,-0.22666666666666666,-0.11439018479005209,-0.14108973402975716,0.7319736111696429
1592297534.7449415,-1.76,9.49,1.07,-0.28444444444444444,-0.7088888888888889,-0.22666666666666666,-0.15162547876700738,-0.22689280275926282,0.7853981633974483
1592297534.7549415,-1.8065641979134388,9.42,1.29332052473918,-0.28444444444444444,-0.7088888888888889,-0.22666666666666666,0.07118657347215959,-0.10840685556003975,0.8364475116044159
1592297534.7649415,-1.6907085407889697,9.450971530703434,1.2366398570151922,-0.29476828801225585,-0.7026945827482021,-0.2225371292395421,-0.024576767074553113,-0.1709026715497307,0.9810433225159452
1592297534.7749414,-1.6038323353293413,9.504730538922155,1.1552694610778442,-0.31777777777777777,-0.6888888888888889,-0.21333333333333335,-0.08238058580146887,-0.1608942744578006,0.8925739207579385
1592297534.7849414,-1.5386187467299877,9.490318750754618,1.170159375377309,-0.31777777777777777,-0.6888888888888889,-0.21333333333333335,-0.11275099510946826,-0.13139806839319162,0.8184534048506695
1592297534.7949414,-1.2438825995807128,9.572573375262055,1.2,-0.31777777777777777,-0.6888888888888889,-0.21333333333333335,0.02336298834410963,-0.13458827987573332,0.8541992849179053
1592297534.8049414,-1.082298381449693,9.637832663105456,1.2420362923393955,-0.31777777777777777,-0.6888888888888889,-0.21333333333333335,0.011284379610251135,-0.0058302256977688545,0.8252376789022777
1592297534.8149414,-0.9121710526315789,9.674342105263158,1.3039144736842105,-0.33517543859649124,-0.6814948830409356,-0.22420687134502926,-0.0007535344221192633,-0.03307657287188266,0.8525165508533569
1592297534.8249414,-0.9,9.65,1.31,-0.3622222222222222,-0.67,-0.2411111111111111,0.02181661564992912,-0.11671889372712078,0.8890270877346116
1592297534.8349414,-0.9807297388768843,9.63,1.3255793913201948,-0.3622222222222222,-0.67,-0.2411111111111111,-0.015964450922401986,-0.08571221829742681,0.8713303881011649
1592297534.8449414,-1.0454476682945515,9.63,1.3101790673178206,-0.3622222222222222,-0.67,-0.2411111111111111,0.07129163593206225,-0.09512842464849347,0.8945789077183027
1592297534.8549414,-1.02,9.63,1.3,-0.3622222222222222,-0.67,-0.2411111111111111,0.1112647398146385,-0.05126904677733343,0.8890270877346116
1592297534.8649414,-0.9545526169926359,9.599182833161771,1.4083268667352917,-0.3680587888545763,-0.6683787314910128,-0.2437051407254907,0.04464338776523919,-0.08325546338784001,0.9179235225244651
1592297534.8749413,-0.82,9.67,1.38,-0.38222222222222224,-0.6644444444444444,-0.25,0.08944812416470939,-0.03381575425739013,0.8715737952146684
1592297534.8849413,-0.34151909142299197,9.818083149185465,1.2596022406084588,-0.38222222222222224,-0.6644444444444444,-0.25,0.12052993437243859,-0.06040603690532882,0.7537976493904261
1592297534.8949413,-0.22666634746594527,9.949332790692106,1.1080002872806491,-0.38222222222222224,-0.6644444444444444,-0.25,0.09432028926153688,-0.05846801809667018,0.6941319182897836
1592297534.9049413,-0.28,10.04,1.06,-0.38222222222222224,-0.6644444444444444,-0.25,0.12980886311707826,-0.14398966328953217,0.7057675162752071
1592297534.9149413,-0.31,9.892821884498481,1.1792328267477203,-0.39179304289091527,-0.6592602499155691,-0.246809726443769,0.1754505492947634,-0.02094700137140884,0.6190060851186209
1592297534.9249413,-0.31,9.88,1.16,-0.4088888888888889,-0.65,-0.2411111111111111,0.22580197197676635,-0.044724062082354694,0.6043202535030366
1592297534.9349413,-0.34887043577928,9.82360880447241,1.07225912844144,-0.4088888888888889,-0.65,-0.2411111111111111,0.24367609844435334,-0.005925739010423835,0.5689357554188667
1592297534.9449413,-0.32346278317152105,9.840436893203883,0.9873948220064724,-0.4088888888888889,-0.65,-0.2411111111111111,0.1607298560746396,-0.09959214440258501,0.6129003965996632
1592297534.9549413,-0.1451217464315701,9.880345647914917,1.00837391547719,-0.4088888888888889,-0.65,-0.2411111111111111,0.12700851457175255,-0.06303768517746591,0.5398523984961263
1592297534.9649413,-0.04737335896015897,9.959462162426295,0.9842088803466137,-0.4128639425495796,-0.6460249463393093,-0.23783753750818937,0.08290313946973066,-0.09846129251476374,0.45843545073859426
1592297534.9749413,0.0,10.07,1.0,-0.42777777777777776,-0.6311111111111111,-0.22555555555555556,0.08290313946973066,-0.10362892433716332,0.4636030825609938
1592297534.9849412,0.8220179091478185,10.771756076318011,1.1239974415503116,-0.42777777777777776,-0.6311111111111111,-0.22555555555555556,0.15301234595929866,0.02122035657682615,0.11957552186921487
1592297534.9949412,1.2,10.9,1.07,-0.42777777777777776,-0.6311111111111111,-0.22555555555555556,0.06981317007977318,0.09926560120717749,-0.02399827721492203
1592297535.0049412,0.2799994221657229,9.743999768866288,1.2105712854886552,-0.42777777777777776,-0.6311111111111111,-0.22555555555555556,0.19313942911347623,0.08137600158701228,0.1255701121144745
1592297535.0149412,-0.5163737846597047,9.44725243068059,0.995616772696355,-0.42979647634671037,-0.6295970871844117,-0.22555555555555556,0.2584616455008806,0.11688404811758878,0.002703661171228962
1592297535.0249412,-0.35,9.78,0.82,-0.45444444444444443,-0.6111111111111112,-0.22555555555555556,0.24434609527920614,0.11890055529211369,0.11562806294462433
1592297535.0349412,-0.1855121635471169,9.819102432709423,0.8644878364528832,-0.45444444444444443,-0.6111111111111112,-0.22555555555555556,0.3194271913505057,0.070870991742631,0.025686155300400925
1592297535.0449412,-0.32490025747768125,9.847755612772819,0.7134663233630917,-0.45444444444444443,-0.6111111111111112,-0.22555555555555556,0.26155319818226097,0.07294827502404319,0.05448035264471117
1592297535.0549412,-0.3355700156168662,9.854076002082248,0.6459239979177512,-0.45444444444444443,-0.6111111111111112,-0.22555555555555556,0.2140100968964325,-0.008204796447835134,0.12312362063798885
1592297535.0649412,-0.22431983385254414,9.839053305642091,0.66,-0.45444444444444443,-0.6124785585169802,-0.223556978577747,0.18099370938749001,0.01099250833188623,-0.034583753499895425
1592297535.0749412,-0.17,9.83,0.66,-0.45444444444444443,-0.6255555555555555,-0.20444444444444446,0.23234695667174513,-0.04036073895236887,-0.05235987755982988
1592297535.0849411,-0.26021531944934695,9.876738439816448,0.531600188257442,-0.45444444444444443,-0.6255555555555555,-0.20444444444444446,0.20847625750104024,-0.06603729635459807,0.02074259847285766
1592297535.0949411,-0.33,9.9,0.33,-0.45444444444444443,-0.6255555555555555,-0.20444444444444446,0.1712604328519436,0.01854412330243975,-0.01308996938995747
1592297535.1049411,-0.31371425763977595,9.96071435590056,0.35,-0.45444444444444443,-0.6255555555555555,-0.20444444444444446,0.06742871281462469,-0.023406075183548057,-0.027660175893629794
1592297535.1149411,-0.33181126693605895,9.919798748118216,0.3495974962364313,-0.454064302001074,-0.6255555555555555,-0.20471278028682355,0.18643889245886044,-0.0424409319064236,-0.1278550305626757
1592297535.124941,-0.42,9.91,0.33,-0.43555555555555553,-0.6255555555555555,-0.21777777777777776,-0.030543261909900768,0.06872233929727672,-0.032724923474893676
1592297535.134941,-0.5910861704122358,9.918314627809178,0.31396994616023355,-0.43555555555555553,-0.6255555555555555,-0.21777777777777776,0.018842302611238305,-0.13547549717983817,0.03775017252957547
1592297535.144941,-0.62,9.94,0.22,-0.43555555555555553,-0.6255555555555555,-0.21777777777777776,-0.04581489286485115,-0.17016960206944715,0.11344640137963141
1592297535.154941,-0.59,9.894244666792524,0.2836329998112139,-0.43555555555555553,-0.6255555555555555,-0.21777777777777776,-0.05217437248736004,-0.021510309871963243,-0.012827115621639842
1592297535.164941,-0.59,9.830898621861431,0.3786520672078535,-0.43555555555555553,-0.6255555555555555,-0.21777777777777776,-0.15668784382472292,-0.2702696466088269,0.0320877646225161
1592297535.174941,-0.6672378223495702,9.853650907354346,0.35273018147086915,-0.4622222222222222,-0.62,-0.22555555555555556,-0.10372237946723967,-0.2590116223108353,0.07987261985312458
1592297535.184941,-0.5147824692941351,9.895671089626598,0.35716445518670153,-0.4622222222222222,-0.62,-0.22555555555555556,-0.11202775100741663,-0.19506686094956718,-0.022406287358377734
1592297535.194941,-0.35,9.91,0.35,-0.4622222222222222,-0.62,-0.22555555555555556,-0.16907877128695067,-0.10362892433716332,0.06981317007977318
1592297535.204941,-0.0672228225632159,10.013737155431558,0.6809599779947738,-0.4622222222222222,-0.62,-0.22555555555555556,-0.1697008815316316,-0.1627258184172498,-0.02215820083199149
1592297535.214941,-0.1578711908363951,9.980774112423129,0.7386453032595242,-0.4622222222222222,-0.62,-0.22555555555555556,-0.1040791703846452,-0.04316845427274038,-0.023956055931908925
1592297535.224941,-0.44,9.86,0.76,-0.44222222222222224,-0.6077777777777778,-0.20444444444444446,-0.15817046346198613,-0.03599741582238304,-0.02181661564992912
1592297535.234941,-0.6758466184627,9.64566135261492,0.66424601446119,-0.44222222222222224,-0.6077777777777778,-0.20444444444444446,-0.07069908799727066,-0.05406826611261849,-0.002510649819109362
1592297535.244941,-0.5635344418052256,9.70058432304038,0.7223467933491686,-0.44222222222222224,-0.6077777777777778,-0.20444444444444446,-0.09483957474005054,-0.012906005053716973,0.006802016556317568
1592297535.254941,-0.5,9.75,0.8,-0.44222222222222224,-0.6077777777777778,-0.20444444444444446,-0.07635815477475191,0.09490227807719166,0.002181661564992912
1592297535.264941,-0.48201290684624015,9.7949677328844,0.9259096520763187,-0.44222222222222224,-0.6077777777777778,-0.20444444444444446,-0.1636710480786504,-0.01693670885139742,0.008067924034918654
1592297535.274941,-0.49,9.74,1.1,-0.4711111111111111,-0.6133333333333333,-0.21777777777777776,0.08290313946973066,0.022907446432425576,0.015271630954950384
1592297535.284941,-0.48282900152887215,9.691512995413383,1.163025990826767,-0.4711111111111111,-0.6133333333333333,-0.21777777777777776,0.01606849034639772,0.06870085109828011,0.06423695036821464
1592297535.294941,-0.5,9.64,1.06,-0.4711111111111111,-0.6133333333333333,-0.21777777777777776,0.10035643198967394,0.0818123086872342,0.04363323129985824
1592297535.304941,-0.5460233331573668,9.707232222984743,0.93481444332999,-0.4711111111111111,-0.6133333333333333,-0.21777777777777776,0.009543315328089934,0.02382592560577819,-0.004150489335333081
1592297535.314941,-0.5238816449348045,9.803179538615847,0.7945837512537612,-0.4711111111111111,-0.6133333333333333,-0.21777777777777776,0.06267955252523265,-0.019649177555520404,0.06991820493947194
1592297535.324941,-0.47,9.89,0.73,-0.45666666666666667,-0.6133333333333333,-0.21777777777777776,0.10690141668465267,0.0032724923474893677,-0.039269908169872414
1592297535.334941,-0.4935875173370319,9.857608321775311,0.6532582524271845,-0.45666666666666667,-0.6133333333333333,-0.21777777777777776,0.11924275238834817,-0.018071480394739485,-0.0042064311020456255
1592297535.344941,-0.5247605495812825,9.83761972520936,0.5466619235344888,-0.45666666666666667,-0.6133333333333333,-0.21777777777777776,0.03210425249011089,-0.10347065221821657,0.08935450951429055
1592297535.354941,-0.54,9.83,0.6,-0.45666666666666667,-0.6133333333333333,-0.21777777777777776,0.002181661564992912,-0.1308996938995747,-0.02617993877991494
1592297535.364941,-0.5232070307748449,9.821603515387423,0.616792969225155,-0.45666666666666667,-0.6133333333333333,-0.21777777777777776,0.015004462997213294,-0.0951790327669608,0.07640247267784811
1592297535.3749409,-0.5386113553283051,9.816943223358475,0.6630567766415252,-0.4711111111111111,-0.6255555555555555,-0.20444444444444446,0.12511305642019113,-0.06805545408611836,-0.017549549717769432
1592297535.3849409,-0.5266264285714286,9.86,0.6087547619047619,-0.4711111111111111,-0.6255555555555555,-0.20444444444444446,0.0905957820365416,-0.06248367027488759,0.14709512866649216
1592297535.3949409,-0.4932874577409068,9.858881242956818,0.5177624859136356,-0.4711111111111111,-0.6255555555555555,-0.20444444444444446,0.06251901241781459,0.03451988896682427,-0.04900287963154482
1592297535.4049408,-0.44436454938832204,9.850872909877664,0.5034916395106577,-0.4711111111111111,-0.6255555555555555,-0.20444444444444446,0.16818822820141666,-0.12651119640674693,-0.07925122518598217
1592297535.4149408,-0.48170895881190234,9.85834179176238,0.5333671670495219,-0.4711111111111111,-0.6255555555555555,-0.20444444444444446,0.08590063686756454,-0.07029492113906578,0.02666349633283742
1592297535.4249408,-0.4952116795320516,9.844788320467948,0.5731922136452989,-0.4488888888888889,-0.62,-0.22555555555555556,0.10883412803989909,-0.03228063103123892,0.05047334751450075
1592297535.4349408,-0.4607633502469991,9.8684605583745,0.5730661421194984,-0.4488888888888889,-0.62,-0.22555555555555556,-0.015440947828090187,0.031625753641329565,0.13448719268198533
1592297535.4449408,-0.41779749005786676,9.859025313742766,0.49169623508680016,-0.4488888888888889,-0.62,-0.22555555555555556,-0.026660451908641622,-0.02845269989850524,-0.044271161963458074
1592297535.4549408,-0.4922037501362695,9.85,0.604407500272539,-0.4488888888888889,-0.62,-0.22555555555555556,-0.0030555074387577427,0.08670027627456701,-0.040722803284914476
1592297535.4649408,-0.5150659544314837,9.85,0.6501319088629675,-0.4488888888888889,-0.62,-0.22555555555555556,0.07841122681765396,0.1374091618831498,0.0573697951054588
1592297535.4749408,-0.4919733956326881,9.802960093449032,0.7121064174692476,-0.45666666666666667,-0.6255555555555555,-0.20444444444444446,0.10055957802936266,0.07169489738698709,-0.037908163992409614
1592297535.4849408,-0.5080213942135113,9.829010697106757,0.6340641826405341,-0.45666666666666667,-0.6255555555555555,-0.20444444444444446,-0.031908268768893744,-0.013387482933119511,0.07050734224260242
1592297535.4949408,-0.49,9.820973539690465,0.5819470793809286,-0.45666666666666667,-0.6255555555555555,-0.20444444444444446,0.012085729767928783,0.05047720056777284,0.033689952005389795
1592297535.5049407,-0.49,9.829209051920795,0.6011864221188065,-0.45666666666666667,-0.6255555555555555,-0.20444444444444446,-0.014519804778624785,0.019542563435030816,0.0064093350745401765
1592297535.5149407,-0.49,9.81389999087508,0.6241500136873802,-0.45666666666666667,-0.6255555555555555,-0.20444444444444446,0.042258818356641595,-0.04558585722012769,0.08823735076948291
1592297535.5249407,-0.48884261247077904,9.803472162587664,0.688842612470779,-0.47555555555555556,-0.62,-0.1988888888888889,0.05773321184513708,-0.020513457707822647,-0.09153892219522214
1592297535.5349407,-0.48,9.827877012220359,0.6757540244407172,-0.47555555555555556,-0.62,-0.1988888888888889,0.07054465187576009,-0.09168966534657752,-0.0605131527264685
1592297535.5449407,-0.4793332355314311,9.809555490354288,0.6422225482285631,-0.47555555555555556,-0.62,-0.1988888888888889,0.1130100050554375,0.13807502884061132,0.05260199990618317
1592297535.5549407,-0.4506869745682226,9.79,0.7386260508635548,-0.47555555555555556,-0.62,-0.1988888888888889,0.09081395527145757,0.15947407704037178,-0.02875324654410379
1592297535.5649407,-0.46544057124766963,9.79,0.7091188575046607,-0.47555555555555556,-0.62,-0.1988888888888889,0.026439245629544222,0.02348250292182985,0.056543243731431374
1592297535.5749407,-0.5099572590652144,9.770021370467392,0.7399572590652144,-0.456686849885871,-0.6322091624921489,-0.204438508203502,0.08500087940551732,-0.009826801667935465,-0.06747065872546829
1592297535.5849407,-0.51,9.789813269671685,0.7499066348358427,-0.45666666666666667,-0.6322222222222222,-0.20444444444444446,-0.02946369860210002,0.13823105550701142,0.005852434648465035
1592297535.5949407,-0.5298951325208897,9.80989513252089,0.6007865060933273,-0.45666666666666667,-0.6322222222222222,-0.20444444444444446,0.08881896445607962,-0.019884998711354712,0.07165165362187711
1592297535.6049407,-0.5000817438692098,9.83991825613079,0.6,-0.45666666666666667,-0.6322222222222222,-0.20444444444444446,0.07204238830013378,-0.01637435090128876,0.06329196371247829
1592297535.6149406,-0.5150442382391023,9.824955761760897,0.5924778808804488,-0.45666666666666667,-0.6322222222222222,-0.20444444444444446,0.04901982620617382,-0.05246604171237755,0.05998604175070984
1592297535.6249406,-0.52,9.85932353615363,0.5859412169217838,-0.4633333333333333,-0.6077777777777778,-0.2111111111111111,0.2263330098387901,-0.021790916684648592,-0.04137777897617877
1592297535.6349406,-0.519137415258797,9.84,0.46051156784676633,-0.4633333333333333,-0.6077777777777778,-0.2111111111111111,0.05228329755310432,-0.11303173778098223,-0.040963589348661275
1592297535.6449406,-0.5101106208974497,9.84,0.3612168298719466,-0.4633333333333333,-0.6077777777777778,-0.2111111111111111,0.028651205177209073,-0.0972770095303854,-0.0586876586305827
1592297535.6549406,-0.4903019208824648,9.830150960441232,0.38954711867630276,-0.4633333333333333,-0.6077777777777778,-0.2111111111111111,0.043402690085128454,-0.013283582518098358,-0.14807703714325934
1592297535.6649406,-0.4825121902586691,9.867439048706656,0.3974878097413309,-0.4633333333333333,-0.6077777777777778,-0.2111111111111111,0.006060737846983771,-0.04140369870101494,0.05638810345286305
1592297535.6749406,-0.49993681894012,9.88,0.41993681894011997,-0.4489345196543578,-0.62549939461344,-0.20446550479773778,-0.00871975427547286,0.09226574553527869,0.01996921533312744
1592297535.6849406,-0.5,9.88,0.4103940694498634,-0.4488888888888889,-0.6255555555555555,-0.20444444444444446,0.12434960192040169,-0.02463796456025648,-0.06209691487623796
1592297535.6949406,-0.490131979197331,9.88986802080267,0.3113197919733098,-0.4488888888888889,-0.6255555555555555,-0.20444444444444446,-0.08655438804564353,-0.061745453689004574,-0.09128426499906757
1592297535.7049406,-0.49958959631285177,9.880410403687149,0.3387687889385553,-0.4488888888888889,-0.6255555555555555,-0.20444444444444446,-0.02877648843602481,-0.02033484720320517,0.069463867756805
1592297535.7149405,-0.5365836110959329,9.88,0.3619501666575597,-0.4488888888888889,-0.6255555555555555,-0.20444444444444446,-0.053316378580374205,-0.03131421262030293,-0.09364365926930165
