time,acc_x,acc_y,acc_z,mag_x,mag_y,mag_z,gyr_x,gyr_y,gyr_z
1592273451.1583273,-0.4151996181705879,9.757599809085294,0.8679990454264698,-0.4988888888888889,-0.5933333333333334,-0.15222222222222223,-0.12081935536555272,-0.006934851499998111,0.03617057426037043
1592273451.1683273,-0.41067409817242373,9.739325901827577,0.8869285235862596,-0.4988888888888889,-0.5933333333333334,-0.15222222222222223,-0.03662273083701669,0.08174707385429378,-0.0030192768199478505
1592273451.1783273,-0.44154202464010456,9.717114493839974,1.010198543120183,-0.4988888888888889,-0.5933333333333334,-0.15222222222222223,0.014089116630355156,0.024959161829129398,0.016905350747075373
1592273451.1883273,-0.4764239381987679,9.706788030900617,1.0696359072981518,-0.49656913342822273,-0.5922626769668721,-0.15115156585576092,-0.0483469259064476,0.0018242143908204517,-0.0074769500667318765
1592273451.1983273,-0.5135372381098028,9.697074476219605,1.1023138094509866,-0.48444444444444446,-0.5866666666666667,-0.14555555555555555,-0.013908050772028523,0.020400821055794327,-0.027137314198288878
1592273451.2083273,-0.5111641926183612,9.701164192618362,1.0670547308727871,-0.48444444444444446,-0.5866666666666667,-0.14555555555555555,0.029870345972927446,-0.026359045142281996,-0.008128611389603973
1592273451.2183273,-0.4929211859991474,9.674157628001705,1.065842371998295,-0.48444444444444446,-0.5866666666666667,-0.14555555555555555,0.03622694340023748,0.015846625308116823,-0.007780946139533281
1592273451.2283273,-0.495435367193122,9.669129265613757,1.08,-0.48444444444444446,-0.5866666666666667,-0.14555555555555555,0.17071648413087595,0.05221887064922653,-0.07628911798963084
1592273451.2383273,-0.479166637462765,9.70166672507447,1.0779165936569126,-0.485046317388003,-0.5869444541790784,-0.1446758950995853,0.12703616126022702,0.011589833361686017,-0.02604377129271493
1592273451.2483273,-0.4285748116254037,9.75396675038871,0.991591436431049,-0.4988888888888889,-0.5933333333333334,-0.12444444444444444,0.035181243210358,-0.11140723537505504,-0.10226601862178585
1592273451.2583272,-0.3733654614804833,9.78,0.8796144622342006,-0.4988888888888889,-0.5933333333333334,-0.12444444444444444,0.06901585681431738,-0.035200102556927244,-0.014894002145359929
1592273451.2683272,-0.37709146272696514,9.777091462726965,0.820359760911244,-0.4988888888888889,-0.5933333333333334,-0.12444444444444444,0.05136881713535808,-0.005496719318002047,-0.0037500614348527656
1592273451.2783272,-0.3843654623966861,9.776156626741436,0.87,-0.4988888888888889,-0.5933333333333334,-0.12444444444444444,0.027067497650637647,0.04282715596889762,-0.004680497222373906
1592273451.2883272,-0.4408522517068577,9.799573874146573,0.8704261258534288,-0.4980839844990788,-0.5927178182117139,-0.1256281273706357,-0.038761638918175446,0.0854319019001996,-0.08524596942094449
1592273451.2983272,-0.45676088158242606,9.79971735525272,0.8735217631648521,-0.48,-0.5788888888888889,-0.15222222222222223,-0.08271814891522551,0.02773571039200238,-0.019132391168367485
1592273451.3083272,-0.4349511918769338,9.804951191876935,0.8449511918769338,-0.48,-0.5788888888888889,-0.15222222222222223,-0.0454327431868763,-0.0525610064673447,0.03915277708310416
1592273451.3183272,-0.38343714011516317,9.77236612284069,0.814732245681382,-0.48,-0.5788888888888889,-0.15222222222222223,0.0430871877910769,-0.03158520421107037,-0.08060051293648682
1592273451.3283272,-0.34951995373048006,9.78,0.8378079814921919,-0.48,-0.5788888888888889,-0.15222222222222223,-0.02931110892076509,0.015039458758328813,-0.14503349182026695
1592273451.3383272,-0.43062598798608914,9.779860891558647,0.8701391084413531,-0.48008501071416027,-0.5790743668106931,-0.15227631994941512,0.056101051233089935,0.08943122542669411,0.06597922578353128
1592273451.3483272,-0.52,9.76,0.89,-0.4922222222222222,-0.6055555555555555,-0.16,-0.032724923474893676,-0.06872233929727672,-0.014180800172453926
1592273451.3583272,-0.5029176401869159,9.761416471962617,0.8115011682242991,-0.4922222222222222,-0.6055555555555555,-0.16,-0.04857765120182815,-0.08883262034701572,-0.12996592490906736
1592273451.3683271,-0.4346727338043348,9.76769752125494,0.7784198299604838,-0.4922222222222222,-0.6055555555555555,-0.16,-0.07703284752505137,0.02526147780948678,-0.06701828684174616
1592273451.3783271,-0.3208810041033068,9.774559497948346,0.8654791214096066,-0.4922222222222222,-0.6055555555555555,-0.16,-0.0676272957963347,0.027676243712796273,-0.18083304563476368
1592273451.3883271,-0.1962801017471546,9.836859949126422,0.9745049109712397,-0.4922222222222222,-0.6055555555555555,-0.16,-0.04893850207150739,0.06675281241016248,0.025593175962192627
1592273451.398327,-0.18626084240370985,9.797677022513756,1.05,-0.4988888888888889,-0.5988888888888889,-0.15222222222222223,-0.03078444562071872,0.05219593449189179,-0.2513206344011133
1592273451.408327,-0.263029939843732,9.780788024062506,1.0338790421093877,-0.4988888888888889,-0.5988888888888889,-0.15222222222222223,-0.05607549555651141,0.023052716219718185,-0.2040919579014514
1592273451.418327,-0.3999158878504673,9.736685358255452,0.9777808930425753,-0.4988888888888889,-0.5988888888888889,-0.15222222222222223,-0.029556643413997948,0.02562217649818986,-0.02945243112740431
1592273451.428327,-0.6408176561447978,9.687629411065783,0.9794823557368608,-0.4988888888888889,-0.5988888888888889,-0.15222222222222223,-0.05958245701074645,-0.10007410084136652,-0.029969613403821795
1592273451.438327,-0.74,9.682108772146428,1.0110543860732144,-0.49607719269365047,-0.5983031188482143,-0.1506992201164681,-0.017334640514340558,-0.10429720044590428,-0.035314594405350265
1592273451.448327,-0.74,9.7,1.02,-0.4722222222222222,-0.5933333333333334,-0.13777777777777778,0.002181661564992912,0.001090830782496456,-0.06654067773228381
1592273451.458327,-0.5343537048509172,9.72,1.0068707409701834,-0.4722222222222222,-0.5933333333333334,-0.13777777777777778,-0.0194940131184257,-0.02201696512890246,-0.040627871590999995
1592273451.468327,-0.4407286212914485,9.73158922338569,0.9946356893542757,-0.4722222222222222,-0.5933333333333334,-0.13777777777777778,-0.10727752009908016,0.005670701908134938,-0.06531908527548941
1592273451.478327,-0.4125579317555365,9.773836897633304,1.015115863511073,-0.4722222222222222,-0.5933333333333334,-0.13777777777777778,-0.022069390618822415,0.040868238098283105,-0.2100238164799656
1592273451.488327,-0.4285043246839654,9.797756487025948,1.047008649367931,-0.4722222222222222,-0.5933333333333334,-0.13777777777777778,-0.09164865572327842,0.030431348332614704,-0.14566299625834378
1592273451.498327,-0.41559433604849405,9.816608495927259,0.971188672096988,-0.4722222222222222,-0.5866666666666667,-0.16,-0.18753130323793343,0.1740904144737811,-0.00545415391248228
1592273451.508327,-0.4079462258953168,9.83801344352617,0.9201344352617079,-0.4722222222222222,-0.5866666666666667,-0.16,-0.1751903565913653,0.1833002958086178,-0.0019869587879694675
1592273451.518327,-0.4360057245080501,9.832662850327967,0.857308527131783,-0.4722222222222222,-0.5866666666666667,-0.16,-0.18244672364840944,0.28936062927225353,-0.002814928837865452
1592273451.528327,-0.41748320097739766,9.841447770311545,0.9871044593769089,-0.4722222222222222,-0.5866666666666667,-0.16,-0.22894585690762667,0.29241794835194707,-0.10381350596621128
1592273451.538327,-0.47353104001221746,9.777393097128893,1.1152138057422112,-0.4722222222222222,-0.5866666666666667,-0.16,-0.13811120485612466,0.3011520495107453,-0.13787650048552452
1592273451.548327,-0.54,9.71,1.31,-0.4722222222222222,-0.5988888888888889,-0.14555555555555555,-0.10253809355466686,0.28907015736156083,-0.28907015736156083
1592273451.558327,-0.4724003924347305,9.585159699133373,1.5648403008666267,-0.4722222222222222,-0.5988888888888889,-0.14555555555555555,-0.07442935761908792,0.27086186867376827,-0.22601999543997095
1592273451.568327,-0.6616500106315117,9.43223332624566,1.6655333475086824,-0.4722222222222222,-0.5988888888888889,-0.14555555555555555,0.06240855083519367,0.1702595961888621,-0.12658136782929635
1592273451.578327,-0.4699275404101559,9.643754444636643,1.2679423014088298,-0.4722222222222222,-0.5988888888888889,-0.14555555555555555,0.01846149699569124,0.15526814367779332,-0.12537857514980372
1592273451.588327,-0.8971852236252859,9.756614964731208,1.1631432470353071,-0.4722222222222222,-0.5988888888888889,-0.14555555555555555,-0.10113275446779726,0.15702688266990344,-0.15615650751173094
1592273451.598327,-0.4902746243346366,9.91578030053229,0.7761922370342457,-0.4666666666666667,-0.6111111111111112,-0.16666666666666666,-0.07110419289809827,0.15859129836276553,-0.1514566823507607
1592273451.608327,-0.3838429722598588,9.970658204378521,0.748025386864437,-0.4666666666666667,-0.6111111111111112,-0.16666666666666666,-0.08634466663789782,0.207327391762079,-0.27208950891452977
1592273451.618327,-0.2607722044575956,9.939227795542404,0.8810733546508853,-0.4666666666666667,-0.6111111111111112,-0.16666666666666666,-0.1350431641018422,0.13787595059389487,-0.046396100083664224
1592273451.628327,-0.23020198799699926,9.982914853713428,0.962063390847712,-0.4666666666666667,-0.6111111111111112,-0.16666666666666666,-0.17072993148245905,0.21011949961570023,-0.17159872951022118
1592273451.638327,-0.2852659414853713,9.998647411852962,1.1351215303825954,-0.4666666666666667,-0.6111111111111112,-0.16666666666666666,-0.23851808837123736,0.22556490245111804,-0.391266680947275
1592273451.6483269,-0.79,9.75,1.59,-0.46,-0.6055555555555555,-0.16,-0.16907877128695067,0.1265363707695889,-0.27598018797160334
1592273451.6583269,-0.9588407447625605,9.419839764811822,1.763760627168472,-0.46,-0.6055555555555555,-0.16,-0.08329588130984658,0.19795956860175137,-0.47728216471112517
1592273451.6683269,-0.2697243191591018,9.68013569039656,1.1732866698518871,-0.46,-0.6055555555555555,-0.16,-0.0483250023797386,0.2399527000344807,-0.4186995259150979
1592273451.6783268,-0.5279152087707021,9.882438185211102,1.2736394914858877,-0.46,-0.6055555555555555,-0.16,-0.09718031290061017,0.25306886116375604,-0.4355613905438894
1592273451.6883268,-0.584987170515512,9.972122696524377,0.939360858409144,-0.46,-0.6055555555555555,-0.16,-0.13720193248620224,0.1507913888894652,-0.36707995258632076
1592273451.6983268,-0.54,9.82,1.06,-0.44,-0.5933333333333334,-0.16666666666666666,-0.14289883250703572,0.33052172709642613,-0.49632800603588745
1592273451.7083268,-0.6203956680248767,9.961187004074631,0.8986151619129316,-0.44,-0.5933333333333334,-0.16666666666666666,-0.21141718200325368,0.2599100843234606,-0.5719976367487516
1592273451.7183268,-0.6311842136081508,10.01118421360815,0.8476315727836983,-0.44,-0.5933333333333334,-0.16666666666666666,-0.15880199303879247,0.21567693149690065,-0.4556145834409005
1592273451.7283268,-0.5652990005082161,9.949216500084702,0.9794019989835676,-0.44,-0.5933333333333334,-0.16666666666666666,-0.2315418152657927,0.19428476061080133,-0.6428119075918513
1592273451.7383268,-0.5226667796035914,9.94211112993393,1.0646664407928172,-0.44,-0.5933333333333334,-0.16666666666666666,-0.16488530952495922,0.2942695192220516,-0.7148939428697293
1592273451.7483268,-0.46292477223846695,9.947845871293588,1.192154128706411,-0.4066666666666667,-0.6055555555555555,-0.19,-0.19292713538570688,0.4298541789564253,-0.8990613285460671
1592273451.7583268,-0.5810157587463236,9.927796848250734,1.1989842412536762,-0.4066666666666667,-0.6055555555555555,-0.19,-0.2731134592012561,0.4200244861728088,-0.8163752724740586
1592273451.7683268,-0.6800667693888033,9.903528505392913,1.1117976373908578,-0.4066666666666667,-0.6055555555555555,-0.19,-0.3460213848251187,0.4819118956792279,-0.8658204612108389
1592273451.7783267,-0.9690317700453858,9.727621028744327,1.1584140191628844,-0.4066666666666667,-0.6055555555555555,-0.19,-0.3271245015770099,0.4597723852026429,-0.908945201247329
1592273451.7883267,-1.1503285065917441,9.704958936676032,1.1433059577840212,-0.4066666666666667,-0.6055555555555555,-0.19,-0.36750133069598895,0.30897728869706803,-0.8389037629797123
1592273451.7983267,-1.34,9.61,1.11,-0.38666666666666666,-0.6322222222222222,-0.19666666666666666,-0.35779249665883756,0.33052172709642613,-1.0112001353742148
1592273451.8083267,-1.5055637096774195,9.591604032258065,1.1008020161290324,-0.38666666666666666,-0.6322222222222222,-0.19666666666666666,-0.433043326234019,0.3224949719417401,-1.0924710313154107
1592273451.8183267,-1.6569460373474487,9.443922217320981,1.1221555653580357,-0.38666666666666666,-0.6322222222222222,-0.19666666666666666,-0.4669443031823105,0.30405436459026014,-1.0580667232016934
1592273451.8283267,-1.73,9.38,1.25,-0.38666666666666666,-0.6322222222222222,-0.19666666666666666,-0.31852258848896514,0.3239767424014474,-1.00029182754925
1592273451.8383267,-1.7370524017467248,9.387052401746725,1.3416812227074235,-0.38666666666666666,-0.6322222222222222,-0.19666666666666666,-0.3277541607879963,0.3055135978033851,-1.0033690183155937
1592273451.8483267,-1.69,9.38,1.57,-0.36,-0.6444444444444445,-0.19666666666666666,-0.40687988187117813,0.29343348049154666,-0.9937468428542713
1592273451.8583267,-1.8350468418356145,9.456789504501208,1.5444034984995976,-0.36,-0.6444444444444445,-0.19666666666666666,-0.45899992515810895,0.28040346966981394,-0.9825782621499289
1592273451.8683267,-1.9690094927605715,9.465542717422572,1.473962028957714,-0.36,-0.6444444444444445,-0.19666666666666666,-0.41310072383004054,0.2380631233476902,-1.1675004761997403
1592273451.8783267,-1.9606712250304288,9.381641726927759,1.55,-0.36,-0.6444444444444445,-0.19666666666666666,-0.40714850881156595,0.36686518705781873,-1.09148602682648
1592273451.8883266,-2.15586668575929,9.411671797809122,1.55,-0.36,-0.6444444444444445,-0.19666666666666666,-0.41206216766925713,0.33328851819692873,-1.1234248094014732
1592273451.8983266,-2.05,9.26,1.54,-0.31444444444444447,-0.6644444444444444,-0.24,-0.44178646691106466,0.3610649890063269,-1.0046551506792358
1592273451.9083266,-2.2036661807580176,9.208777939747327,1.437555879494655,-0.31444444444444447,-0.6644444444444444,-0.24,-0.4361990069044143,0.5929445792823159,-1.128510514159985
1592273451.9183266,-2.453502828904963,9.223862350497745,1.3818661223710282,-0.31444444444444447,-0.6644444444444444,-0.24,-0.4885582878182276,0.4869122372139734,-0.9829386365721442
1592273451.9283266,-2.7770807543872422,9.080643704944295,1.6622529673050317,-0.31444444444444447,-0.6644444444444444,-0.24,-0.48499839431007374,0.4931331181211148,-1.0870667689313094
1592273451.9383266,-2.9450604383601546,9.095914585305469,1.71570104856914,-0.31444444444444447,-0.6644444444444444,-0.24,-0.47500362648580036,0.4173394621203749,-1.075406206469657
1592273451.9483266,-2.98,8.84,1.89,-0.2822222222222222,-0.68,-0.24666666666666667,-0.42215151282612845,0.4941463444708945,-1.0461067204141012
1592273451.9583266,-3.062384813284478,8.856476962656895,1.922953925313791,-0.2822222222222222,-0.68,-0.24666666666666667,-0.4257462284397657,0.4339348579424704,-1.0497014360277386
1592273451.9683266,-3.2831543912389947,8.812183809319304,1.7795147090401546,-0.2822222222222222,-0.68,-0.24666666666666667,-0.3011414402423757,0.4484164787853533,-1.046356180320341
1592273451.9783266,-3.41,8.9,1.76,-0.2822222222222222,-0.68,-0.24666666666666667,-0.5672320068981571,0.40797071265367457,-0.9686577348568529
1592273451.9883265,-3.551919680658038,8.951091085036895,1.7770303616789647,-0.2822222222222222,-0.68,-0.24666666666666667,-0.4576262746350279,0.3801048485189807,-1.091267537049506
1592273451.9983265,-3.53,8.77,2.07,-0.23555555555555555,-0.68,-0.25333333333333335,-0.4745113903859583,0.148352986419518,-1.00029182754925
1592273452.0083265,-3.4618715459297986,8.650775205377148,2.0870321135175502,-0.23555555555555555,-0.68,-0.25333333333333335,-0.33795461057396115,0.09540239832915176,-1.0411659657242696
1592273452.0183265,-3.8173010353482533,9.027082200376489,2.288541100188245,-0.23555555555555555,-0.68,-0.25333333333333335,-0.33365099228982387,0.2594354267580606,-1.2367084089772584
1592273452.0283265,-3.7706385801957207,8.91153259246973,2.368978271686847,-0.23555555555555555,-0.68,-0.25333333333333335,-0.2476422895395346,0.21870949118826727,-1.3070144820569825
1592273452.0383265,-3.4969595594132636,8.6664774448821,2.443794713672091,-0.23555555555555555,-0.68,-0.25333333333333335,-0.2738969222322688,0.3373025234826537,-1.322395666359876
1592273452.0483265,-3.82,8.73,2.37,-0.19666666666666666,-0.68,-0.27,-0.4177881896961426,0.3883357585687383,-1.4529866022852793
1592273452.0583265,-3.5490301441677587,8.37623379933013,2.400107761759138,-0.19666666666666666,-0.68,-0.27,-0.3849457163772053,0.2922715241108468,-1.4250704999641828
1592273452.0683265,-3.936222734046877,8.269524454680937,2.2195109063812493,-0.19666666666666666,-0.68,-0.27,-0.13519488628972434,0.4030456434453431,-1.4958980319943351
1592273452.0783265,-4.306108466304634,8.443054233152317,2.113858759359824,-0.19666666666666666,-0.68,-0.27,-0.2795258773110775,0.2559878518248435,-1.4935998964471646
1592273452.0883265,-4.356590956325525,8.33499985154835,2.1831819126510497,-0.19666666666666666,-0.68,-0.27,-0.22592585273277271,0.33932286374563037,-1.3804462095071992
1592273452.0983264,-4.83,8.09,2.26,-0.12222222222222222,-0.6877777777777778,-0.31222222222222223,-0.2301652951067522,0.28907015736156083,-1.3940817400304706
1592273452.1083264,-4.769684153855357,8.110105282048215,2.0991577436142848,-0.12222222222222222,-0.6877777777777778,-0.31222222222222223,-0.21262012666757968,0.28029757314197457,-1.4269789308539191
1592273452.1183264,-4.959937102318438,8.139256929715499,2.023312367439479,-0.12222222222222222,-0.6877777777777778,-0.31222222222222223,-0.2608940453198274,0.22011837102775522,-1.3545150505755192
1592273452.1283264,-4.8396992179667135,7.964624022458392,2.093135351914979,-0.12222222222222222,-0.6877777777777778,-0.31222222222222223,-0.22101460943331602,0.31622858469620196,-1.3705722914966643
1592273452.1383264,-5.009855776767519,7.937323248158019,2.289011600564352,-0.12222222222222222,-0.6877777777777778,-0.31222222222222223,-0.16788089236683973,0.3382346651139399,-1.2305515165409275
1592273452.1483264,-5.100522745563944,7.706795692331276,2.214181964511555,-0.07893943458654301,-0.6823674293233178,-0.31438636160400624,-0.22386320033804885,0.26247626056960127,-1.2115782627546492
1592273452.1583264,-5.205633881200608,7.587323860052685,2.3719719511742663,-0.07777777777777778,-0.6822222222222222,-0.31444444444444447,-0.21504729430986796,0.3966784103767259,-1.390456011639883
1592273452.1683264,-5.496391500564122,7.832019556224145,2.220985332831892,-0.07777777777777778,-0.6822222222222222,-0.31444444444444447,-0.08609912187328034,0.30347269278709466,-1.466976640399117
1592273452.1783264,-5.61203977732312,7.372189180187467,2.365671599181615,-0.07777777777777778,-0.6822222222222222,-0.31444444444444447,-0.08622447188794034,0.2669821964515617,-1.4159634930754628
1592273452.1883264,-5.724342536856144,7.357824676494972,2.3452191543812853,-0.07777777777777778,-0.6822222222222222,-0.31444444444444447,-0.052361646920937636,0.19753864981161018,-1.2954385804014321
1592273452.1983263,-5.876367592428799,7.476367592428799,2.1704486113568016,-0.024593981563378352,-0.7038896947540145,-0.30755024863887415,-0.029352976999454782,0.1602526708990295,-1.1972593964952296
1592273452.2083263,-5.896563528373064,7.240585921823581,2.1303094148808093,-0.017777777777777778,-0.7066666666666667,-0.30666666666666664,-0.09065097982771023,0.19649172795834147,-1.1668442385962992
1592273452.2183263,-6.396343697724436,7.473394492976819,1.8541015905047662,-0.017777777777777778,-0.7066666666666667,-0.30666666666666664,-0.050751335898537295,0.14250511851042189,-1.1028567711645998
1592273452.2283263,-6.42404668146345,7.151478485000358,2.4761480632920456,-0.017777777777777778,-0.7066666666666667,-0.30666666666666664,-0.0669439110200356,0.15072989943122397,-1.1129530057107804
1592273452.2383263,-6.313632764920828,7.0731805724725945,2.4640880024360534,-0.017777777777777778,-0.7066666666666667,-0.30666666666666664,-0.04303732678591225,0.10585858378524718,-1.1643643698050208
1592273452.2483263,-6.3311245204603575,6.830862372122762,2.493111413043478,0.023252078005115088,-0.6976601129582267,-0.2956586565785735,0.021180704546386188,0.030319376563876878,-1.1602616561423058
1592273452.2583263,-6.694045852500371,6.9663844784092595,2.4974892417272594,0.027777777777777776,-0.6966666666666667,-0.29444444444444445,0.043104245545710976,-0.02513604981770695,-1.1587408664343963
1592273452.2683263,-6.416565562420111,6.720747763101832,2.49,0.027777777777777776,-0.6966666666666667,-0.29444444444444445,0.09154821742875295,-0.08371870628506327,-1.0989890940669427
1592273452.2783263,-6.746731349719706,6.842319965502372,2.4465904844041972,0.027777777777777776,-0.6966666666666667,-0.29444444444444445,0.0830219909478293,-0.05994583186311593,-1.2201451105714192
1592273452.2883263,-6.73300226397342,6.784897239128517,2.5575228602510953,0.027777777777777776,-0.6966666666666667,-0.29444444444444445,0.10857129127495224,-0.08436630433690563,-1.1447895252863063
1592273452.2983263,-6.764709917679341,6.85578400627205,2.159672677381419,0.08831003092469183,-0.691937584389564,-0.29444444444444445,0.2413705774430628,0.011818046158857592,-0.9164426029731794
1592273452.3083262,-6.91814721009975,6.711708229426434,2.3720105985037407,0.09888888888888889,-0.6911111111111111,-0.29444444444444445,0.18511152704014622,-0.00897750673683785,-0.9624109179431715
1592273452.3183262,-7.316617805561544,6.339297262341022,2.5376061651217934,0.09888888888888889,-0.6911111111111111,-0.29444444444444445,0.15279296633654715,-0.08786537314143203,-0.7883033615689817
1592273452.3283262,-7.363095505215669,6.585828658725801,2.367859546941016,0.09888888888888889,-0.6911111111111111,-0.29444444444444445,0.24391619968282927,-0.08048799069621493,-0.6881202629861897
1592273452.3383262,-7.356422484134179,6.5255194922937445,2.41512783318223,0.09888888888888889,-0.6911111111111111,-0.29444444444444445,0.24830057938336783,-0.14925433109328706,-0.6683503391913989
1592273452.3483262,-7.543980760608161,6.37060367668039,2.2632458321444586,0.11575678111568545,-0.680802954750291,-0.30850102130010826,0.33194372437580577,-0.222041800502288,-0.5351350458877479
1592273452.3583262,-7.624862669101479,6.483184138933403,2.2324313345507396,0.11888888888888889,-0.6788888888888889,-0.3111111111111111,0.2734367590629129,-0.18323737514862148,-0.49175938735744984
1592273452.3683262,-7.632717953821656,6.637018312101911,2.2870183121019108,0.11888888888888889,-0.6788888888888889,-0.3111111111111111,0.24338152208031272,-0.09714468007040977,-0.44037917795470505
1592273452.3783262,-7.559668341958599,6.67876094745223,2.328760947452229,0.11888888888888889,-0.6788888888888889,-0.3111111111111111,0.3446950093517137,-0.018029091695551724,-0.402813502899017
1592273452.3883262,-7.348897160239575,6.551016116537873,2.1836431311051068,0.11888888888888889,-0.6788888888888889,-0.3111111111111111,0.3069082404554873,0.028540475406054092,-0.4091232706867912
1592273452.3983262,-7.17861975426839,6.489225307164513,2.19552098292644,0.1546275020832225,-0.6797605623814337,-0.2997793557080297,0.26988688763605945,-0.07118963247453655,-0.3500323156804698
1592273452.4083261,-7.131952606635071,6.567639810426541,2.1834976303317535,0.16444444444444445,-0.68,-0.2966666666666667,0.20169099281370012,-0.15112710868438817,-0.3332886116215072
1592273452.4183261,-7.238753504584375,6.570269758278397,2.050976737137228,0.16444444444444445,-0.68,-0.2966666666666667,0.13709561605045384,-0.16779716703730246,-0.3069496318557825
1592273452.4283261,-7.013188799199942,6.303858132723766,2.0765354668190588,0.16444444444444445,-0.68,-0.2966666666666667,0.22023405187080994,0.014943189512831495,-0.12538102052942351
1592273452.4383261,-7.265332573166097,6.349409241461693,2.2501330292664385,0.16444444444444445,-0.68,-0.2966666666666667,0.1750130400022193,0.044379227591629045,-0.07317912667088416
1592273452.448326,-7.33721577473976,6.394608213518875,2.4376525426032125,0.16789374186514947,-0.6839420541950915,-0.29962320731298525,0.1044920601665553,-0.04508487556924029,-0.12657455711068244
1592273452.458326,-7.221574384174779,6.192493661773451,2.41593195405177,0.17222222222222222,-0.6888888888888889,-0.30333333333333334,0.2015372096055833,-0.01850424442191277,-0.0961077947840803
1592273452.468326,-7.111332623531671,6.019192571518335,2.271157558515002,0.17222222222222222,-0.6888888888888889,-0.30333333333333334,0.3519080878457068,0.0318484395227141,-0.08057611122775521
1592273452.478326,-6.792709674854917,5.971231417441768,2.324482470784641,0.17222222222222222,-0.6888888888888889,-0.30333333333333334,0.5574035166185973,-0.03883449507193817,-0.04617503438959141
1592273452.488326,-6.71,6.0,2.4,0.17222222222222222,-0.6888888888888889,-0.30333333333333334,0.6272276999354622,-0.07963064712224129,-0.016362461737446838
1592273452.498326,-6.839241889336925,6.358646242909967,2.4,0.17222222222222222,-0.6888888888888889,-0.30333333333333334,0.5253689048380332,-0.1487113524478333,-0.03539490095980381
1592273452.508326,-6.9795969347633315,6.748131493968243,2.4,0.17222222222222222,-0.6888888888888889,-0.30333333333333334,0.4147515509264941,-0.22373211842244112,-0.05606388750382843
1592273452.518326,-7.11,7.000670696838494,2.2991740870843884,0.17370694115404514,-0.6906435567174068,-0.3018486144015104,0.310917516955609,-0.2921083719435749,-0.10839503769154944
1592273452.528326,-7.238418170392316,6.063236376694497,1.820721189813568,0.18444444444444444,-0.7033333333333334,-0.2911111111111111,0.09246015809841121,-0.16112034514354462,-0.3359679487624427
1592273452.538326,-7.389045811326291,6.0257677706866195,2.011867297535211,0.18444444444444444,-0.7033333333333334,-0.2911111111111111,-0.031023021002950762,-0.12483911945222581,-0.2153641209356921
1592273452.548326,-7.489041960093897,6.10653389084507,2.058019366197183,0.18444444444444444,-0.7033333333333334,-0.2911111111111111,-0.015919791851240095,-0.18399343362975926,-0.051745805125493205
1592273452.558326,-7.518907711657889,6.169569609307445,2.131291172077667,0.18659674728576545,-0.7025055245482099,-0.2907799875970617,0.01569772467071368,-0.2916018091662172,0.07075247991323487
1592273452.568326,-7.127158885269634,6.397647484618169,2.3467209554831707,0.1988888888888889,-0.6977777777777778,-0.28888888888888886,-0.00903537940217658,-0.6075449751213612,-0.020881335836778883
1592273452.578326,-7.1141476111705755,6.268752554247349,2.1082691933443614,0.1988888888888889,-0.6977777777777778,-0.28888888888888886,0.18833957158106274,-0.4741530518901222,-0.04382487234080379
1592273452.588326,-7.260283718826939,6.260243187565947,2.050101328152478,0.1988888888888889,-0.6977777777777778,-0.28888888888888886,0.25351757293067667,-0.3877317612875262,-0.17474735702307442
1592273452.598326,-7.149355337802992,6.2643178482167645,2.254242869044313,0.20156671647646376,-0.6988489088128077,-0.28888888888888886,0.15613844655307574,-0.39936917417297835,-0.19411391546535964
1592273452.608326,-6.962884675163195,6.077836493627603,2.364743549891203,0.20444444444444446,-0.7,-0.28888888888888886,0.31493034064632686,-0.3230798672321272,-0.19412074671403437
1592273452.618326,-7.197710793043554,6.152044280280545,2.091267066816173,0.20444444444444446,-0.7,-0.28888888888888886,0.1579114921806415,-0.3424843871598119,-0.11108798316122954
1592273452.628326,-7.576311138995634,6.263262227799127,1.9366844430502181,0.20444444444444446,-0.7,-0.28888888888888886,0.21281189488887894,-0.23872224136968737,-0.18706343496212463
1592273452.638326,-7.5506104743431495,6.346557573620173,2.0893895256568507,0.20444444444444446,-0.7,-0.28888888888888886,0.229530993645218,-0.22918360510824243,-0.1137628981120454
1592273452.648326,-7.4870493588192595,6.138851923542221,2.361869102346964,0.20444444444444446,-0.7103169610452456,-0.28502002849692176,0.22315908931513362,-0.2865379941563174,-0.11101466428441459
1592273452.658326,-7.528406617647059,6.0255768382352946,2.324038602941177,0.20444444444444446,-0.7177777777777777,-0.2822222222222222,0.3098288676728328,-0.32121665979322117,-0.20786919516139926
1592273452.668326,-7.534874046200481,6.089483641684959,2.2923173408592037,0.20444444444444446,-0.7177777777777777,-0.2822222222222222,0.3391068743492819,-0.129516287410181,-0.18969190424541432
1592273452.678326,-7.552879092063752,6.033977957143442,2.3323513746056457,0.20444444444444446,-0.7177777777777777,-0.2822222222222222,0.3203158647751489,-0.024851920347862683,-0.18806884491297587
1592273452.688326,-7.457411327231121,5.955529380516508,1.9350582298136647,0.20444444444444446,-0.7177777777777777,-0.2822222222222222,0.2634159988405106,-0.15289561107053162,-0.2364408929173726
1592273452.6983259,-7.670803807317868,6.020008323983931,1.8246147443089284,0.2146165940831353,-0.7213679482384922,-0.277435328274603,0.17293597988501205,-0.11361722490378408,-0.19818864736025915
1592273452.7083259,-7.973448023426061,6.046913128355295,1.7920034163006344,0.22333333333333333,-0.7244444444444444,-0.2733333333333333,0.09855834464566136,-0.2096684303156853,-0.12475425459369484
1592273452.7183259,-8.075472109611535,5.9136480730743575,1.9826394519423207,0.22333333333333333,-0.7244444444444444,-0.2733333333333333,-0.026257971217478457,-0.47452933112931495,-0.10123424093490502
1592273452.7283258,-7.8870210776203145,5.940992974126561,2.2938565570822242,0.22333333333333333,-0.7244444444444444,-0.2733333333333333,-0.0063535145051153204,-0.4445627846640842,-0.13646216448640458
1592273452.7383258,-7.718580433191079,6.065787725657554,2.255054729210935,0.22333333333333333,-0.7244444444444444,-0.2733333333333333,0.07016194453813043,-0.3563409513563859,-0.11820625921436632
1592273452.7483258,-7.448190740007914,6.27605540166205,2.2461559161060545,0.2272613111726685,-0.7182719078397749,-0.262671679197995,0.060683516451958755,-0.371066184917426,-0.05744124102365212
1592273452.7583258,-7.224270297257854,6.306242414932022,2.343773331285045,0.2311111111111111,-0.7122222222222222,-0.25222222222222224,-0.02661018811305261,-0.41375184768058126,-0.011070939559262557
1592273452.7683258,-7.216833116552621,6.097749816207656,2.283499971724255,0.2311111111111111,-0.7122222222222222,-0.25222222222222224,-0.0022361938509018013,-0.28319781977693337,-0.07647622581007954
1592273452.7783258,-7.457522985911478,6.157431042265567,2.403807464778694,0.2311111111111111,-0.7122222222222222,-0.25222222222222224,0.034116043066798,-0.29669594334311467,-0.10890786010513825
1592273452.7883258,-7.395124930194016,6.0098402118499035,2.521298661526544,0.2311111111111111,-0.7122222222222222,-0.25222222222222224,0.07445981720359868,-0.2858597809208912,-0.08221986449471337
1592273452.7983258,-7.346066430372346,5.846293711404246,2.525506997478715,0.22087412658392305,-0.7188762621648944,-0.2609236590703321,0.0683428384429577,-0.26661658932721644,-0.08083208759602387
1592273452.8083258,-7.425562565720295,5.740336487907466,2.4676971608832807,0.2088888888888889,-0.7266666666666667,-0.27111111111111114,0.06315233479695834,-0.2497268389182081,-0.06736195516684476
1592273452.8183258,-7.339922102447085,5.710314737587536,2.4561421040207727,0.2088888888888889,-0.7266666666666667,-0.27111111111111114,0.2532783934830649,-0.11845457553400121,-0.05401771032117374
1592273452.8283257,-7.394107206841364,5.942100900556578,2.3479779280032487,0.2088888888888889,-0.7266666666666667,-0.27111111111111114,0.2597935859898135,-0.06526538833217055,0.0028554214852807777
1592273452.8383257,-7.40798723762749,6.178455788775565,2.3742278943877824,0.2088888888888889,-0.7266666666666667,-0.27111111111111114,0.16229487101127818,-0.10897813840828514,0.057833388737627396
1592273452.8483257,-7.198789720704778,6.1875794414095555,2.339440255443564,0.21520423516538006,-0.7266666666666667,-0.2681963359065767,0.15629904702952366,-0.1073123351666949,0.09871770989778787
1592273452.8583257,-7.130569224522939,6.043211530653674,2.2185874949248885,0.22333333333333333,-0.7266666666666667,-0.2644444444444444,0.21621063305753935,-0.10218776990507097,0.09829665293842162
1592273452.8683257,-7.20734944380514,6.07950956216779,2.21545618938024,0.22333333333333333,-0.7266666666666667,-0.2644444444444444,0.11737701455101722,-0.07615163275417407,0.04328587979144205
1592273452.8783257,-7.407279742201372,6.137787009229015,2.1801839226604116,0.22333333333333333,-0.7266666666666667,-0.2644444444444444,0.18986409905830984,0.01073195083040307,-0.012461229802431355
1592273452.8883257,-7.581916847787983,6.2519168477879825,2.3371247283180256,0.22333333333333333,-0.7266666666666667,-0.2644444444444444,0.28289061206828325,0.019245404439655014,-0.04339358197945211
1592273452.8983257,-7.4245895153313555,6.109507722742144,2.5027870349235335,0.22191255167516294,-0.7280874483248371,-0.2582877239257061,0.23572701325069725,-0.07101106711117935,-0.0008406775466717337
1592273452.9083257,-7.225092463948642,6.117866382407895,2.5347226081540746,0.21666666666666667,-0.7333333333333333,-0.23555555555555555,0.19960489179424237,-0.0389052875418133,-0.006586845254399017
1592273452.9183257,-7.182398747750635,6.121907215224197,2.4671097197229273,0.21666666666666667,-0.7333333333333333,-0.23555555555555555,0.08290313946973066,-0.06821789022587303,-0.03860802043572521
1592273452.9283257,-7.132610784195989,5.994574276450102,2.41225891677675,0.21666666666666667,-0.7333333333333333,-0.23555555555555555,0.0862424414364194,-0.055543290415053424,-0.11341797454165835
1592273452.9383256,-7.134821361414065,6.158845430613012,2.111714930424972,0.21666666666666667,-0.7333333333333333,-0.23555555555555555,0.1654784963914302,0.08117889660443069,-0.03369350244348117
1592273452.9483256,-7.51,6.193680983781857,2.032543218677598,0.220702112913127,-0.7359013445810808,-0.2403247193013723,0.147220785330389,0.1450890092009314,-0.018875085755500155
1592273452.9583256,-7.51,6.12,2.2,0.2288888888888889,-0.7411111111111112,-0.25,0.15598880189699318,0.2203478180642841,0.05126904677733343
1592273452.9683256,-7.8012171393826675,6.062816266676204,1.9759665939411282,0.2288888888888889,-0.7411111111111112,-0.25,0.16705586327015254,0.06294798622774489,0.10672697895696065
1592273452.9783256,-7.71,6.14,1.99,0.2288888888888889,-0.7411111111111112,-0.25,0.0545415391248228,0.10581058590215622,0.08835729338221293
1592273452.9883256,-7.509331911327798,6.148997866991697,2.211885807876895,0.2288888888888889,-0.7411111111111112,-0.25,-0.02795018088850959,-0.033331457632084324,0.15290082922288947
1592273452.9983256,-7.538419613561794,6.218685289828655,2.2971049033904483,0.22470708267509215,-0.7472229817312757,-0.24806993559363227,0.0013791473400283291,-0.017280899102439753,0.10021600194225541
1592273453.0083256,-7.464302879250056,6.22787627408675,2.282539245591846,0.21444444444444444,-0.7622222222222222,-0.24333333333333335,0.022517649523837634,-0.004618156003807626,0.1503543577841303
1592273453.0183256,-7.262355812596169,6.343034435188624,2.26592826444527,0.21444444444444444,-0.7622222222222222,-0.24333333333333335,0.00012848964488470886,0.11936983188703497,0.0771137549161798
1592273453.0283256,-7.543132086167801,6.605762471655329,2.3287103174603176,0.21444444444444444,-0.7622222222222222,-0.24333333333333335,0.013221685351789527,0.15206422278071555,0.11575421344328038
1592273453.0383255,-7.496960071904088,6.328762548938958,2.241123044345932,0.21444444444444444,-0.7622222222222222,-0.24333333333333335,-0.12217381205037031,-0.01597075107210542,0.08112643281750309
1592273453.0483255,-6.9921846960071905,6.207360876254894,2.1963961123044347,0.21444444444444444,-0.7622222222222222,-0.24333333333333335,-0.18420619448889608,-0.05639634861631323,0.12085503730060387
1592273453.0583255,-7.21163166818834,6.202823268553542,2.230440067823138,0.2288888888888889,-0.7477777777777778,-0.24333333333333335,-0.0636581356924332,0.18711550959701545,-0.13283985602929838
1592273453.0683255,-7.460113395430831,6.6219829906853755,2.42807370703004,0.2288888888888889,-0.7477777777777778,-0.24333333333333335,-0.07289099836380683,0.16922720555880477,-0.051695483472208405
1592273453.0783255,-7.100215889870325,6.510280727306897,2.2242116143582034,0.2288888888888889,-0.7477777777777778,-0.24333333333333335,-0.06600587134178623,-0.005152591784864866,0.0012840478493077526
1592273453.0883255,-7.016340828705995,6.3218078692249895,2.094943280737442,0.2288888888888889,-0.7477777777777778,-0.24333333333333335,-0.11731815398271292,-0.005229298878459521,0.08445315589691975
1592273453.0983255,-7.606718350383632,6.290132672634271,2.2040553069053708,0.22796071327081557,-0.7468496021597044,-0.24039411054276785,-0.1492943859391309,0.03472942965705149,0.05759223851269971
1592273453.1083255,-7.03,5.92,1.92,0.2222222222222222,-0.7411111111111112,-0.2222222222222222,0.0,-0.10799224746714915,0.11017390903214205
1592273453.1183255,-7.033886506935688,6.2387566204287515,2.3619167717528375,0.2222222222222222,-0.7411111111111112,-0.2222222222222222,-0.036896216368767894,0.0424972816653241,0.16198548249373348
1592273453.1283255,-7.312863055022313,6.22080027922515,2.1765263892697764,0.2222222222222222,-0.7411111111111112,-0.2222222222222222,-0.08730785385027018,0.1361171670935492,0.06176420356523367
1592273453.1383255,-7.35,6.12,2.15,0.2222222222222222,-0.7411111111111112,-0.2222222222222222,-0.06763150851478027,0.18762289458939044,-0.016362461737446838
1592273453.1483254,-7.561351510165707,6.409968268891761,2.3965918439299565,0.22418720048053695,-0.7453983364019796,-0.2222222222222222,0.01551007792350643,0.007768884269604856,0.14691512555966604
1592273453.1583254,-6.42,5.94,2.17,0.23444444444444446,-0.7677777777777778,-0.2222222222222222,0.08508480103472357,0.2476185876266955,-0.08835729338221293
1592273453.1683254,-7.6329449504496765,6.388685913960016,2.268201294609612,0.23444444444444446,-0.7677777777777778,-0.2222222222222222,-0.11910794873698427,0.16737694529386532,-0.016280104232071907
1592273453.1783254,-6.83,6.22,2.14,0.23444444444444446,-0.7677777777777778,-0.2222222222222222,-0.16253378659197193,0.06654067773228381,0.1287180323345818
1592273453.1883254,-7.273830513181647,6.226760826010197,2.116760826010196,0.23444444444444446,-0.7677777777777778,-0.2222222222222222,-0.05909549959970941,0.08760625581503739,0.0838197567149063
1592273453.1983254,-7.345038719669592,6.186640853553605,2.1555807950438823,0.23444444444444446,-0.7677777777777778,-0.2244616531864854,-0.03705445731889614,0.2480161748917665,-0.030416552087463133
1592273453.2083254,-7.37,6.17,2.53,0.23444444444444446,-0.7677777777777778,-0.23555555555555555,-0.015271630954950384,0.15271630954950383,0.05126904677733343
1592273453.2183254,-7.75868799311433,6.11286816812509,2.229845646248745,0.23444444444444446,-0.7677777777777778,-0.23555555555555555,-0.025537364181544057,-0.0034759179703907316,0.037977028799460404
1592273453.2283254,-7.11595825426945,6.104743833017078,2.2711195445920302,0.23444444444444446,-0.7677777777777778,-0.23555555555555555,-0.030563960786228972,0.03076060011134693,0.004218430995688388
1592273453.2383254,-7.338433745921213,6.098161948338407,2.396217438066245,0.23444444444444446,-0.7677777777777778,-0.23555555555555555,-0.030602558943887394,-0.03349727629081407,0.11134787894914491
1592273453.2483253,-7.009682585426101,6.142397694524496,2.1081453272951833,0.23444444444444446,-0.7671140844426148,-0.2344091761584557,0.04389935988022357,-0.0596211100996022,-0.03305572049193233
1592273453.2583253,-6.83,6.01,2.25,0.23444444444444446,-0.7555555555555555,-0.21444444444444444,-0.06544984694978735,-0.20507618710933373,-0.05781403147231216
1592273453.2683253,-7.228074320382686,6.346566328316416,1.9193734686734336,0.23444444444444446,-0.7555555555555555,-0.21444444444444444,-0.093867064264938,0.10236087014262318,-0.033005999170045174
1592273453.2783253,-7.31,6.57,1.83,0.23444444444444446,-0.7555555555555555,-0.21444444444444444,-0.02399827721492203,0.038179077387375956,-0.18980455615438332
1592273453.2883253,-7.201095504487463,6.5454147381977705,2.16,0.23444444444444446,-0.7555555555555555,-0.21444444444444444,-0.06518182578316198,-0.008957987379960577,-0.10892770938663376
1592273453.2983253,-6.9779699248120295,6.356917293233082,2.1791879699248122,0.23395989974937345,-0.7566215538847118,-0.21386299081035923,-0.10763629215917661,0.193629845454807,-0.2504399845378142
1592273453.3083253,-7.48,6.22,2.38,0.2288888888888889,-0.7677777777777778,-0.20777777777777778,-0.02399827721492203,0.3021601267515183,-0.16580627893946132
1592273453.3183253,-7.4,6.310540306269864,2.4026235192141,0.2288888888888889,-0.7677777777777778,-0.20777777777777778,-0.09907870070038163,0.16115677425775438,-0.17450771096580114
1592273453.3283253,-7.406807148572953,6.013403574286476,2.3476500400106692,0.2288888888888889,-0.7677777777777778,-0.20777777777777778,-0.1248054152280921,0.16195563754827483,-0.037312581236329176
1592273453.3383253,-7.42,6.02,2.44,0.2288888888888889,-0.7677777777777778,-0.20777777777777778,-0.030543261909900768,0.14180800172453928,0.11235557059713495
1592273453.3483253,-7.374758531873793,6.097141017385705,2.486181584030908,0.2288888888888889,-0.7677777777777778,-0.20809544251269943,-0.14149543269800294,0.057558357032628515,-0.1745792837516833
1592273453.3583252,-7.27,6.04,2.21,0.2288888888888889,-0.7677777777777778,-0.21444444444444444,-0.11344640137963141,0.1832595714594046,-0.001090830782496456
1592273453.3683252,-7.64,6.29,2.29,0.2288888888888889,-0.7677777777777778,-0.21444444444444444,-0.008726646259971648,0.12217304763960307,0.001090830782496456
1592273453.3783252,-7.511673270575171,5.995291623551977,2.180894682381445,0.2288888888888889,-0.7677777777777778,-0.21444444444444444,-0.07953707182936329,-0.007831004893922706,0.1276651932861753
1592273453.3883252,-7.5800714143660395,5.936946538663196,2.067089367395274,0.2288888888888889,-0.7677777777777778,-0.21444444444444444,0.049095175311219326,0.011040739505904403,-0.03147829071482093
1592273453.3983252,-7.55175390296042,6.169298438815832,2.2428062447366717,0.22903179950047864,-0.7678557290204631,-0.2142755500852929,0.04761331152326445,-0.0449791569275197,-0.09616559819959056
1592273453.4083252,-7.641089375658897,6.11,2.4425114208738434,0.2411111111111111,-0.7744444444444445,-0.2,0.12513708672377433,-0.06420389509783433,0.0030711160662179153
1592273453.4183252,-7.4701233655223405,5.981603751790417,2.3227158896640945,0.2411111111111111,-0.7744444444444445,-0.2,-0.05214416089628579,-0.054043223551818016,0.01854372009372285
1592273453.4283252,-7.347559547051933,5.682440452948067,2.2651347130027335,0.2411111111111111,-0.7744444444444445,-0.2,-0.01701500088574226,-0.0531568101619583,-0.08959336949732606
1592273453.4383252,-7.14120010092454,5.979280011534233,2.331200100924541,0.2411111111111111,-0.7744444444444445,-0.2,-0.12704247756333498,-0.09705777322894359,-0.03123269087004221
1592273453.4483252,-7.405767477066701,6.009516283093337,2.5957674770667003,0.2411111111111111,-0.7744444444444445,-0.2,-0.02562081108721248,-0.1325141281758807,-0.0938997368227683
1592273453.4583251,-6.917772895751,5.9335545791502,2.04674930656128,0.2288888888888889,-0.7888888888888889,-0.20777777777777778,-0.054088809139539645,-0.18693201813562443,0.026166416858778914
1592273453.4683251,-7.352290936641727,6.039597499763235,2.28,0.2288888888888889,-0.7888888888888889,-0.20777777777777778,-0.05651834062336146,-0.028440424465283345,-0.04647906097742523
1592273453.4783251,-7.89884436825941,6.124613241911292,2.3739254338975786,0.2288888888888889,-0.7888888888888889,-0.20777777777777778,0.07026536505596126,0.10267981351705248,-0.13027874387196978
1592273453.488325,-7.700876547400011,5.946122077133313,2.539880673800039,0.2288888888888889,-0.7888888888888889,-0.20777777777777778,-2.903374119647001e-05,0.013062436050151689,-0.12663198725821376
1592273453.498325,-7.633445276075811,6.073492256301245,2.2926326789446416,0.2288888888888889,-0.7888888888888889,-0.20777777777777778,0.07679623300936876,0.02450449705555502,-0.11927637661188306
1592273453.508325,-7.67,6.01,2.24,0.2411111111111111,-0.7622222222222222,-0.21444444444444444,0.030543261909900768,0.042542400517361786,-0.1810779098944117
1592273453.518325,-8.164595341708406,6.234376385581739,2.4582822891863043,0.2411111111111111,-0.7622222222222222,-0.21444444444444444,-0.06489725130829443,0.0010120719461326148,0.07681052546792284
1592273453.528325,-7.394047579078634,6.1958051751840575,2.2898225377107364,0.2411111111111111,-0.7622222222222222,-0.21444444444444444,-0.13925565807633153,-0.05568714819117612,-0.1828921854906912
1592273453.538325,-7.81,6.4,2.01,0.2411111111111111,-0.7622222222222222,-0.21444444444444444,-0.019634954084936207,-0.04908738521234052,-0.16144295580947549
1592273453.548325,-7.045278041025955,6.32886307358381,2.2323028950505943,0.2411111111111111,-0.7622222222222222,-0.21444444444444444,0.003644550647153487,-0.06848697248908193,-0.20994192400132902
1592273453.558325,-7.8,6.19,2.39,0.25333333333333335,-0.7677777777777778,-0.17222222222222222,-0.13635384781205698,0.08835729338221293,-0.038179077387375956
1592273453.568325,-7.383768204253244,6.203471452074828,2.1949552129669128,0.25333333333333335,-0.7677777777777778,-0.17222222222222222,0.06437490237514032,0.021043376085443023,0.07395295631855581
1592273453.578325,-7.427307618407148,6.0506146123546936,2.11486045729657,0.25333333333333335,-0.7677777777777778,-0.17222222222222222,-0.12217427900300919,0.1983592831234831,-0.011796775821314349
1592273453.588325,-8.2,6.24,2.38,0.25333333333333335,-0.7677777777777778,-0.17222222222222222,-0.14944381720201447,0.05126904677733343,0.07744898555724837
1592273453.598325,-7.314021502883472,5.866499261019503,2.136790216477816,0.25333333333333335,-0.7677777777777778,-0.17222222222222222,-0.010160940005108254,-0.03969119955533999,0.06986896502952558
1592273453.608325,-8.15,6.01,2.47,0.2411111111111111,-0.7822222222222223,-0.18666666666666668,0.008726646259971648,0.0818123086872342,-0.044724062082354694
1592273453.618325,-7.595851011615858,5.93,2.564361127774445,0.2411111111111111,-0.7822222222222223,-0.18666666666666668,0.007206371870623366,0.09322257594627767,-0.19070972500351166
1592273453.628325,-7.656100976815346,5.938542309050253,2.2511519359774037,0.2411111111111111,-0.7822222222222223,-0.18666666666666668,-0.027326357385033615,0.12151865187277978,-0.1892129887487409
1592273453.638325,-7.900349028765908,6.002431977407267,2.5438224804938536,0.2411111111111111,-0.7822222222222223,-0.18666666666666668,0.044180591817413524,0.09330994041455112,-0.1314812372966988
1592273453.648325,-7.3612456778725175,6.161885081192636,2.513450460725212,0.2411111111111111,-0.7822222222222223,-0.18666666666666668,0.10050283977079649,0.2034696312645502,-0.01635193633316595
1592273453.658325,-7.681777556410138,6.1614247324283,2.455346105731363,0.2222222222222222,-0.7888888888888889,-0.1811111111111111,0.08671591727637246,0.0482289428808434,-0.023446266196693502
1592273453.668325,-7.532468395736144,6.07930361847671,2.2565823886297163,0.2222222222222222,-0.7888888888888889,-0.1811111111111111,-0.0008283469063573197,0.020214844380057054,0.09765003997575639
1592273453.678325,-7.585042382889384,5.978781787167039,2.3393908935835195,0.2222222222222222,-0.7888888888888889,-0.1811111111111111,0.08817702933714325,-0.0027605848274105957,0.09135419386661102
1592273453.688325,-7.716412907826707,6.190152255303976,2.3475578534498127,0.2222222222222222,-0.7888888888888889,-0.1811111111111111,0.07380612805693564,0.03805850062054625,0.1501956716867945
1592273453.698325,-7.267744696024247,6.459353182385452,1.9587120698876803,0.2222222222222222,-0.7888888888888889,-0.1811111111111111,-0.04528633877309346,-0.06798273696783584,-0.07412233090401371
1592273453.708325,-7.77,6.16,2.08,0.21444444444444444,-0.7744444444444445,-0.15777777777777777,-0.11780972450961724,0.0032724923474893677,0.02945243112740431
1592273453.718325,-7.20460717394292,6.193607128132301,2.4617856979247787,0.21444444444444444,-0.7744444444444445,-0.15777777777777777,-0.04222682965330639,0.2284024458001359,-0.06125207984080161
1592273453.728325,-7.57244051505733,6.025275681040562,2.2941729568783136,0.21444444444444444,-0.7744444444444445,-0.15777777777777777,0.05452444458961508,0.3470560743853866,0.11747054044020412
1592273453.7383249,-7.876854917056182,5.970607277059848,2.5275921547062596,0.21444444444444444,-0.7744444444444445,-0.15777777777777777,-0.01479838775157533,0.2544901517217386,0.06786091189792723
1592273453.7483249,-7.50013289341032,6.116683163779672,2.5814095866556683,0.21444444444444444,-0.7744444444444445,-0.15777777777777777,-0.011443775671271132,0.19494578729633916,0.2473326581942017
1592273453.7583249,-7.64,6.25,2.44,0.2222222222222222,-0.78,-0.15777777777777777,0.1778054175469223,0.17235126363444003,0.09053895494720585
1592273453.7683249,-7.440955301652781,6.26047765082639,2.433312888430537,0.2222222222222222,-0.78,-0.15777777777777777,-0.06262583061185205,0.21361526032840927,0.046801516402405346
1592273453.7783248,-7.6121265278138965,6.298408236601338,1.8224303175015957,0.2222222222222222,-0.78,-0.15777777777777777,0.20557847111488192,0.2083579891311057,0.03346848535464781
1592273453.7883248,-8.067914881359593,6.200748928815756,2.354331905087675,0.2222222222222222,-0.78,-0.15777777777777777,0.05116971609469441,0.28964202558584873,0.009162577950999918
1592273453.7983248,-7.803628524106146,6.042177114463687,2.142902819284917,0.2222222222222222,-0.78,-0.15777777777777777,0.1491888920159059,0.16855951415376394,-0.05014314193410284
1592273453.8083248,-7.8,6.3,1.93,0.23444444444444446,-0.7733333333333333,-0.15777777777777777,0.06981317007977318,0.12217304763960307,0.148352986419518
1592273453.8183248,-7.551167304207771,6.152543587678679,2.317073082343467,0.23444444444444446,-0.7733333333333333,-0.15777777777777777,-0.010611826738519986,0.2206936687420122,0.160416735942262
1592273453.8283248,-7.543175704989154,5.900132321041215,1.9154251626898047,0.23444444444444446,-0.7733333333333333,-0.15777777777777777,-0.05143610242428408,0.14967073839950124,0.06925852640207868
1592273453.8383248,-7.775871284214658,5.915898165407633,2.3103663298341997,0.23444444444444446,-0.7733333333333333,-0.15777777777777777,0.016423868458039056,-0.0793148166694498,-0.05387963503478643
1592273453.8483248,-7.603046208182086,6.162791131168449,1.9071078190915334,0.23444444444444446,-0.7733333333333333,-0.15777777777777777,-0.026667083067359643,-0.15741716630923497,-0.07183419817036923
1592273453.8583248,-7.99,6.08,2.14,0.21444444444444444,-0.7733333333333333,-0.1511111111111111,0.10690141668465267,0.26289021858164585,-0.0032724923474893677
1592273453.8683248,-8.100175494703178,6.144269038576854,1.9380115930441735,0.21444444444444444,-0.7733333333333333,-0.1511111111111111,-0.05133929776236651,0.04856418762175918,0.06683415329359507
1592273453.8783247,-7.591558527106251,6.250779263553126,1.9546755813187537,0.21444444444444444,-0.7733333333333333,-0.1511111111111111,-0.120770294294244,-0.1253744035352993,0.05815440861589202
1592273453.8883247,-7.609977603583427,6.259988801791713,2.00993281075028,0.21444444444444444,-0.7733333333333333,-0.1511111111111111,-0.06551703137648086,-0.06007509281430651,0.1395273958220523
1592273453.8983247,-7.754998918357634,6.1421883788344225,2.2728105395232117,0.21444444444444444,-0.7733333333333333,-0.1511111111111111,-0.0694040790391173,0.03688299315127863,0.2552876287724474
1592273453.9083247,-7.28,5.97,2.54,0.20222222222222222,-0.7866666666666666,-0.12222222222222222,-0.006544984694978735,0.05563236990731925,-0.11235557059713495
1592273453.9183247,-7.517102040816327,6.320911020408163,2.445159183673469,0.20222222222222222,-0.7866666666666666,-0.12222222222222222,-0.09344742147927924,0.07632342628453366,0.005583450752987176
1592273453.9283247,-7.349796195652174,6.027318363844393,2.5689545194508008,0.20222222222222222,-0.7866666666666666,-0.12222222222222222,0.07590197782852484,0.14765389992976308,0.06654067773228381
1592273453.9383247,-7.8754452926208645,6.165733672603902,2.5372094995759116,0.20222222222222222,-0.7866666666666666,-0.12222222222222222,0.06541838957353216,0.17251225138351076,0.06721423567092454
1592273453.9483247,-7.59592693565976,6.2758469647400945,2.291572155579789,0.20222222222222222,-0.7866666666666666,-0.12222222222222222,0.02291616990651315,0.1337058769049282,0.08014969383045208
1592273453.9583247,-7.76,6.16,2.27,0.19555555555555557,-0.76,-0.12222222222222222,-0.017453292519943295,0.08617563181722002,-0.07308566242726255
1592273453.9683247,-7.597528841531806,5.929119932703093,2.2871022272071784,0.19555555555555557,-0.76,-0.12222222222222222,0.11966563124831986,-0.014564801971708022,0.21607669381873457
1592273453.9783247,-7.820376946448918,6.347738321306494,1.8584703759969616,0.19555555555555557,-0.76,-0.12222222222222222,-0.02613643812204858,0.17816326224437057,0.02718138606779552
1592273453.9883246,-7.811413544241226,6.292774097874444,2.3208454770143354,0.19555555555555557,-0.76,-0.12222222222222222,-0.07842166367486068,-0.0049728726849859696,0.18989822848435628
1592273453.9983246,-7.255767276322294,6.375706376668314,2.0471689569945624,0.19555555555555557,-0.76,-0.12222222222222222,-0.009668200920952372,0.07463639997743418,0.12747732151041322
1592273454.0083246,-7.846791065547154,6.411605279027694,2.163456649812126,0.18777777777777777,-0.78,-0.1288888888888889,0.02976193924454211,0.1351012419211669,0.24910052251077913
1592273454.0183246,-7.399773243703844,6.248639462223064,2.223877580003787,0.18777777777777777,-0.78,-0.1288888888888889,0.13579485125740237,0.21234840953911166,-0.011885376999155782
1592273454.0283246,-7.393411055180929,6.19325600721816,1.9553485611169152,0.18777777777777777,-0.78,-0.1288888888888889,-0.07358440488969373,0.054516104709673885,0.18202504400150474
1592273454.0383246,-7.607696921231508,6.395873650539785,1.6615353858456616,0.18777777777777777,-0.78,-0.1288888888888889,0.10197283298125007,-0.015818136740823257,0.24174572217834894
1592273454.0483246,-7.406451019592163,6.035308076769292,1.7956993202718912,0.18777777777777777,-0.78,-0.1288888888888889,0.052579657500373654,0.03174566187039106,0.20515818478510714
1592273454.0583246,-8.52,6.18,2.09,0.18222222222222223,-0.76,-0.08444444444444445,0.02181661564992912,0.07963064712224129,0.19853120241435498
1592273454.0683246,-7.527870843989771,6.042204283887468,1.952204283887468,0.18222222222222223,-0.76,-0.08444444444444445,0.11701409457666787,-0.13381212141876242,0.35285132614822623
1592273454.0783246,-7.618750311053601,5.761874533419599,2.069097446872045,0.18222222222222223,-0.76,-0.08444444444444445,0.22510522573366876,-0.12455161575155833,0.26577619971846567
1592273454.0883245,-7.9477423660937765,6.375758384782246,2.07,0.18222222222222223,-0.76,-0.08444444444444445,-0.011455634399796355,-0.02143474296818748,0.23798767850547864
1592273454.0983245,-7.5067724773896085,6.363584165829245,2.0125445804023565,0.18222222222222223,-0.76,-0.08444444444444445,0.20179279741584671,-0.0619116485052118,0.3049519752110412
1592273454.1083245,-7.52,6.14,2.6,0.18222222222222223,-0.7555555555555555,-0.07777777777777778,0.05017821599483697,-0.09053895494720585,0.4254240051736178
1592273454.1183245,-7.730412371134021,6.36659793814433,2.438144329896907,0.18222222222222223,-0.7555555555555555,-0.07777777777777778,0.25145336388268824,-0.1496855992826709,0.3221380740206415
1592273454.1283245,-7.144630783710223,6.713976801566912,1.793080151603795,0.18222222222222223,-0.7555555555555555,-0.07777777777777778,0.07958461430184699,-0.19672696003140153,0.3577947996872237
1592273454.1383245,-7.510693694124397,6.434249892431993,2.2465566285796243,0.18222222222222223,-0.7555555555555555,-0.07777777777777778,0.03224811198929033,-0.08717757217237197,0.27364718582570474
1592273454.1483245,-7.687214263850628,6.306155188246097,2.2320517294153657,0.18222222222222223,-0.7555555555555555,-0.07777777777777778,0.13876198948717156,-0.16401123291259287,0.29545500662853674
1592273454.1583245,-8.0,6.68,2.07,0.17,-0.7555555555555555,-0.056666666666666664,0.08508480103472357,-0.4363323129985824,0.5355979142057599
1592273454.1683245,-7.666706866055636,6.120067534973468,2.043336549284451,0.17,-0.7555555555555555,-0.056666666666666664,0.11780577794383398,-0.35852910123691983,0.4926970778138151
1592273454.1783245,-8.468450532724505,5.998304414003044,2.141744292237443,0.17,-0.7555555555555555,-0.056666666666666664,0.11284071634240964,-0.35008694770668225,0.5677384047500009
1592273454.1883245,-7.8083420502092045,6.29140690376569,2.3376046025104604,0.17,-0.7555555555555555,-0.056666666666666664,0.17163497804478298,-0.23466753941641263,0.40808224896014844
1592273454.1983244,-7.345803303852057,6.270282508588553,2.3046085812440613,0.17,-0.7555555555555555,-0.056666666666666664,0.15953159000887573,-0.33334866996561785,0.43791174922184617
1592273454.2083244,-7.677561956420088,6.70924779450731,2.176150441098538,0.15227286109639052,-0.7670260571990676,-0.049367256529886286,0.08686150285069844,-0.14834332913773773,0.6041909003344024
1592273454.2183244,-7.1347675919948355,6.499021949644932,2.0047579083279534,0.1511111111111111,-0.7677777777777778,-0.04888888888888889,0.09191569747772912,-0.30364038905287893,0.5296807381890223
1592273454.2283244,-7.376123699360904,6.552682617651719,2.1559480800718323,0.1511111111111111,-0.7677777777777778,-0.04888888888888889,0.11373902957084778,-0.2624987513154085,0.4219668845452163
1592273454.2383244,-7.301750101652754,6.661607070248032,2.15251787892559,0.1511111111111111,-0.7677777777777778,-0.04888888888888889,0.19856814700494588,-0.2877728177976188,0.6703308963780787
1592273454.2483244,-7.348598897004025,6.622055447905798,2.1553271724549115,0.1511111111111111,-0.7677777777777778,-0.04888888888888889,0.2648585592364234,-0.23372248632145748,0.7042282563232181
1592273454.2583244,-7.936096893924595,6.436402617698769,2.2940242234811485,0.13834689935100172,-0.7486314601376136,-0.022296781055327647,0.01976835124646048,-0.326324511134824,0.6653669286499867
1592273454.2683244,-7.604098958760351,6.526515536607362,2.2879355579240794,0.13777777777777778,-0.7477777777777778,-0.021111111111111112,0.0940607455488732,-0.3103309385183182,0.6895456453379639
1592273454.2783244,-7.241646734130635,6.59,2.1917571297148113,0.13777777777777778,-0.7477777777777778,-0.021111111111111112,0.18137796362391162,-0.4084995698959704,0.5817228960419002
1592273454.2883244,-7.500631218905473,6.757333126036484,2.17,0.13777777777777778,-0.7477777777777778,-0.021111111111111112,0.1560500819844842,-0.10873518373080837,0.7795150488725291
1592273454.2983243,-6.9445181868367785,6.993762702161156,2.017312355599174,0.13777777777777778,-0.7477777777777778,-0.021111111111111112,0.11748142033005217,-0.037709994948203915,0.921247265836697
1592273454.3083243,-6.9834952170713755,6.9527222958057395,2.256073877851361,0.11294497588095823,-0.7418179053225411,-0.03402416809745728,0.08739777968287794,0.17241021184096433,0.674715392641339
1592273454.3183243,-6.990151975683891,7.3237284701114485,2.263535967578521,0.11,-0.7411111111111112,-0.035555555555555556,0.0562170198403898,0.04840216222840152,0.7972945185573185
1592273454.3283243,-7.283574064312072,7.00561061324899,1.9632911614830433,0.11,-0.7411111111111112,-0.035555555555555556,0.13987609459806208,-0.16248950932773776,1.0398423500690743
1592273454.3383243,-7.0138955263347675,6.669712493088776,2.3991567104978486,0.11,-0.7411111111111112,-0.035555555555555556,0.2433571914481163,-0.12677523174215458,0.9587069687240839
1592273454.3483243,-6.836064814814815,6.863570156695157,2.2750302706552707,0.11,-0.7411111111111112,-0.035555555555555556,0.2257178676803239,-0.06992155390752122,0.8534610706244659
1592273454.3583243,-6.654704435135315,7.083763548108252,2.656960569186781,0.07275698000014777,-0.7360782705705905,-0.02247017015020207,0.04167780161269008,0.094110212637677,0.8312538926031828
1592273454.3683243,-6.816947452868031,7.039932611311673,2.4328503810669875,0.06888888888888889,-0.7355555555555555,-0.021111111111111112,0.09246849589572284,-0.15060229436997977,0.8832840583778436
1592273454.3783243,-6.450776264735685,7.469223735264315,1.7326298099498307,0.06888888888888889,-0.7355555555555555,-0.021111111111111112,0.010198430748012868,0.08754354434804207,0.8119214215065057
1592273454.3883243,-6.003195455094887,7.441065151698296,1.9173371207542609,0.06888888888888889,-0.7355555555555555,-0.021111111111111112,-0.04089092516975293,0.053019228268273225,0.7837669936149916
1592273454.3983243,-6.3982518945238835,7.34209717793094,2.0112426705071496,0.06888888888888889,-0.7355555555555555,-0.021111111111111112,-0.03181838522969997,0.04481301025643749,0.8226155681373606
1592273454.4083242,-6.550976501953004,7.168953437906876,1.8411742823485648,0.05448061118344459,-0.7310529687726042,0.013108548439319103,-0.09837523061683923,-0.021753244799709068,1.057908104095155
1592273454.4183242,-6.710792327614115,7.002795807704759,2.1062164130786662,0.051111111111111114,-0.73,0.021111111111111112,-0.0024337109243347255,-0.0641496077328395,1.0511877441629205
1592273454.4283242,-6.816854617809706,7.332252829603597,1.8463388288800455,0.051111111111111114,-0.73,0.021111111111111112,0.01418604319600926,-0.1298651269612527,1.029790318356705
1592273454.4383242,-6.065706923003164,7.45,1.4902706395627576,0.051111111111111114,-0.73,0.021111111111111112,0.05559623201918496,-0.00420959328603393,1.1692458943582613
1592273454.4483242,-6.505945375221627,7.674676375082177,2.236579875291352,0.051111111111111114,-0.73,0.021111111111111112,0.10620441673410203,-0.024716725658058377,1.1330727954626403
1592273454.4583242,-5.260502027227478,8.104697893661205,1.8751573985562184,0.031173521149458122,-0.713860046221519,0.021111111111111112,0.1344488402352807,-0.10501219427824646,1.1427506169697514
1592273454.4683242,-5.453715020907044,7.706284979092956,2.0335718880669025,0.027777777777777776,-0.7111111111111111,0.021111111111111112,0.040461875000311814,-0.08855360081959048,1.1658207498680735
1592273454.4783242,-5.5947115433318135,7.6442455553867195,2.3605399382059464,0.027777777777777776,-0.7111111111111111,0.021111111111111112,0.09388446217992386,-0.11264804452445831,1.1780972450961724
1592273454.4883242,-5.708587454649608,8.177594519763222,1.9886012984533128,0.027777777777777776,-0.7111111111111111,0.021111111111111112,0.1503958206565495,-0.08494748383148493,0.9022466674843951
1592273454.4983242,-5.693982438389824,8.098881260388811,1.9789690684396906,0.027777777777777776,-0.7111111111111111,0.021111111111111112,0.12759263269336418,-0.1370918949166123,0.8891212159382902
1592273454.5083241,-5.781736630247268,7.911736630247269,2.0030937320299023,-0.007090281771132835,-0.7069601516410028,0.021941303005132792,0.06818309210769298,-0.21969315232152076,0.990511359716769
1592273454.5183241,-5.703334070447006,8.095968409413995,1.8135665771600062,-0.01888888888888889,-0.7055555555555556,0.022222222222222223,0.054237188549210454,-0.1362442650640444,0.9894342448202209
1592273454.5283241,-5.447114611798746,8.435237100144672,1.3330831056100305,-0.01888888888888889,-0.7055555555555556,0.022222222222222223,0.010615128421599493,0.008558488934716207,0.9042750469075918
1592273454.538324,-5.444792415977896,8.30750899173475,1.633000976585761,-0.01888888888888889,-0.7055555555555556,0.022222222222222223,-0.2184507187918834,-0.11935985109618177,0.9413830419100203
1592273454.548324,-5.52902406939951,8.335726881643971,1.8688071959327337,-0.01888888888888889,-0.7055555555555556,0.022222222222222223,-0.2710749592518346,-0.21431406213081097,1.0020831448960248
1592273454.558324,-4.829228472867189,8.624883242669497,1.707055857768343,-0.03931257647457727,-0.6995986466763965,0.017116300325800127,-0.19995028106930757,-0.15303326847396545,1.079481047858885
1592273454.568324,-4.764307522385704,8.438079760167252,1.9175965445150094,-0.04555555555555556,-0.6977777777777778,0.015555555555555555,-0.17026973079142532,-0.1729177417714589,1.1059895481150295
1592273454.578324,-5.10484669843806,8.367471694994627,2.5762452824991047,-0.04555555555555556,-0.6977777777777778,0.015555555555555555,-0.2322196064374204,-0.20694217755314195,1.1243079678321528
1592273454.588324,-4.581749130591199,8.412834392613023,2.091749130591198,-0.04555555555555556,-0.6977777777777778,0.015555555555555555,-0.19688319635485105,-0.0019275224542801006,1.1403681828254704
1592273454.598324,-4.548029250701216,8.232768799252037,2.1408468011219446,-0.04555555555555556,-0.6977777777777778,0.015555555555555555,-0.15720755433396166,0.030029244145689794,1.1186185566043045
1592273454.608324,-4.65767241928294,8.453028720626632,2.363485639686684,-0.056795976706503354,-0.6932816093173987,0.04927681900839896,-0.009943176482124685,0.03447589339806795,1.067416161922592
1592273454.618324,-4.384878807921254,8.487696377854725,2.3050519394623197,-0.06222222222222222,-0.6911111111111111,0.06555555555555556,0.03645843962467302,0.06373676347566101,1.0485806226034677
1592273454.628324,-4.738405268381663,8.465586791491189,2.051233670431074,-0.06222222222222222,-0.6911111111111111,0.06555555555555556,-0.09419658409448109,0.07249265358480236,1.0219180693943313
1592273454.638324,-4.379587216405932,8.419320332526773,2.006966052562229,-0.06222222222222222,-0.6911111111111111,0.06555555555555556,-0.10715822879024653,0.05167677878827016,1.1391742044420776
1592273454.648324,-4.229416651616399,8.244898159853912,2.1390231372785102,-0.06222222222222222,-0.6911111111111111,0.06555555555555556,-0.13075171934276142,0.01469288845382816,1.1855835756256479
1592273454.658324,-4.328371327254306,8.693591058763932,2.360227963525836,-0.10635539795114263,-0.6848063717212654,0.03009139648767309,-0.09641329146163377,-0.09070148818119864,1.1859107212102091
1592273454.668324,-4.244221331389698,8.838603417557499,2.3784268707482994,-0.12444444444444444,-0.6822222222222222,0.015555555555555555,-0.04520551881742156,-0.07376142449972017,1.1841064435346043
1592273454.678324,-4.164193117273639,8.669472101570332,2.109658091101459,-0.12444444444444444,-0.6822222222222222,0.015555555555555555,0.11143093387972985,-0.036255211002298116,1.1371469302681543
1592273454.688324,-4.028157085290541,8.756952001716778,2.1409432747561934,-0.12444444444444444,-0.6822222222222222,0.015555555555555555,0.10354982811623359,-0.025792156616862905,1.1340143539911733
1592273454.698324,-3.8368433837371714,8.962252990830144,2.4294698487884863,-0.12444444444444444,-0.6822222222222222,0.015555555555555555,0.13797694466228644,-0.11741411866562204,1.0660873327867078
1592273454.708324,-3.682464569034673,8.8914315001337,2.04079686246546,-0.1482864386804132,-0.669217498093512,0.015555555555555555,0.06142683113228371,-0.10004636341267233,1.0750906942182088
1592273454.718324,-3.6197972786432655,8.871621770853874,1.8658335633997238,-0.16111111111111112,-0.6622222222222223,0.015555555555555555,-0.012613368190647838,0.017229834618768508,1.0641372863491319
1592273454.728324,-3.9632066220144067,9.202045242006825,2.186464552003033,-0.16111111111111112,-0.6622222222222223,0.015555555555555555,-0.07045220144276326,0.04360855561300536,0.923563702895304
1592273454.738324,-3.2065809310502615,9.37308696385136,2.190134383353804,-0.16111111111111112,-0.6622222222222223,0.015555555555555555,0.049709129598086835,-0.06490055665690825,0.8792535875418388
1592273454.748324,-2.8465185199732908,9.21747181743195,2.17,-0.16111111111111112,-0.6622222222222223,0.015555555555555555,0.11519102794790553,-0.0051140806998394295,0.8774649841238694
1592273454.758324,-3.00583273580601,9.196480020859136,1.8846326836581708,-0.15490747379933223,-0.6546399988411592,0.028652123213755442,-0.011896817670363533,0.04623932210288787,0.7487557488117496
1592273454.768324,-3.133103023837853,9.339524884093054,1.8137869773930169,-0.1511111111111111,-0.65,0.03666666666666667,-0.09409260262951828,0.03681259622169337,0.6725831754950031
1592273454.778324,-3.2251441241685144,9.59919068736142,2.0359534368070955,-0.1511111111111111,-0.65,0.03666666666666667,-0.05281852232065226,0.028991065336359523,0.5175097146339201
1592273454.7883239,-2.9548690847946193,9.423878212827288,1.9072399711746337,-0.1511111111111111,-0.65,0.03666666666666667,-0.03095320780449978,0.02246278156624818,0.42636508582587246
1592273454.7983239,-2.9276689406616034,8.784904106062557,2.3903127815677694,-0.1511111111111111,-0.65,0.03666666666666667,-0.13576932875586795,0.038850509077670466,0.621870427634503
1592273454.8083239,-3.121705347491575,8.91149106631907,2.426383925732816,-0.17238789625767434,-0.6417256946652254,0.05203323371696234,-0.006590762549397736,-0.010513855312720819,0.5661635795201717
1592273454.8183239,-3.1324159537293648,8.742511949230831,2.479415993894847,-0.19111111111111112,-0.6344444444444445,0.06555555555555556,0.1837090128445855,0.05896072477831277,0.4983936049932235
1592273454.8283238,-2.379139824209071,8.549925667040505,2.3183341592551057,-0.19111111111111112,-0.6344444444444445,0.06555555555555556,0.72439736173272,0.25244349596873167,0.7190267677171676
1592273454.8383238,-2.513939025842563,8.681541026557104,2.8975360247707513,-0.19111111111111112,-0.6344444444444445,0.06555555555555556,0.7658773717623939,0.1810779098944117,0.9135318991149629
1592273454.8483238,-2.513383724670312,9.128625763911225,2.7023713412672885,-0.19111111111111112,-0.6344444444444445,0.06555555555555556,0.8496072736619339,0.18562578657589096,0.9032671836298837
1592273454.8583238,-2.5494887434136992,9.131860769599234,2.5083027303209326,-0.20783004240069544,-0.6273710504373127,0.052051803360122065,0.7962997482353132,0.20874352432093285,0.9416992881044641
1592273454.8683238,-2.5090944514348337,8.656338839956163,2.703648171449446,-0.22,-0.6222222222222222,0.042222222222222223,0.7366945635982132,0.22827926519880878,0.9830438876765129
1592273454.8783238,-2.140979105102121,9.187994455921965,2.084255864431601,-0.22,-0.6222222222222222,0.042222222222222223,0.8437431900366159,0.25292072299162366,0.8869974447171728
1592273454.8883238,-1.9247557003257327,9.316934491494752,1.7289974665218966,-0.22,-0.6222222222222222,0.042222222222222223,0.7941121760761531,0.25858295696853106,0.895212410162904
1592273454.8983238,-2.17839753588564,9.436736233143128,1.5837092029142892,-0.22,-0.6222222222222222,0.042222222222222223,0.710201892986875,0.3123692277029669,1.0204511867893233
1592273454.9083238,-2.0099157030958597,9.755733681462141,1.5636762402088773,-0.22543188694102534,-0.6222222222222222,0.053085996104272865,0.5409839573114574,0.2675699273947609,1.0755867376388772
1592273454.9183238,-1.96,9.45,1.52,-0.23444444444444446,-0.6222222222222222,0.07111111111111111,0.6621342849753488,0.29343348049154666,1.0919216132789524
1592273454.9283237,-1.9747258350999828,10.17383830860024,1.0249349682003095,-0.23444444444444446,-0.6222222222222222,0.07111111111111111,0.4247376811707189,0.31378619660628804,0.8827411073805865
1592273454.9383237,-1.9347659778952426,10.179159538683326,0.6699043728976454,-0.23444444444444446,-0.6222222222222222,0.07111111111111111,0.3127058290052229,0.29010993244092653,0.822913516644124
1592273454.9483237,-1.9025072604065827,10.24219385285576,0.4728990198451113,-0.23444444444444446,-0.6222222222222222,0.07111111111111111,0.24604279649873775,0.28142262706899046,0.7238842963227663
1592273454.9583237,-2.0758266009852218,10.397452610837439,0.753495960591133,-0.24405600437876301,-0.6142125889436234,0.07351400109469075,-0.02479055352315493,0.1638256311572843,0.6182645744583668
1592273454.9683237,-1.82,10.17737150292778,0.604793141719928,-0.2611111111111111,-0.6,0.07777777777777778,0.09124779247853147,0.19947069707275372,0.5274109847491911
1592273454.9783237,-1.865988940876223,9.98700552956189,1.1077524457677583,-0.2611111111111111,-0.6,0.07777777777777778,-0.08604135430618026,0.05821008981171623,0.5597712068911871
1592273454.9883237,-1.9177238006708968,9.96,1.3294725781028978,-0.2611111111111111,-0.6,0.07777777777777778,-0.10250705670097582,0.1477167309188516,0.5542798076328936
1592273454.9983237,-1.7495207769463461,9.732950167170834,0.8200636841267315,-0.2611111111111111,-0.6,0.07777777777777778,-0.13731685635989058,0.07543231193101867,0.3972702896315516
1592273455.0083237,-1.6908413028902143,9.554741856936161,1.282211596146381,-0.2687253022157917,-0.5978245168272341,0.08466680782486972,-0.19050466341490008,0.031450548874387446,0.529351881123756
1592273455.0183237,-1.5949878274418152,10.043071379881196,1.3836118414646021,-0.28444444444444444,-0.5933333333333334,0.09888888888888889,-0.15318805748066236,0.04859959721416896,0.563884519270461
1592273455.0283237,-1.2593936890272965,9.610879595792685,1.1977028186469223,-0.28444444444444444,-0.5933333333333334,0.09888888888888889,-0.07318254736282064,0.019531552380904083,0.40063764960094506
1592273455.0383236,-1.4470232688984448,9.733385041996543,1.2050387814974077,-0.28444444444444444,-0.5933333333333334,0.09888888888888889,-0.18267161090582013,-0.006375286267978624,0.4615211971829945
1592273455.0483236,-1.2356661967206783,9.550361150273277,1.1981486703103574,-0.28444444444444444,-0.5933333333333334,0.09888888888888889,-0.05549697197690143,-0.06543760699373122,0.48238854998835445
1592273455.0583236,-1.1476965432854085,9.606924135821352,1.3799977057204038,-0.27999987254002245,-0.5912819924543694,0.1012821199143469,-0.06360483631954242,0.012670938874472633,0.47375671000404845
1592273455.0683236,-1.4603381702426723,9.688081772706601,1.2100706932903385,-0.27,-0.5866666666666667,0.10666666666666667,-0.1445728016106063,0.05292759299746053,0.5118457717798273
1592273455.0783236,-1.1135655879304387,9.824262351721755,1.3795040884486929,-0.27,-0.5866666666666667,0.10666666666666667,-0.10414525677020034,0.040641493142478634,0.5033598507578715
1592273455.0883236,-1.0791041742665068,9.827305226952943,1.2718281306998802,-0.27,-0.5866666666666667,0.10666666666666667,-0.12275140567707864,0.040162116681586514,0.543134418547844
1592273455.0983236,-1.0080210312935511,9.666458887621944,1.3192715063980742,-0.27,-0.5866666666666667,0.10666666666666667,-0.19657646903191106,0.04917832232812446,0.5327116972968968
1592273455.1083236,-1.092012866333095,9.873019299499642,1.4859742673338099,-0.2773376221110317,-0.5805519815741402,0.1026921213565245,-0.11992483681993821,0.0263784559473371,0.5482989973535657
1592273455.1183236,-1.15,9.96,1.37,-0.2966666666666667,-0.5644444444444444,0.09222222222222222,-0.18871372537188688,-0.062177354602297986,0.6392268385429232
1592273455.1283236,-1.2670680164335006,9.71624311914288,1.4520289465911227,-0.2966666666666667,-0.5644444444444444,0.09222222222222222,-0.046454552450473384,0.048399102359380025,0.5038823628950087
1592273455.1383235,-1.2242011890157591,9.650340190619987,1.484704161555157,-0.2966666666666667,-0.5644444444444444,0.09222222222222222,0.013128673964291578,0.04239715542591114,0.46980919635515356
1592273455.1483235,-1.1766040986254171,9.890942827405519,1.4,-0.2966666666666667,-0.5644444444444444,0.09222222222222222,0.11823158314281505,0.09193879507421812,0.4323298922684976
1592273455.1583235,-1.1074025145772595,10.024356778425656,1.3942738702623907,-0.2984481292517007,-0.5636809604794298,0.09222222222222222,0.12493679702284322,0.044791046407008726,0.3012766094723279
1592273455.1683235,-1.01,10.29,1.35,-0.31222222222222223,-0.5577777777777778,0.09222222222222222,0.08726646259971647,0.062177354602297986,0.26070855701665296
1592273455.1783235,-0.3899043916486681,10.636227501799857,1.3020359971202304,-0.31222222222222223,-0.5577777777777778,0.09222222222222222,0.12504445352399912,-0.06141966306957475,-0.04525843565877076
1592273455.1883235,0.37,10.8,1.04,-0.31222222222222223,-0.5577777777777778,0.09222222222222222,0.22580197197676635,-0.01854412330243975,0.19198621771937624
1592273455.1983235,-0.6263280181378703,10.19809140137533,1.141074031741273,-0.31222222222222223,-0.5577777777777778,0.09222222222222222,0.06711696684979562,0.01876182344042939,-0.018596366430099272
1592273455.2083235,-0.7627514124293785,9.638503631961258,1.2847465698143665,-0.30987485427315936,-0.5566943771859026,0.09420845664066003,0.08443012648277493,0.12560612718219116,0.020943422776579654
1592273455.2183235,-0.88,9.94,1.0,-0.29777777777777775,-0.5511111111111111,0.10444444444444445,0.06981317007977318,-0.1265363707695889,-0.022907446432425576
1592273455.2283235,-0.7832018948315558,9.846798105168444,1.1221345965543705,-0.29777777777777775,-0.5511111111111111,0.10444444444444445,0.08040012060538212,-0.008800057292334323,-0.027863023097587446
1592273455.2383235,-0.8356824851478062,9.759777396034643,1.2549853267482642,-0.29777777777777775,-0.5511111111111111,0.10444444444444445,0.12359555469180426,-0.05394275727162937,-0.07104969481689982
1592273455.2483234,-0.83,9.72,1.38,-0.29777777777777775,-0.5511111111111111,0.10444444444444445,0.04363323129985824,-0.08617563181722002,-0.09708393964218458
1592273455.2583234,-0.8090515093337691,9.799841918222295,1.3703161635554104,-0.29800611812335187,-0.5511111111111111,0.104339056592641,0.0713395578615304,-0.02986628825365843,0.03295355191102738
1592273455.2683234,-0.75,9.79,1.39,-0.31222222222222223,-0.5511111111111111,0.09777777777777778,0.030543261909900768,-0.05563236990731925,-0.020725784867432664
1592273455.2783234,-0.7940466427473091,9.834818042029728,1.2611353152229625,-0.31222222222222223,-0.5511111111111111,0.09777777777777778,0.08388438397166878,0.0481156456428998,0.038823735456170634
1592273455.2883234,-0.9419047276045043,9.82,1.15,-0.31222222222222223,-0.5511111111111111,0.09777777777777778,0.04146639386564621,0.015486895143798578,0.035982591691602166
1592273455.2983234,-0.9586859941800567,9.829635078713828,1.178905236141486,-0.31222222222222223,-0.5511111111111111,0.09777777777777778,0.05020999829319734,-0.08822198202138959,0.02881552333197413
1592273455.3083234,-0.8601339309921014,9.859958790463969,1.2698763713919063,-0.31222222222222223,-0.5511111111111111,0.09777777777777778,0.0022468428791240502,-0.12212697119340693,0.08174038447853778
1592273455.3183234,-0.9614900829426615,9.786351484553432,1.2647277316985215,-0.31777777777777777,-0.5555555555555556,0.10444444444444445,0.00884329526395156,-0.04717248481382323,0.1074462944624608
1592273455.3283234,-0.8584283604786989,9.77315716395213,1.2710431313776918,-0.31777777777777777,-0.5555555555555556,0.10444444444444445,0.06832029483965461,0.04834397680962624,0.06179656274890585
1592273455.3383234,-0.9755687079375686,9.811952651424752,1.0567061238127058,-0.31777777777777777,-0.5555555555555556,0.10444444444444445,0.06985763428139849,0.08507548125475761,-0.029300398962596452
1592273455.3483233,-0.9238107489994282,9.923810748999427,0.9685020011435106,-0.31777777777777777,-0.5555555555555556,0.10444444444444445,0.05599785123295843,0.03009171160313837,0.03126705214608552
1592273455.3583233,-0.8780709385979588,9.873362891082483,1.023946796051531,-0.3181514323424981,-0.5547335155131708,0.10489282992210883,-0.032342758566319546,-0.027568252275389348,-0.12792231170354873
1592273455.3683233,-0.99,9.92,0.94,-0.3233333333333333,-0.5433333333333333,0.1111111111111111,-0.11780972450961724,-0.15271630954950383,0.09490227807719166
1592273455.3783233,-0.7580757895770912,9.923080701409695,0.9061515791541824,-0.3233333333333333,-0.5433333333333333,0.1111111111111111,-0.06360745256465433,0.00226540676431714,-0.03456838945566744
1592273455.3883233,-0.7603505943057219,9.838771768174698,0.9921058693448815,-0.3233333333333333,-0.5433333333333333,0.1111111111111111,0.008994604876587842,0.0023921286854708974,-0.05704814825452694
1592273455.3983233,-0.6894701352438604,9.814105972951229,1.1410597295122793,-0.3233333333333333,-0.5433333333333333,0.1111111111111111,0.012136385773842318,-0.017099350299455095,0.028123256681731067
1592273455.4083233,-0.608723065280599,9.829452742263115,1.3005472577368862,-0.323231989307984,-0.5434752149688223,0.1112529927466001,-0.002069480695896411,-0.06126200737142073,0.0886286650740707
1592273455.4183233,-0.54,9.8,1.33,-0.31777777777777777,-0.5511111111111111,0.11888888888888889,-0.11344640137963141,-0.011999138607461015,-0.014180800172453926
1592273455.4283233,-0.5702765941541451,9.749723405845854,1.3108297824624355,-0.31777777777777777,-0.5511111111111111,0.11888888888888889,0.008304241875331471,-0.05209683977153111,-0.012706244634618644
1592273455.4383233,-0.55,9.77,1.25,-0.31777777777777777,-0.5511111111111111,0.11888888888888889,0.039269908169872414,-0.044724062082354694,-0.014180800172453926
1592273455.4483232,-0.7406443675783618,9.82709624505224,1.1646778162108191,-0.31777777777777777,-0.5511111111111111,0.11888888888888889,-0.0033062951485445143,0.029171272731516408,-0.0269896111665235
1592273455.4583232,-0.7855143886174804,9.857009592411654,1.1422428056912597,-0.31777777777777777,-0.5511111111111111,0.11888888888888889,-0.08161925540571904,0.009593032667222782,-0.00741137110222987
1592273455.4683232,-0.82,9.87,1.12,-0.30666666666666664,-0.5555555555555556,0.09,-0.08072147790473774,-0.038179077387375956,0.1461713248545251
1592273455.4783232,-0.8808060177343828,9.884241805320315,1.0861612035468766,-0.30666666666666664,-0.5555555555555556,0.09,-0.0343119915148255,0.0076648876339281,0.09598267548765269
1592273455.4883232,-0.7619297129118937,9.86,1.0879154292179325,-0.30666666666666664,-0.5555555555555556,0.09,-0.056041026496604085,-0.1183060825979615,0.11963340660483458
1592273455.4983232,-0.6111320970042796,9.85142368045649,1.1740136947218258,-0.30666666666666664,-0.5555555555555556,0.09,-0.07448709210303474,-0.02877508901184788,0.07876439365576465
1592273455.5083232,-0.5233768901569187,9.811534950071326,1.2857021398002852,-0.30666666666666664,-0.5555555555555556,0.09,-0.065784721107267,-0.0966535827788362,-0.12313061344604675
1592273455.5183232,-0.43,9.74,1.48,-0.32,-0.5433333333333333,0.08333333333333333,-0.18435040224190105,0.022907446432425576,0.15489797111449674
1592273455.5283232,-0.5521422986708366,9.74,1.48,-0.32,-0.5433333333333333,0.08333333333333333,-0.045989339190144835,-0.07138305579543792,-0.012160201310957047
1592273455.5383232,-0.6142544750169199,9.75850895003384,1.33787276249154,-0.32,-0.5433333333333333,0.08333333333333333,0.013458645704273178,-0.04542669060570184,0.0015115423396281618
1592273455.5483232,-0.6256497853774001,9.788549928459133,1.3430506438677996,-0.32,-0.5433333333333333,0.08333333333333333,0.05472655894735784,0.056951479156548954,-0.03415295972441399
1592273455.5583231,-0.603422833018318,9.78114094433944,1.409731500945046,-0.32,-0.5433333333333333,0.08333333333333333,0.01108404004549357,-0.02548438988030577,0.06444680520202009
1592273455.5683231,-0.5934948243081473,9.753494824308147,1.488673567589137,-0.31444444444444447,-0.5433333333333333,0.11888888888888889,-0.06516558519950509,-0.06549396359505275,0.06867205195467589
1592273455.5783231,-0.5817378215654078,9.73,1.4926117496807152,-0.31444444444444447,-0.5433333333333333,0.11888888888888889,0.07322756396857252,0.09060716918743585,0.016550934051080143
1592273455.588323,-0.6284485364209156,9.734654390737253,1.38,-0.31444444444444447,-0.5433333333333333,0.11888888888888889,0.08625103206172403,0.184145936459462,0.0543923871443559
1592273455.598323,-0.6250842691533173,9.757966292338672,1.3789831461693365,-0.31444444444444447,-0.5433333333333333,0.11888888888888889,0.08205253645648229,0.11302048639077257,0.013773883343120422
1592273455.608323,-0.6631305672974003,9.74274777308104,1.37137388654052,-0.31444444444444447,-0.5433333333333333,0.11888888888888889,0.09201303401862715,0.16697318151905716,0.027054546759313555
1592273455.618323,-0.6425817524368514,9.809890996750866,1.2630177654333927,-0.32,-0.5288888888888889,0.1111111111111111,0.07962690278641414,0.07676683045151887,-0.10576676859816381
1592273455.628323,-0.62,9.84,1.12,-0.32,-0.5288888888888889,0.1111111111111111,0.15598880189699318,0.11453723216212788,-0.042542400517361786
1592273455.638323,-0.652431863593979,9.842431863593978,0.992431863593979,-0.32,-0.5288888888888889,0.1111111111111111,0.16659068319283446,0.03711797672051807,0.06749657505739033
1592273455.648323,-0.6667344858962694,9.86326551410373,0.9969379435850774,-0.32,-0.5288888888888889,0.1111111111111111,0.056633313851177966,0.033370766762932616,0.11482519560764004
1592273455.658323,-0.6514686078252957,9.878531392174706,0.935874431301183,-0.32,-0.5288888888888889,0.1111111111111111,-0.004980898118947877,0.05168850545675381,0.009081885875126788
1592273455.668323,-0.68,9.91,0.94,-0.30666666666666664,-0.5366666666666666,0.1111111111111111,0.03490658503988659,0.14398966328953217,-0.00545415391248228
1592273455.678323,-0.7429306307624762,9.92,0.9012081077125713,-0.30666666666666664,-0.5366666666666666,0.1111111111111111,0.05039133747802631,0.005128804412302596,0.05871696413816903
1592273455.688323,-0.762978059390959,9.91765935313032,0.8352142046529222,-0.30666666666666664,-0.5366666666666666,0.1111111111111111,0.03806167948398263,-0.017625417653345535,0.030564925846379327
1592273455.698323,-0.7108130670864359,9.899186932913565,0.9540653354321795,-0.30666666666666664,-0.5366666666666666,0.1111111111111111,-0.07176439101323498,0.12689034718173736,-0.09759866884585325
1592273455.708323,-0.7182314862307434,9.891768513769257,0.9911574311537169,-0.30666666666666664,-0.5366666666666666,0.1111111111111111,-0.08956731892539252,0.03059269165688526,-0.14210598862624707
1592273455.718323,-0.6815863955846975,9.865240813245908,1.0690367470163686,-0.32,-0.5433333333333333,0.10444444444444445,-0.1543633873605765,-0.007468992825611729,0.12573910051419948
1592273455.728323,-0.6928048125950442,9.83298796851239,1.1643903748099114,-0.32,-0.5433333333333333,0.10444444444444445,-0.11229621843473642,0.04147840384034762,0.10355644785771978
1592273455.738323,-0.7074365488433446,9.79341793487554,1.13170896743777,-0.32,-0.5433333333333333,0.10444444444444445,0.01566477450149636,-0.023018189592209026,-0.06831443354896943
1592273455.748323,-0.679204198102373,9.829204198102373,1.151591603795254,-0.32,-0.5433333333333333,0.10444444444444445,-0.0494837478294764,-0.0695150645315485,0.029278814086064166
1592273455.758323,-0.671793381274626,9.821793381274626,1.166413237450748,-0.32,-0.5433333333333333,0.10444444444444445,-0.043016590134157026,-0.05658074914090973,0.027662024662234323
1592273455.768323,-0.6226238660153524,9.831311933007676,1.1986880669923237,-0.32,-0.5433333333333333,0.11888888888888889,-0.08748264957963901,-0.05027032382783214,-0.024548640547612143
1592273455.778323,-0.64,9.834852646196575,1.1835658077457183,-0.32,-0.5433333333333333,0.11888888888888889,-0.1252494563793763,-0.09470939239955845,0.05969138474309839
1592273455.788323,-0.64,9.801148839976205,1.1411488399762046,-0.32,-0.5433333333333333,0.11888888888888889,-0.1617760063691474,-0.04482653917763836,0.10381103662199366
1592273455.798323,-0.6408339442487528,9.819166055751248,1.1645866933681406,-0.32,-0.5433333333333333,0.11888888888888889,0.05739907224157187,0.024361354351478102,-0.10508123288338762
1592273455.808323,-0.6558331396284443,9.804166860371556,1.2470822679564433,-0.32,-0.5433333333333333,0.11888888888888889,-0.08740094644911502,0.011272087125201322,-0.052724163978280475
1592273455.818323,-0.701058316893615,9.828941683106384,1.3,-0.3244444444444444,-0.5511111111111111,0.1111111111111111,-0.08233770040800548,0.038259172069283746,0.03399951014294661
1592273455.828323,-0.7121240354895376,9.82,1.2883178048075428,-0.3244444444444444,-0.5511111111111111,0.1111111111111111,-0.08695695200878777,-0.028063126377715245,-0.022887119639698437
1592273455.8383229,-0.7267128954915143,9.819178223872878,1.1924653283813642,-0.3244444444444444,-0.5511111111111111,0.1111111111111111,-0.013687205781897376,-0.12299551692123903,0.0981910269879856
1592273455.8483229,-0.6497899067471201,9.80021009325288,1.2510504662643993,-0.3244444444444444,-0.5511111111111111,0.1111111111111111,-0.07601887827794693,-0.04036073895236887,-0.08194532661534663
