time,acc_x,acc_y,acc_z,mag_x,mag_y,mag_z,gyr_x,gyr_y,gyr_z
1592169161.3261025,-0.013807187184297878,8.939204791456199,3.9861928128157023,-0.4211111111111111,-0.44,-0.10666666666666667,0.005125598010754743,-0.018717610894056304,0.024326833116649568
1592169161.3361025,-0.017235314685314685,8.958725524475524,4.005745104895105,-0.41664269619269617,-0.44446841491841493,-0.10219825174825176,0.012022671565251237,-0.018845703686957215,0.018683147015803373
1592169161.3461025,-0.05097646893053402,8.986992156310178,3.9890235310694657,-0.41333333333333333,-0.4477777777777778,-0.09888888888888889,0.01984798655845179,-0.015927840652109494,0.014074283935696135
1592169161.3561025,-0.12222620375424191,8.996914022639361,3.945429886803199,-0.41333333333333333,-0.4477777777777778,-0.09888888888888889,0.014274586924037606,-0.010746413719415475,0.014598375135135774
1592169161.3661025,-0.17067366766680953,8.944870219555174,4.012694670667238,-0.41333333333333333,-0.4477777777777778,-0.09888888888888889,0.00263943436301013,-0.005719783182897309,0.01903020980129331
1592169161.3761024,-0.18499956733182188,8.924999567331822,4.059999134663644,-0.41333333333333333,-0.4477777777777778,-0.09888888888888889,0.0005452738009180378,-0.004363323129985824,0.027270203201090637
1592169161.3861024,-0.19,8.919311601621688,4.091376796756625,-0.41748993270267687,-0.4477777777777778,-0.11492148645635684,0.008594240246649256,-0.0055292465266506136,0.04022833293904648
1592169161.3961024,-0.1764193913007075,8.913395152174823,4.123580608699293,-0.4211111111111111,-0.4477777777777778,-0.1288888888888889,0.01973610492778921,-0.007656045646045792,0.04914807571805232
1592169161.4061024,-0.2732907694482401,8.944658153889648,3.989721999717288,-0.4211111111111111,-0.4477777777777778,-0.1288888888888889,0.04197485806340495,-0.009145030209909035,0.061684391400350876
1592169161.4161024,-0.5183084551011307,8.980197014612136,3.9101970146121356,-0.4211111111111111,-0.4477777777777778,-0.1288888888888889,0.060837532014179616,0.0037578847169823983,0.049293395097258594
1592169161.4261024,-0.5463248143294015,8.984632481432941,3.877059851463521,-0.4211111111111111,-0.4477777777777778,-0.1288888888888889,0.06302764504514172,0.010988487938182134,0.030326966225582036
1592169161.4361024,-0.48149790607239007,8.992334729285073,3.82149790607239,-0.42522268753946885,-0.4477777777777778,-0.11038679496127896,0.05528640719803362,0.008635363007981404,0.028798846306183727
1592169161.4461024,-0.49490566037735845,9.010377358490565,3.812075471698113,-0.42777777777777776,-0.4477777777777778,-0.09888888888888889,0.051001484509928634,0.005865788170028112,0.03449495078234076
1592169161.4561024,-0.6450664961636828,9.013289002557546,3.7955260017050296,-0.42777777777777776,-0.4477777777777778,-0.09888888888888889,0.02912927367052663,0.0039399171152623485,0.03842309614042546
1592169161.4661024,-0.7052800929546622,8.94575983732934,3.824240162670659,-0.42777777777777776,-0.4477777777777778,-0.09888888888888889,-0.0007592892030824118,0.0016056927720540866,0.03995931575935535
1592169161.4761024,-0.7468161482183273,8.92,3.9036322964366548,-0.42777777777777776,-0.4477777777777778,-0.09888888888888889,-0.01346173260468796,-0.011213220645406573,0.03792308229032396
1592169161.4861023,-0.7189125018320387,8.931453905906492,3.9890898431774877,-0.42777777777777776,-0.44226293419317014,-0.09888888888888889,-0.005692688212274852,-0.038832808454300774,0.032824206182783214
1592169161.4961023,-0.5308745111980092,8.973766797013864,4.014058300746534,-0.42777777777777776,-0.43333333333333335,-0.09888888888888889,0.026669087002112252,-0.08701207760386945,0.030748708816607708
1592169161.5061023,-0.41330829166772415,8.964803685185656,3.9407101342605517,-0.42777777777777776,-0.43333333333333335,-0.09888888888888889,0.038179077387375956,-0.12464631907825488,0.030259846902149282
1592169161.5161023,-0.22742227798689532,8.981787025419397,3.8872851898322414,-0.42777777777777776,-0.43333333333333335,-0.09888888888888889,0.03956604801983497,-0.14259521565812255,0.03014591644363382
1592169161.5261023,-0.08753191566637006,9.019079303394047,3.8609206966059526,-0.42777777777777776,-0.43333333333333335,-0.09888888888888889,0.04192166081118006,-0.14409009570944353,0.025860496333467202
1592169161.5361023,-0.02496899165454406,9.034968991654543,3.829937983309088,-0.43783979446868965,-0.4406003453878808,-0.09888888888888889,0.03704765677559436,-0.1346736293232534,0.011396220958058832
1592169161.5461023,-0.05113305613305614,9.018881051381051,3.82,-0.4477777777777778,-0.4477777777777778,-0.09888888888888889,0.024963971855529787,-0.12034986669855798,0.000968772422738351
1592169161.5561023,-0.2572560078469838,9.03148847474252,3.8028371750858265,-0.4477777777777778,-0.4477777777777778,-0.09888888888888889,0.004206038063750434,-0.07555648242184806,-0.009513071591148592
1592169161.5661023,-0.3876180948662893,9.089206031622096,3.8348140737848917,-0.4477777777777778,-0.4477777777777778,-0.09888888888888889,-0.000219262736341153,-0.04711950348447945,-0.016974204239518342
1592169161.5761023,-0.43533387111230615,9.085845657434794,3.8706157569239044,-0.4477777777777778,-0.4477777777777778,-0.09888888888888889,-0.007328325757034989,-0.03772590891225979,-0.017643457068832386
1592169161.5861022,-0.711121157323689,8.975117540687162,4.076943942133815,-0.44072533654812135,-0.4477777777777778,-0.10268635724331927,-0.0575319540728601,-0.019788814484637336,-0.0002564339995018792
1592169161.5961022,-0.8819597578930148,8.96608048421397,4.215879273679045,-0.43333333333333335,-0.4477777777777778,-0.10666666666666667,-0.06917184080899087,-0.012876192966363368,0.01283229563731149
1592169161.6061022,-0.8457454644659664,8.924574546446596,4.20489455735916,-0.43333333333333335,-0.4477777777777778,-0.10666666666666667,-0.054982632941714425,-0.01682655957002172,0.052440793366612254
1592169161.6161022,-0.6929988193624558,8.949722550177096,4.060832349468713,-0.43333333333333335,-0.4477777777777778,-0.10666666666666667,-0.025949409015963508,-0.0283010701834234,0.09230270082280076
1592169161.6261022,-0.62,8.992819237147595,3.9726169154228854,-0.43333333333333335,-0.4477777777777778,-0.10666666666666667,-0.0004536987732174317,-0.032227084948620005,0.1098884478422947
1592169161.6361022,-0.643386070992199,8.965432501018203,3.9049208935117017,-0.4311679563896112,-0.44994315472149987,-0.10666666666666667,0.0022202109281514067,-0.029083068080403413,0.10324230293165618
1592169161.6461022,-0.6858872087842973,8.844676747294217,3.826451164862811,-0.42777777777777776,-0.4533333333333333,-0.10666666666666667,-0.03556678936709002,-0.01866715943252347,0.06992720147449993
1592169161.6561022,-0.6948167369445345,8.84087252675965,3.790733052221862,-0.42777777777777776,-0.4533333333333333,-0.10666666666666667,-0.0528453202564193,-0.015581932153863581,0.049232098086178025
1592169161.6661022,-0.5556196634543367,8.960605183002945,3.700605183002946,-0.42777777777777776,-0.4533333333333333,-0.10666666666666667,-0.05877283180507719,-0.04430909756862576,-0.011832520973084591
1592169161.6761022,-0.2888366211431462,8.995068285280729,3.760136570561457,-0.42777777777777776,-0.4533333333333333,-0.10666666666666667,-0.05717895497729273,-0.07420628828424297,-0.03438351595450134
1592169161.6861022,-0.03658259096275625,9.061281528388966,3.8647572537655184,-0.4412944875754793,-0.44406473232919513,-0.11439050083678183,-0.06008888841166025,-0.09096469545760812,-0.03633632228423411
1592169161.6961021,0.12,9.12,3.93,-0.4666666666666667,-0.4266666666666667,-0.1288888888888889,-0.0643590161672909,-0.09381144729469522,-0.01854412330243975
1592169161.7061021,0.0013014410517149383,8.968780864631029,3.9942009607011433,-0.4666666666666667,-0.4266666666666667,-0.1288888888888889,-0.07285204648620372,-0.09031431716337816,-0.0015580626646140988
1592169161.7161021,-0.1342168386278218,8.898313264548872,3.950843367725564,-0.4666666666666667,-0.4266666666666667,-0.1288888888888889,-0.08231172550468195,-0.11988622782499644,0.028006746743219096
1592169161.726102,-0.10659875616555865,8.88,3.939610765601544,-0.4666666666666667,-0.4266666666666667,-0.1288888888888889,-0.07469512324295537,-0.16614595003021507,0.024431989475429947
1592169161.736102,0.018278379406981977,8.867814413728679,3.8917216205930183,-0.4609123620385427,-0.438852252937988,-0.1305813314265724,-0.06070360270022193,-0.19530932087125713,-0.005988907445236396
1592169161.746102,0.16152332756706514,8.873841109189021,3.855640184864837,-0.4477777777777778,-0.4666666666666667,-0.13444444444444445,-0.05605136992155074,-0.19551154082089908,-0.06477443931778593
1592169161.756102,0.242409932831264,8.898795033584369,3.861204966415632,-0.4477777777777778,-0.4666666666666667,-0.13444444444444445,-0.05857625864029717,-0.1880300966360215,-0.0876214877210704
1592169161.766102,0.3285855619106508,8.894575668573196,3.9917467923944967,-0.4477777777777778,-0.4666666666666667,-0.13444444444444445,-0.04868083195579407,-0.13756271562465816,-0.11123388156248255
1592169161.776102,0.3173333095819157,8.91391666815113,4.196166699324866,-0.4477777777777778,-0.4666666666666667,-0.13444444444444445,-0.04192426242622768,-0.1031925881378481,-0.11150108616031969
1592169161.786102,0.17908726140923237,8.91707766152923,4.379679754003075,-0.4455048478560685,-0.45887376407794905,-0.13931500856239298,-0.03671968676124156,-0.08726646259971647,-0.10634857691919576
1592169161.796102,0.08,8.91,4.5,-0.44,-0.44,-0.1511111111111111,-0.030543261909900768,-0.08726646259971647,-0.09708393964218458
1592169161.806102,-0.07990997920405664,8.908455687548074,4.423088624903855,-0.44,-0.44,-0.1511111111111111,0.03516494378773366,-0.09941442007215699,-0.048977845329472955
1592169161.816102,-0.19275855504259676,8.9807881585836,4.278423682832802,-0.44,-0.44,-0.1511111111111111,0.056070316843007645,-0.10083736630758627,-0.018157236862424347
1592169161.826102,-0.29151396658158185,8.972425279241115,4.192729050127627,-0.44,-0.44,-0.1511111111111111,0.0513021830407167,-0.09840619108653365,0.002015980248076506
1592169161.836102,-0.37207275483137553,8.900842950153296,4.038360260429226,-0.44388760664622734,-0.445831409969341,-0.1488433405674785,0.05499374407974933,-0.09549366926720611,0.017908015152448362
1592169161.846102,-0.45,8.83,3.84,-0.4533333333333333,-0.46,-0.14333333333333334,0.07199483164476608,-0.0916297857297023,0.016362461737446838
1592169161.856102,-0.5565350608908414,8.976014291275092,3.6798025913362618,-0.4533333333333333,-0.46,-0.14333333333333334,0.08450708472640481,-0.11204220620730142,-0.015571256081466605
1592169161.866102,-0.38531139528814445,9.030024911623052,3.7596263256542266,-0.4533333333333333,-0.46,-0.14333333333333334,0.03717792201025923,-0.14613056330662522,-0.040866751513980545
1592169161.876102,-0.26,9.02,3.91,-0.4533333333333333,-0.46,-0.14333333333333334,0.001090830782496456,-0.16253378659197193,-0.056723200689815706
1592169161.886102,-0.11320852934371867,8.835393691678878,4.160728387445053,-0.4515419912084522,-0.4674212745173646,-0.14819554767229634,-0.03761002326319941,-0.19315650324653746,-0.07778611090319228
1592169161.896102,0.11,8.82,4.23,-0.44555555555555554,-0.4922222222222222,-0.16444444444444445,-0.006544984694978735,-0.20071286397934787,-0.07526732399225547
1592169161.906102,0.19368108048021343,8.897362160960427,4.110059470875945,-0.44555555555555554,-0.4922222222222222,-0.16444444444444445,0.04770881082748034,-0.17500109968267202,-0.07406269322205637
1592169161.916102,0.23683352512466438,8.877770665515918,3.999208381281166,-0.44555555555555554,-0.4922222222222222,-0.16444444444444445,0.04858514592441751,-0.13146542899541633,-0.07249707093268909
1592169161.926102,0.28,8.84,4.01,-0.44555555555555554,-0.4922222222222222,-0.16444444444444445,0.04799655442984406,-0.10144726277217041,-0.07308566242726255
1592169161.936102,0.09328498200458066,8.902467008397863,3.964656996400916,-0.44773233479962676,-0.4876707747118915,-0.15910144084536057,0.07478954272684966,-0.02822633209322299,-0.09529083226364966
1592169161.946102,-0.03,8.96,3.94,-0.4577777777777778,-0.4666666666666667,-0.13444444444444445,0.09272061651219875,0.007635815477475192,-0.09708393964218458
1592169161.956102,-0.36755714203465945,9.04,3.8593321434740053,-0.4577777777777778,-0.4666666666666667,-0.13444444444444445,0.07828483487984872,0.017719766986529308,-0.09622315740343183
1592169161.966102,-0.42,9.04,3.82,-0.4577777777777778,-0.4666666666666667,-0.13444444444444445,0.06326818538479445,0.011999138607461015,-0.08835729338221293
1592169161.9761019,-0.41909798309556817,8.997916014489514,3.912986002414919,-0.4577777777777778,-0.4666666666666667,-0.13444444444444445,0.06040454115626678,-0.023952470224860578,-0.06743471895364297
1592169161.9861019,-0.37341228098480206,9.043412280984802,3.9097631570455937,-0.4627066280891585,-0.47273294397298143,-0.14468128739885056,0.07119871630035948,-0.058072387057595765,-0.06007319971289015
1592169161.9961019,-0.38,9.05,3.89,-0.4722222222222222,-0.48444444444444446,-0.16444444444444445,0.06544984694978735,-0.07963064712224129,-0.06654067773228381
1592169162.0061018,-0.35647263249348393,9.003090790616854,3.806036055603823,-0.4722222222222222,-0.48444444444444446,-0.16444444444444445,0.03699300030284571,-0.12631033850058332,-0.06291515804641049
1592169162.0161018,-0.3128368794326241,8.987163120567375,3.761191489361702,-0.4722222222222222,-0.48444444444444446,-0.16444444444444445,0.0180072179385727,-0.15182043575792165,-0.06698010460069373
1592169162.0261018,-0.24970775811783008,9.000723118802256,3.87029224188217,-0.4722222222222222,-0.48444444444444446,-0.16444444444444445,0.005944189969235111,-0.16952180596291383,-0.06778926856456072
1592169162.0361018,-0.15679759066382232,8.95,3.948533065629314,-0.4701033170201196,-0.48444444444444446,-0.16346648819732018,0.005323429430453905,-0.1808885989429507,-0.05528304123911358
1592169162.0461018,-0.1005654104573036,8.939717294771349,3.963992978866854,-0.4577777777777778,-0.48444444444444446,-0.15777777777777777,0.017638322659414948,-0.16259929273921087,-0.047279613360372626
1592169162.0561018,-0.1432313946068584,8.932925578427433,3.987380237751991,-0.4577777777777778,-0.48444444444444446,-0.15777777777777777,0.031953223792922446,-0.12841336383583335,-0.05398889243268618
1592169162.0661018,-0.16583012042457995,8.944169879575421,3.921003855490504,-0.4577777777777778,-0.48444444444444446,-0.15777777777777777,0.039396260528823585,-0.09206780031779026,-0.06999427426223534
1592169162.0761018,-0.1739933941491035,8.928204624095628,3.8982046240956274,-0.4577777777777778,-0.48444444444444446,-0.15777777777777777,0.053059018081797964,-0.07729706189290414,-0.08227168261301814
1592169162.0861018,-0.10932193432688146,8.985326819615361,3.94733659019232,-0.461328990854685,-0.48740378867520046,-0.16058915479699598,0.06682854616121854,-0.08849989534091662,-0.0943951776871467
1592169162.0961018,-0.18534286470743977,9.03534286470744,3.9023828435266084,-0.48444444444444446,-0.5066666666666667,-0.17888888888888888,0.07922111626452882,-0.10597203001320085,-0.07964248828244312
1592169162.1061018,-0.23058654934003772,9.075293274670019,3.7844206159648017,-0.48444444444444446,-0.5066666666666667,-0.17888888888888888,0.06570734060703083,-0.1095325197295589,-0.06317299308696804
1592169162.1161017,-0.3043201654268604,9.079772269516878,3.6231815130112524,-0.48444444444444446,-0.5066666666666667,-0.17888888888888888,0.0460625759291691,-0.09951328427149544,-0.03579868348550156
1592169162.1261017,-0.39,9.06,3.61,-0.48444444444444446,-0.5066666666666667,-0.17888888888888888,0.03599741582238304,-0.08944812416470939,-0.01854412330243975
1592169162.1361017,-0.567107489815105,9.072892510184895,3.713206518332811,-0.47756843901250046,-0.5060936662140048,-0.18261339183119188,0.004898859170054438,-0.08280038054362021,0.011045319726445155
1592169162.1461017,-0.53,9.11,3.78,-0.4577777777777778,-0.5044444444444445,-0.19333333333333333,-0.02181661564992912,-0.07308566242726255,0.02399827721492203
1592169162.1561017,-0.4117905872047974,8.966608496445778,3.8792867971566216,-0.4577777777777778,-0.5044444444444445,-0.19333333333333333,-0.03154677625068946,-0.06122308438267446,0.044801860443926804
1592169162.1661017,-0.1,8.88,3.81,-0.4577777777777778,-0.5044444444444445,-0.19333333333333333,-0.009817477042468103,-0.04799655442984406,0.05235987755982988
1592169162.1761017,0.0374084500846768,9.037481690016934,3.737408450084677,-0.4577777777777778,-0.5044444444444445,-0.19333333333333333,-3.195694904623795e-05,-0.016306537076615925,0.048521996727938395
1592169162.1861017,-0.023608959847491957,9.03,3.711804479923746,-0.4562038471212783,-0.5073299839813602,-0.1967435164224155,-0.015665307404394178,0.0062874508935350645,0.04190594176103089
1592169162.1961017,-0.1,9.03,3.75,-0.45111111111111113,-0.5166666666666667,-0.20777777777777778,-0.02399827721492203,0.00545415391248228,0.04690572364734761
1592169162.2061017,-0.12793144642528947,9.074369601176254,3.7420685535747107,-0.45111111111111113,-0.5166666666666667,-0.20777777777777778,-0.0052912610599223885,-0.014720201058376868,0.06971302856610713
1592169162.2161016,-0.12136150460569037,9.146134587171408,3.7271596238485776,-0.45111111111111113,-0.5166666666666667,-0.20777777777777778,-0.029912490498766243,-0.03252690065697398,0.0751555098361911
1592169162.2261016,0.027744721274666442,9.041127639362667,3.832175180275487,-0.45111111111111113,-0.5166666666666667,-0.20777777777777778,-0.1082245300356487,-0.049933451447091264,0.05951365312936135
1592169162.2361016,0.26203518949415106,8.926809039620055,4.129422114557103,-0.4561362388748995,-0.5166666666666667,-0.20903405971872488,-0.16873069150613368,-0.06333122290778127,0.04521466299208679
1592169162.2461016,0.4,8.87,4.17,-0.4777777777777778,-0.5166666666666667,-0.21444444444444444,-0.16253378659197193,-0.05890486225480862,0.056723200689815706
1592169162.2561016,0.29935777559055116,9.012031933508311,4.097539916885389,-0.4777777777777778,-0.5166666666666667,-0.21444444444444444,-0.15314219164634463,-0.02452904918113183,0.05667649681280922
1592169162.2661016,0.10297911988150413,8.855901380859095,4.023244779970375,-0.4777777777777778,-0.5166666666666667,-0.21444444444444444,-0.18547641438892448,0.00035395058741141157,0.04145156973486533
1592169162.2761016,0.13,8.66,4.03,-0.4777777777777778,-0.5166666666666667,-0.21444444444444444,-0.210530341021816,0.001090830782496456,0.04145156973486533
1592169162.2861016,0.1690666062528319,8.62933393747168,4.06766651563208,-0.4774666465287218,-0.5160962593767306,-0.21610381110607663,-0.14686180541779992,0.011773756261825136,0.015191560911106057
1592169162.2961016,0.11370511057770735,8.875652163780849,4.024839318589638,-0.4711111111111111,-0.5044444444444445,-0.25,-0.016976958078834523,0.026021160632878685,-0.004503544112863186
1592169162.3061016,0.020079859712315455,9.005378089528188,4.042231095523591,-0.4711111111111111,-0.5044444444444445,-0.25,0.005536640251659661,0.005780015019241925,0.0072663976544780386
1592169162.3161016,0.08567900360908641,8.817592527068147,4.080246974736395,-0.4711111111111111,-0.5044444444444445,-0.25,-0.02435514585178291,-0.03386963578638189,-0.0022961405155584934
1592169162.3261015,0.08702839042702958,8.710217034256218,4.186594321914594,-0.4711111111111111,-0.5044444444444445,-0.25,0.007085857090828249,-0.058557035170479034,-0.020958885321482087
1592169162.3361015,0.16903801032379168,8.759422806194275,4.170192397935241,-0.4711111111111111,-0.5044444444444445,-0.25,0.08849319932907018,-0.06213537988424791,-0.03258850564123093
1592169162.3461015,0.2777236488255313,9.052404150503344,4.02974440134225,-0.48333333333333334,-0.5244444444444445,-0.23555555555555555,0.15460783748863272,-0.04247269679640214,-0.008062734543092039
1592169162.3561015,0.32272904572883926,9.044541908542321,3.9287979257967556,-0.48333333333333334,-0.5244444444444445,-0.23555555555555555,0.13467188651029843,-0.02009921354813348,0.020692471516550376
1592169162.3661015,0.2634461901778399,9.066347534820956,3.819352016964673,-0.48333333333333334,-0.5244444444444445,-0.23555555555555555,0.07171527635603292,0.0010201467983494375,0.023060064956768298
1592169162.3761015,0.12454852287936687,8.990902954241266,3.8718284095978897,-0.48333333333333334,-0.5244444444444445,-0.23555555555555555,0.014582151757859098,0.007339097147543902,0.015472306747652969
1592169162.3861015,0.10014082594611372,9.039718348107773,3.790469419820379,-0.48333333333333334,-0.5244444444444445,-0.23555555555555555,-0.02269238224463255,0.0011266748137952936,-0.0031649602535928564
1592169162.3961015,0.07,9.08,3.82,-0.4633333333333333,-0.5311111111111111,-0.26666666666666666,-0.056723200689815706,-0.01854412330243975,-0.009817477042468103
1592169162.4061015,0.025231171250420428,8.94046234250084,3.9368207808336138,-0.4633333333333333,-0.5311111111111111,-0.26666666666666666,-0.08158847543748698,-0.0486397187128461,0.009123879016268707
1592169162.4161015,-0.028480093620883187,8.849758782928518,3.9121592510329344,-0.4633333333333333,-0.5311111111111111,-0.26666666666666666,-0.09411672672698232,-0.06623539829999671,-0.003219866946122244
1592169162.4261014,-0.03103826776717762,8.946202165291028,4.010355236359739,-0.4633333333333333,-0.5311111111111111,-0.26666666666666666,-0.10874480260876639,-0.050854767276595415,-0.029678946015586554
1592169162.4361014,-0.09022807133859312,8.855976264668833,4.206323012663264,-0.4643552343698203,-0.5311111111111111,-0.2674330924440319,-0.10955881151804456,-0.041138054423447035,-0.04390892227266713
1592169162.4461014,0.07,8.79,4.31,-0.4811111111111111,-0.5311111111111111,-0.28,-0.04581489286485115,-0.03599741582238304,-0.030543261909900768
1592169162.4561014,0.2592859911621056,8.921428017675789,4.074286637207019,-0.4811111111111111,-0.5311111111111111,-0.28,0.06642363689167795,-0.04367210396825792,-0.005726826371822493
1592169162.4661014,0.21,9.02,3.91,-0.4811111111111111,-0.5311111111111111,-0.28,0.09599310885968812,-0.05890486225480862,-0.011999138607461015
1592169162.4761014,0.1828836743772242,8.877116325622776,3.78158140569395,-0.4811111111111111,-0.5311111111111111,-0.28,0.062258511830221706,-0.027438179090863928,-0.041771224885207646
1592169162.4861014,0.0985420054200542,8.96,3.7995140018066844,-0.48123711064271135,-0.5311111111111111,-0.279856000535314,0.025460207250072652,0.009186102477543477,-0.07097468643420377
1592169162.4961014,0.02763301792591888,8.98424539964814,3.7567752365555607,-0.4888888888888889,-0.5311111111111111,-0.27111111111111114,0.05280521411532009,0.04285863822745074,-0.07214169519669605
1592169162.5061014,0.09,9.07,3.71,-0.4888888888888889,-0.5311111111111111,-0.27111111111111114,0.06981317007977318,0.06326818538479445,-0.061086523819801536
1592169162.5161014,-0.012729074554047873,9.10781674035676,3.70255374294862,-0.4888888888888889,-0.5311111111111111,-0.27111111111111114,0.05158586834169625,0.08756415845284479,-0.031672344114866226
1592169162.5261014,-0.06276995945735225,9.07,3.9273865585529393,-0.4888888888888889,-0.5311111111111111,-0.27111111111111114,0.03727261027467185,0.09241846080796405,0.008979303795220467
1592169162.5361013,-0.08729611726181194,9.07,3.9927896460314987,-0.4888888888888889,-0.5311111111111111,-0.27111111111111114,0.029246443901830753,0.08974307201701702,0.040192173022935845
1592169162.5461013,0.0,8.98,3.9611592188641023,-0.4888888888888889,-0.5244444444444445,-0.27111111111111114,0.03083044300870128,0.09464937575306902,0.09391428361872882
1592169162.5561013,-0.01055221482671563,8.987914161120036,3.8836194629332113,-0.4888888888888889,-0.5244444444444445,-0.27111111111111114,0.02430945315698419,0.1094076736385615,0.1145974694552811
1592169162.5661013,-0.08191949310473351,9.034241520685798,3.7090402534476334,-0.4888888888888889,-0.5244444444444445,-0.27111111111111114,0.009695912225484712,0.13538458184654392,0.12185897131478812
1592169162.5761013,-0.10122348625285384,8.978776513747146,3.6993882568735734,-0.4888888888888889,-0.5244444444444445,-0.27111111111111114,-0.014067794130651018,0.15834751832273514,0.1176326696488682
1592169162.5861013,-0.11759244443577185,8.962407555564228,3.691203777782114,-0.4888888888888889,-0.5244444444444445,-0.27111111111111114,-0.04174422749880359,0.17531049361289316,0.10066969435871019
1592169162.5961013,-0.30828460775515987,8.94171539224484,3.8731951069758654,-0.5133333333333333,-0.5366666666666666,-0.29444444444444445,-0.0620159427645064,0.17392632993031126,0.09132648809514145
1592169162.6061013,-0.20174638263665595,9.031746382636655,3.902063404340836,-0.5133333333333333,-0.5366666666666666,-0.29444444444444445,-0.07442736127180069,0.14682078678117172,0.07749236339910659
1592169162.6161013,-0.1210384762633997,8.943570539816234,3.955846094946401,-0.5133333333333333,-0.5366666666666666,-0.29444444444444445,-0.11649233335211914,0.10899777879048599,0.05890486225480862
1592169162.6261013,-0.07,8.85,4.16,-0.5133333333333333,-0.5366666666666666,-0.29444444444444445,-0.12762720155208535,0.07744898555724837,0.05890486225480862
1592169162.6361012,0.18009637167823367,8.822211514257974,4.224839800064728,-0.5133333333333333,-0.5366666666666666,-0.29444444444444445,-0.0791271445179001,0.05016770347551916,0.05991528010968748
1592169162.6461012,0.13,8.87,4.13,-0.4888888888888889,-0.5433333333333333,-0.3211111111111111,-0.02181661564992912,0.05563236990731925,0.039269908169872414
1592169162.6561012,0.08739325510304703,8.90092002761069,4.1183132827137365,-0.4888888888888889,-0.5433333333333333,-0.3211111111111111,-0.006394445529205755,0.07345364705470761,0.0315839129704729
1592169162.6661012,-0.08522441907384111,8.958100211245878,4.013324630319717,-0.4888888888888889,-0.5433333333333333,-0.3211111111111111,0.0037387706594681643,0.09682489613552969,0.02820617424091492
1592169162.6761012,-0.1867234281812888,8.921456254141649,4.082548444747887,-0.4888888888888889,-0.5433333333333333,-0.3211111111111111,0.012970829876593785,0.09083552230727773,0.025089107997418484
1592169162.6861012,-0.11092130364063536,8.95514608727083,4.141505652723951,-0.4888888888888889,-0.5433333333333333,-0.3211111111111111,0.010214586849007959,0.07246056879003888,0.025089107997418484
1592169162.6961012,-0.006469904561811318,8.955375159249906,4.14,-0.5077777777777778,-0.5433333333333333,-0.3377777777777778,-0.025221935741613757,0.036873571809057294,0.0003716641212394888
1592169162.7061012,0.2487475280158207,8.916242584047462,4.136868820039552,-0.5077777777777778,-0.5433333333333333,-0.3377777777777778,-0.049971123532504096,0.017656070555977572,-0.021953239149384837
1592169162.7161012,0.24337167956494457,8.851085546956703,4.092971484347766,-0.5077777777777778,-0.5433333333333333,-0.3377777777777778,-0.022763934078903245,0.004525392459798272,-0.02205344525717265
1592169162.7261012,0.32,8.8,4.11,-0.5077777777777778,-0.5433333333333333,-0.3377777777777778,0.02181661564992912,0.00545415391248228,-0.01090830782496456
1592169162.7361012,0.20755066987289592,8.912449330127103,3.9802507729302645,-0.5077777777777778,-0.5433333333333333,-0.3377777777777778,0.05767200987610256,0.019607599001761268,-0.02883600493805128
1592169162.7461011,0.1,8.97,4.03,-0.5022222222222222,-0.5433333333333333,-0.33,0.07853981633974483,0.042542400517361786,-0.04145156973486533
1592169162.7561011,0.1,9.025971861471861,4.104629148629149,-0.5022222222222222,-0.5433333333333333,-0.33,0.06938144192267474,0.05678876072169302,-0.052645138466839866
1592169162.7661011,0.23410878680690578,9.009383681978964,4.021438075382417,-0.5022222222222222,-0.5433333333333333,-0.33,0.0678107881598878,0.05431743956843839,-0.019694926908064396
1592169162.776101,0.42972018330808964,8.980025437881084,4.089771059070255,-0.5022222222222222,-0.5433333333333333,-0.33,0.07634150572051598,0.0436609797235848,0.029530126713838676
1592169162.786101,0.3401297137752922,8.988170026020429,4.016469765816148,-0.5022222222222222,-0.5433333333333333,-0.33,0.071010885248624,0.052545347176738096,0.05440635558266791
1592169162.796101,0.11,9.01,3.88,-0.4888888888888889,-0.5633333333333334,-0.3377777777777778,0.011999138607461015,0.08072147790473774,0.02399827721492203
1592169162.806101,0.06650296103504205,8.975202368828034,3.810404737656067,-0.4888888888888889,-0.5633333333333334,-0.3377777777777778,-0.025959188632878116,0.0997006415249073,0.00976390449979486
1592169162.816101,-0.036451455003793536,8.955161164003034,3.6396771825056904,-0.4888888888888889,-0.5633333333333334,-0.3377777777777778,-0.0207609987934248,0.11063136970073591,0.007108033746665029
1592169162.826101,-0.13,9.03,3.78,-0.4888888888888889,-0.5633333333333334,-0.3377777777777778,-0.00545415391248228,0.10144726277217041,-0.016362461737446838
1592169162.836101,-0.11443782576321668,8.991094564408042,3.8655919583023084,-0.4888888888888889,-0.5633333333333334,-0.3377777777777778,-0.012244433392504892,0.07937885446209691,-0.02400152615247228
1592169162.846101,-0.03,8.91,4.05,-0.4888888888888889,-0.5433333333333333,-0.37333333333333335,-0.04690572364734761,0.03599741582238304,-0.04036073895236887
1592169162.856101,0.04321952966455772,8.95576220604035,4.086609764832279,-0.4888888888888889,-0.5433333333333333,-0.37333333333333335,-0.05589111179162395,5.586324527766945e-05,-0.03836398603141857
1592169162.866101,0.08,8.87,4.06,-0.4888888888888889,-0.5433333333333333,-0.37333333333333335,-0.020725784867432664,-0.04581489286485115,-0.0032724923474893677
1592169162.876101,0.16122782539366157,8.933177197528403,3.9697468606737094,-0.4888888888888889,-0.5433333333333333,-0.37333333333333335,0.01865457617019104,-0.05565998312425707,0.011495143041619518
1592169162.886101,0.09862953742370704,8.94,3.9124196916158045,-0.4888888888888889,-0.5433333333333333,-0.37333333333333335,0.020312343181117853,-0.040287546764866795,-0.005940787786299162
1592169162.896101,0.11,8.93,3.94,-0.4888888888888889,-0.5433333333333333,-0.3511111111111111,-0.01854412330243975,-0.019634954084936207,-0.0370882466048795
1592169162.906101,0.13247682071046796,8.85507726429844,3.9474922735701563,-0.4888888888888889,-0.5433333333333333,-0.3511111111111111,-0.017726843038318674,-0.015548552764330823,-0.050164730830816726
1592169162.916101,0.03916930400439411,9.049994245808595,3.931667146182617,-0.4888888888888889,-0.5433333333333333,-0.3511111111111111,0.010543965265069188,-0.006181583662450361,-0.06354065769857681
1592169162.926101,0.08687423567969477,9.032083842880203,4.034269432079441,-0.4888888888888889,-0.5433333333333333,-0.3511111111111111,0.020327988874500557,-0.01682818453104998,-0.06022300503326628
1592169162.936101,0.1448723148713304,9.014322195751047,4.079194510622378,-0.4888888888888889,-0.5433333333333333,-0.3511111111111111,-0.004926962347632454,-0.0405407650135019,-0.04545913628210152
1592169162.946101,0.1790285117365122,8.886314673712672,4.070971488263488,-0.48148891210246747,-0.5507333101197548,-0.3785967391749621,-0.029642492002651254,-0.06766260999463024,-0.034186659513316404
1592169162.956101,0.10434666479229635,8.936740001405777,3.9376066633865188,-0.4811111111111111,-0.5511111111111111,-0.38,-0.019196076218976434,-0.06872233929727672,-0.026594817908620103
1592169162.966101,0.06250479051832225,8.949373802370419,3.8550095810366445,-0.4811111111111111,-0.5511111111111111,-0.38,-0.0011612286054637454,-0.059519630340054135,-0.024134892344976587
1592169162.976101,-0.06285020320804176,8.940549984368612,3.953950171945266,-0.4811111111111111,-0.5511111111111111,-0.38,-0.005154183972895261,-0.05581235187107146,-0.026059950804080134
1592169162.986101,-0.1003918149943479,8.94,4.051175444983044,-0.4811111111111111,-0.5511111111111111,-0.38,-0.007111770279070883,-0.04900190444096485,-0.027008746963209245
1592169162.996101,-0.100952,8.921904,4.1523840000000005,-0.48814844444444444,-0.5571431111111111,-0.386032,-0.014544701321494744,-0.03999683780332805,-0.04898441078647285
1592169163.006101,-0.010529467308445228,8.928947053269155,4.195788213076622,-0.4888888888888889,-0.5577777777777778,-0.38666666666666666,-0.015271630954950384,-0.04707768506477669,-0.05810085156037467
1592169163.016101,-0.08076335694561172,8.88513146836355,4.226921118981871,-0.4888888888888889,-0.5577777777777778,-0.38666666666666666,-0.007440594879037296,-0.05974310854371369,-0.05498934421685208
1592169163.0261009,0.025497299464610032,8.826693554093257,4.141155923488761,-0.4888888888888889,-0.5577777777777778,-0.38666666666666666,0.021560032820290752,-0.08143843305499668,-0.025467383074544013
1592169163.0361009,0.0472105640489062,8.928158460733593,4.0578943595109385,-0.4888888888888889,-0.5577777777777778,-0.38666666666666666,0.036100815310611316,-0.08949982390882352,-0.017883863038074536
1592169163.0461009,0.024868168962685885,8.92811361493781,3.979736337925372,-0.46654948352238745,-0.5521929264361525,-0.4090060720331681,0.04310219644396908,-0.09254360489356903,-0.04012175999798197
1592169163.0561008,-0.14749517031011694,8.864168276563294,3.9234735638027454,-0.4622222222222222,-0.5511111111111111,-0.41333333333333333,0.055813823812775706,-0.09069051776004584,-0.053859506467042795
1592169163.0661008,-0.18821607618316583,8.925837511094054,3.8165410539950586,-0.4622222222222222,-0.5511111111111111,-0.41333333333333333,0.0772425103310573,-0.09464281687545416,-0.061723297499257354
1592169163.0761008,-0.09564720508774446,8.977176397456128,3.7250824845789703,-0.4622222222222222,-0.5511111111111111,-0.41333333333333333,0.10324132028491202,-0.10416534205662936,-0.06938195991963843
1592169163.0861008,-0.030023739372001007,9.079960434379998,3.766648202710666,-0.4622222222222222,-0.5511111111111111,-0.41333333333333333,0.08145790576426368,-0.10908135187379653,-0.085805691511608
1592169163.0961008,0.05771026209414526,8.949655430955797,4.107406441517799,-0.4774513191637328,-0.5559202996189566,-0.4149363961692818,0.03125499023535606,-0.1238551658862849,-0.11427088966112063
1592169163.1061008,0.08864957264957264,8.758905982905983,4.238649572649573,-0.48333333333333334,-0.5577777777777778,-0.41555555555555557,0.0059837196256942345,-0.13720973042601575,-0.10990726150753181
1592169163.1161008,0.14943203883495146,8.850373786407767,3.9768009708737866,-0.48333333333333334,-0.5577777777777778,-0.41555555555555557,0.03214773631328147,-0.12927403831595136,-0.09595233508772102
1592169163.1261008,0.09536629326275924,8.966950560105861,3.8815247199470697,-0.48333333333333334,-0.5577777777777778,-0.41555555555555557,0.07057785413039913,-0.10647587048333611,-0.09381144729469522
1592169163.1361008,0.09478880384674769,9.004788803846747,3.8034503826896353,-0.48333333333333334,-0.5577777777777778,-0.41555555555555557,0.10112473180101296,-0.09499442978323665,-0.08977842667661162
1592169163.1461008,0.06138293440994584,9.03896279919254,3.7317286680124324,-0.4693882818702582,-0.5577777777777778,-0.42091903688750754,0.1090830782496456,-0.100092436190379,-0.07677300531650111
1592169163.1561007,0.06,9.052117905225074,3.7784716209003024,-0.4688888888888889,-0.5577777777777778,-0.4211111111111111,0.1090830782496456,-0.10300014879745135,-0.07107072115919706
1592169163.1661007,0.06,9.06455577960975,3.828223118439001,-0.4688888888888889,-0.5577777777777778,-0.4211111111111111,0.1090830782496456,-0.10571367204697682,-0.06564367466014615
1592169163.1761007,0.2173515488482923,8.987577760127087,3.9249293089753774,-0.4688888888888889,-0.5577777777777778,-0.4211111111111111,0.0911013349665091,-0.12488315996778916,-0.0534599617758109
1592169163.1861007,0.3438943622238618,8.96,3.986947181111931,-0.4688888888888889,-0.5577777777777778,-0.4211111111111111,0.05364836549769819,-0.12928756900024008,-0.0421175914981638
1592169163.1961007,0.42238296299178896,8.913437366229521,3.9825390123360704,-0.4688888888888889,-0.5732986557012708,-0.4211111111111111,0.04825649536834338,-0.12681333405092127,-0.03419071274677766
1592169163.2061007,0.48943854979678453,9.005113836636335,3.7860090637700967,-0.4688888888888889,-0.5844444444444444,-0.4211111111111111,0.07724704670038007,-0.1117977375551778,-0.030543261909900768
1592169163.2161007,0.37210712005644975,9.026746749101173,3.6502402473035183,-0.4688888888888889,-0.5844444444444444,-0.4211111111111111,0.09251697228560857,-0.07963365267058188,-0.036884602378289326
1592169163.2261007,0.1988833737044832,9.023519437715919,3.552681967994282,-0.4688888888888889,-0.5844444444444444,-0.4211111111111111,0.09413445587767087,-0.029763484451039584,-0.026704150912296793
1592169163.2361007,-0.005673560767590624,9.094828784648186,3.443561620469083,-0.4688888888888889,-0.5844444444444444,-0.4211111111111111,0.06757671113048258,0.00044330990862222544,-0.02277794225765073
1592169163.2461007,-0.1161511367275056,9.147690682036504,3.65921613832853,-0.4688888888888889,-0.5844444444444444,-0.40777856050094285,-0.01669372780024532,0.007551846306770053,-0.040108063003583105
1592169163.2561007,-0.2437899580238941,9.076851388440426,3.8825653858572813,-0.4688888888888889,-0.5844444444444444,-0.4066666666666667,-0.08060374778234529,-0.013846849918771508,-0.05618254029229164
1592169163.2661006,-0.08847316928550253,8.911005040023719,4.1489949599762825,-0.4688888888888889,-0.5844444444444444,-0.4066666666666667,-0.14373708729156903,-0.08633248118855437,-0.04842538384507984
1592169163.2761006,0.16018013219378738,8.846482579957872,4.030744255865192,-0.4688888888888889,-0.5844444444444444,-0.4066666666666667,-0.07510754077471427,-0.13221184424620258,-0.026685408366777873
1592169163.2861006,0.2814565070802427,8.95071050857082,3.9089164921744683,-0.4688888888888889,-0.5844444444444444,-0.4066666666666667,-0.03548008708807847,-0.12746832127628005,-0.02189799146370658
1592169163.2961006,0.11296381516737058,9.018315577129169,3.877526634306247,-0.46314617523657425,-0.5892300391547066,-0.43155175916002997,-0.014699465694548077,-0.08289151806128067,-0.08822935474066754
1592169163.3061006,0.09844163218950272,8.958805062058895,3.9241299586274034,-0.4622222222222222,-0.59,-0.43555555555555553,-0.023808463632667233,-0.05945448097713242,-0.1073321032603329
1592169163.3161006,-0.028790686623901163,8.94975813732478,3.8681651223568543,-0.4622222222222222,-0.59,-0.43555555555555553,-0.005918139265274722,-0.03526503789217238,-0.09721585526781791
1592169163.3261006,-0.004380065026447319,9.005371960984132,3.7870660455185132,-0.4622222222222222,-0.59,-0.43555555555555553,0.05497433538229312,-0.029159436107211275,-0.0652334488210522
1592169163.3361006,0.06920833895820878,9.16147397450485,3.776151042369776,-0.4622222222222222,-0.59,-0.43555555555555553,0.07937555264229697,-0.029703549617186197,-0.04061980942247559
1592169163.3461006,0.14311770666492335,9.027225182231229,3.923725688883078,-0.4566328898767692,-0.5812167634571452,-0.4403464118516582,0.03931155463651367,-0.030543261909900768,-0.043869596391780216
1592169163.3561006,0.09344480770670593,8.881764206743368,4.021596995183309,-0.45444444444444443,-0.5777777777777777,-0.44222222222222224,-0.03444873502865532,-0.03508079019043177,-0.0263997438096855
1592169163.3661005,0.1298281243826307,8.845085937808685,3.9951203129321584,-0.45444444444444443,-0.5777777777777777,-0.44222222222222224,-0.032769920406298565,-0.02947492959310675,-0.004966859557632031
1592169163.3761005,0.136791430682098,8.964028564393006,3.8663814331445456,-0.45444444444444443,-0.5777777777777777,-0.44222222222222224,0.04399491651252298,-0.006410813314565788,0.03163798755729409
1592169163.3861005,-0.005143826005612723,9.055755378858747,3.8121223105706266,-0.45444444444444443,-0.5777777777777777,-0.44222222222222224,0.09147412890499386,0.019501533949471836,0.034069499116679926
1592169163.3961005,-0.030528566421310896,9.035396424815984,3.7851321416053274,-0.45444444444444443,-0.5868636912411885,-0.44222222222222224,0.09473767847962254,0.0351576711158997,0.02811051426889474
1592169163.4061005,-0.0023963764096875577,9.027603623590311,3.734378258458125,-0.45444444444444443,-0.59,-0.44222222222222224,0.08348882827700116,0.03433856248821724,0.01980592955866527
1592169163.4161005,0.06558805673602296,9.005257464539985,3.6391544787239916,-0.45444444444444443,-0.59,-0.44222222222222224,0.06517315075924959,0.027086305435386225,-0.009039404464898468
1592169163.4261005,0.0609495367539858,9.033575694869022,3.659050463246014,-0.45444444444444443,-0.59,-0.44222222222222224,0.061385126113434635,0.015582366131058224,-0.023492518137217033
1592169163.4361005,0.10993986628159988,9.04400601337184,3.7179518930252797,-0.45444444444444443,-0.59,-0.44222222222222224,0.052586571158771765,0.008729926045526488,-0.022256883705593512
1592169163.4461005,0.10992671736921514,9.033321119561535,3.790073282630785,-0.44628136835298826,-0.5862895108675199,-0.44222222222222224,0.05419125202223772,0.005816431857489724,-0.012349425710046092
1592169163.4561005,0.1620642997571412,9.08044500983,3.637045680582861,-0.44222222222222224,-0.5844444444444444,-0.44222222222222224,0.05938623060219499,0.02432054347107624,0.013284141558387976
1592169163.4661005,0.2250898836799436,9.184215720831865,3.4787663024321467,-0.44222222222222224,-0.5844444444444444,-0.44222222222222224,0.04545038543383013,0.06225579291023922,0.044017348307864565
1592169163.4761004,0.10349828515433612,9.185874571288585,3.6311024007839294,-0.44222222222222224,-0.5844444444444444,-0.44222222222222224,0.008745352324345666,0.09536886076857795,0.05121720425606828
1592169163.4861004,0.0958725463834364,9.048096262436138,3.8723796719548265,-0.44222222222222224,-0.5844444444444444,-0.44222222222222224,-0.024292470082586445,0.11358484508206174,0.05184042036278733
1592169163.4961004,0.23675103681217666,8.960982513147206,3.9580349737055878,-0.42569821521037904,-0.5920179476582059,-0.46012322981838566,-0.04321833409856325,0.1174415125711928,0.07981211800918359
1592169163.5061004,0.22536477848798764,8.987604143707296,3.92,-0.41555555555555557,-0.5966666666666667,-0.4711111111111111,-0.027458304940491018,0.11992887428191695,0.09308991694903247
1592169163.5161004,0.18306112182443196,8.96496604343087,3.8429252955479165,-0.41555555555555557,-0.5966666666666667,-0.4711111111111111,0.03559664274542325,0.12948235469974678,0.08912161574737792
1592169163.5261004,0.1760377973989822,8.990754643121221,3.6809436301161327,-0.41555555555555557,-0.5966666666666667,-0.4711111111111111,0.06238315158890485,0.12906792279630683,0.09093000480625224
1592169163.5361004,0.1329837668143615,9.01,3.6524194798227665,-0.41555555555555557,-0.5966666666666667,-0.4711111111111111,0.050538828018902145,0.13755907397038084,0.0733582996823843
1592169163.5461004,0.12847907250933385,9.046958145018667,3.7231178358551125,-0.4196620161131853,-0.5891381556443455,-0.46768906064641963,0.01583987469721764,0.14709624818454517,0.0396722444596633
1592169163.5561004,0.11865629120361651,9.048656291203615,3.778458278395178,-0.4222222222222222,-0.5844444444444444,-0.46555555555555556,-0.004488299175089134,0.1405921948969395,0.029137679497165704
1592169163.5661004,0.11,9.04,3.711591689409279,-0.4222222222222222,-0.5844444444444444,-0.46555555555555556,0.0002044527454824318,0.13958293356445098,0.03586719603709691
1592169163.5761003,0.04627916028120363,9.084604587803156,3.6954883358875183,-0.4222222222222222,-0.5844444444444444,-0.46555555555555556,0.004363323129985824,0.13793682480397138,0.045525686980533143
1592169163.5861003,0.004794206583078138,9.089176826332313,3.79329269467075,-0.4222222222222222,-0.5844444444444444,-0.46555555555555556,-0.0030189084884586813,0.13181093604686037,0.054766024918836295
1592169163.5961003,0.0,9.001425698773376,3.887143575306656,-0.41841253882074314,-0.5914288640138228,-0.46555555555555556,-0.03412843860897845,0.10705638791888428,0.0493986072262621
1592169163.6061003,0.04088627121020895,8.96362875707007,3.825041836114617,-0.41555555555555557,-0.5966666666666667,-0.46555555555555556,-0.05235987755982988,0.0916297857297023,0.04145156973486533
1592169163.6161003,0.17431641282160562,8.976350911823422,3.7709472645297324,-0.41555555555555557,-0.5966666666666667,-0.46555555555555556,-0.039197114343400896,0.0881659006727473,0.051843224905730324
1592169163.6261003,0.22777817446150184,9.004443651076997,3.778332738307747,-0.41555555555555557,-0.5966666666666667,-0.46555555555555556,-0.017635552000917355,0.09684118662977612,0.07647875239428532
1592169163.6361003,0.20989700891800175,9.07556645095099,3.7243305579670114,-0.41555555555555557,-0.5966666666666667,-0.46555555555555556,-0.0054204501597123825,0.10748615312079912,0.09331658753260183
1592169163.6461003,0.28636384007170523,9.13,3.6653977400044817,-0.41555555555555557,-0.5996654111136008,-0.46855430000248977,-0.01513530766115525,0.11244234400519872,0.1040627913774821
1592169163.6561003,0.40559162650033076,9.090921462999717,3.7351308950004727,-0.41555555555555557,-0.6022222222222222,-0.4711111111111111,-0.07236034913265393,0.11628827278595381,0.0920318498117112
1592169163.6661003,0.41153151113023395,8.92840825199846,3.8561862813922416,-0.41555555555555557,-0.6022222222222222,-0.4711111111111111,-0.10312773849178478,0.12989732220881764,0.07820240703115272
1592169163.6761003,0.33524026218994624,8.798789257757239,3.9688724889182305,-0.41555555555555557,-0.6022222222222222,-0.4711111111111111,-0.04268149353046516,0.13937127628917906,0.07077192937146233
1592169163.6861002,0.30426325900914014,8.860333973724554,3.9814734819817197,-0.41555555555555557,-0.6022222222222222,-0.4711111111111111,0.05871197544705974,0.13553090361341283,0.07592953624058825
1592169163.6961002,0.3921542261950238,9.016963862785545,3.8778457738049763,-0.41007014654657714,-0.6022222222222222,-0.4690013384153502,0.12315348135765251,0.12773759861653236,0.0805280191335226
1592169163.7061002,0.5968772022261007,9.12158362696348,3.667330984292159,-0.4011111111111111,-0.6022222222222222,-0.46555555555555556,0.08420651827277677,0.12814544226401198,0.06929492936784654
1592169163.7161002,0.6688684221041276,9.112263155791746,3.596452631158349,-0.4011111111111111,-0.6022222222222222,-0.46555555555555556,0.04648546590951123,0.13302796242071266,0.0680885093840205
1592169163.7261002,0.6622953200044678,9.018073830001116,3.6098154249972074,-0.4011111111111111,-0.6022222222222222,-0.46555555555555556,0.017433158510470767,0.14680166251265594,0.07526732399225547
1592169163.7361002,0.63,9.054055137041193,3.707096489822087,-0.4011111111111111,-0.6022222222222222,-0.46555555555555556,0.025041332791244875,0.15064523469230529,0.08007299395341873
1592169163.7461002,0.5372777660472973,9.064243823902027,3.8009074113175676,-0.4011111111111111,-0.5959262680649399,-0.46555555555555556,0.023271392587449268,0.15274930395609013,0.07949866949589617
1592169163.7561002,0.41212898783566676,9.034589855405095,3.851640578379619,-0.4011111111111111,-0.59,-0.46555555555555556,0.009191119353312805,0.1455449671653698,0.07762794489700703
1592169163.7661002,0.347963503649635,8.99262408759124,3.8539817518248176,-0.4011111111111111,-0.59,-0.46555555555555556,0.001016781685582463,0.1239745108844193,0.08603748645899875
1592169163.7761002,0.40547837299261513,8.965342398312039,3.8453423983120385,-0.4011111111111111,-0.59,-0.46555555555555556,0.008158713543580104,0.1013577305117198,0.09046425522347658
1592169163.7861001,0.49199826080655096,8.985997681075402,3.85,-0.4011111111111111,-0.59,-0.46555555555555556,0.02137939799291344,0.08530404225181504,0.094683353054392
1592169163.7961001,0.5135122436790762,8.988926537925542,3.8745857057535336,-0.3968183688366846,-0.59,-0.46243356117415446,0.039738294359736706,0.06842959792861153,0.10138871449843737
1592169163.8061001,0.5944240255343843,8.894181980849211,3.8889899893606734,-0.3888888888888889,-0.59,-0.45666666666666667,0.08175493957629673,0.05307829708838332,0.07491039580411488
1592169163.8161001,0.4519493784298354,9.0598037854183,3.752468361518647,-0.3888888888888889,-0.59,-0.45666666666666667,0.09451979705873048,0.03992164566102059,0.029225982035855934
1592169163.8261,0.3523284033151701,9.16767159668483,3.729268739411145,-0.3888888888888889,-0.59,-0.45666666666666667,0.048639594655763715,0.01626800864849126,0.0011705989385313864
1592169163.8361,0.37605376538740043,9.065021542360608,3.8391935191889934,-0.3888888888888889,-0.59,-0.45666666666666667,-0.00932366086980538,-0.00771908907287323,-0.003932855710948166
1592169163.8461,0.44696439348219674,8.94358630054315,3.965275347012674,-0.3910267887078388,-0.5932068497284249,-0.4595171997585999,-0.0277674695173864,-0.027455015950613688,-0.005371370586653113
1592169163.8561,0.6220344948961634,9.04432770151355,3.9617757831749385,-0.39555555555555555,-0.6,-0.46555555555555556,0.021226084941206994,-0.03643186673065293,-0.014412136162054109
1592169163.8661,0.628550185873606,9.125799256505575,3.8911524163568774,-0.39555555555555555,-0.6,-0.46555555555555556,0.029829558498304567,-0.037262617324758114,-0.016188091017568223
1592169163.8761,0.62,9.12950105170474,3.78,-0.39555555555555555,-0.6,-0.46555555555555556,-0.033714824529605954,-0.04638752166406657,-0.004845240569310617
1592169163.8861,0.5747638773819387,9.032145816072909,3.8139270919635457,-0.39555555555555555,-0.6,-0.46555555555555556,-0.05547240549265325,-0.04840776238844877,0.003843664720760089
1592169163.8961,0.47450025699733656,8.926374935750665,3.863625064249334,-0.3949484188173969,-0.5988869159800424,-0.46687101848823265,-0.04153929085895655,-0.051173578058319555,0.008820178080254858
1592169163.9061,0.2915798327180973,8.972105041820475,3.817894958179524,-0.39059317062027216,-0.5909022942853137,-0.4763073895820029,0.004781387429693126,-0.06613872027465252,-0.013983848154157295
1592169163.9161,0.21545432429144873,8.996060900944736,3.793939099055265,-0.3888888888888889,-0.5877777777777777,-0.48,0.023403302731438987,-0.0753005403048555,-0.02720486769054181
1592169163.9261,0.24259772761399467,8.977402272386005,3.7705195455227987,-0.3888888888888889,-0.5877777777777777,-0.48,0.015278646909480179,-0.09209019068357394,-0.07249787831449586
1592169163.9361,0.2859529883702518,8.889529883702517,3.8083290814082376,-0.3888888888888889,-0.5877777777777777,-0.48,0.021788191905029192,-0.08259266619407492,-0.09913461399654819
1592169163.9461,0.297627364301761,8.859378940502936,3.8235589535473586,-0.38725672552761475,-0.5861456144165036,-0.4715127505213743,0.07145285499103787,-0.06321261222441363,-0.10921248545241005
1592169163.9561,0.27262648878219925,9.111390222509463,3.6097052442064443,-0.38333333333333336,-0.5822222222222222,-0.45111111111111113,0.14551864930416333,-0.03454809439541275,-0.09842144361220106
1592169163.9661,0.22054021608643457,9.274729891956783,3.443649459783914,-0.38333333333333336,-0.5822222222222222,-0.45111111111111113,0.11223902325062574,-0.01819055270067019,-0.06984328905696097
1592169163.9761,0.22699955757551382,9.268799823030205,3.423900575151832,-0.38333333333333336,-0.5822222222222222,-0.45111111111111113,0.06895096493406991,-0.011639111362109853,-0.05031988403958946
1592169163.9861,0.12291184540140762,9.18392699510915,3.5960730048908505,-0.38333333333333336,-0.5822222222222222,-0.45111111111111113,-0.04452978672051917,0.0027061920295334365,-0.007650389382716706
1592169163.9961,0.08767852934244638,9.090433655432477,3.727831722837615,-0.3812074789849949,-0.5864739309188991,-0.45111111111111113,-0.073386200062129,0.008679341790497373,0.016615694902839016
1592169164.0061,0.04,9.05049234086519,3.84950765913481,-0.37666666666666665,-0.5955555555555555,-0.45111111111111113,-0.07742213252868685,0.011440296701932025,0.02713650441960378
1592169164.0161,0.04,8.997838155841038,3.805676311682075,-0.37666666666666665,-0.5955555555555555,-0.45111111111111113,-0.0750315033766998,0.011999138607461015,0.03222373590874439
1592169164.0261,0.08547943923046318,8.96,3.7527397196152315,-0.37666666666666665,-0.5955555555555555,-0.45111111111111113,-0.0649507561882777,0.012495242330293676,0.028657470355401254
1592169164.0361,0.1534869003923554,8.949884824705734,3.78,-0.37666666666666665,-0.5955555555555555,-0.45111111111111113,-0.045308894280134085,0.01603235461164643,0.024353511691996246
1592169164.0461,0.18920653726870404,8.948413074537408,3.778158692546259,-0.37891715355457206,-0.5955555555555555,-0.4494743933744526,-0.013294131920284282,0.026235436321206534,0.01949290318643848
1592169164.0561,0.15960227947287192,9.025600142467054,3.734801139736436,-0.3888888888888889,-0.5955555555555555,-0.44222222222222224,0.030673804166668716,0.05637379294303007,-0.0023559769197643993
1592169164.0661,0.06565912369061976,9.041704381546902,3.6292277316686765,-0.3888888888888889,-0.5955555555555555,-0.44222222222222224,0.055141417385174175,0.07170723468028581,-0.012328856275349034
1592169164.0760999,0.05146101510087002,9.129772894293911,3.5628084773486948,-0.3888888888888889,-0.5955555555555555,-0.44222222222222224,0.06825660991831456,0.06998492879909948,-0.009523506382832237
1592169164.0860999,0.04622177094639544,9.2131108854732,3.6048870837855818,-0.3888888888888889,-0.5955555555555555,-0.44222222222222224,0.04693146574137101,0.05926884171481321,-0.00021838767600275638
1592169164.0960999,0.05594792196113696,9.195687531766822,3.68633850725261,-0.38765075393256965,-0.5967936905118748,-0.44514872302806774,-0.006202386122988509,0.04633900513314293,0.0070975011272124446
1592169164.1060998,0.04125319521054756,8.937493609578905,3.9582557513789856,-0.37666666666666665,-0.6077777777777778,-0.4711111111111111,-0.07136767365351107,0.022360636867568617,0.01756321210235818
1592169164.1160998,0.09042652365677627,8.920853047313553,3.944635124298316,-0.37666666666666665,-0.6077777777777778,-0.4711111111111111,-0.048376038013510245,0.005361100885627379,0.030436759385627354
1592169164.1260998,0.14594384327038687,9.010267817148785,3.8154082089728174,-0.37666666666666665,-0.6077777777777778,-0.4711111111111111,-0.007105714458553545,0.003625893026770465,0.04053743929200942
1592169164.1360998,0.1892994326757924,9.040700567324208,3.7421017019726226,-0.37666666666666665,-0.6077777777777778,-0.4711111111111111,-0.002214118318093788,0.017256489152307136,0.03991372524493872
1592169164.1460998,0.20742813141683777,9.018285420944558,3.680857289527721,-0.37495208761122517,-0.6055869267624914,-0.47063483915126625,-0.013869454220160277,0.03662122767643903,0.02976377707969796
1592169164.1560998,0.15728536544087426,9.0181717076473,3.6945429269118253,-0.3566666666666667,-0.5822222222222222,-0.46555555555555556,-0.03579798006461031,0.0754606938647746,0.004861912524417668
1592169164.1660998,0.13,9.04,3.7,-0.3566666666666667,-0.5822222222222222,-0.46555555555555556,-0.038179077387375956,0.08617563181722002,-0.001090830782496456
1592169164.1760998,0.1171879565521184,9.041281204344788,3.575624086895763,-0.3566666666666667,-0.5822222222222222,-0.46555555555555556,-0.02920014662768573,0.09076400851905037,-0.004083807702393198
1592169164.1860998,0.021836362953504093,9.047278787651168,3.7853757605348157,-0.3566666666666667,-0.5822222222222222,-0.46555555555555556,-0.03757812901612045,0.0694343536285468,-0.0012911469062482932
1592169164.1960998,0.0,9.02900246252214,3.8964963062167883,-0.3583468460035618,-0.5840551451351986,-0.4644863505229859,-0.04622361863391806,0.045447308292186336,0.0027403429892161584
1592169164.2060997,0.0,8.96,4.0,-0.3688888888888889,-0.5955555555555555,-0.4577777777777778,-0.05563236990731925,0.02945243112740431,0.01308996938995747
1592169164.2160997,-0.04644570381819223,8.897108592363615,4.030239853454691,-0.3688888888888889,-0.5955555555555555,-0.4577777777777778,-0.0310817772609941,0.017551766396181025,0.01023135456415718
1592169164.2260997,-0.04,8.91,3.94,-0.3688888888888889,-0.5955555555555555,-0.4577777777777778,-0.004363323129985824,0.009817477042468103,0.001090830782496456
1592169164.2360997,-0.0037468055828582675,8.998962060153332,3.8754177314723806,-0.3688888888888889,-0.5955555555555555,-0.4577777777777778,0.0211344979540138,-0.00593191506510703,-0.02524929093324016
1592169164.2460997,0.0487505258729491,9.045624737063527,3.8930626840555322,-0.3685972046931239,-0.5949721871640256,-0.45719440938624784,0.016076101447889502,-0.013185422819809917,-0.04055164581207376
1592169164.2560997,0.2779707112970711,8.966875871687586,3.9557810320781033,-0.3622222222222222,-0.5822222222222222,-0.4444444444444444,0.01994227321752238,-0.01481141294699337,-0.041962754034612616
1592169164.2660997,0.33,8.99,3.95,-0.3622222222222222,-0.5822222222222222,-0.4444444444444444,0.03381575425739013,-0.014180800172453926,-0.038179077387375956
1592169164.2760997,0.33742394504416096,9.01723912332352,3.8155217533529604,-0.3622222222222222,-0.5822222222222222,-0.4444444444444444,0.04769538950330595,0.008800153339197774,-0.0305634228321157
1592169164.2860997,0.28,9.03,3.79,-0.3622222222222222,-0.5822222222222222,-0.4444444444444444,0.04908738521234052,0.01854412330243975,-0.022907446432425576
1592169164.2960997,0.35407986667521313,9.057653355554132,3.775306711108262,-0.36300443703751184,-0.5843081283963278,-0.44600887407502365,0.04658866883142361,0.024443321630702425,-0.006422833462556371
1592169164.3060997,0.48300114077116135,9.04985763175907,3.716998859228839,-0.3688888888888889,-0.6,-0.4577777777777778,0.0331299469783011,0.04603355677666985,0.012700475852515774
1592169164.3160996,0.4938764612498196,9.063979410208304,3.6248455765622745,-0.3688888888888889,-0.6,-0.4577777777777778,0.024315419459306375,0.07507835580792055,0.01866106737319519
1592169164.3260996,0.3763595148235182,9.074465807401078,3.532232903700539,-0.3688888888888889,-0.6,-0.4577777777777778,0.018120493915736422,0.09890548645195044,0.028001485589680797
1592169164.3360996,0.3,9.136727179613965,3.5734543592279304,-0.3688888888888889,-0.6,-0.4577777777777778,0.01767809685765735,0.10848146177396886,0.03904510383215836
1592169164.3460996,0.3,9.158947851731506,3.6178957034630126,-0.3688888888888889,-0.6,-0.4577777777777778,0.01121436535003747,0.11009739465087383,0.045508835339778245
1592169164.3560996,0.23,9.05,3.74,-0.3622222222222222,-0.6,-0.4444444444444444,-0.02617993877991494,0.09708393964218458,0.044724062082354694
1592169164.3660996,0.3451161846778285,9.037558092338914,3.720464738711314,-0.3622222222222222,-0.6,-0.4444444444444444,-0.046106611233929735,0.08212937462091872,0.04150226486407724
1592169164.3760996,0.3560193227518264,9.027108964138685,3.6773462151678844,-0.3622222222222222,-0.6,-0.4444444444444444,-0.04394859439094049,0.07541206550150516,0.03332976958447533
1592169164.3860996,0.42208770108977683,9.026263103269331,3.7429647119875455,-0.3622222222222222,-0.6,-0.4444444444444444,-0.044040863498340695,0.07285792956592455,0.027630568236700317
1592169164.3960996,0.429343020238713,9.04802906071614,3.8227732226258433,-0.3622222222222222,-0.6,-0.4444444444444444,-0.04166656585899203,0.07206649701947498,0.021299107865103868
1592169164.4060996,0.49,9.0,3.85,-0.3566666666666667,-0.6,-0.4444444444444444,-0.0370882466048795,0.0643590161672909,0.02617993877991494
1592169164.4160995,0.589289302699444,8.995228526134815,3.86451782883426,-0.3566666666666667,-0.6,-0.4444444444444444,-0.028594175492652932,0.04570969943484686,0.02945243112740431
1592169164.4260995,0.6230181148295978,8.960828983727357,3.876865213386552,-0.3566666666666667,-0.6,-0.4444444444444444,-0.016420402703173548,0.037327043764204024,0.026328307842440557
1592169164.4360995,0.646743775730249,9.016212507351499,4.01568123897275,-0.3566666666666667,-0.6,-0.4444444444444444,0.001388077359181434,0.03470000936141343,0.016007262770631192
1592169164.4460995,0.5944187414232504,9.0012624975495,4.03810625367575,-0.3566666666666667,-0.6,-0.4444444444444444,0.011172835893568385,0.03388461281688119,0.01029948695890547
1592169164.4560995,0.5733243865030674,8.983270705521473,3.9302684049079755,-0.3888888888888889,-0.6,-0.43666666666666665,0.028709595441164394,0.039992248952606835,0.014177872329095998
1592169164.4660995,0.5593743136728568,9.040312843163571,3.6681229410185705,-0.3888888888888889,-0.6,-0.43666666666666665,0.04298563786720801,0.04663311577396011,0.015237505059658636
1592169164.4760995,0.49213100335609306,9.063483624580488,3.539549126258535,-0.3888888888888889,-0.6,-0.43666666666666665,0.04495651848819765,0.05083985958900668,0.011949955911840067
1592169164.4860995,0.43257498249959614,9.077425017500405,3.524950011666936,-0.3888888888888889,-0.6,-0.43666666666666665,0.03495020808986419,0.04448679811483738,0.010897402062470158
1592169164.4960995,0.41000744689190244,9.1,3.5400819158109273,-0.38886903051048227,-0.5999908982432303,-0.4366724586937019,0.021807680021115848,0.03380925561825321,0.014180800172453926
1592169164.5060995,0.42,9.1,3.65,-0.3622222222222222,-0.5877777777777777,-0.4444444444444444,0.009817477042468103,0.025089107997418484,0.014180800172453926
1592169164.5160995,0.3526986636010921,9.082585141543325,3.6502270441155336,-0.3622222222222222,-0.5877777777777777,-0.4444444444444444,-0.00731667027368689,0.023985893879411583,0.017453292519943295
1592169164.5260994,0.2480240004164931,9.057264421074553,3.6036778946272388,-0.3622222222222222,-0.5877777777777777,-0.4444444444444444,-0.022022197044797777,0.027569174932394094,0.015066049560081726
1592169164.5360994,0.11,9.05,3.64,-0.3622222222222222,-0.5877777777777777,-0.4444444444444444,-0.028361600344907853,0.028361600344907853,0.008726646259971648
1592169164.5460994,0.07053099428975099,9.059867251427562,3.6597345028551245,-0.3622222222222222,-0.5877777777777777,-0.4444444444444444,-0.03481970130239806,0.029437950504489555,-0.003113205495427058
1592169164.5560994,0.0,9.09,3.74,-0.3688888888888889,-0.6,-0.4577777777777778,-0.05126904677733343,0.02181661564992912,-0.011999138607461015
1592169164.5660994,-0.0018844207433204548,9.032462317026717,3.780577896283398,-0.3688888888888889,-0.6,-0.4577777777777778,-0.07629511606924987,0.00837856813467594,-0.011999138607461015
1592169164.5760994,-0.004669805094812795,9.002665097452594,3.771981169431123,-0.3688888888888889,-0.6,-0.4577777777777778,-0.07955860976888095,-0.00392339614825527,-0.011708421573496816
1592169164.5860994,0.008481182558324356,9.005443547674973,3.8675940872083783,-0.3688888888888889,-0.6,-0.4577777777777778,-0.07635815477475191,-0.023376621376828357,-0.010576953261290097
1592169164.5960994,0.0010737686099288272,8.983221305829787,3.904631156950356,-0.3688888888888889,-0.6,-0.4577777777777778,-0.07635815477475191,-0.036304997622593885,-0.008960906230569407
1592169164.6060994,0.12,8.95,4.0,-0.3688888888888889,-0.5822222222222222,-0.43666666666666665,-0.06654067773228381,-0.04036073895236887,-0.007635815477475192
1592169164.6160994,0.08884682636824619,8.991153173631753,3.9350029142624003,-0.3688888888888889,-0.5822222222222222,-0.43666666666666665,-0.04380158939929582,-0.03205403425085086,-0.008978229718987703
1592169164.6260993,0.04938980719520004,9.017877961439039,3.8206101928048,-0.3688888888888889,-0.5822222222222222,-0.43666666666666665,-0.0204943063690387,-0.013188324469404707,-0.015966066450132276
1592169164.6360993,0.008419307495787356,9.008419307495787,3.872645540033701,-0.3688888888888889,-0.5822222222222222,-0.43666666666666665,-0.020497088105564488,-0.004592019891854,-0.017854416085937127
1592169164.6460993,0.0008196988639452077,9.000819698863944,3.933442409088438,-0.3688888888888889,-0.5822222222222222,-0.43666666666666665,-0.02464203162083408,-0.00044707637658440366,-0.014538461273721449
1592169164.6560993,-0.06105304673634392,8.997763261684087,3.9522367383159143,-0.3622222222222222,-0.6,-0.4577777777777778,-0.031031242511378426,0.00011486957954113738,-0.008109544937296296
1592169164.6660993,-0.03,8.99,3.96,-0.3622222222222222,-0.6,-0.4577777777777778,-0.032724923474893676,-0.0032724923474893677,-0.002181661564992912
