time,acc_x,acc_y,acc_z,mag_x,mag_y,mag_z,gyr_x,gyr_y,gyr_z
1592295155.2083158,-0.578323552425665,9.806670579029735,0.5666823161189358,-0.49,-0.6355555555555555,-0.18444444444444444,0.03819188056557428,-0.03309194791657871,0.011290696080487564
1592295155.2183158,-0.5890178486853679,9.78622768914329,0.6418080082274455,-0.49,-0.6355555555555555,-0.18444444444444444,0.002410561995907709,-0.021475737488381726,0.03556887146755501
1592295155.2283158,-0.6047194152985798,9.76,0.7108800974502366,-0.4887287481274359,-0.6360444985834648,-0.18366213559978958,-0.05273552729553691,-0.006798206258923056,0.0525003649439049
1592295155.2383158,-0.55,9.758051942430473,0.7258441727085813,-0.47555555555555556,-0.6411111111111111,-0.17555555555555555,-0.051438933549562506,-0.03815079440333893,0.09844383650904662
1592295155.2483158,-0.5406061687281954,9.757515065017444,0.7199397399302252,-0.47555555555555556,-0.6411111111111111,-0.17555555555555555,0.08476114984632349,-0.09459834695051132,-0.030788032851421936
1592295155.2583158,-0.5155783436484745,9.79,0.5861054140878813,-0.47555555555555556,-0.6411111111111111,-0.17555555555555555,0.020792901341154694,-0.004329764893124807,0.005661759618514509
1592295155.2683158,-0.5295730788548468,9.803033651431441,0.5826067302862883,-0.47555555555555556,-0.6411111111111111,-0.17555555555555555,0.08248401061558208,0.061490859890862504,-0.05210730448563056
1592295155.2783158,-0.5061679578763792,9.830748063185432,0.5992519368145689,-0.47555555555555556,-0.6366564748670595,-0.1717862479644349,0.08339119085162333,0.12565031998860246,-0.11286518835882042
1592295155.2883158,-0.5205740763521548,9.810287038176078,0.6197129618239225,-0.47555555555555556,-0.6266666666666667,-0.16333333333333333,0.14687126006937337,0.07649954634007243,-0.11633305265073522
1592295155.2983158,-0.49165028275872813,9.856973313184502,0.5502738787019583,-0.47555555555555556,-0.6266666666666667,-0.16333333333333333,0.02352793301938768,-0.020765618909934832,0.017394306188234662
1592295155.3083158,-0.3805672311455234,9.941919176182834,0.4130536384738818,-0.47555555555555556,-0.6266666666666667,-0.16333333333333333,0.024953495514838577,-0.0008077439736222554,0.12502427459477747
1592295155.3183157,-0.37375830898645074,9.914254985391871,0.39574501460812955,-0.47555555555555556,-0.6266666666666667,-0.16333333333333333,0.09111956636293686,0.1163712113339468,-0.045459959513123746
1592295155.3283157,-0.29345707481193056,9.879814387782103,0.44817865648508676,-0.4779182785401362,-0.6279389021199024,-0.1606071145049711,0.13449234691675382,0.16154798533365114,-0.17266763054039827
1592295155.3383157,-0.25379263899765075,9.939311041503524,0.47137791699295223,-0.49,-0.6344444444444445,-0.14666666666666667,0.060519565161259205,0.08128549806845485,-0.17054463601365014
1592295155.3483157,-0.24065465935787,9.959018010963195,0.43196397807361003,-0.49,-0.6344444444444445,-0.14666666666666667,-0.016869522937517242,0.07555297302410105,-0.13901574826970417
1592295155.3583157,-0.08885849760723538,9.953424507178294,0.35514466347631385,-0.49,-0.6344444444444445,-0.14666666666666667,0.17889969653666027,0.1562062784120442,-0.22645784972916083
1592295155.3683157,0.010402404761185452,10.070301803570889,0.39432192380894837,-0.49,-0.6344444444444445,-0.14666666666666667,0.11555124573203258,0.2657904555737357,-0.2419014888239217
1592295155.3783157,0.21343629925412494,10.201718149627062,0.5233745197016499,-0.4677503201989,-0.629809094485882,-0.14852080665009165,0.0836191281518002,0.2880050091391133,-0.3635149408666155
1592295155.3883157,0.2548070434006904,10.205038591319862,0.5151157739595857,-0.4633333333333333,-0.6288888888888889,-0.14888888888888888,0.006043506307478047,0.2683022758944856,-0.4862098027318522
1592295155.3983157,0.20083344726696017,10.128750102540264,0.4445834130868721,-0.4633333333333333,-0.6288888888888889,-0.14888888888888888,-0.05017824582259073,0.17448761684148234,-0.4766477734207544
1592295155.4083157,0.039699927867275775,10.076988218321713,0.41349410916085594,-0.4633333333333333,-0.6288888888888889,-0.14888888888888888,-0.015915847970571394,0.2059694146430846,-0.46306409307841856
1592295155.4183156,-0.020191814012518385,10.039808185987482,0.4213219302546944,-0.4633333333333333,-0.6288888888888889,-0.14888888888888888,-0.0024072910190089513,0.3079117427834076,-0.5035148280244757
1592295155.4283156,-0.20002442048314986,9.99,0.4094060187098471,-0.4726814942831023,-0.6441858795339653,-0.1709845420428882,-0.025224022335472294,0.22402591405810354,-0.6198590492726203
1592295155.4383156,-0.254640360232255,10.009520480309673,0.3609590393806533,-0.47555555555555556,-0.6488888888888888,-0.17777777777777778,-0.06261434183601758,0.2581193365634966,-0.6764382274781093
1592295155.4483156,-0.17808436409768474,10.052978908975579,0.2357440004228777,-0.47555555555555556,-0.6488888888888888,-0.17777777777777778,-0.05210426635046279,0.3427991665164318,-0.8054980092882771
1592295155.4583156,-0.17356135770234987,10.17780678851175,0.28068407310704957,-0.47555555555555556,-0.6488888888888888,-0.17777777777777778,0.002475018146186475,0.40941926757789826,-0.850294905026189
1592295155.4683156,-0.10280772904761107,10.160376397244892,0.3551373363945635,-0.47555555555555556,-0.6488888888888888,-0.17777777777777778,-0.002659940892680644,0.35099671832029544,-0.9291903031562054
1592295155.4783156,-0.10534197236033355,10.102179462083544,0.4178205379164546,-0.46433521686741747,-0.6515289685802155,-0.17249761839512456,-0.09217530788511118,0.31280741755645314,-1.0049348727802168
1592295155.4883156,-0.4173766110037843,10.064933442718395,0.463422076375473,-0.45666666666666667,-0.6533333333333333,-0.1688888888888889,-0.0774541240408349,0.37518256850993525,-1.0611357456608426
1592295155.4983156,-0.5833600384553758,10.04521390802756,0.4207130267585323,-0.45666666666666667,-0.6533333333333333,-0.1688888888888889,-0.019197468193478326,0.39042408514929716,-1.1529011689143465
1592295155.5083156,-0.7,9.886902600241763,0.5281602839433142,-0.45666666666666667,-0.6533333333333333,-0.1688888888888889,-0.05159830760044441,0.3420183613921335,-1.2060523755360673
1592295155.5183156,-0.694258351972166,9.828516703944333,0.5570334078886641,-0.45666666666666667,-0.6533333333333333,-0.1688888888888889,-0.07243845242843126,0.2989240767573619,-1.3245717656831562
1592295155.5283155,-0.7665985339176977,9.854817515417135,0.46340146608230226,-0.4141119256012791,-0.6672603395001875,-0.17353122427784026,-0.11505796075348522,0.4193503754702147,-1.405069671775563
1592295155.5383155,-0.8119176683164427,9.837226412129782,0.44191766831644275,-0.39555555555555555,-0.6733333333333333,-0.17555555555555555,-0.11478776588768591,0.4211398227638485,-1.401695103024246
1592295155.5483155,-1.2336730653352843,9.573523284841182,0.3664018249117672,-0.39555555555555555,-0.6733333333333333,-0.17555555555555555,-0.07859487276126534,0.3842324432236137,-1.5449630650614632
1592295155.5583155,-1.6098655486139153,9.341951445471173,0.32740242772644135,-0.39555555555555555,-0.6733333333333333,-0.17555555555555555,-0.1590895733238563,0.40233302180429836,-1.4345172360155853
1592295155.5683155,-1.9210238611713666,9.306815618221258,0.3468156182212581,-0.39555555555555555,-0.6733333333333333,-0.17555555555555555,-0.12980081794427892,0.3480644630080796,-1.3285893009893928
1592295155.5783155,-2.4863287086446104,9.306559688976979,0.4339217106266199,-0.37464840507529945,-0.6748267012247802,-0.18152902712134303,-0.05538731133771893,0.28667844559405337,-1.3769358309521722
1592295155.5883155,-2.6164724667030144,9.26431497780201,0.48784251109899524,-0.36444444444444446,-0.6755555555555556,-0.18444444444444444,-0.04944354711281759,0.2416843118393096,-1.391155978769777
1592295155.5983155,-2.403184409052808,9.22006873428332,0.5032875104777871,-0.36444444444444446,-0.6755555555555556,-0.18444444444444444,-0.06216235910788647,0.11262795826696372,-1.4644934497835231
1592295155.6083155,-2.3816195089200076,9.31206502973336,0.4179349702666411,-0.36444444444444446,-0.6755555555555556,-0.18444444444444444,0.05066880735673279,0.028003674763964023,-1.454792604160597
1592295155.6183155,-2.4385058800505277,9.480128097923746,0.3361045777216361,-0.36444444444444446,-0.6755555555555556,-0.18444444444444444,0.015116779445111056,0.02191557389640997,-1.4069877662433061
1592295155.6283154,-2.4366582972805935,9.40186650185414,0.31476668726823237,-0.32247866879549514,-0.700322242823788,-0.18031666323307238,-0.09652129040552376,0.04140066879291324,-1.473624279644747
1592295155.6383154,-2.498131876616608,9.313049453731228,0.36304945373122804,-0.2966666666666667,-0.7155555555555555,-0.17777777777777778,-0.05745940513484536,0.077170287409599,-1.5375100063713305
1592295155.6483154,-2.6837373577332384,9.19456573978716,0.33228286989358047,-0.2966666666666667,-0.7155555555555555,-0.17777777777777778,-0.05700742333448264,0.08965529242866446,-1.5315374510840194
1592295155.6583154,-2.891089823220258,9.209083612040134,0.60848303870043,-0.2966666666666667,-0.7155555555555555,-0.17777777777777778,-0.13474428607981437,0.006960365551954215,-1.3976817943210078
1592295155.6683154,-3.050272899216428,9.298163739529857,0.5473450418805728,-0.2966666666666667,-0.7155555555555555,-0.17777777777777778,-0.12005546243562466,0.004806316555030991,-1.4259070596917096
1592295155.6783154,-3.065225891857031,9.109948745799532,0.6429157190862496,-0.27232261860312507,-0.7155555555555555,-0.18447239099525173,-0.1369076496522457,0.011944265683267683,-1.4473403931381204
1592295155.6883154,-3.3906016535511503,8.94138086462795,0.6390643988445065,-0.25222222222222224,-0.7155555555555555,-0.19,-0.18198168367998938,-0.03467095733276003,-1.5251904672717955
1592295155.6983154,-3.565590003163556,8.94360249920911,0.5979812559316672,-0.25222222222222224,-0.7155555555555555,-0.19,-0.2096054555896938,0.0011584685026386002,-1.498960883782736
1592295155.7083154,-3.8140756621088134,8.917061622526079,0.5576778477868702,-0.25222222222222224,-0.7155555555555555,-0.19,-0.22176696184759365,0.1679749642696236,-1.3580171044597453
1592295155.7183154,-4.116589974475326,8.839429239931935,0.44471461996596706,-0.25222222222222224,-0.7155555555555555,-0.19,-0.1451589574745274,0.15397454697045132,-1.3602215141551046
1592295155.7283154,-4.209665343165059,8.65910380034033,0.23573454339194555,-0.21643032709396862,-0.7366786412050167,-0.1946940190332136,-0.1759157991636301,0.11029641867192327,-1.2943273377352773
1592295155.7383153,-4.14059134728427,8.598437181597305,0.12804647699662983,-0.18444444444444444,-0.7555555555555555,-0.1988888888888889,-0.23903937750469825,0.09917805432095785,-1.2344345640760737
1592295155.7483153,-4.076598241331647,8.851721318707172,0.377254065817722,-0.18444444444444444,-0.7555555555555555,-0.1988888888888889,-0.23029499627587358,0.008690876583105384,-1.241843813818572
1592295155.7583153,-4.045894031871185,8.575409789346189,0.49884104780677796,-0.18444444444444444,-0.7555555555555555,-0.1988888888888889,-0.20678332549663678,0.05958482130076736,-1.2202969588965782
1592295155.7683153,-4.554342044279653,8.59297051588292,0.31825947449106917,-0.18444444444444444,-0.7555555555555555,-0.1988888888888889,-0.2503564177189258,-0.003222868472183102,-1.1825947393623704
1592295155.7783153,-4.826986664556211,8.400780736812948,0.5218103755292629,-0.16716855948188306,-0.7621084774379064,-0.1988888888888889,-0.30415755873399786,-0.09708393964218458,-1.1481583839862604
1592295155.7883153,-4.7055211106884745,8.159192088246481,0.9117915557246101,-0.15222222222222223,-0.7677777777777778,-0.1988888888888889,-0.2513540917924381,-0.09748118627252392,-1.1138167737242892
1592295155.7983153,-5.1155763535788115,8.298686372017658,0.9099463597250935,-0.15222222222222223,-0.7677777777777778,-0.1988888888888889,-0.1704678937300348,-0.14224666234596337,-1.0074889824053013
1592295155.8083153,-5.212906666030443,8.258811852841532,1.0905303717135086,-0.15222222222222223,-0.7677777777777778,-0.1988888888888889,-0.18128928861310797,-0.2160523693123283,-0.9980384138139242
1592295155.8183153,-5.15399529326575,8.253989862418537,1.1610001810282404,-0.15222222222222223,-0.7677777777777778,-0.1988888888888889,-0.1793326596308882,-0.2362732760867301,-1.0166552766425827
1592295155.8283153,-4.975784182048429,7.949893319006869,1.1095671361142023,-0.13104489385198545,-0.7677777777777778,-0.1988888888888889,-0.1964439770996139,-0.1476214403603865,-0.9551955041311289
1592295155.8383152,-5.038752239778465,8.16440299723082,1.0493582016615084,-0.10666666666666667,-0.7677777777777778,-0.1988888888888889,-0.21271004801137194,-0.09209248704223215,-0.838829325985405
1592295155.8483152,-5.063427063009296,8.109136634913348,1.0325768965913003,-0.10666666666666667,-0.7677777777777778,-0.1988888888888889,-0.18525575548459852,-0.060437352430505104,-0.994183463117551
1592295155.8583152,-5.255543595263724,8.247556512378901,1.0804305705059203,-0.10666666666666667,-0.7677777777777778,-0.1988888888888889,-0.1123825771719438,0.06872233929727672,-0.9458019531762355
1592295155.8683152,-5.353278888425376,8.215954818213907,1.182895741745018,-0.10666666666666667,-0.7677777777777778,-0.1988888888888889,-0.09727509668429263,0.061092019453497,-0.9278742171543318
1592295155.8783152,-5.514672975563009,7.859813128893148,1.2494082414949688,-0.08617513176808816,-0.7650086514401321,-0.20608861736676784,-0.18335469901207077,-0.020882065846812847,-1.0602637386983886
1592295155.8883152,-5.631305072267215,7.944871158987871,1.3586034796760569,-0.06555555555555556,-0.7622222222222222,-0.21333333333333335,-0.14827681805163104,0.050416696534025765,-1.0102099465916843
1592295155.8983152,-5.953036611444619,8.052642928915569,1.1083036611444619,-0.06555555555555556,-0.7622222222222222,-0.21333333333333335,-0.1750706820384376,0.05486662710207621,-0.8453959080836113
1592295155.9083152,-5.802610481586402,7.548543909348442,1.2485127478753542,-0.06555555555555556,-0.7622222222222222,-0.21333333333333335,-0.14972942636652506,0.07502142354036549,-0.8323461451494719
1592295155.9183152,-5.9151544370577644,7.361578590906661,1.118826349653341,-0.06555555555555556,-0.7622222222222222,-0.21333333333333335,-0.15000607906291946,0.13683225644315275,-0.7850080990919387
1592295155.9283152,-6.193547044771519,7.511093473067735,1.1418394081837095,-0.04168597433065338,-0.7730310891919893,-0.21018074713381796,-0.19540707381280892,0.10010055706465898,-0.7293876970996175
1592295155.9383152,-6.0032158392753034,7.4040560114803355,1.3857363558903988,-0.006666666666666667,-0.7888888888888889,-0.20555555555555555,-0.06767101010036106,0.030688109210092344,-0.6898169472319895
1592295155.9483151,-6.180480542594641,7.342628313050171,1.030513252200683,-0.006666666666666667,-0.7888888888888889,-0.20555555555555555,0.02043908038931632,0.0009510466079536428,-0.736020505642476
1592295155.9583151,-6.316272449369507,7.375192730225448,1.0046014042797096,-0.006666666666666667,-0.7888888888888889,-0.20555555555555555,0.057898125897367064,0.06513569122744008,-0.6863822142582079
1592295155.9683151,-6.492288848652678,7.447247133170022,1.088441083537473,-0.006666666666666667,-0.7888888888888889,-0.20555555555555555,0.04982901227538618,0.018958156458106667,-0.6647049618849001
1592295155.978315,-6.672221130800361,7.322201485206868,0.9316486582059644,0.000680043132991936,-0.7763562662894713,-0.20512339615557565,0.02715230442222751,-0.07398700898951552,-0.6892801603921394
1592295155.988315,-6.6742174063933986,7.105639147032738,0.740900011568272,0.012222222222222223,-0.7566666666666667,-0.20444444444444446,0.057297071987606134,-0.0011316323040721134,-0.6426288021104227
1592295155.998315,-6.750006921181584,7.477270839677749,0.8740937404833753,0.012222222222222223,-0.7566666666666667,-0.20444444444444446,0.0010923407500810986,-0.17344511435210577,-0.5626694586450537
1592295156.008315,-6.34585203539823,7.393062654867256,0.796326371681416,0.012222222222222223,-0.7566666666666667,-0.20444444444444446,-0.036027225428191444,-0.0778348114396804,-0.5288012468544869
1592295156.018315,-6.454408158895016,7.358840944376037,0.81,0.012222222222222223,-0.7566666666666667,-0.20444444444444446,-0.04799521125793992,-0.16198367009905923,-0.37869178429701794
1592295156.028315,-6.620271057008922,7.435147814910026,0.8906649780734917,0.020826486550061328,-0.7606102878169263,-0.19978380126686493,-0.10961773049125555,-0.2666167838818824,-0.24371469840521537
1592295156.038315,-6.18,7.32,1.06,0.03888888888888889,-0.7688888888888888,-0.19,-0.1679879405044542,-0.23780111058422737,-0.26070855701665296
1592295156.048315,-7.024381490916216,7.215122750048988,0.9669971726898636,0.03888888888888889,-0.7688888888888888,-0.19,-0.1330581787838881,-0.19694337076922347,-0.0963242697318482
1592295156.058315,-7.08025637968042,7.068299546863821,1.4374493202957308,0.03888888888888889,-0.7688888888888888,-0.19,-0.13686466256078864,-0.2691937792446292,0.020057446140928158
1592295156.068315,-6.9536856878908475,7.221798962478681,1.622469087549744,0.03888888888888889,-0.7688888888888888,-0.19,-0.15318188158472795,-0.3118353198328386,0.08862097025164598
1592295156.078315,-6.515565015174806,7.252286468802964,1.54928382799259,0.05083406689177057,-0.7651346900879832,-0.19716710680172903,-0.07782631128138968,-0.31360952895186095,0.14539762654026772
1592295156.088315,-6.28,7.28,1.48,0.07777777777777778,-0.7566666666666667,-0.21333333333333335,0.08617563181722002,-0.15489797111449674,0.05999569303730508
1592295156.098315,-6.445871933423874,7.548719334238738,1.3484332649463981,0.07777777777777778,-0.7566666666666667,-0.21333333333333335,-0.05617628807366591,-0.26914537205620515,0.2351290527030534
1592295156.108315,-6.373557262734901,7.408224323366032,1.4855548989481149,0.07777777777777778,-0.7566666666666667,-0.21333333333333335,0.03013036808363636,-0.14204947744320323,0.44064592281457093
1592295156.118315,-6.291625209590154,7.399824203557414,1.5430746227377228,0.07777777777777778,-0.7566666666666667,-0.21333333333333335,-0.00013566796563693057,-0.17751633824446508,0.4347975585308892
1592295156.128315,-6.278378489749665,7.47772947357577,1.592648604100134,0.07410207982784474,-0.7570750775499926,-0.21333333333333335,-0.08398205842952755,-0.22420432685110941,0.3365713597682005
1592295156.138315,-6.330339232006715,7.2645764845771845,1.6193215359865707,0.057777777777777775,-0.7588888888888888,-0.21333333333333335,0.034702945999634575,-0.4355926813551942,0.31410364420486026
1592295156.148315,-6.258825749741469,7.368057394002069,1.7089069286452947,0.057777777777777775,-0.7588888888888888,-0.21333333333333335,0.0541307008921597,-0.3906407731286288,0.33341880219012565
1592295156.158315,-6.181535645562491,7.612120664570329,1.8450091519219036,0.057777777777777775,-0.7588888888888888,-0.21333333333333335,-0.012673183666941385,-0.34732690527408694,0.3455640260717364
1592295156.168315,-6.18565873887924,7.697024421366037,1.814926097898132,0.057777777777777775,-0.7588888888888888,-0.21333333333333335,0.013595773391538973,-0.3259719269216744,0.381844053029407
1592295156.178315,-6.2298003202411225,7.651375467018304,1.5619245863552165,0.05908054517737102,-0.7588888888888888,-0.21444999110441326,0.09925772418353697,-0.24278880770547542,0.43847284280100024
1592295156.188315,-6.180091146500077,7.316552562855241,1.6738586205130832,0.06555555555555556,-0.7588888888888888,-0.22,-0.05693244090238326,-0.2877577140474675,0.6270558001078657
1592295156.198315,-6.3975968572202655,7.40710647520997,1.524418856678407,0.06555555555555556,-0.7588888888888888,-0.22,-0.01898388385631532,-0.2550120619387285,0.7278238132485185
1592295156.208315,-6.2778622209583395,7.482467652495379,1.6073027157685198,0.06555555555555556,-0.7588888888888888,-0.22,-0.01176958798068798,-0.2883022484742951,0.7635528539191725
1592295156.218315,-6.006360537360482,7.378185950186023,1.6448507230174294,0.06555555555555556,-0.7588888888888888,-0.22,-0.0016537692787949518,-0.3200933904135574,0.7644081225088467
1592295156.2283149,-5.8032115624865375,7.750596648429759,1.8566057812432688,0.06097344878588148,-0.7588888888888888,-0.21881752083363248,-0.07412635249356878,-0.3704570923253143,0.7922785316832889
1592295156.2383149,-6.15,7.95,2.03,0.03111111111111111,-0.7588888888888888,-0.2111111111111111,-0.009817477042468103,-0.3392483733563978,0.8726646259971648
1592295156.2483149,-5.561437324691593,7.968755480515236,1.8771253506168133,0.03111111111111111,-0.7588888888888888,-0.2111111111111111,-0.0767300430829699,-0.38375923611068474,0.8645393165071633
1592295156.2583148,-5.4359941290184,7.751678718884991,1.8366086728240376,0.03111111111111111,-0.7588888888888888,-0.2111111111111111,-0.11674526568919016,-0.3226547339060427,0.9782472363101388
1592295156.2683148,-5.341233116160813,7.703830711372424,1.9442429860338648,0.03111111111111111,-0.7588888888888888,-0.2111111111111111,-0.04021906211150435,-0.1977495915448656,1.0288611666659857
1592295156.2783148,-5.8173929082285625,8.04293984792592,1.5452962433185273,0.027525575714990758,-0.759785272737919,-0.210214727262081,-0.03940713456733922,-0.25110139523684943,1.0534581462958688
1592295156.2883148,-5.35,7.74,2.03,0.0044444444444444444,-0.7655555555555555,-0.20444444444444446,0.022907446432425576,-0.13308135546456762,1.0024734891142428
1592295156.2983148,-5.6002973267064675,8.107256124459607,1.9729420933447048,0.0044444444444444444,-0.7655555555555555,-0.20444444444444446,-0.14654631297370874,-0.42528346081993973,1.0764155385584966
1592295156.3083148,-5.265052521008403,8.146677091291062,1.8123061497326203,0.0044444444444444444,-0.7655555555555555,-0.20444444444444446,-0.05493034029896987,-0.47661188026576595,1.0428822487876517
1592295156.3183148,-5.048561213907537,8.173956661754271,1.6242925240616415,0.0044444444444444444,-0.7655555555555555,-0.20444444444444446,0.023064393648334132,-0.4006984280504781,1.1254837473451316
1592295156.3283148,-5.05679923076923,7.942858461538462,1.607493076923077,0.0024606837606837607,-0.7655555555555555,-0.20821358974358975,-0.037234585749854415,-0.28630624388889536,1.2638480402786403
1592295156.3383148,-4.72,7.91,1.78,-0.006666666666666667,-0.7655555555555555,-0.22555555555555556,-0.27379852640661045,-0.23343778745424157,1.1715522604011936
1592295156.3483148,-4.786613620532605,7.773386379467396,1.5803978460054653,-0.006666666666666667,-0.7655555555555555,-0.22555555555555556,-0.03704867673724031,-0.29563632976262405,1.1058284929422615
1592295156.3583148,-4.682688546486667,7.897537566188046,1.7793464675857464,-0.006666666666666667,-0.7655555555555555,-0.22555555555555556,0.04031140881919105,-0.1897058958880277,1.119819989103239
1592295156.3683147,-4.559081545994976,8.035580470881593,2.272149142619663,-0.006666666666666667,-0.7655555555555555,-0.22555555555555556,0.013069135533153562,-0.2550163413042865,1.1630259897214195
1592295156.3783147,-4.673734730101277,7.9908377127344865,2.331489228413323,-0.012476246824209097,-0.7662471722409773,-0.22444896885888083,-0.022408670292779924,-0.421240898997118,1.12484007920779
1592295156.3883147,-4.7,8.7,1.92,-0.05333333333333334,-0.7711111111111111,-0.21666666666666667,0.05781403147231216,-0.3457933580513765,1.0264717663291651
1592295156.3983147,-4.497992735500774,8.594905918780517,2.1628441705370967,-0.05333333333333334,-0.7711111111111111,-0.21666666666666667,0.13039893410931294,-0.2406191225824773,1.148300170159555
1592295156.4083147,-4.201911134519164,8.989884848339758,1.9162603241483325,-0.05333333333333334,-0.7711111111111111,-0.21666666666666667,0.09256607061741975,-0.4450373886419458,1.0225559682074299
1592295156.4183147,-3.9,8.46,1.83,-0.05333333333333334,-0.7711111111111111,-0.21666666666666667,0.0818123086872342,-0.4625122517784973,0.8639379797371932
1592295156.4283147,-3.9882507196656016,8.751087582317915,1.5514184313261565,-0.05459416117880569,-0.7714263180724792,-0.2146178214177741,0.05583867238110974,-0.4456727478320562,0.7929153420478354
1592295156.4383147,-3.55,8.37,1.58,-0.08,-0.7777777777777778,-0.17333333333333334,0.05999569303730508,-0.32615840396644036,0.8344855486097889
1592295156.4483147,-4.011548776978417,8.896584172661871,1.7765346762589929,-0.08,-0.7777777777777778,-0.17333333333333334,-0.009072259120843189,-0.20340136162532463,0.8447450710933826
1592295156.4583147,-4.4,8.63,1.35,-0.08,-0.7777777777777778,-0.17333333333333334,0.04908738521234052,-0.33052172709642613,0.7624907169650227
1592295156.4683146,-4.586390449438202,8.671011235955056,1.3739466292134832,-0.08,-0.7777777777777778,-0.17333333333333334,0.13984542555546914,-0.2759709955773688,0.9103672309500513
1592295156.4783146,-4.382430243024303,9.060351395139515,1.69,-0.08210837083708371,-0.7780510851085108,-0.17427038703870387,-0.059759264547273434,-0.4312439163166092,1.0196649036987162
1592295156.4883146,-3.869410180447078,8.978230541341233,1.7477807702666308,-0.14,-0.7855555555555556,-0.2,0.044295133199390824,-0.4975627924023923,1.07221938199251
1592295156.4983146,-3.5894767629198165,8.790682116743092,1.6146290742347256,-0.14,-0.7855555555555556,-0.2,-0.019237636986193227,-0.5070145246699035,0.9057630194336056
1592295156.5083146,-3.309268514094601,9.019772097467749,1.3197720974677498,-0.14,-0.7855555555555556,-0.2,-0.0643590161672909,-0.3736468334696743,0.7440375136004742
1592295156.5183146,-3.72,9.51,1.81,-0.14,-0.7855555555555556,-0.2,-0.0643590161672909,-0.29343348049154666,0.643590161672909
1592295156.5283146,-3.4116911854848597,9.002782272894446,1.7901091087409586,-0.14,-0.7855555555555556,-0.2,-0.012284784623326217,-0.2229162919424278,0.5318475398181515
1592295156.5383146,-3.05,9.07,2.51,-0.17222222222222222,-0.7644444444444445,-0.18666666666666668,-0.19416787928436915,-0.24216443371421323,0.6806784082777886
1592295156.5483146,-3.2637936663401894,8.640020676896288,2.043134182174339,-0.17222222222222222,-0.7644444444444445,-0.18666666666666668,-0.07291471930757652,-0.509984699351804,0.4900168810254792
1592295156.5583146,-3.316195201282172,8.91404779862355,2.3393386442915056,-0.17222222222222222,-0.7644444444444445,-0.18666666666666668,-0.02335855694693681,-0.4372245327743195,0.3821606145640163
1592295156.5683146,-3.749644482672114,9.159459197935705,2.169644482672114,-0.17222222222222222,-0.7644444444444445,-0.18666666666666668,0.05321254968100073,-0.46011373760444774,0.3262381550611718
1592295156.5783145,-3.080733075296563,8.776150413933985,1.500733075296563,-0.17222222222222222,-0.7644444444444445,-0.18666666666666668,0.0663301973920709,-0.3518931439881189,0.2918043298196127
1592295156.5883145,-3.39046429391504,9.012209414466131,1.1897086107921928,-0.18444444444444444,-0.7644444444444445,-0.18444444444444444,-0.08982256341539915,-0.22593505082745302,0.39165889752569283
1592295156.5983145,-3.55789481466877,8.95885449526814,1.4611455047318611,-0.18444444444444444,-0.7644444444444445,-0.18444444444444444,0.004596350565481666,-0.2796613117242077,0.42299243324402297
1592295156.6083145,-3.3705656479304693,9.05338652608582,1.6254242359478521,-0.18444444444444444,-0.7644444444444445,-0.18444444444444444,-0.02099948337964699,-0.3433656890312919,0.47775699469107796
1592295156.6183145,-3.7542701525054465,9.237276688453159,2.015925925925926,-0.18444444444444444,-0.7644444444444445,-0.18444444444444444,-0.08288293889968443,-0.41140243302388124,0.5969375392855524
1592295156.6283145,-3.6344287295974853,8.892732597592772,2.270588949605343,-0.18444444444444444,-0.7644444444444445,-0.18444444444444444,-0.15233150524796746,-0.43754777564911723,0.5209526372809604
1592295156.6383145,-3.04,8.62,1.67,-0.20555555555555555,-0.7766666666666666,-0.18222222222222223,0.042542400517361786,-0.41015237421866746,0.6806784082777886
1592295156.6483145,-3.2714779754800913,8.660891016599761,2.273490560920039,-0.20555555555555555,-0.7766666666666666,-0.18222222222222223,-0.02835473605225463,-0.4398506476204496,0.6827514542465314
1592295156.6583145,-3.063371652981078,9.132540521242413,2.1577365226704748,-0.20555555555555555,-0.7766666666666666,-0.18222222222222223,0.04475942353721034,-0.44186170736346675,0.8162613140630587
1592295156.6683145,-2.850972224687195,9.075148637856065,2.1063815777797497,-0.20555555555555555,-0.7766666666666666,-0.18222222222222223,0.13134835843741047,-0.2464541313323376,0.814506918456863
1592295156.6783144,-2.4266664300292837,8.665730765817731,2.3073685331440235,-0.20555555555555555,-0.7766666666666666,-0.18222222222222223,0.2612699926842792,-0.2034175899880623,0.9143841747841432
1592295156.6883144,-2.8,9.24,2.38,-0.23222222222222222,-0.7566666666666667,-0.17555555555555555,0.1287180323345818,-0.29779680362153244,1.2555462306534209
1592295156.6983144,-2.5190301743208563,8.630702592690913,2.2917384892192434,-0.23222222222222222,-0.7566666666666667,-0.17555555555555555,0.17911519955718294,-0.40486968115743505,1.1907129542220236
1592295156.7083144,-2.6095781927309103,9.129208307531082,1.3653277282903824,-0.23222222222222222,-0.7566666666666667,-0.17555555555555555,0.2587774804775539,-0.388422118820275,1.2079382973554917
1592295156.7183144,-2.403024226934015,9.170125634472083,2.150038878289355,-0.23222222222222222,-0.7566666666666667,-0.17555555555555555,0.17868545673719297,-0.36188498714881195,1.1916962479082653
1592295156.7283144,-2.206739623456568,9.087082148385472,1.523438028726736,-0.23222222222222222,-0.7566666666666667,-0.17555555555555555,0.18692058318347413,-0.2787102100413722,1.2485186203876053
1592295156.7383144,-2.15,9.15,1.41,-0.26222222222222225,-0.7566666666666667,-0.14555555555555555,0.3392483733563978,-0.26725354171163174,1.0373800741541295
1592295156.7483144,-2.018745555397525,9.067491110795052,1.5895406058882093,-0.26222222222222225,-0.7566666666666667,-0.14555555555555555,0.14811980214045498,-0.3335571565174961,1.0527249339711675
1592295156.7583144,-2.021778418706648,9.247157771792244,1.73654756513241,-0.26222222222222225,-0.7566666666666667,-0.14555555555555555,0.1275435555046682,-0.33680703722642047,1.0588980393531313
1592295156.7683144,-1.6831604329653842,9.265753938484622,1.8822285928625013,-0.26222222222222225,-0.7566666666666667,-0.14555555555555555,0.24843276520516472,-0.22086757303791815,0.990073019237217
1592295156.7783144,-1.6531936555567461,9.685288822205552,1.9796206194405745,-0.26222222222222225,-0.7566666666666667,-0.14555555555555555,0.29501413883579,-0.1849100214634004,0.9835352825873048
1592295156.7883143,-1.2390047607229078,9.114781480562261,1.8838597955822296,-0.3088888888888889,-0.7288888888888889,-0.15777777777777777,0.16098463016628944,-0.32296284889532295,0.9760419659328328
1592295156.7983143,-1.289009246034729,9.16125385251447,1.408018492069458,-0.3088888888888889,-0.7288888888888889,-0.15777777777777777,0.3431894843764029,-0.21213620661938126,1.0029445725424504
1592295156.8083143,-1.0902671594011863,9.136975802655117,1.350050371904717,-0.3088888888888889,-0.7288888888888889,-0.15777777777777777,0.20031919536158035,-0.2056238106600607,0.9279352172177932
1592295156.8183143,-0.779646976013861,9.290235168841482,1.8822352771310484,-0.3088888888888889,-0.7288888888888889,-0.15777777777777777,0.20773271355554768,-0.05848136231865829,0.9468411192069237
1592295156.8283143,-1.074876279170502,9.736864114642554,1.9427951341888208,-0.3088888888888889,-0.7288888888888889,-0.15777777777777777,0.09130098314341406,-0.061784390131768466,0.9468411192069237
1592295156.8383143,-1.11,9.39,2.24,-0.3422222222222222,-0.7411111111111112,-0.1288888888888889,0.10581058590215622,-0.1265363707695889,1.028653427894158
1592295156.8483143,-1.0744792095512556,8.888619802387815,1.160472931247427,-0.3422222222222222,-0.7411111111111112,-0.1288888888888889,0.052272754804867226,-0.2063266119590717,0.9614603399439773
1592295156.8583143,-0.826460534249089,8.91436128660183,2.0289585026345454,-0.3422222222222222,-0.7411111111111112,-0.1288888888888889,0.1240999809006539,0.007637588395621172,0.953519244335575
1592295156.8683143,-0.6684323167469235,9.56933493846977,1.9673476012127697,-0.3422222222222222,-0.7411111111111112,-0.1288888888888889,0.3932319681970898,-0.07257263928236453,1.1131267450279605
1592295156.8783143,-0.4440181915462814,9.18783092562868,1.6830897092919563,-0.3422222222222222,-0.7411111111111112,-0.1288888888888889,0.49033510972945316,0.0008667114563976619,1.0568232427949094
1592295156.8883142,-0.7888129488355444,10.549452336741314,1.9088583637217835,-0.38222222222222224,-0.7155555555555555,-0.13666666666666666,0.17771070593666552,-0.02862557753845277,0.9699178312226374
1592295156.8983142,-1.1572511634889655,11.556136215783415,1.5061957664014414,-0.38222222222222224,-0.7155555555555555,-0.13666666666666666,-0.11589821865410613,0.02972722681169031,0.5839751103333645
1592295156.9083142,0.9647297832211796,10.371442242764337,1.2874384706731554,-0.38222222222222224,-0.7155555555555555,-0.13666666666666666,-0.07930761673847082,0.07791783426412201,0.3319038389326323
1592295156.9183142,1.1694913137893594,9.168904994571118,2.3919039087947884,-0.38222222222222224,-0.7155555555555555,-0.13666666666666666,-0.001974747191809274,0.22860437666131017,0.22329856862885797
1592295156.9283142,-0.09805863192182418,9.722983713355049,1.913726384364821,-0.38222222222222224,-0.7155555555555555,-0.13666666666666666,-0.023501540591492048,0.16402399646226187,0.12146027677651253
1592295156.9383142,-0.47,9.21,2.27,-0.4011111111111111,-0.7022222222222222,-0.10777777777777778,0.09272061651219875,0.13308135546456762,0.07744898555724837
1592295156.9483142,-0.10166799648926828,9.827204978855821,1.6826597781855899,-0.4011111111111111,-0.7022222222222222,-0.10777777777777778,0.2067415035361187,0.24710224248848756,0.10568272901079045
1592295156.9583142,-0.2679934751029933,9.700783940180505,1.4651096611339984,-0.4011111111111111,-0.7022222222222222,-0.10777777777777778,0.1789440970256624,0.3146413111006693,0.03916758677220486
1592295156.9683142,-0.11547029392249342,9.836324265193767,1.4427640191524846,-0.4011111111111111,-0.7022222222222222,-0.10777777777777778,0.1636246173744684,0.24861311512668868,0.219204776544229
1592295156.9783142,-0.16060021878306405,9.72349945304234,1.5480671771604828,-0.4011111111111111,-0.7022222222222222,-0.10777777777777778,0.1636246173744684,0.25681796700163245,0.3537643472933065
1592295156.9883142,-0.2655270444895699,9.727915820564888,1.6628336717740446,-0.41333333333333333,-0.7066666666666667,-0.09888888888888889,0.21588743374966407,0.3055091403649018,0.3310734856978735
1592295156.9983141,-0.3842537162390087,9.869358175725818,1.5912836485483617,-0.41333333333333333,-0.7066666666666667,-0.09888888888888889,0.23051371235108614,0.1972270479427275,0.2944054328704634
1592295157.0083141,-0.42489505318895193,9.969099127033346,1.386696799122263,-0.41333333333333333,-0.7066666666666667,-0.09888888888888889,0.22439660955925583,0.3202097258760515,0.37832491572997407
1592295157.0183141,-0.2602254815338399,9.939774518466159,1.2824802968722389,-0.41333333333333333,-0.7066666666666667,-0.09888888888888889,0.2833540421425911,0.19907231924994856,0.4791366748224316
1592295157.028314,-0.26763721505566357,9.932362784944337,1.364009365612299,-0.41333333333333333,-0.7066666666666667,-0.09888888888888889,0.2388868332176275,0.21685920281993395,0.5236038837473952
1592295157.038314,-0.16731350560702096,9.97811555338859,1.4126864943929789,-0.41888888888888887,-0.7,-0.10111111111111111,0.22902553383571858,0.22804054182734054,0.6779877632613821
1592295157.048314,-0.24204727169174825,9.861023635845873,1.3440945433834965,-0.41888888888888887,-0.7,-0.10111111111111111,0.1329867551476435,0.14322509487816026,0.5080441083326724
1592295157.058314,-0.26,9.873668765593441,1.374038255910657,-0.41888888888888887,-0.7,-0.10111111111111111,0.058858984377060754,0.05794466678522133,0.7696721600148596
1592295157.068314,-0.26044908055803123,10.028952145364594,1.1246404990996564,-0.41888888888888887,-0.7,-0.10111111111111111,0.19407980569548064,-0.02912585052972353,0.6124981411864192
1592295157.078314,-0.2833358191309409,9.975549755361138,1.3611367976863893,-0.41888888888888887,-0.7,-0.10111111111111111,0.07840604924438858,-0.01248214456553762,0.6957166710073488
1592295157.088314,-0.09293507294020957,10.021844051777276,1.1676104376412573,-0.4266666666666667,-0.6877777777777778,-0.08444444444444445,0.0034510102678218997,-0.07112359023131647,0.785587999779773
1592295157.098314,-0.13,9.54,1.39,-0.4266666666666667,-0.6877777777777778,-0.08444444444444445,0.08835729338221293,-0.10144726277217041,0.8017606251348951
1592295157.108314,0.4383329427388486,10.108332942738848,0.8608624326224513,-0.4266666666666667,-0.6877777777777778,-0.08444444444444445,-0.012118183260468401,-0.020211771018513153,1.0155382350129405
1592295157.118314,0.46316577163482703,9.401065234615723,0.6436924025002201,-0.4266666666666667,-0.6877777777777778,-0.08444444444444445,0.07227618704810777,-0.1598357594034661,0.8516555266676736
1592295157.128314,0.6477902984417643,9.696464477506822,0.8357019103794348,-0.4266666666666667,-0.6877777777777778,-0.08444444444444445,-0.061449506669672124,-0.16789152408526006,0.9394633616992281
1592295157.138314,0.7,9.55,1.46,-0.4388888888888889,-0.6944444444444444,-0.07777777777777778,-0.10799224746714915,-0.18980455615438332,0.8573929950422143
1592295157.148314,0.8087300893743793,9.742368619662363,1.133809731876862,-0.4388888888888889,-0.6944444444444444,-0.07777777777777778,0.1666265576899455,-0.0775849115220822,0.9769114783497871
1592295157.158314,0.5779884935009589,9.851351658498473,1.1386483415015272,-0.4388888888888889,-0.6944444444444444,-0.07777777777777778,0.0018161918014418237,-0.19257041149024232,0.8630644783349725
1592295157.168314,0.8281996463591063,9.45675132615335,1.5156952258479344,-0.4388888888888889,-0.6944444444444444,-0.07777777777777778,0.05142896281553256,-0.13923356392537306,0.8901796404967639
1592295157.178314,0.798234474628945,9.569120720141456,1.111165407490757,-0.4388888888888889,-0.6944444444444444,-0.07777777777777778,0.19933732887592015,-0.13269617758016256,1.036453659970849
1592295157.188314,1.04,9.94,1.27,-0.46555555555555556,-0.6533333333333333,-0.09888888888888889,-0.025089107997418484,-0.24216443371421323,0.9642944117268671
1592295157.198314,1.0981640462208753,9.715652964576623,1.1370536086379996,-0.46555555555555556,-0.6533333333333333,-0.09888888888888889,-0.08672346484820213,-0.21497280569180865,0.9833285513425503
1592295157.208314,1.2245807286053028,9.423969964791262,1.1532815980455557,-0.46555555555555556,-0.6533333333333333,-0.09888888888888889,-0.2142522710144038,-0.28802055507598134,1.0085515571625787
1592295157.218314,1.37,9.55,0.94,-0.46555555555555556,-0.6533333333333333,-0.09888888888888889,-0.15926129424448257,-0.1854412330243975,0.8552113334772213
1592295157.228314,1.432321093383388,9.556232109338339,1.0521779680900987,-0.46555555555555556,-0.6533333333333333,-0.09888888888888889,-0.14294567014973794,-0.2099146691665144,0.9163949238325136
1592295157.238314,1.6,9.83,1.09,-0.5044444444444445,-0.6411111111111111,-0.06333333333333334,-0.1265363707695889,-0.21162117180431245,0.7646723785300156
1592295157.248314,1.5407952524549602,9.330988556406092,1.1830360318564912,-0.5044444444444445,-0.6411111111111111,-0.06333333333333334,-0.06287661483598599,-0.22453764402272464,0.719464725765573
1592295157.258314,1.8689349028506597,9.66553254857467,0.9369493688838463,-0.5044444444444445,-0.6411111111111111,-0.06333333333333334,-0.1643871623931785,-0.24885716247347847,0.9033590354995346
1592295157.268314,2.218276498521638,9.489507571006182,1.2138163247020877,-0.5044444444444445,-0.6411111111111111,-0.06333333333333334,-0.022074853540217817,-0.042281074171493224,0.8253632868277861
1592295157.2783139,2.1130525938535976,9.459443598243885,1.4468121136098917,-0.5044444444444445,-0.6411111111111111,-0.06333333333333334,0.028756942206317953,-0.15952215145785797,0.9344056873808386
1592295157.2883139,2.06,9.63,1.71,-0.5244444444444445,-0.6133333333333333,-0.04888888888888889,0.03381575425739013,0.03381575425739013,0.8573929950422143
1592295157.2983139,2.111563580339696,9.423745678641215,1.422717195250263,-0.5244444444444445,-0.6133333333333333,-0.04888888888888889,0.08363465029734346,-0.05939379317219993,0.8389117916725543
1592295157.3083138,2.1898527840436897,9.909743559301912,1.2400474890181645,-0.5244444444444445,-0.6133333333333333,-0.04888888888888889,0.15265466459491897,0.04901175358738766,0.6806291959190863
1592295157.3183138,1.8811188412679567,9.371948949305473,1.3396390834619496,-0.5244444444444445,-0.6133333333333333,-0.04888888888888889,0.02337594808727053,-0.10959910868250033,0.5774234978667621
1592295157.3283138,2.070836538630416,9.325960798777597,0.9656667896095685,-0.5244444444444445,-0.6133333333333333,-0.04888888888888889,-0.0187266277202008,-0.09736342467748778,0.7211674329304858
1592295157.3383138,2.16,9.2,0.8,-0.5455555555555556,-0.5811111111111111,-0.042222222222222223,0.014180800172453926,-0.044724062082354694,0.8410305333047675
1592295157.3483138,2.16,9.511983214174696,1.4083672676406591,-0.5455555555555556,-0.5811111111111111,-0.042222222222222223,0.11202305709508784,0.00632407196423692,0.8588973802210746
1592295157.3583138,2.228687961485408,9.511686906661618,0.8931203851459173,-0.5455555555555556,-0.5811111111111111,-0.042222222222222223,0.003687458267371768,0.0035996265188122448,0.9559910808610279
1592295157.3683138,2.2690736004546745,9.050885194657573,1.280504404660415,-0.5455555555555556,-0.5811111111111111,-0.042222222222222223,-0.06284319845589344,0.08212446174150356,1.0738962468149633
1592295157.3783138,2.534465685131718,9.069385076125746,1.503041801911662,-0.5455555555555556,-0.5811111111111111,-0.042222222222222223,0.009365518675830756,0.04552899555146798,1.0221579348312597
1592295157.3883138,2.92,9.02,1.31,-0.5511111111111111,-0.56,-0.027777777777777776,0.27598018797160334,0.05563236990731925,0.9053895494720584
1592295157.3983138,2.54276299112801,9.574307441607822,1.6179485786710122,-0.5511111111111111,-0.56,-0.027777777777777776,0.25246580273877733,0.04723437518130996,0.9540979188829123
1592295157.4083138,2.84220881370542,9.155238659627196,1.2690324318500161,-0.5511111111111111,-0.56,-0.027777777777777776,0.2788992563170491,0.15661372887366962,0.804483177041559
1592295157.4183137,2.8134148815974545,9.44677880513731,1.4549745209712006,-0.5511111111111111,-0.56,-0.027777777777777776,0.17159624141974802,0.21632475546199348,0.7770707095410138
1592295157.4283137,2.8169580350927297,9.059475929528944,1.3308392981454045,-0.5511111111111111,-0.56,-0.027777777777777776,0.2827882275524598,0.12243631670784529,0.870456172165483
1592295157.4383137,2.9653648569760658,9.122274761626777,1.657639618602841,-0.5834144126613479,-0.540618019069858,-0.021317117467730427,0.41416928056775537,0.11345858540121448,0.7734514118374907
1592295157.4483137,2.844678997659158,9.317981503511263,1.558603553474807,-0.5844444444444444,-0.54,-0.021111111111111112,0.30657468657047054,0.2406087053274186,0.7348596998983262
1592295157.4583137,2.6612422293096922,9.731091410346504,1.3904392129304286,-0.5844444444444444,-0.54,-0.021111111111111112,0.0839639560423622,0.16017837872173948,0.6998836107684313
1592295157.4683137,2.9095167427701676,8.749738394216134,0.5087652207001522,-0.5844444444444444,-0.54,-0.021111111111111112,0.25273009282877035,0.18677218770631338,0.653646309834074
1592295157.4783137,3.013944493439643,9.208643832904375,0.6498612335991073,-0.5844444444444444,-0.54,-0.021111111111111112,0.20086584454948186,0.14554609137961677,0.7951197723541921
1592295157.4883137,3.23,9.16,1.04,-0.5988888888888889,-0.5066666666666667,-0.042222222222222223,0.20507618710933373,0.20289452554434081,0.6654067773228381
1592295157.4983137,3.268295930011411,9.038729554963865,0.6698060098896919,-0.5988888888888889,-0.5066666666666667,-0.042222222222222223,0.16608676642860834,0.16669006348366727,0.7002187600734857
1592295157.5083137,3.525948963317384,9.23317384370016,1.140622009569378,-0.5988888888888889,-0.5066666666666667,-0.042222222222222223,-0.08666276518101426,0.05212848921202762,0.4526686783058259
1592295157.5183136,3.4577545660737736,9.379919064104095,1.7634726035573594,-0.5988888888888889,-0.5066666666666667,-0.042222222222222223,-0.001499817450953525,0.10895434537253255,0.6991217173040185
1592295157.5283136,3.2797474480816615,9.376379795846532,1.1357998944033791,-0.5988888888888889,-0.5066666666666667,-0.042222222222222223,0.053693563136387956,0.12568023562799385,0.6775579641491899
1592295157.5383136,3.5249505899705014,9.194351032448377,1.2766873156342182,-0.6096229924614881,-0.48910176991150445,-0.004164945919370701,0.06760319196349422,0.14431192494990688,0.4650768303438356
1592295157.5483136,3.34860982428115,9.035005990415335,0.9620167731629393,-0.6111111111111112,-0.4866666666666667,0.0011111111111111111,0.14134653325493124,0.09257027877136828,0.4149530751863635
1592295157.5583136,3.0898319255052327,8.937542018623692,0.39441173926831374,-0.6111111111111112,-0.4866666666666667,0.0011111111111111111,0.005111529835009482,-0.035376384130604004,0.37765890675205277
1592295157.5683136,3.981734432755189,9.511396076201308,0.8688996303667899,-0.6111111111111112,-0.4866666666666667,0.0011111111111111111,0.041369997799751146,0.03490193264815004,0.27103841746903984
1592295157.5783136,3.554555170829947,8.912346571034872,0.5730367805532983,-0.6111111111111112,-0.4866666666666667,0.0011111111111111111,0.07793082728578495,0.05337709470438802,0.15613267609093234
1592295157.5883136,3.3749194961207976,9.167992825561024,0.7506940852590307,-0.6111111111111112,-0.4729560727825515,0.006384416451155419,0.14138493737917962,0.12097410749115968,0.09327481351440142
1592295157.5983136,3.7648638879475884,8.82796490831733,0.5390816672314469,-0.6111111111111112,-0.4722222222222222,0.006666666666666667,0.04952985367952055,0.0354925179418443,0.028348005518709335
1592295157.6083136,3.7462705935756055,8.559403487223305,0.4792531574590798,-0.6111111111111112,-0.4722222222222222,0.006666666666666667,0.07415957049248496,0.05003115437776868,0.022581574899100156
1592295157.6183136,3.6749491976070647,8.970609628715222,0.6214405089735068,-0.6111111111111112,-0.4722222222222222,0.006666666666666667,0.015441817544603942,0.12021502140453226,0.06741698847389621
1592295157.6283135,3.5601825755914773,9.154459747662992,0.7278539395268183,-0.6111111111111112,-0.4722222222222222,0.006666666666666667,0.1436145223850018,0.0752108376082303,-0.07625531389852444
1592295157.6383135,3.553800361685097,9.402802170110581,0.8360508137914677,-0.6054777174969284,-0.46189433392955376,0.019811251766426532,-0.020602637506852012,0.2233930310918783,0.07834025164380384
1592295157.6483135,3.428828152911754,8.906567821841133,0.6663594140764559,-0.6044444444444445,-0.46,0.022222222222222223,0.14318683677579774,0.06528967136864908,-0.02827521205499957
1592295157.6583135,3.3661738013011004,8.999826519958237,0.7331306722351618,-0.6044444444444445,-0.46,0.022222222222222223,0.13828879991728682,-0.01560376006076069,-0.09510159058463519
1592295157.6683135,3.4857346262755784,9.18098279638831,0.7280344072233798,-0.6044444444444445,-0.46,0.022222222222222223,0.1539850989682322,-0.047478210198422174,-0.19924519332723437
1592295157.6783135,3.545715747168433,9.19,0.7614314943368652,-0.6044444444444445,-0.46,0.022222222222222223,0.14258597091980163,-0.02228283919737682,-0.23414019160881655
1592295157.6883135,3.596417002731885,9.088032392350723,0.746299596721738,-0.6182019788098232,-0.4494795325441221,0.021412955494847,0.0776684785340698,0.05533117459889611,-0.22398554076515587
1592295157.6983135,3.6651068716602606,9.325534358301304,0.8874482047436019,-0.6233333333333333,-0.44555555555555554,0.021111111111111112,0.018311681344193337,0.06932568621925377,-0.36197144105995477
1592295157.7083135,3.440109489051095,9.197592381386862,0.9899726277372263,-0.6233333333333333,-0.44555555555555554,0.021111111111111112,0.09513505001994381,0.08289567484302561,-0.46357471697951463
1592295157.7183135,3.6831571208348155,8.865598719316969,0.6868428791651844,-0.6233333333333333,-0.44555555555555554,0.021111111111111112,0.037028433945822656,0.048299368951582974,-0.33931918098954594
1592295157.7283134,3.793388952200744,9.047664007568752,0.814608768572473,-0.6233333333333333,-0.44555555555555554,0.021111111111111112,0.13886754112618488,0.012181150925438363,-0.299869257795739
1592295157.7383134,3.7103662023237423,8.672380315104324,0.9957436583733804,-0.6082913937722625,-0.44555555555555554,0.03792269062054329,0.20378316876103236,-0.01107054891403347,-0.3499569487976824
1592295157.7483134,3.755147240979742,8.610576177728053,0.9285659487753226,-0.6044444444444445,-0.44555555555555554,0.042222222222222223,0.294094115892126,-0.046159877307391586,-0.4498957588255982
1592295157.7583134,3.730641569321227,9.138214741004761,1.2805996825974972,-0.6044444444444445,-0.44555555555555554,0.042222222222222223,0.21679388416646517,-0.015951693864151482,-0.37060102449846544
1592295157.7683134,3.701898568331785,8.846826984921032,1.3413914099907096,-0.6044444444444445,-0.44555555555555554,0.042222222222222223,0.13429558974371897,0.10584039087386882,-0.3791268278493195
1592295157.7783134,3.6591654313073443,9.348907007492288,1.0509637806001844,-0.6044444444444445,-0.44555555555555554,0.042222222222222223,0.10282530035330363,0.08709848278832479,-0.47440787531290485
1592295157.7883134,3.291490217356612,9.049150362261019,1.1606377070632918,-0.6007565102365778,-0.462151259490955,0.03669032091042241,0.08366906415723312,0.05205819396433878,-0.45675651871954714
1592295157.7983134,3.2146345811051695,8.983654188948305,0.8666131907308378,-0.6,-0.46555555555555556,0.035555555555555556,0.24393387402093653,0.12927025326547126,-0.4204773500743825
1592295157.8083134,3.349787381557661,8.874680687158154,0.18170171789538553,-0.6,-0.46555555555555556,0.035555555555555556,0.2128510769990292,-0.036125313861899266,-0.5491870388879159
1592295157.8183134,3.2085124261197753,9.366571957558927,0.7643872391939044,-0.6,-0.46555555555555556,0.035555555555555556,0.1928900777909513,0.04786287075992478,-0.5923211148955756
1592295157.8283134,3.068519834438299,9.316875206036409,0.7433225889161569,-0.6,-0.46555555555555556,0.035555555555555556,0.2073654893515196,0.09648827994820058,-0.6259538320548881
1592295157.8383133,2.796486421388571,9.350021075450112,0.7931811886553863,-0.5952044318660806,-0.46555555555555556,0.05074152131296709,0.2446726810954627,0.05115107651868565,-0.7041414841188453
1592295157.8483133,2.7364775021632535,9.431591673877511,0.7582975194692818,-0.5933333333333334,-0.46555555555555556,0.056666666666666664,0.1429742918617138,-0.07365488500893735,-0.5798893828576653
1592295157.8583133,2.6830517769389646,9.519545853809083,0.7234741115305178,-0.5933333333333334,-0.46555555555555556,0.056666666666666664,0.12857288344832268,-0.12107874674992397,-0.6151686113419726
1592295157.8683133,2.695333620655879,9.44504642871136,0.6467609607021119,-0.5933333333333334,-0.46555555555555556,0.056666666666666664,0.15676823538758553,-0.1000860215222189,-0.6873694325756271
1592295157.8783133,2.540571990306799,9.218941292121988,0.4413447030314115,-0.5933333333333334,-0.46555555555555556,0.056666666666666664,0.10703550742393034,-0.21468787713664106,-0.8016982306715006
1592295157.8883133,2.6959861305509607,9.068569792594477,0.3089273444458583,-0.5823708840536681,-0.4613392289095305,0.06847238127553688,0.029296419701074494,-0.1751834123431115,-0.7623925852226604
1592295157.8983133,2.713130614226754,9.12947802864773,0.3252172857489682,-0.5788888888888889,-0.46,0.07222222222222222,0.08082568812879998,-0.11913770969020197,-0.8185307911669895
1592295157.9083133,2.2607285605868963,9.436821148494815,0.3512582848469517,-0.5788888888888889,-0.46,0.07222222222222222,0.05978260436281892,-0.19090620418116863,-0.7923513334942658
1592295157.9183133,2.1568950985321935,9.355040586164787,0.43592725618370326,-0.5788888888888889,-0.46,0.07222222222222222,-0.02481631541325564,-0.22413933199736324,-0.7955146570526602
1592295157.9283133,2.1269839028523014,9.54580626941542,0.5314515673538548,-0.5788888888888889,-0.46,0.07222222222222222,-0.05661938539083201,-0.18482635071943762,-0.8649548767756062
1592295157.9383132,1.8545878770016702,9.581072469463274,0.5384409077512526,-0.5455930692456874,-0.4794902358887033,0.08927617862483764,0.07827226148625896,-0.026337006695906592,-0.8895578751268608
1592295157.9483132,1.5863173700015805,9.626936936936938,0.7186233602023075,-0.5333333333333333,-0.4866666666666667,0.09555555555555556,0.10471182431264305,-0.06774581558113008,-0.8851380613459957
1592295157.9583132,1.4959538168135664,9.547097314571413,0.9140296891912788,-0.5333333333333333,-0.4866666666666667,0.09555555555555556,0.08311482844947907,-0.1370141037720001,-0.9859880903371628
1592295157.9683132,1.6015829593217925,9.715327349148678,0.601004488138491,-0.5333333333333333,-0.4866666666666667,0.09555555555555556,0.07920670714013835,-0.27799863031215344,-0.9774546578595501
1592295157.9783132,1.4665048620758088,9.742378646556856,0.4880420718396507,-0.5333333333333333,-0.4866666666666667,0.09555555555555556,0.09656499946520491,-0.2451059750594639,-1.0288625885812086
1592295157.9883132,1.4030130645308645,9.51153729025185,0.7044888388098791,-0.5201281075209875,-0.4866666666666667,0.10509266308669421,0.1109151039165426,-0.17173583801466574,-0.9779360916152167
1592295157.9983132,1.3608097229895035,9.537282377081524,0.8052024307473759,-0.5133333333333333,-0.4866666666666667,0.11,0.09483934718760087,-0.17387710096290404,-0.9693383957030219
1592295158.0083132,1.1047138327181993,9.63222955762333,0.7192358475853823,-0.5133333333333333,-0.4866666666666667,0.11,0.07019530391785832,-0.15521767293659558,-1.089670318184776
1592295158.0183132,0.7826817854571635,9.582933765298776,0.7182649388048956,-0.5133333333333333,-0.4866666666666667,0.11,0.10867352587162407,-0.17200021873899302,-1.0554769489823925
1592295158.0283132,0.7154559554583416,9.668639888645854,0.7359093259097236,-0.5133333333333333,-0.4866666666666667,0.11,0.06053857060390522,-0.061031993126081194,-1.0727345743989982
1592295158.0383132,0.5149703254626675,9.736819081046587,0.6240756222080408,-0.4807532794440899,-0.5048508827908955,0.12060745940580019,0.12719556809536106,0.01467525907788292,-1.1166160173493285
1592295158.0483131,0.34658253033199393,9.750569578278,0.6087551203526703,-0.46555555555555556,-0.5133333333333333,0.12555555555555556,0.1765903240606889,-0.004018068569911165,-1.1404658172753688
1592295158.0583131,0.2695068336537962,9.69757080496804,0.6470776386218365,-0.46555555555555556,-0.5133333333333333,0.12555555555555556,0.12566472084353492,0.07756749003943975,-1.1801713144548993
1592295158.0683131,0.30382757544474587,9.680741363167119,0.6783965140566105,-0.46555555555555556,-0.5133333333333333,0.12555555555555556,0.11577663046747029,-0.0019163717700996508,-1.1680503303544882
1592295158.078313,0.31,9.655147375988498,0.7638964773544212,-0.46555555555555556,-0.5133333333333333,0.12555555555555556,0.11013391451747108,-0.062177354602297986,-1.0814391294043082
1592295158.088313,0.21631147540983608,9.667475409836065,0.7600327868852459,-0.4620856102003643,-0.5223551912568306,0.13457741347905283,0.16344758090321077,0.052966093355348416,-1.1080927325676664
1592295158.098313,0.12707345448710233,9.69,0.7280631443815943,-0.46,-0.5277777777777778,0.14,0.2195166213746408,0.12069410042873734,-1.1713502595630663
1592295158.108313,-0.028372771111360322,9.69,0.603639116294718,-0.46,-0.5277777777777778,0.14,0.23566789232862873,0.13391076364056023,-1.212309965361099
1592295158.118313,-0.10726389819156062,9.696726389819155,0.48964166108506363,-0.46,-0.5277777777777778,0.14,0.2733917480823272,0.20193520818505223,-1.1807976540527076
1592295158.128313,-0.15835826620636748,9.725033999372318,0.4483038672106566,-0.46,-0.5277777777777778,0.14,0.3219919682420479,0.21378206433463498,-1.1730116464527771
1592295158.138313,-0.33863212333475173,9.826364767110732,0.35181761644463355,-0.4357082328638088,-0.5389388599754873,0.1544437534323299,0.29943678099284093,0.19158696172743245,-1.1937654184448383
1592295158.148313,-0.4166118473574964,9.832149129809995,0.3563084783650008,-0.41888888888888887,-0.5466666666666666,0.16444444444444445,0.2599334976230542,0.23732945646335876,-1.1403830291743056
1592295158.158313,-0.6298983168598226,9.919637161714087,0.3089114851422617,-0.41888888888888887,-0.5466666666666666,0.16444444444444445,0.3194551012029248,0.30771083539552985,-0.9045757753095014
1592295158.168313,-0.6961810006696643,9.897236200133934,0.3119094996651679,-0.41888888888888887,-0.5466666666666666,0.16444444444444445,0.3055038940846046,0.3392483733563978,-0.798460895933466
1592295158.178313,-0.6656213560192146,9.900118440834587,0.3142602031461993,-0.41888888888888887,-0.5466666666666666,0.16444444444444445,0.2875919298525608,0.32808822765945944,-0.7298367528905232
1592295158.188313,-0.6750057541183047,9.95083812843192,0.20166474862723177,-0.39491135004402356,-0.5706442055115319,0.1728689851196674,0.13572642194554563,0.23362063871288646,-0.770387000437845
1592295158.198313,-0.6669211773608954,9.945619548333134,0.16964950013940336,-0.37777777777777777,-0.5877777777777777,0.17888888888888888,0.10688095301720711,0.23021034993295403,-0.8221573837739514
1592295158.208313,-0.8750464430724734,10.083545803437344,-0.15031870515601536,-0.37777777777777777,-0.5877777777777777,0.17888888888888888,0.23760841474100983,0.2134059139088742,-0.7968120551208802
1592295158.218313,-0.9374734719354684,10.091210207903202,-0.1211040956450761,-0.37777777777777777,-0.5877777777777777,0.17888888888888888,0.1811220103178458,0.19280144704330948,-0.7802080358917728
1592295158.228313,-0.9906315896877764,10.177943337187946,-0.028696347187266172,-0.37777777777777777,-0.5877777777777777,0.17888888888888888,0.12028021396528885,0.19266456443140825,-0.7324827048918363
1592295158.238313,-2.747453888219482,10.762868662526648,-0.1729493002131801,-0.36779147485607766,-0.5848406298596307,0.1900500509778478,0.13847292486927668,0.1721278197536988,-0.04417576517499733
1592295158.248313,-3.659082568807339,10.825760586514964,-0.6256508152718241,-0.35888888888888887,-0.5822222222222222,0.2,0.10563923269122043,0.11735383144752026,0.3279788297136329
1592295158.258313,-2.2675118348797576,9.795370195038817,0.2713444423404656,-0.35888888888888887,-0.5822222222222222,0.2,-0.02238981304084517,-0.05999569303730508,0.15574361800401398
1592295158.268313,-2.516390628155928,9.032887901434053,1.1201127045041406,-0.35888888888888887,-0.5822222222222222,0.2,0.011429465395741597,-0.060686545188708,0.10624700634529277
1592295158.278313,-0.8706831823638546,9.798390265196987,0.009912037542289642,-0.35888888888888887,-0.5822222222222222,0.2,0.002459446629696306,0.028221029245052806,-0.046506557914104074
1592295158.288313,-0.4558031674208145,9.83889705882353,0.11400452488687783,-0.34828934137757667,-0.5833999497234791,0.18998931623931625,0.023603406343430094,0.06773331116133678,-0.06644627891456777
1592295158.298313,-0.42207221729668737,9.881959377770613,0.06209478520190216,-0.3388888888888889,-0.5844444444444444,0.1811111111111111,0.0691596563209035,-0.023379228328039018,0.00981255348932715
