time,acc_x,acc_y,acc_z,mag_x,mag_y,mag_z,gyr_x,gyr_y,gyr_z
1592295208.3082652,-0.5352538975501114,9.83525389755011,0.36050779510022274,-0.47555555555555556,-0.6288888888888889,-0.09888888888888889,0.009593723111359136,0.0014231818984107433,-0.001755533014325029
1592295208.3182652,-0.5320013461969936,9.826000673098497,0.28199461521202607,-0.47555555555555556,-0.6288888888888889,-0.09888888888888889,-0.050393592052408634,-0.07090987475474886,0.04472479631891459
1592295208.3282652,-0.5334985908877408,9.836501409112259,0.26300281822451854,-0.47555555555555556,-0.6288888888888889,-0.09888888888888889,-0.14232239325299736,0.03602815788295127,0.04908738521234052
1592295208.3382652,-0.5251673367283124,9.835167336728313,0.3231592959885643,-0.47555555555555556,-0.6288888888888889,-0.09888888888888889,-0.20071286397934787,0.0005972720033599194,0.038544149495946645
1592295208.3482652,-0.5104979389340824,9.815746908401124,0.4132572137307117,-0.47344398642979607,-0.6288888888888889,-0.10575148854760717,-0.13696724862598406,-0.07122090803593911,0.039708938411848235
1592295208.3582652,-0.5064093975343104,9.81281879506862,0.4371812049313794,-0.4711111111111111,-0.6288888888888889,-0.11333333333333333,-0.0329811507194075,0.07444373279573839,-0.015066659308962796
1592295208.3682652,-0.5689495663347254,9.81345004818503,0.3645004818503052,-0.4711111111111111,-0.6288888888888889,-0.11333333333333333,-0.0341864895506382,0.0886684587323115,-0.05916661959323613
1592295208.3782651,-0.5936354744791192,9.81,0.3554581020835229,-0.4711111111111111,-0.6288888888888889,-0.11333333333333333,-0.01695358066571077,0.01873547274731767,-0.010801963981506735
1592295208.3882651,-0.59,9.814666211309632,0.3746662113096308,-0.4711111111111111,-0.6288888888888889,-0.11333333333333333,-0.030613103000731057,0.04108299229931569,0.035850282878646236
1592295208.3982651,-0.5856580670276391,9.82,0.40170966486180415,-0.4677340521326082,-0.6259942669073151,-0.11333333333333333,-0.04920281091357081,0.0500079341325872,0.04521247879538669
1592295208.408265,-0.5495613932215316,9.832175442711387,0.4178245572886126,-0.4633333333333333,-0.6222222222222222,-0.11333333333333333,0.07214987877838702,-0.016837069712474614,0.02100901453231447
1592295208.418265,-0.53,9.815584817221968,0.3855848172219672,-0.4633333333333333,-0.6222222222222222,-0.11333333333333333,0.05554871732079521,-0.06781486423136748,0.030160499933187243
1592295208.428265,-0.4936115483098029,9.806064741948367,0.38819422584509855,-0.4633333333333333,-0.6222222222222222,-0.11333333333333333,0.042966135578541544,-0.014585828980932844,-0.0019791471607534528
1592295208.438265,-0.48344643524367026,9.814482145081223,0.4179285803248937,-0.4633333333333333,-0.6222222222222222,-0.11333333333333333,-0.011461554652626105,0.04427214841333974,0.0482868319093917
1592295208.448265,-0.5088313472025854,9.833247020803878,0.426752979196122,-0.4633333333333333,-0.6315441998249511,-0.12363657173634955,-0.057189629444924776,0.024040271225655992,-0.027968407734436596
1592295208.458265,-0.5218611321356014,9.85,0.40441660359319603,-0.4633333333333333,-0.6433333333333333,-0.13666666666666666,0.00859936890818373,-0.01068108581318613,-0.22472908777886821
1592295208.468265,-0.550503080925647,9.855251540462824,0.265975352594824,-0.4633333333333333,-0.6433333333333333,-0.13666666666666666,-0.1023762688155519,-0.08332480389517055,0.07275920484021281
1592295208.478265,-0.5306816015252622,9.848272640610105,0.29554623450905626,-0.4633333333333333,-0.6433333333333333,-0.13666666666666666,-0.1561670367836661,-0.071642417391012,0.1036136381479329
1592295208.488265,-0.4836581968823099,9.844390300519615,0.37878060103923006,-0.4633333333333333,-0.6433333333333333,-0.13666666666666666,-0.08923474182408034,-0.06377405053937929,0.006890116752815902
1592295208.498265,-0.4306246779062063,9.830624677906206,0.4287506441875874,-0.45299982821664336,-0.6351526417826204,-0.12504147341039043,-0.06051424522478793,-0.058686021506645265,0.026876896369983083
1592295208.508265,-0.3759547679004134,9.812022616049793,0.5200565401244833,-0.43666666666666665,-0.6222222222222222,-0.10666666666666667,-0.11434743683141556,0.025126113422358022,0.11223838675149309
1592295208.518265,-0.33681430612527075,9.825796423468683,0.44725722450108313,-0.43666666666666665,-0.6222222222222222,-0.10666666666666667,-0.05037657857272053,-0.00861050950799825,0.0949310860247591
1592295208.528265,-0.33143808512691825,9.83,0.39143808512691824,-0.43666666666666665,-0.6222222222222222,-0.10666666666666667,0.01699720923167241,0.028576586973404886,0.04123658310636828
1592295208.538265,-0.3868302079301974,9.838514583260036,0.3829708334799282,-0.43666666666666665,-0.6222222222222222,-0.10666666666666667,-0.0005931389981171133,0.06695155745495232,-0.003639966039302462
1592295208.548265,-0.5013625985121897,9.846575826765854,0.37027251970243796,-0.44579779529105595,-0.6203199037588079,-0.11123223097886131,-0.048637619378915226,0.03794125908317109,-0.020751655642417113
1592295208.558265,-0.5495054970651262,9.817557998695612,0.4180525016304854,-0.4633333333333333,-0.6166666666666667,-0.12,-0.0736184244660072,0.025621870036163147,-0.047114834272055185
1592295208.568265,-0.5437574901349442,9.81125249671165,0.40061626150923174,-0.4633333333333333,-0.6166666666666667,-0.12,-0.04062527617823077,0.05891139863061839,0.03873865492621202
1592295208.578265,-0.5587564451110902,9.80875644511109,0.4149742195556389,-0.4633333333333333,-0.6166666666666667,-0.12,0.003945121903303601,0.06954749290972295,0.05278932762743032
1592295208.588265,-0.5660849121836538,9.779893859770434,0.5304245609182686,-0.4633333333333333,-0.6166666666666667,-0.12,0.01548516587026275,0.03630870462333471,0.03210747493489119
1592295208.598265,-0.5928796774698606,9.735601612650697,0.6557593549397214,-0.4633333333333333,-0.618266487483256,-0.11392068089696084,0.023604522655810464,-0.006448147204188772,0.0023345179217072326
1592295208.608265,-0.5448781619865398,9.718373946004487,0.7496204326861092,-0.4633333333333333,-0.6222222222222222,-0.09888888888888889,0.0896638375622743,-0.006382433159638049,-0.16857016134370265
1592295208.618265,-0.5309267467160932,9.712997018293175,0.8248505117253606,-0.4633333333333333,-0.6222222222222222,-0.09888888888888889,0.1174322543363527,-0.006815648566306529,-0.20381578484005863
1592295208.628265,-0.6963927757048093,9.636949885986732,0.9055431177446103,-0.4633333333333333,-0.6222222222222222,-0.09888888888888889,0.09395879650875912,-0.13384557581765522,-0.013647454244932009
1592295208.638265,-0.6814666281630148,9.691407428798325,0.7572147420856947,-0.4633333333333333,-0.6222222222222222,-0.09888888888888889,0.07899716751249494,-0.2189015015833298,0.05131425031984889
1592295208.648265,-0.5328503787878788,9.770517803030303,0.6250261363636364,-0.4607426767676768,-0.6274035353535353,-0.10191132154882156,0.15630489490783023,-0.18320932713245325,-0.04457688256541332
1592295208.6582649,-0.38574421790635827,9.849574502377306,0.5636175356596018,-0.45666666666666667,-0.6355555555555555,-0.10666666666666667,0.25492958887729306,-0.0353938503334137,-0.0998457835880685
1592295208.6682649,-0.5769208478224872,9.907951095656014,0.09948197825247004,-0.45666666666666667,-0.6355555555555555,-0.10666666666666667,0.15313474132755533,-0.09736331563328596,-0.13291372986990682
1592295208.6782649,-0.53893481262797,9.95662730346174,-0.007692490833769827,-0.45666666666666667,-0.6355555555555555,-0.10666666666666667,0.08662752590834516,-0.020648495395295396,-0.038301971803422194
1592295208.6882648,-0.5058876704791101,9.962056164760444,0.05915890421726998,-0.45666666666666667,-0.6355555555555555,-0.10666666666666667,0.0034150467770692403,0.00765613752247395,0.050535052240669544
1592295208.6982648,-0.40389407344564293,9.969543085686583,0.1265628408677736,-0.4595673251727063,-0.6297542385434762,-0.10666666666666667,-0.05163605032262614,0.00490364859454321,0.016330732324309143
1592295208.7082648,-0.3641533507255829,9.93,0.20083523561063102,-0.4633333333333333,-0.6222222222222222,-0.10666666666666667,-0.030970932318593533,0.03775389705384297,-0.038417057427646666
1592295208.7182648,-0.2654352101391216,9.921213732488406,0.22560686624420329,-0.4633333333333333,-0.6222222222222222,-0.10666666666666667,-0.052365677738074635,0.08664324801397524,0.003574737252188657
1592295208.7282648,-0.4218967079432196,9.923138024765931,0.29444880700694653,-0.4633333333333333,-0.6222222222222222,-0.10666666666666667,-0.07649026686891715,0.15365657866857507,-0.016076493413917113
1592295208.7382648,-0.4533186254346932,9.959911752608159,0.3667696219571477,-0.4633333333333333,-0.6222222222222222,-0.10666666666666667,-0.20813208777095926,0.13453900527361273,0.008330948341974485
1592295208.7482648,-0.4416970143752304,9.995424253593807,0.3039848875783266,-0.45901179506081824,-0.627052176762092,-0.10488720973092518,-0.2778231009430639,0.09789223198352355,-0.03274627368298455
1592295208.7582648,-0.3462259560207501,9.96552540972318,0.26929945370242847,-0.4444444444444444,-0.6433333333333333,-0.09888888888888889,-0.19055150707720006,0.034010554410900264,-0.17613769787793826
1592295208.7682648,-0.2663709294479294,9.925761627471072,0.4499732586909254,-0.4444444444444444,-0.6433333333333333,-0.09888888888888889,-0.18696408328581884,0.0937782150270856,-0.11444045238360932
1592295208.7782648,-0.08254768099682525,9.945817439667724,0.6301816532594944,-0.4444444444444444,-0.6433333333333333,-0.09888888888888889,-0.1340339739014815,0.15098990507760926,-0.17923211891074314
1592295208.7882648,0.1531987409724636,10.080814892055768,0.5574410072220292,-0.4444444444444444,-0.6433333333333333,-0.09888888888888889,-0.11644638614141892,0.1960703980399224,-0.26174870732831396
1592295208.7982647,0.3364515517350357,10.279257948296568,0.42177422413248217,-0.446064513410446,-0.6433333333333333,-0.10658421647739642,-0.16466615013474847,0.20671943153378464,-0.28852119113374736
1592295208.8082647,0.4,10.4,0.39,-0.4488888888888889,-0.6433333333333333,-0.12,-0.20071286397934787,0.2476185876266955,-0.3217950808364545
1592295208.8182647,0.47760831706158635,10.40679376220381,0.2903812866114307,-0.4488888888888889,-0.6433333333333333,-0.12,-0.21693730963145857,0.4779199991187563,-0.49881025195524237
1592295208.8282647,0.43603835837546584,10.355559116048328,0.3088817679033445,-0.4488888888888889,-0.6433333333333333,-0.12,-0.3630166204098705,0.5719333583664726,-0.6595831873068485
1592295208.8382647,0.23436683347233805,10.245044829024186,0.5299103419516263,-0.4488888888888889,-0.6433333333333333,-0.12,-0.3846902169534373,0.6661789563275453,-0.7531974649326721
1592295208.8482647,-0.06820894264402207,10.080895528677988,0.8498933794091619,-0.4488888888888889,-0.6417164182598882,-0.11861407279418995,-0.29519998369349326,0.6593304604953444,-0.8494606247424591
1592295208.8582647,-0.29,9.97,1.04,-0.4488888888888889,-0.6355555555555555,-0.11333333333333333,-0.14398966328953217,0.5530512067257032,-0.9730210579868387
1592295208.8682647,-0.03784747243148816,9.853161098373185,1.1491268151544929,-0.4488888888888889,-0.6355555555555555,-0.11333333333333333,-0.16005160763731485,0.48402835003876227,-0.9919193529280435
1592295208.8782647,0.03886623416743899,10.088378127896199,0.8158109360518999,-0.4488888888888889,-0.6355555555555555,-0.11333333333333333,-0.10320634114246126,0.44044828679450815,-1.1195600369605185
1592295208.8882647,0.13657980855047863,10.290260574348563,0.774723063192342,-0.4488888888888889,-0.6355555555555555,-0.11333333333333333,-0.11800869427399714,0.43490396092624606,-1.2263637631073137
1592295208.8982646,0.07942197183098593,10.28226366197183,0.9240518309859155,-0.4438129577464789,-0.6377309546165884,-0.12022209702660407,-0.11973327400213211,0.41186845076911427,-1.3616208283325688
1592295208.9082646,-0.18,10.14,1.15,-0.4177777777777778,-0.6488888888888888,-0.15555555555555556,-0.05126904677733343,0.5661411761156606,-1.385355093770499
1592295208.9182646,-0.5622106118657842,10.096332288401253,0.2947730175316382,-0.4177777777777778,-0.6488888888888888,-0.15555555555555556,-0.17258151213816447,0.44115613313601704,-1.5989549082446062
1592295208.9282646,-0.9249406667922396,9.75623516669806,0.8555879167451498,-0.4177777777777778,-0.6488888888888888,-0.15555555555555556,-0.17929398343720132,0.3825587883983639,-1.757850074413574
1592295208.9382646,-1.0791379676119086,9.716637790821016,0.8921550809702284,-0.4177777777777778,-0.6488888888888888,-0.15555555555555556,-0.19950917799320303,0.35639137192099196,-1.8337900281213781
1592295208.9482646,-1.1433552869362678,9.568243042448096,0.8092337657122204,-0.4110612246719231,-0.6507206760995765,-0.15555555555555556,-0.17638318903463246,0.3803930333100427,-1.9068182486516587
1592295208.9582646,-1.29,9.62,0.93,-0.3688888888888889,-0.6622222222222223,-0.15555555555555556,-0.10581058590215622,0.33052172709642613,-2.07148765596077
1592295208.9682646,-1.1609341129098982,9.635580407622935,0.9430260073361098,-0.3688888888888889,-0.6622222222222223,-0.15555555555555556,-0.13145763944942934,0.5588351159046557,-2.116008588076953
1592295208.9782646,-1.065772649082569,9.650610904051987,0.5379353019877676,-0.3688888888888889,-0.6622222222222223,-0.15555555555555556,-0.2455335100372361,0.5316957235266889,-2.1409576480076704
1592295208.9882646,-1.534859625907514,9.477141017846286,0.3557147455384285,-0.3688888888888889,-0.6622222222222223,-0.15555555555555556,-0.3459169108959874,0.5422379335485038,-2.1761458102147393
1592295208.9982646,-1.7982207407935547,9.318200777155894,0.39897615058286695,-0.3604826526287437,-0.6673514511267177,-0.15854760574984453,-0.28429155556321095,0.6315020875551429,-2.229909682088328
1592295209.0082645,-2.33,9.17,0.46,-0.30333333333333334,-0.7022222222222222,-0.17888888888888888,-0.42978732830360367,0.4603305902135044,-2.2242039655102737
1592295209.0182645,-3.0659054597542834,8.973182193818522,0.6505674618478321,-0.30333333333333334,-0.7022222222222222,-0.17888888888888888,-0.40620991429014836,0.5453792726156304,-1.9915475064127748
1592295209.0282645,-3.8381083392729867,8.802297933000713,0.8139864575908767,-0.30333333333333334,-0.7022222222222222,-0.17888888888888888,-0.5612617492982755,0.16694236015071134,-1.7167331580186298
1592295209.0382645,-3.891478331090175,8.708800538358009,0.8229846567967698,-0.30333333333333334,-0.7022222222222222,-0.17888888888888888,-0.5986378913310236,-0.0176039240654132,-1.482839131938721
1592295209.0482645,-4.057120938628159,8.773206227436823,0.8396457581227437,-0.294997492980345,-0.7044848074608905,-0.17888888888888888,-0.6198306267546976,0.025899601175839254,-1.5762435891771642
1592295209.0582645,-3.45,8.55,0.92,-0.22555555555555556,-0.7233333333333334,-0.17888888888888888,-0.7581273938350369,-0.1854412330243975,-1.385355093770499
1592295209.0682645,-4.145875557960233,8.958369809279048,0.8322983903692682,-0.22555555555555556,-0.7233333333333334,-0.17888888888888888,-0.9339717062695126,-0.3009920097301646,-1.2435062504443644
1592295209.0782645,-3.4620961060480533,8.67,0.942258255414842,-0.22555555555555556,-0.7233333333333334,-0.17888888888888888,-0.9852985011078219,-0.4326760351635739,-1.2024268900808135
1592295209.0882645,-3.6885009329541134,8.726672886360754,1.1945345193021866,-0.22555555555555556,-0.7233333333333334,-0.17888888888888888,-0.8739728087801083,-0.5162182336131208,-1.0173463021700186
1592295209.0982645,-3.765927689229283,8.83792382529497,1.9809528738011453,-0.21897582741093402,-0.7243385695776505,-0.18007689535944554,-0.8413948962260442,-0.526866902515209,-1.0538836597249568
1592295209.1082644,-4.531068248592639,8.383660708278198,1.9522544687913517,-0.14555555555555555,-0.7355555555555555,-0.19333333333333333,-0.5971463658521547,-0.41062369668989884,-1.0621693364101825
1592295209.1182644,-4.729396926498837,8.180744616317865,2.0996276918410675,-0.14555555555555555,-0.7355555555555555,-0.19333333333333333,-0.36451134595078377,-0.25342449614243046,-0.9004267712092995
1592295209.1282644,-4.422113581187223,7.996466891988385,2.2312381587090018,-0.14555555555555555,-0.7355555555555555,-0.19333333333333333,-0.16946848352680577,-0.11564784713694742,-0.914698609120733
1592295209.1382644,-4.145309812803001,7.790443221628508,2.3662822463639905,-0.14555555555555555,-0.7355555555555555,-0.19333333333333333,-0.004642583376136454,-0.1095651105011911,-0.8585617616097656
1592295209.1482644,-4.1712173913043475,7.940367588932806,2.1903399209486167,-0.14500790513833992,-0.7356499780412824,-0.1936921387790953,0.12528169979051193,0.007666858883143075,-0.9878201393221779
1592295209.1582644,-4.82,8.54,2.21,-0.11333333333333333,-0.7411111111111112,-0.21444444444444444,0.17889624832941878,-0.11671889372712078,-0.7712173632249943
1592295209.1682644,-5.141108913573557,8.30442590083988,2.1573895963153618,-0.11333333333333333,-0.7411111111111112,-0.21444444444444444,0.33700355531938664,-0.3031310577647222,-0.839828373355171
1592295209.1782644,-4.762526821342381,8.058596210365343,2.051461613820458,-0.11333333333333333,-0.7411111111111112,-0.21444444444444444,0.39264413746108345,-0.18063653146926545,-0.8092505308200018
1592295209.1882644,-5.047183168316832,8.051871287128712,1.8332326732673268,-0.11333333333333333,-0.7411111111111112,-0.21444444444444444,0.39943577180349804,-0.2405208973347439,-0.6574636931744519
1592295209.1982644,-5.358641089108911,8.31883521923621,1.5811000707213578,-0.11333333333333333,-0.7411111111111112,-0.21444444444444444,0.5045958322054137,-0.35619696377685117,-0.691438481919686
1592295209.2082644,-4.75,8.19,1.92,-0.08666666666666667,-0.7355555555555555,-0.2222222222222222,0.4145156973486533,-0.2498002491916884,-0.7428557628800865
1592295209.2182643,-5.25022872567126,8.401000710328171,1.1684989345077426,-0.08666666666666667,-0.7355555555555555,-0.2222222222222222,0.5422177492016259,-0.11609356053014255,-0.7580587733107451
1592295209.2282643,-4.904620488637171,8.376955615061968,1.4523102443185858,-0.08666666666666667,-0.7355555555555555,-0.2222222222222222,0.44120327220778016,-0.24660783916283632,-0.5485186715693133
1592295209.2382643,-4.939549324432862,8.657286486872401,1.4481878380066753,-0.08666666666666667,-0.7355555555555555,-0.2222222222222222,0.466680994387658,-0.18772534432929255,-0.5314332991801909
1592295209.2482643,-4.872173416388527,8.417727702714762,1.3433808699377088,-0.08666666666666667,-0.7355555555555555,-0.2222222222222222,0.40135147039351393,-0.1305620108344165,-0.5249003467807765
1592295209.2582643,-5.04,8.7,1.46,-0.06,-0.7422222222222222,-0.21444444444444444,0.18762289458939044,-0.3108867730114899,-0.5465062220307244
1592295209.2682643,-4.775104445371757,8.268487198998503,1.5925336900758487,-0.06,-0.7422222222222222,-0.21444444444444444,0.27689791138747716,-0.29675558891797676,-0.5388395337313288
1592295209.2782643,-4.658128054614569,8.461358382250266,1.3542352150190065,-0.06,-0.7422222222222222,-0.21444444444444444,0.23966774543206998,-0.2397611138448357,-0.5942925141799776
1592295209.2882643,-4.967915613455181,8.24327435349018,1.3753840171106357,-0.06,-0.7422222222222222,-0.21444444444444444,0.24374224631211155,-0.20237997071674282,-0.8717063577733034
1592295209.2982643,-4.960501652731868,7.828092552984639,1.1455512346879253,-0.06,-0.7422222222222222,-0.21444444444444444,0.1523548909896411,-0.09967028818617871,-0.8450180150685112
1592295209.3082643,-5.2,7.81,1.33,-0.04,-0.7422222222222222,-0.2,0.21380283336930533,0.001090830782496456,-0.9250245035569946
1592295209.3182642,-6.0877765637803885,8.02048347446053,1.5526795957388693,-0.04,-0.7422222222222222,-0.2,0.039881619613867283,-0.2767787202024393,-0.8005884513303769
1592295209.3282642,-5.608834049830178,7.983981188988909,1.422073011424364,-0.04,-0.7422222222222222,-0.2,0.08907682767885429,-0.26117879853631454,-0.7495574947482858
1592295209.3382642,-6.392216694697708,8.243846507922457,1.3438916526511464,-0.04,-0.7422222222222222,-0.2,0.26147386697645736,-0.26300448689606615,-0.7125937010591284
1592295209.3482642,-6.214004425953793,8.37008019828273,1.4329977870231034,-0.04,-0.7422222222222222,-0.2,0.34976360744945245,-0.5278737083150513,-0.660753853441957
1592295209.3582642,-5.44,8.3,1.46,0.0044444444444444444,-0.7644444444444445,-0.16444444444444445,0.28034351110158917,-0.49632800603588745,-0.37960911230876665
1592295209.3682642,-5.913014750985834,8.267709069665546,0.895664086461224,0.0044444444444444444,-0.7644444444444445,-0.16444444444444445,0.26109030796174104,-0.26091859810087137,-0.473590740038961
1592295209.3782642,-5.554932445200302,8.324859693877551,0.8626273148148148,0.0044444444444444444,-0.7644444444444445,-0.16444444444444445,0.1687797049393402,-0.348038507122229,-0.5211180476856955
1592295209.3882642,-5.423768193588714,7.90178051611751,1.1443684257522992,0.0044444444444444444,-0.7644444444444445,-0.16444444444444445,0.07880855481004644,-0.4978456429906085,-0.47964036977533264
1592295209.3982642,-5.685935351370658,7.826875613894098,0.7923153853022591,0.0044444444444444444,-0.7644444444444445,-0.16444444444444445,0.021612553636416287,-0.3605752401738962,-0.6218132869783561
1592295209.4082642,-5.62,7.75,1.61,0.03111111111111111,-0.7511111111111111,-0.17222222222222222,0.016362461737446838,-0.28907015736156083,-0.5225079448158023
1592295209.4182642,-6.09530436238801,7.87545340366742,1.7672795779954784,0.03111111111111111,-0.7511111111111111,-0.17222222222222222,0.07482425105196489,-0.3980868340388314,-0.7223928442097588
1592295209.4282641,-6.1558005136986305,7.82839897260274,2.0265089897260276,0.03111111111111111,-0.7511111111111111,-0.17222222222222222,0.18761705752398752,-0.3908438288310621,-0.566750799226341
1592295209.4382641,-6.092749593789493,7.852124932298249,1.7941003791298067,0.03111111111111111,-0.7511111111111111,-0.17222222222222222,0.029228790138669348,-0.4173845882147113,-0.25276989272579575
1592295209.4482641,-5.865580429680447,7.8142634049467405,2.0061249322982486,0.03111111111111111,-0.7511111111111111,-0.17222222222222222,0.017664644676609696,-0.42068862977529975,-0.17264688488152535
1592295209.458264,-5.90413185615692,7.649574555030875,1.9242621685434071,0.03111111111111111,-0.7711111111111111,-0.16333333333333333,0.07601112853621389,-0.35082188290785704,-0.3494413063899081
1592295209.468264,-5.602337847469708,7.275831313851271,1.8939738655262532,0.03111111111111111,-0.7711111111111111,-0.16333333333333333,0.16053348957475547,-0.2986821155609499,-0.41356372784752093
1592295209.478264,-6.210395747615763,7.561732109306253,1.520121768497158,0.03111111111111111,-0.7711111111111111,-0.16333333333333333,0.22465800966425464,-0.08764800821101278,-0.46944176554470973
1592295209.488264,-6.713615640420511,7.181699742544518,1.7053212829864834,0.03111111111111111,-0.7711111111111111,-0.16333333333333333,0.1488862905700466,-0.30281003816172913,-0.4056501521250661
1592295209.498264,-6.63112744046342,7.039220124436816,1.832803046556533,0.03111111111111111,-0.7711111111111111,-0.16333333333333333,0.11862006597805622,-0.3060820624419443,-0.42691830994646485
1592295209.508264,-6.853563050183489,7.180179210662584,1.8508683612130492,0.044444444444444446,-0.7655555555555555,-0.17,0.18348811618916824,-0.2177872624426832,-0.317013765948401
1592295209.518264,-6.720599036724865,7.396772024884608,1.8496006421834237,0.044444444444444446,-0.7655555555555555,-0.17,0.21040873626570986,-0.24996722313897904,-0.27478772801174906
1592295209.528264,-6.295037400485846,7.5680299203886765,2.067727108738004,0.044444444444444446,-0.7655555555555555,-0.17,0.21308818008300714,-0.3008252449807643,-0.1552368404505894
1592295209.538264,-6.018685949673144,7.379086773529148,1.9931625324617175,0.044444444444444446,-0.7655555555555555,-0.17,0.2888782875824814,-0.14622962232125689,-0.15749027425228973
1592295209.548264,-6.063757678875258,7.581909554938659,2.11335381033402,0.044444444444444446,-0.7655555555555555,-0.17,0.1520339517678211,-0.16917358281712808,-0.012451666831961167
1592295209.558264,-6.45,7.26,2.03,0.07555555555555556,-0.7588888888888888,-0.13333333333333333,0.29561514205653955,0.007635815477475192,-0.18762289458939044
1592295209.568264,-6.040574250887379,6.76060424290785,1.3318127287235506,0.07555555555555556,-0.7588888888888888,-0.13333333333333333,0.3278226990455105,0.0022838022015071084,-0.291515469632149
1592295209.578264,-6.671111403739795,6.792638925467474,1.4809165130366078,0.07555555555555556,-0.7588888888888888,-0.13333333333333333,0.40614069103542266,-0.04354848147609304,-0.292485144327991
1592295209.588264,-6.383459174869257,6.790094381151943,1.7034355795812717,0.07555555555555556,-0.7588888888888888,-0.13333333333333333,0.23599421261553122,0.05512582152120179,-0.18553183626788744
1592295209.598264,-6.737963233610959,7.055972425208219,1.9914701273089044,0.07555555555555556,-0.7588888888888888,-0.13333333333333333,0.2674139077239059,-0.006102302279733435,-0.0993290830218339
1592295209.608264,-6.657800615946162,6.905400250941028,1.7885999771871792,0.09555555555555556,-0.7733333333333333,-0.14888888888888888,0.2388700177458871,0.02548174237830657,-0.1538944615414398
1592295209.618264,-6.869615846338535,6.994903961584634,1.7494237695078032,0.09555555555555556,-0.7733333333333333,-0.14888888888888888,0.21020492511611327,0.004648536748746601,-0.15907913990853387
1592295209.628264,-6.691081944543786,6.96731111270057,1.4529513864053596,0.09555555555555556,-0.7733333333333333,-0.14888888888888888,0.3190875484843916,0.03646950318770922,-0.03742413291620539
1592295209.638264,-6.712298547372986,7.089502421045024,1.2226208715762088,0.09555555555555556,-0.7733333333333333,-0.14888888888888888,0.3563584211537141,0.034636735089139656,-0.13713505671855036
1592295209.648264,-6.825969321384693,6.900051131025512,1.1544184071691839,0.09555555555555556,-0.7733333333333333,-0.14888888888888888,0.24228248814051867,-0.0182680454387191,0.04720503793320749
1592295209.658264,-7.18,6.86,1.0,0.11555555555555555,-0.7944444444444444,-0.13777777777777778,0.3392483733563978,-0.07090400086226964,0.07963064712224129
1592295209.668264,-7.415465772470761,6.879622147705897,0.8430228183528257,0.11555555555555555,-0.7944444444444444,-0.13777777777777778,0.1690830536029366,-0.00026933983253102367,0.42531239731323484
1592295209.678264,-7.692842945195662,6.968071575326102,1.2995121601605428,0.11555555555555555,-0.7944444444444444,-0.13777777777777778,0.31888341898766187,-0.3197240190574264,0.4805957858686039
1592295209.688264,-7.340734813906078,6.415271067491746,1.008530372187844,0.11555555555555555,-0.7944444444444444,-0.13777777777777778,0.25428897190936417,-0.4598988157386271,0.6547214808173499
1592295209.698264,-7.348301791480994,6.778485991087698,0.9933964170380126,0.11555555555555555,-0.7944444444444444,-0.13777777777777778,0.30051300749676313,-0.18585631904190486,0.679484357024885
1592295209.7082639,-6.801238042805037,6.872307251164178,1.264687679214553,0.10777777777777778,-0.7944444444444444,-0.10222222222222223,0.16763006052713528,-0.26177053619700646,0.7537401236250417
1592295209.7182639,-6.704876472731689,7.436136766670716,1.041342645451233,0.10777777777777778,-0.7944444444444444,-0.10222222222222223,0.10459126153374151,-0.27601612059740355,1.1924182514066124
1592295209.7282639,-6.4448725051495135,7.236386817245544,1.2379423254492505,0.10777777777777778,-0.7944444444444444,-0.10222222222222223,0.13091852136460394,-0.33951412728664593,0.9594776798505803
1592295209.7382638,-6.078831727977251,7.33650419528606,1.5322630514448206,0.10777777777777778,-0.7944444444444444,-0.10222222222222223,0.26237539590743886,-0.3246260375969723,1.0571193995364758
1592295209.7482638,-6.607980255121453,7.697669063019404,1.154299817770391,0.10777777777777778,-0.7944444444444444,-0.10222222222222223,0.16617347892051273,-0.42266037205031604,1.0882704964655758
1592295209.7582638,-5.64,6.53,1.39,0.10777777777777778,-0.8011111111111111,-0.12444444444444444,0.3665191429188092,-0.41233403578366035,1.1999138607461015
1592295209.7682638,-5.835599362803664,7.099016328156113,1.75452608522501,0.10777777777777778,-0.8011111111111111,-0.12444444444444444,0.5284831865513051,-0.08355672565542,1.0922611131819875
1592295209.7782638,-7.034939218523879,7.287654124457307,0.6513174143753014,0.10777777777777778,-0.8011111111111111,-0.12444444444444444,0.8361961480828903,-0.22492646582340525,1.2116482110999436
1592295209.7882638,-5.573821376281113,7.636339677891654,-0.17045387994143485,0.10777777777777778,-0.8011111111111111,-0.12444444444444444,0.3798335072208322,-0.4544428190866037,1.1249228379622969
1592295209.7982638,-6.254310078746389,8.200647382375054,0.4436456808199122,0.10777777777777778,-0.8011111111111111,-0.12444444444444444,0.31556136125851036,-0.3630134283514699,1.3494227280842097
1592295209.8082638,-5.38,7.99,0.89,0.04888888888888889,-0.8088888888888889,-0.09333333333333334,0.16580627893946132,-0.31306843457648287,1.0701049976290233
1592295209.8182638,-5.826127012874522,7.369301547305012,0.9093968266467184,0.04888888888888889,-0.8088888888888889,-0.09333333333333334,0.19754426232294317,-0.18929029938090353,1.2922708813133963
1592295209.8282638,-5.999756396102338,8.247883646138337,1.2756727307636921,0.04888888888888889,-0.8088888888888889,-0.09333333333333334,-0.009072541145450051,-0.3205574829688845,1.1585729553830888
1592295209.8382638,-5.129942871981304,7.996203583484809,1.1841547649961048,0.04888888888888889,-0.8088888888888889,-0.09333333333333334,0.05672008483974885,-0.34419464370798264,1.2968414413667495
1592295209.8482637,-5.532088967900445,8.322947286419112,1.2679352016459262,0.04888888888888889,-0.8088888888888889,-0.09333333333333334,0.07865375186421747,-0.3999427140618404,1.1177164940002557
1592295209.8582637,-4.88,7.99,1.53,0.021111111111111112,-0.8277777777777777,-0.06555555555555556,0.13526301702956053,-0.47560222116845474,1.0177451200691934
1592295209.8682637,-5.2142402826855125,8.064275618374559,1.2050441696113072,0.021111111111111112,-0.8277777777777777,-0.06555555555555556,0.1271608039383678,-0.39863119680212356,0.9438124256120595
1592295209.8782637,-4.884539115483809,8.418321711720317,1.2583217117203171,0.021111111111111112,-0.8277777777777777,-0.06555555555555556,-0.04941226919169136,-0.44751403184401406,1.3164006051768806
1592295209.8882637,-5.1122948891723805,8.840068968266623,1.6817812151172062,0.021111111111111112,-0.8277777777777777,-0.06555555555555556,0.05030506790811007,-0.5677889681183302,1.1893007651985639
1592295209.8982637,-4.736071998086429,8.355159464200288,1.2804767979588583,0.021111111111111112,-0.8277777777777777,-0.06555555555555556,0.2162872522261074,-0.22214474912645665,1.0971897728023126
1592295209.9082637,-4.72,8.22,1.31,-0.03,-0.8422222222222222,-0.07111111111111111,0.022907446432425576,-0.37960911230876665,1.1497356447512646
1592295209.9182637,-4.294351372613971,7.884914910355678,1.1741546933874374,-0.03,-0.8422222222222222,-0.07111111111111111,0.2244380157029132,-0.03680956555945686,1.010442457167251
1592295209.9282637,-4.657359112853114,8.848984274174274,1.41711533865494,-0.03,-0.8422222222222222,-0.07111111111111111,0.040396194472281766,-0.26737763603132686,1.1404106865927628
1592295209.9382637,-4.009407579641884,8.59838430811423,0.7099461436038077,-0.03,-0.8422222222222222,-0.07111111111111111,0.048934639853858236,-0.2969919530787604,0.9941345810719571
1592295209.9482636,-3.917717959418907,8.348321707506111,0.701610723583537,-0.03,-0.8422222222222222,-0.07111111111111111,0.025294054721672177,-0.17242425449762622,1.0541452971767373
1592295209.9582636,-5.17,9.0,1.35,-0.06888888888888889,-0.8266666666666667,-0.06555555555555556,-0.21380283336930533,-0.6457718232379019,0.9250245035569946
1592295209.9682636,-3.9247426335737865,8.095909035334394,0.55678811590659,-0.06888888888888889,-0.8266666666666667,-0.06555555555555556,0.05321824495390581,-0.28292088056872994,0.8729228297378315
1592295209.9782636,-4.898228359460352,8.806822327803044,1.8711969308163316,-0.06888888888888889,-0.8266666666666667,-0.06555555555555556,-0.036724543961044534,-0.004675947211557008,1.1550418842379184
1592295209.9882636,-5.520830986932352,8.761069718191225,1.141919716987943,-0.06888888888888889,-0.8266666666666667,-0.06555555555555556,0.0004573808082072514,-0.28463600754153634,0.94584508278237
1592295209.9982636,-3.7838790344882076,8.80079721882037,0.9831300122466716,-0.06888888888888889,-0.8266666666666667,-0.06555555555555556,0.004651059752856635,-0.3967670837149562,1.0448343789747931
1592295210.0082636,-4.307721518987342,8.79047401023431,1.3600457850794507,-0.12638208097674836,-0.8136493401562079,-0.06338600113714576,0.022493794468580974,-0.011044331162507193,1.0679233360640303
1592295210.0182636,-3.878315943983814,8.818230253501012,1.3276546197484826,-0.12777777777777777,-0.8133333333333334,-0.06333333333333334,-0.04791974145571262,-0.13735618139337102,1.0355891850716195
1592295210.0282636,-3.950945582801478,9.26490930466913,1.1263716269174786,-0.12777777777777777,-0.8133333333333334,-0.06333333333333334,-0.21555572307650478,-0.2542601238538166,1.2129276759547931
1592295210.0382636,-3.3143400108795915,8.316328374447151,0.5032501596461768,-0.12777777777777777,-0.8133333333333334,-0.06333333333333334,0.028787215524748555,-0.2605500445801529,0.991437834709434
1592295210.0482635,-3.591861226232191,8.797476387826613,1.3137119581650984,-0.12777777777777777,-0.8133333333333334,-0.06333333333333334,-0.010428851403586958,-0.08666081199094705,1.0698624075421597
1592295210.0582635,-3.78,8.76,1.4,-0.14666666666666667,-0.8211111111111111,-0.01888888888888889,0.062177354602297986,-0.19416787928436915,1.0875582901489667
1592295210.0682635,-3.2267332382310983,8.72261711069129,0.9289755947102594,-0.14666666666666667,-0.8211111111111111,-0.01888888888888889,0.13639405424410647,-0.15502060914363502,1.035361929961321
1592295210.0782635,-3.738259849656128,8.634512448685825,0.883231326971264,-0.14666666666666667,-0.8211111111111111,-0.01888888888888889,0.15114993772587748,-0.0007936539792466335,1.1052357737797764
1592295210.0882635,-3.4957041901634662,9.245974254645823,0.9563356889618578,-0.14666666666666667,-0.8211111111111111,-0.01888888888888889,-0.15544905777721274,-0.29421297534152246,1.0701503158898136
1592295210.0982635,-3.214286820205148,8.78353590090962,0.7572188891039288,-0.14666666666666667,-0.8211111111111111,-0.01888888888888889,0.08088445862161164,-0.25978197364053973,1.1823370659989934
1592295210.1082635,-3.18,9.35,1.52,-0.21444444444444444,-0.8,-0.02666666666666667,-0.016362461737446838,-0.4166973589136462,1.3340860469931657
1592295210.1182635,-2.924934390985247,9.195414782415302,0.9403054340573801,-0.21444444444444444,-0.8,-0.02666666666666667,0.15310698369215642,-0.2666199395779776,1.2135182325830498
1592295210.1282635,-2.0304723648751715,8.794871358112575,0.8337410382874866,-0.21444444444444444,-0.8,-0.02666666666666667,0.13336383887206518,-0.010957533040781176,1.2744469109134686
1592295210.1382635,-2.360456228636536,9.298153721990126,1.6153062096467905,-0.21444444444444444,-0.8,-0.02666666666666667,0.23498853412067988,0.04762648811899524,1.3336565297832328
1592295210.1482635,-2.1505705433660065,9.682572608845325,1.6068568477886689,-0.21444444444444444,-0.8,-0.02666666666666667,0.2545064370402934,0.03464160998325024,1.4057149098810333
1592295210.1582634,-1.7102412818096135,9.189325918944393,1.9374454288407164,-0.2332877997696094,-0.7874377631165567,-0.0130575767096031,0.35307949080901885,0.24720832832844158,1.4190893801379691
1592295210.1682634,-1.7977194376042578,8.914363730240687,1.5223897847327033,-0.23444444444444446,-0.7866666666666666,-0.012222222222222223,0.43305752443886514,0.18800315599927092,1.5289741137466524
1592295210.1782634,-1.6897824652181948,9.058128250481797,1.4702175347818052,-0.23444444444444446,-0.7866666666666666,-0.012222222222222223,0.29137418065719145,0.10319808087939174,1.4225894314696421
1592295210.1882634,-2.4677731919182224,9.706461102845898,0.4383898833805251,-0.23444444444444446,-0.7866666666666666,-0.012222222222222223,0.5759954556748104,0.1949854396016052,1.5788333054094006
1592295210.1982634,-2.311994700517624,9.849335099827458,0.5680052994823762,-0.23444444444444446,-0.7866666666666666,-0.012222222222222223,0.4147982526354554,0.09689972582905719,1.499857842558741
1592295210.2082634,-1.68069245066635,9.639510024913987,1.1146284652192826,-0.28985174639582045,-0.7783033003343836,-0.004904276681474451,0.25330309849644955,-0.00957055509051612,1.5192896327371117
1592295210.2182634,-1.6093706697459584,9.59187259430331,1.4394014626635872,-0.29333333333333333,-0.7777777777777778,-0.0044444444444444444,0.2707997914379462,0.032864741277269086,1.4871397247234763
1592295210.2282634,-0.9912638418079096,9.587275706214688,0.928506779661017,-0.29333333333333333,-0.7777777777777778,-0.0044444444444444444,0.23417357438713565,0.02101581027208963,1.6360790362824167
1592295210.2382634,-0.9352392253654831,10.14501779950636,0.9421470951205619,-0.29333333333333333,-0.7777777777777778,-0.0044444444444444444,0.07601567802276676,0.039166820829453275,1.5848447081460941
1592295210.2482634,-0.6614673093196953,9.77842378306781,0.7086412303616763,-0.29333333333333333,-0.7777777777777778,-0.0044444444444444444,0.10972929284286004,0.004007606097524506,1.5088560901241999
1592295210.2582633,-0.512496965369511,9.526242413423777,0.5287393787932881,-0.33320135665833633,-0.754440398270459,-0.0044444444444444444,0.11330624072321568,0.03736989202505138,1.4141146662598671
1592295210.2682633,-1.0058411549475026,10.661032055361119,0.7410376232898505,-0.3388888888888889,-0.7511111111111111,-0.0044444444444444444,0.06977091470345473,0.09620529679148856,1.3013759172383177
1592295210.2782633,-2.748780205230056,15.551011254551474,0.42260095994703745,-0.3388888888888889,-0.7511111111111111,-0.0044444444444444444,-0.2755773099690974,-0.2683656763723695,0.4904654676099979
1592295210.2882633,2.8533007535391115,10.627167134344358,0.6610101838130972,-0.3388888888888889,-0.7511111111111111,-0.0044444444444444444,-0.053291608074336694,-0.12142923841007153,-0.027113595281236996
1592295210.2982633,1.0852656192911945,8.853947387650713,2.382235659481184,-0.3388888888888889,-0.7511111111111111,-0.0044444444444444444,-0.04129362445203617,0.010233682590937612,0.02241938235634039
1592295210.3082633,0.11127320484151493,8.872450928193661,2.144781173463955,-0.37674830511482627,-0.7195615975894967,0.007273946292155216,0.11294076977530737,-0.06529996564644572,-0.02549534789270662
1592295210.3182633,0.3230231154942471,9.055329879533113,1.6951890227409856,-0.38555555555555554,-0.7122222222222222,0.01,0.15539755223062166,-0.05551548626439524,-0.04961034305705024
1592295210.3282633,0.358127540740217,9.868308883311533,0.7959189084096292,-0.38555555555555554,-0.7122222222222222,0.01,0.1545083583948409,0.09994325896007059,-0.06512891002721258
1592295210.3382633,-0.38796406288994256,9.845194609433491,0.8215568754679311,-0.38555555555555554,-0.7122222222222222,0.01,0.3368021683121938,0.12723038633326875,-0.049732399143664646
1592295210.3482633,-0.30422460693785874,9.832633691040678,0.7210695283254305,-0.38555555555555554,-0.7122222222222222,0.01,0.3304079779738511,0.11763910082575464,0.07404085669139839
1592295210.3582633,-0.2204851509857749,9.820072772647867,0.6205821811829298,-0.38555555555555554,-0.7122222222222222,0.01,0.32401378763550837,0.10804781531824054,0.19781411252646142
1592295210.3682632,-0.053759145029407554,9.872973031128963,0.6564373834457037,-0.37777777777777777,-0.7033333333333334,0.024444444444444446,0.44065002184466384,0.13316710718868296,0.27220664266678307
1592295210.3782632,0.0698905575186494,10.061792059285434,0.5122298292108363,-0.37777777777777777,-0.7033333333333334,0.024444444444444446,0.4872745548823278,0.24548914953187953,0.4333970648852084
1592295210.3882632,0.06320027529249828,9.961534755677906,0.5637990364762561,-0.37777777777777777,-0.7033333333333334,0.024444444444444446,0.48141297839937186,0.2672099985695912,0.36633821365619273
1592295210.3982632,0.029532782157277445,9.789584695250912,0.6815573928090752,-0.37777777777777777,-0.7033333333333334,0.024444444444444446,0.4493543283078767,0.25577328704108593,0.2614164120235604
1592295210.4082632,0.03222900365153887,9.768691184141888,0.9422699530516432,-0.38895705094766125,-0.7093887729670202,0.03049988407813134,0.47886131285609657,0.1507443355918922,0.4199274585155455
1592295210.4182632,0.1788149045357473,10.069507219583718,0.7394807637140216,-0.40444444444444444,-0.7177777777777777,0.03888888888888889,0.5391478342399078,0.1461335649262495,0.43518484232367244
1592295210.4282632,0.2371268307884076,10.04291056403864,0.3986569024618261,-0.40444444444444444,-0.7177777777777777,0.03888888888888889,0.5211118581770635,0.2347300259147153,0.4699770831850483
1592295210.4382632,0.13442506383814573,9.98348929483402,0.30936161854252603,-0.40444444444444444,-0.7177777777777777,0.03888888888888889,0.5105598444900916,0.22063544942205726,0.46053474334050554
1592295210.4482632,-0.03,9.900032917322994,0.17642049355789816,-0.40444444444444444,-0.7177777777777777,0.03888888888888889,0.47254470958768424,0.19097953762125994,0.5855914392744599
1592295210.4582632,0.09186531748833197,10.177513040749892,-0.06233164686041495,-0.4103684529334606,-0.7127000562157639,0.05496834050193269,0.43062381586917486,0.3126728228478189,0.6391476905275638
1592295210.4682631,0.1414818438381938,10.287654562558796,-0.14061825023518346,-0.4122222222222222,-0.7111111111111111,0.06,0.3519454794756394,0.2622008299460098,0.6369381257387675
1592295210.4782631,0.2257017493711411,10.015292419391722,-0.3652046649897096,-0.4122222222222222,-0.7111111111111111,0.06,0.3011256397611546,0.06958246298625353,0.6576178638822353
1592295210.4882631,0.28877487710590366,10.003059705054168,-0.4144900491576385,-0.4122222222222222,-0.7111111111111111,0.06,0.2034975983159935,0.03167886501487835,0.821504126071428
1592295210.4982631,0.3,9.983115374223182,-0.41,-0.4122222222222222,-0.7111111111111111,0.06,0.17054510015561314,0.06690674415537502,0.8110290025427265
1592295210.508263,0.47740923320499445,10.154702961390377,-0.4031765679536541,-0.42511092719865345,-0.7020132017159832,0.06,0.07484521632304719,-0.12020648278534672,0.7958312566463384
1592295210.518263,0.5025071672623022,10.192507167262303,-0.4766571103169305,-0.4311111111111111,-0.6977777777777778,0.06,-0.008873372703440616,-0.22905822802583978,0.811789773814496
1592295210.528263,0.38,10.16902635284651,-0.6895131764232548,-0.4311111111111111,-0.6977777777777778,0.06,-0.16229575807998825,-0.4204521779680209,0.78680761946584
1592295210.538263,0.538726974153934,10.08150673520872,-0.551273025846066,-0.4311111111111111,-0.6977777777777778,0.06,-0.17879427338264248,-0.36334322562274746,0.8212198230106472
1592295210.548263,0.5560109778119469,10.102313207344764,-0.5906373925014751,-0.4311111111111111,-0.6977777777777778,0.06,-0.3500272777692678,-0.31808745366948615,0.8891919283734999
1592295210.558263,0.7707806243439723,9.936737161295339,-0.4604960541149944,-0.4311111111111111,-0.6794325873515704,0.08446025390160988,-0.4738228307539016,-0.3775358849975872,0.9428955881256552
1592295210.568263,0.9250836172189533,9.987273149581913,-0.3339331062248374,-0.4311111111111111,-0.6711111111111111,0.09555555555555556,-0.46053294624903096,-0.39300261575201406,0.9529570685678144
1592295210.578263,0.9225396646787443,10.007618994036232,-0.2097023742545291,-0.4311111111111111,-0.6711111111111111,0.09555555555555556,-0.5784303600859032,-0.4137982247897034,1.0287822176093078
1592295210.588263,1.0617131952199204,9.506934282238037,0.04711895198253305,-0.4311111111111111,-0.6711111111111111,0.09555555555555556,-0.5670741610531658,-0.379628311250521,0.9259963590792258
1592295210.598263,1.1987372121084938,9.403886469754998,0.36650595456691676,-0.4311111111111111,-0.6711111111111111,0.09555555555555556,-0.49747188755734695,-0.3626858693511486,0.8713206167150216
1592295210.608263,1.3388717765042981,9.651128223495702,0.6138132760267431,-0.4651448583253741,-0.6540942375039797,0.09555555555555556,-0.5799103100866495,-0.5058059659042905,0.9489760271602982
1592295210.618263,1.4833208983344637,9.473470118320899,0.6367164066621449,-0.48444444444444446,-0.6444444444444445,0.09555555555555556,-0.5681437043416634,-0.5276364690101847,0.9118857020406671
1592295210.628263,1.6611240352212198,9.439490161974128,0.7350521795847376,-0.48444444444444446,-0.6444444444444445,0.09555555555555556,-0.31397973303973814,-0.4124667284291233,0.8684731866827272
1592295210.638263,1.5736336336336336,9.706912912912914,0.8282186186186186,-0.48444444444444446,-0.6444444444444445,0.09555555555555556,-0.16110070355675707,-0.25012376405078557,0.8399993215019751
1592295210.648263,1.5431002412392076,9.734973654139157,0.8096702006094464,-0.48444444444444446,-0.6444444444444445,0.09555555555555556,-0.17060130846216442,-0.2359792043464989,0.8604510538245691
1592295210.658263,1.6616628213579434,9.448337178642056,0.7710827290705339,-0.49294147806342925,-0.6274503772064748,0.09555555555555556,-0.15924277816495105,-0.22662962275504817,0.913665697719351
1592295210.668263,1.6815116448857415,9.416843834416294,0.8050664379061108,-0.49777777777777776,-0.6177777777777778,0.09555555555555556,0.03265910091216218,-0.14164975679756106,0.9469190470685483
1592295210.678263,1.9420468786869771,9.230385936393906,0.5189179622977897,-0.49777777777777776,-0.6177777777777778,0.09555555555555556,0.057502034592150295,-0.17667248763456994,0.8500849350186447
1592295210.688263,2.0306566256473606,9.361481921413978,0.5583674632964318,-0.49777777777777776,-0.6177777777777778,0.09555555555555556,0.11776043577135743,-0.14735021196331324,0.8933963192937895
1592295210.698263,2.112202407569714,9.667236482014776,0.6867304630904896,-0.49777777777777776,-0.6177777777777778,0.09555555555555556,0.10117870615331623,-0.15445923498171882,0.8897463995851405
1592295210.708263,2.126150224540055,9.771530493988122,0.6323004490801101,-0.5013677628084408,-0.6010245143013504,0.10333385645532539,0.042542400517361786,-0.11755416227826965,0.7686121612855575
1592295210.718263,2.0918085490668274,9.643009030704395,0.5214437086092716,-0.5044444444444445,-0.5866666666666667,0.11,0.05707967446991148,-0.06356988776979075,0.7530977510711432
1592295210.728263,2.078497095226067,9.498082849204344,0.2572013134629957,-0.5044444444444445,-0.5866666666666667,0.11,0.09296914628381073,-0.048578753329418446,0.8225594259551849
1592295210.738263,2.089310204569925,9.89858140925948,0.3179306137097739,-0.5044444444444445,-0.5866666666666667,0.11,0.12407455661171843,0.009065026953716512,0.7961517269776606
1592295210.748263,2.1491366641530614,10.00316556477211,0.5556833207653051,-0.5044444444444445,-0.5866666666666667,0.11,-0.011496736263832935,-0.03055889084470427,0.8001440155603864
1592295210.7582629,2.077308741500753,9.66921379422662,0.4892137942266195,-0.5152840772860316,-0.5792500757750544,0.12540368877488703,-0.03925671747151316,-0.1298359107106836,0.7323360254926473
1592295210.7682629,1.9955490051584377,9.55795873249816,0.3002137067059691,-0.5255555555555556,-0.5722222222222222,0.14,0.029724134004695243,-0.14883851463810893,0.6626294594499381
1592295210.7782629,2.2721689042875703,9.472730186227803,0.34594369857080987,-0.5255555555555556,-0.5722222222222222,0.14,-0.14216260440333608,-0.2317337482024162,0.638946595658481
1592295210.7882628,2.5807992445071366,9.259922059913453,0.2408771845936835,-0.5255555555555556,-0.5722222222222222,0.14,-0.27473204513517,-0.29779680362153244,0.6504073129121327
1592295210.7982628,2.6617693730239216,9.405867684781962,0.26526278112509694,-0.5255555555555556,-0.5722222222222222,0.14,-0.4019498967800887,-0.27214474286509843,0.6099698888729322
1592295210.8082628,2.546784749677066,9.522595999530276,0.568731749324774,-0.5314683611469927,-0.5491085276375134,0.14,-0.25958232878166937,-0.165120746852994,0.47604321620981477
1592295210.8182628,2.448440044340813,9.47324796452735,0.44501280532089754,-0.5377777777777778,-0.5244444444444445,0.14,-0.3006032504946148,-0.2650495306454952,0.3788725794949592
1592295210.8282628,2.2818676233556907,9.619066188322154,0.3205643945302345,-0.5377777777777778,-0.5244444444444445,0.14,-0.315154954008806,-0.2693143117977658,0.33026930977216573
1592295210.8382628,2.3377077707770777,9.676733673367337,0.3067336733673367,-0.5377777777777778,-0.5244444444444445,0.14,-0.3251679396525804,-0.25983656877337924,0.3306031112112119
1592295210.8482628,2.3601547753869387,9.841702529256324,0.5478633446583616,-0.5377777777777778,-0.5244444444444445,0.14,-0.39126728908613817,-0.2576691376109881,0.2700467109066764
1592295210.8582628,2.3811880865484882,9.536040797705944,0.4838620959332638,-0.5471011832348511,-0.5132563578959565,0.15616056945892715,-0.2897291061704086,-0.22559680137990215,0.10609697874673958
1592295210.8682628,2.424073590504451,9.248941246290801,0.3630148367952522,-0.5544444444444444,-0.5044444444444445,0.1688888888888889,-0.31628810093474274,-0.24855119939243106,0.07952641937388405
1592295210.8782628,2.56680412371134,9.53852233676976,1.055360824742268,-0.5544444444444444,-0.5044444444444445,0.1688888888888889,-0.42279626504121226,-0.26943895183601463,0.14556030967395148
1592295210.8882627,2.6061703347910243,9.345318660835902,1.0032102659688866,-0.5544444444444444,-0.5044444444444445,0.1688888888888889,-0.2215841815793224,-0.16234602512457114,0.16816530119086198
1592295210.8982627,2.6054137667378985,9.269080518360225,0.9634828552943713,-0.5544444444444444,-0.5044444444444445,0.1688888888888889,-0.2736869775336812,-0.20367442667508914,0.22353004051287884
1592295210.9082627,2.5450942817721907,9.43459144565384,1.0852828453165722,-0.5616212717393155,-0.5011320626160424,0.1644723797843528,-0.24660969875488786,-0.18685431291280696,0.14942977001732494
1592295210.9182627,2.5179457565016525,9.424995818232507,0.985086224063085,-0.5688888888888889,-0.49777777777777776,0.16,-0.14412590309732656,-0.14432131338286835,0.08612814772604678
1592295210.9282627,2.386636546184739,9.238835341365462,0.7420632530120481,-0.5688888888888889,-0.49777777777777776,0.16,-0.12449653911055308,-0.19707347573613934,0.3025664502658819
1592295210.9382627,2.3573559741837147,9.702486365476672,0.7416494796256162,-0.5688888888888889,-0.49777777777777776,0.16,-0.10627893469224044,-0.13203351986997827,0.3074859445744168
1592295210.9482627,2.2092885550154664,9.923050656811151,0.7479207005985619,-0.5688888888888889,-0.49777777777777776,0.16,-0.10770872699300973,-0.13563759709338488,0.10776832325959854
1592295210.9582627,2.1766874479182743,9.827875065584395,0.9059374710657078,-0.5525763951044035,-0.48765278163568343,0.16337499871403147,-0.13381084286912714,-0.15065056201136612,0.15532058766375995
1592295210.9682627,2.2875582880868732,9.711713510060683,0.9926844458639412,-0.5366666666666666,-0.4777777777777778,0.16666666666666666,-0.14015747127673442,-0.10543675599809404,0.36308725897662414
1592295210.9782627,2.2178476200533277,9.975570368805935,0.8853594339871698,-0.5366666666666666,-0.4777777777777778,0.16666666666666666,-0.08106661919485152,-0.0523274800670157,0.35672936933241867
1592295210.9882627,2.3611360662368255,9.675343436986985,0.6867040993552378,-0.5366666666666666,-0.4777777777777778,0.16666666666666666,-0.025413312944599045,-0.05528652015338649,0.23491549969267947
1592295210.9982626,2.355870267867965,9.863754999797989,0.911945981980526,-0.5366666666666666,-0.4777777777777778,0.16666666666666666,-0.017687976933372797,0.005089368393241721,0.2028053013950473
1592295211.0082626,2.413981093094597,9.592811619608089,0.80475489889188,-0.5372146747636637,-0.4766817615837838,0.16666666666666666,-0.07093363966272062,-0.014634396745254366,0.2584676178507581
1592295211.0182626,2.4904369986961163,9.014120273420522,0.4520601367102612,-0.5377777777777778,-0.47555555555555556,0.16666666666666666,-0.06873595905812341,-0.062027537232984396,0.26329881140704653
1592295211.0282626,2.56,9.665227104769484,0.8802307998408277,-0.5377777777777778,-0.47555555555555556,0.16666666666666666,0.06081845142637696,0.02429797508154731,0.13466120287777109
1592295211.0382626,2.56,9.626644255819818,0.9492318682242205,-0.5377777777777778,-0.47555555555555556,0.16666666666666666,0.1899560018601304,0.08350296347257746,-0.07599356665625553
1592295211.0482626,2.568212267458648,9.378351482902282,0.6535189539248443,-0.5377777777777778,-0.47555555555555556,0.16666666666666666,-0.033846126355652935,-0.04417556448557906,-0.0354185461273446
1592295211.0582626,2.423555613356309,9.667802451474461,0.9904197418473843,-0.5377777777777778,-0.4610699641996583,0.17922084584177767,-0.035641903653974405,-0.12806889633913254,-0.11419782160230439
1592295211.0682626,2.222494104480595,9.724346696510652,1.0231827810863743,-0.5377777777777778,-0.44222222222222224,0.19555555555555557,0.0262550617439919,-0.21307732778471997,-0.2581732114791747
1592295211.0782626,2.4392288954660937,9.480779224180832,0.4792370151130203,-0.5377777777777778,-0.44222222222222224,0.19555555555555557,-0.0733648629931903,-0.1363261048986804,-0.28010725347984783
1592295211.0882626,2.4368966811667807,9.599342636959834,0.7546304679046967,-0.5377777777777778,-0.44222222222222224,0.19555555555555557,-0.06401871415357593,-0.10758380315467994,-0.2999945071699012
1592295211.0982625,2.55,9.32330501930502,0.6711754611754611,-0.5377777777777778,-0.44222222222222224,0.19555555555555557,-0.12547343081276244,-0.02385517294495746,-0.22961337497596013
1592295211.1082625,2.455373234485844,9.705256279158943,0.7428551799066914,-0.5327493023156729,-0.4481649659501644,0.1946412872897183,-0.215261027404078,-0.015164688127548995,-0.2924161990460179
1592295211.1182625,2.32,9.77,0.89,-0.5255555555555556,-0.45666666666666667,0.19333333333333333,-0.2454369260617026,-0.08835729338221293,-0.38615409700374537
1592295211.1282625,2.4611218722110206,9.720523914983637,0.9154612765676131,-0.5255555555555556,-0.45666666666666667,0.19333333333333333,-0.33935459711884236,-0.08129546842556414,-0.5467783077440328
1592295211.1382625,2.62,9.61,0.95,-0.5255555555555556,-0.45666666666666667,0.19333333333333333,-0.27379852640661045,-0.07526732399225547,-0.5181446216858165
1592295211.1482625,2.39,9.430878147342245,1.042747901771837,-0.5255555555555556,-0.45666666666666667,0.19333333333333333,-0.20214176075194348,-0.11629181838656925,-0.5849974255403535
1592295211.1582625,2.425680607433715,9.33356806074337,1.0850235747963997,-0.5255555555555556,-0.4534950571170031,0.19650494288299689,-0.17199290792149574,-0.07480643780039792,-0.6490288859172292
1592295211.1682625,2.49,9.34,1.04,-0.5255555555555556,-0.4477777777777778,0.20222222222222222,-0.11235557059713495,-0.062177354602297986,-0.6784967467127956
1592295211.1782625,2.6034110498420686,9.294495958027731,1.2865889501579313,-0.5255555555555556,-0.4477777777777778,0.20222222222222222,-0.16496066462763795,0.07400757474311886,-0.6659310231569016
1592295211.1882625,2.4993371675737337,9.324639826983864,1.3579827459181977,-0.5255555555555556,-0.4477777777777778,0.20222222222222222,-0.1024375578279154,-0.01809775297154582,-0.6879527047481597
1592295211.1982625,2.4162207089925896,9.269537352293211,1.2943701181654317,-0.5255555555555556,-0.4477777777777778,0.20222222222222222,-0.025941585809014955,0.04135915607153747,-0.7555730190084899
1592295211.2082624,2.2154953960645813,9.336336402623614,1.3027027623612513,-0.5146546347684718,-0.4574674851440744,0.20948950274694472,-0.05026015213648388,0.08261158164580154,-0.8531279471249427
1592295211.2182624,2.12,9.4,1.36,-0.4955555555555556,-0.47444444444444445,0.2222222222222222,-0.09053895494720585,0.06872233929727672,-0.8552113334772213
1592295211.2282624,1.743701968134958,9.54127147766323,1.1959668853483285,-0.4955555555555556,-0.47444444444444445,0.2222222222222222,-0.0031641249033050895,0.09761419040680953,-0.917419017332766
1592295211.2382624,1.69,9.441795845272207,1.2399648997134671,-0.4955555555555556,-0.47444444444444445,0.2222222222222222,0.06640635551773429,0.11800562083996959,-0.9242026297625607
1592295211.2482624,1.69,9.48,1.3,-0.4955555555555556,-0.47444444444444445,0.2222222222222222,0.1265363707695889,0.12217304763960307,-0.9730210579868387
1592295211.2582624,1.767081094589529,9.462810820942147,1.4272432212920154,-0.484414420981021,-0.4763543532286504,0.22667867605203604,0.05671137642761634,0.13529838758910795,-0.8642563829244868
1592295211.2682624,1.6964710326266583,9.433528967373341,1.4478455073421785,-0.45666666666666667,-0.4811111111111111,0.23777777777777778,0.16028892802192102,0.11633559127264517,-0.8404754091641685
1592295211.2782624,1.68,9.45,1.36,-0.45666666666666667,-0.4811111111111111,0.23777777777777778,0.12435470920459597,0.053450708342326333,-0.803942286699888
1592295211.2882624,1.570169269768583,9.52988715348761,1.1269111674435086,-0.45666666666666667,-0.4811111111111111,0.23777777777777778,0.31819180394797586,0.1460359187601732,-0.9542877110602321
1592295211.2982624,1.4682816991376557,9.573476525071863,1.0052347492813798,-0.45666666666666667,-0.4811111111111111,0.23777777777777778,0.2613950731638613,0.18051559725214109,-0.878268067993422
1592295211.3082623,1.3725577454180267,9.600349297012302,0.9051154908360531,-0.45052957709152786,-0.48337214411247803,0.231640688202639,0.19003317051433535,0.19897614114395912,-0.8291069832727443
1592295211.3182623,1.33,9.65,0.82,-0.43555555555555553,-0.4888888888888889,0.21666666666666667,0.222529479629277,0.3065234498815041,-0.7733990247899873
1592295211.3282623,1.203561666392228,9.699406388934628,0.8186453702179044,-0.43555555555555553,-0.4888888888888889,0.21666666666666667,0.30959171456561485,0.2304907361692836,-0.8257140872205182
1592295211.3382623,1.0840275002378914,9.707917499286326,0.81041250356837,-0.43555555555555553,-0.4888888888888889,0.21666666666666667,0.307511467086109,0.15462362857399448,-0.7098458573980233
1592295211.3482623,1.0866586624330226,9.686658662433022,0.9133653502679103,-0.43555555555555553,-0.4888888888888889,0.21666666666666667,0.2983053528722252,0.18470178873250398,-0.7347005309748434
1592295211.3582623,1.077312103543282,9.69343948228359,0.902369449605946,-0.43406227974626765,-0.49366737147861,0.22622363184610894,0.41594698028348775,0.19886885881918873,-0.915780923583475
1592295211.3682623,1.07,9.73,0.8,-0.43,-0.5066666666666667,0.25222222222222224,0.40797071265367457,0.2650718801466388,-0.938114472946952
1592295211.3782623,1.0116458257666165,9.795569449488921,0.4517412961137342,-0.43,-0.5066666666666667,0.25222222222222224,0.31803929040087625,0.10729494890229903,-0.7629876553902974
1592295211.3882623,0.9113717821078083,9.85,0.20372564357843834,-0.43,-0.5066666666666667,0.25222222222222224,0.30446931824158757,0.16677128640171815,-0.7966695126149661
1592295211.3982623,0.8587553446044012,9.8682097046248,0.2221398030831993,-0.43,-0.5066666666666667,0.25222222222222224,0.24678723191049404,0.22043806095920762,-0.7485693918588638
1592295211.4082623,0.7980386868780805,9.911196131312192,0.2655497070584953,-0.42681031650082146,-0.5098563501658452,0.2504944769935005,0.18693404707284025,0.1146466094289081,-0.698241078064512
1592295211.4182622,0.7200269692178927,9.91899730307821,0.3669649400167395,-0.406007191791438,-0.5306594748752286,0.23922611777591785,0.1682125788086261,0.1580463767686773,-0.7416408454042812
1592295211.4282622,0.6915476282596921,9.790765302174417,0.46537413913178055,-0.4033333333333333,-0.5333333333333333,0.23777777777777778,0.25699637283707943,0.07057935989736355,-0.6361973626639634
1592295211.4382622,0.7630691708657811,9.76670440416203,0.38693082913421895,-0.4033333333333333,-0.5333333333333333,0.23777777777777778,0.17138528482750712,0.17077879975924654,-0.6505344014275372
1592295211.4482622,0.7990824079485681,9.76655055523086,0.33344944476914085,-0.4033333333333333,-0.5333333333333333,0.23777777777777778,0.1897461574988154,0.24467417331583538,-0.749818718738715
1592295211.4582622,0.7539799662798771,9.79,0.3112040067440246,-0.4020624373257518,-0.5342697830231302,0.23777777777777778,0.10645266471740135,0.20053046383065318,-0.6650127670372236
1592295211.4682622,0.6319405291932917,9.808706313871138,0.3206468430644306,-0.38222222222222224,-0.5488888888888889,0.23777777777777778,0.17298061328195755,0.1867507634385043,-0.6367559177137074
1592295211.4782622,0.5791517609714314,9.840848239028569,0.2816964780571371,-0.38222222222222224,-0.5488888888888889,0.23777777777777778,0.20456003898224023,0.23314236671277339,-0.600935721121783
1592295211.4882622,0.5210363214652926,9.799400779512686,0.3532957126802324,-0.38222222222222224,-0.5488888888888889,0.23777777777777778,0.15913056461386943,0.24237821265525578,-0.6158945208110048
1592295211.4982622,0.3586112039640561,9.765694398017972,0.575694398017972,-0.38222222222222224,-0.5488888888888889,0.23777777777777778,0.18190335244575356,0.2846916483536426,-0.595722322572828
1592295211.5082622,0.32288144263972374,9.771101803299654,0.59,-0.37767425501982355,-0.5477024626621761,0.23777777777777778,0.24110157474037394,0.304545054776429,-0.6276527877208908
1592295211.5182621,0.29,9.73,0.59,-0.3566666666666667,-0.5422222222222223,0.23777777777777778,0.15053464798451094,0.3457933580513765,-0.6850417314077744
1592295211.5282621,0.1615181501615853,9.760994814239547,0.42426685372147205,-0.3566666666666667,-0.5422222222222223,0.23777777777777778,0.2071123025474239,0.1918807883244099,-0.6203088207402425
1592295211.5382621,0.03220075568546375,9.817799244314536,0.3145559753808132,-0.3566666666666667,-0.5422222222222223,0.23777777777777778,0.23460441465811632,0.3051083068459763,-0.6751020831840627
1592295211.5482621,-0.055070003190018785,9.891395455995463,0.2686045440045369,-0.3566666666666667,-0.5422222222222223,0.23777777777777778,0.1629293591909767,0.2581666231930806,-0.530620450213435
1592295211.558262,-0.13683603303441677,9.928561833197461,0.23143816680253784,-0.3566666666666667,-0.5422222222222223,0.23777777777777778,0.10373770583528666,0.24276057642927087,-0.45034683812832105
1592295211.568262,-0.41,9.96,0.36,-0.3477777777777778,-0.5555555555555556,0.23777777777777778,0.18980455615438332,0.17453292519943295,-0.6261368691529657
1592295211.578262,-0.44,9.925114732490563,0.4363360493679228,-0.3477777777777778,-0.5555555555555556,0.23777777777777778,0.26923577423505807,0.2713673743070672,-0.5836873372798989
1592295211.588262,-0.38006023382105336,9.872018070146316,0.3950150584552633,-0.3477777777777778,-0.5555555555555556,0.23777777777777778,0.20311466284802468,0.20487576127749557,-0.41645093964750135
1592295211.598262,-0.23116379233630555,9.827790948084077,0.35116379233630557,-0.3477777777777778,-0.5555555555555556,0.23777777777777778,0.2113026221134729,0.20290275720383105,-0.5050393732486449
1592295211.608262,-0.2013042162777867,9.820326054069447,0.3213042162777867,-0.3477777777777778,-0.5555555555555556,0.23777777777777778,0.25446018386340064,0.3356326169253069,-0.5823972669513455
1592295211.618262,-0.36400535362073827,9.836187658495351,0.2403592561284869,-0.33555555555555555,-0.5555555555555556,0.26666666666666666,0.2880758385164281,0.26090450083852995,-0.5255634389856523
1592295211.628262,-0.49195649398728525,9.941041182628233,0.14129292516659434,-0.33555555555555555,-0.5555555555555556,0.26666666666666666,0.23459727036426511,0.1982004746194729,-0.5089150185207691
1592295211.638262,-0.6508654303376129,9.985432715168807,0.04543271516880647,-0.33555555555555555,-0.5555555555555556,0.26666666666666666,0.1809414912088213,0.1105777187155341,-0.37774995385314947
1592295211.648262,-0.6820338861110112,9.991864455555955,0.08237274722112306,-0.33555555555555555,-0.5555555555555556,0.26666666666666666,0.13873888992835315,0.10625431101775283,-0.35618401273476424
1592295211.658262,-0.68957786251304,9.96168854994784,0.1653564876434404,-0.33555555555555555,-0.5555555555555556,0.26666666666666666,0.13544720925564918,0.10790015135410483,-0.3380797690348924
1592295211.668262,-1.1349948591404484,10.077840838988278,0.17758996504215505,-0.29444444444444445,-0.5777777777777777,0.25222222222222224,0.1777899399972632,0.1378134480386053,-0.3197240052422144
1592295211.678262,-2.044062718465994,10.205545790472385,0.135149305902327,-0.29444444444444445,-0.5777777777777777,0.25222222222222224,0.14828783942981133,0.11066087733312668,-0.1675992373953014
1592295211.688262,-1.4419577848926834,10.055314834578441,0.007482509190086565,-0.29444444444444445,-0.5777777777777777,0.25222222222222224,0.13671215461479802,-0.05848537165506523,-0.0931399777593058
1592295211.698262,-0.9344511468175589,10.13636968629335,0.009246605811491308,-0.29444444444444445,-0.5777777777777777,0.25222222222222224,-0.03336737988995178,-0.06696640045960092,0.04396186447800104
1592295211.708262,0.17758056193170701,9.919933984590473,0.04656310610509084,-0.29444444444444445,-0.5777777777777777,0.25222222222222224,0.07409642635843071,0.1162105420092329,-0.09118201307678302
1592295211.718262,-0.84,9.89,0.02,-0.2822222222222222,-0.5966666666666667,0.25222222222222224,0.016362461737446838,0.06654067773228381,-0.08835729338221293
1592295211.728262,-0.3430597611837971,9.850621893389704,0.17067159915443067,-0.2822222222222222,-0.5966666666666667,0.25222222222222224,-0.008064531980519991,-0.03302338594517737,0.034130482901143046
1592295211.738262,-0.5263838051841339,9.86,0.043616194815866136,-0.2822222222222222,-0.5966666666666667,0.25222222222222224,0.052259244407041126,0.05363584074972396,-0.09618630821617569
1592295211.748262,-0.48,9.86,0.09,-0.2822222222222222,-0.5966666666666667,0.25222222222222224,0.05563236990731925,0.0839939702522271,-0.10799224746714915
1592295211.758262,-0.4875893945550589,9.837231816334823,0.15830455099553026,-0.2822222222222222,-0.5966666666666667,0.25222222222222224,0.02086164006240835,-0.003760728880167083,0.00459868726875283
1592295211.768262,-0.5067795808298244,9.795367365283624,0.21497137720584758,-0.2822222222222222,-0.5844444444444444,0.28,-0.05988432374040262,-0.1186783327747541,0.046511234812536474
1592295211.778262,-0.45682870758399385,9.838992552503651,0.08697765751095572,-0.2822222222222222,-0.5844444444444444,0.28,0.07364754777249348,0.00900330491600795,0.027287017478949457
1592295211.788262,-0.2977937627182812,9.825844020633193,0.06519497420850882,-0.2822222222222222,-0.5844444444444444,0.28,-0.04633932379189584,0.07419048285256136,0.04735907066982094
1592295211.798262,-0.6755573552172192,9.798061044523628,0.10487024439405392,-0.2822222222222222,-0.5844444444444444,0.28,-0.11208246046061099,0.02791027759917137,0.03775943950077905
1592295211.8082619,-0.32078627218082995,9.881092574595977,0.052031997984378936,-0.2822222222222222,-0.5844444444444444,0.28,-0.06432560375697147,0.03449743024794923,-0.10139416020465333
1592295211.8182619,-0.4251212620673417,9.938825052978572,-0.006807157993878031,-0.2877777777777778,-0.5988888888888889,0.24333333333333335,-0.07788922195027849,0.04300215731054959,0.050940282143098564
1592295211.8282619,-0.5874631135539387,9.877182889194243,0.0043657783884846705,-0.2877777777777778,-0.5988888888888889,0.24333333333333335,-0.06687854458650241,-0.012921035962848172,0.005116287058263681
1592295211.8382618,-0.4526892796530266,9.853725014142938,-0.002210776918725243,-0.2877777777777778,-0.5988888888888889,0.24333333333333335,-0.05348110061992654,-0.009352336347216338,0.01870930096005707
1592295211.8482618,-0.48063985515620783,9.788720289687584,0.2831992757810394,-0.2877777777777778,-0.5988888888888889,0.24333333333333335,-0.023816787244214294,0.0810624807091585,0.041425642596192795
1592295211.8582618,-0.48871855618475285,9.772562887630494,0.3235927809237644,-0.2877777777777778,-0.5988888888888889,0.24333333333333335,0.07488316531843973,0.04404999849816325,0.0273256493729565
1592295211.8682618,-0.47,9.76,0.41,-0.2877777777777778,-0.5722222222222222,0.24333333333333335,0.00545415391248228,-0.04908738521234052,0.044724062082354694
1592295211.8782618,-0.47,9.76967264031664,0.43541696443296135,-0.2877777777777778,-0.5722222222222222,0.24333333333333335,0.06429437345476652,0.09673362171401437,-0.007431723202821423
1592295211.8882618,-0.4714721786150357,9.755583464154892,0.30441653584510725,-0.2877777777777778,-0.5722222222222222,0.24333333333333335,-0.046948725174792955,-0.03419173221416896,0.17962080503964842
1592295211.8982618,-0.47949783595856393,9.732008656165744,0.3284935078756918,-0.2877777777777778,-0.5722222222222222,0.24333333333333335,0.06599290173802251,0.009360371422954546,0.10021382834863879
1592295211.9082618,-0.4720579679296154,9.761768128281538,0.3061739037888463,-0.2877777777777778,-0.5722222222222222,0.24333333333333335,0.05787726467433427,-0.062057234737502014,-0.015028217955734308
1592295211.9182618,-0.4372106803569715,9.741157278572114,0.14922848095192398,-0.29444444444444445,-0.5988888888888889,0.24333333333333335,0.04684616288396209,0.00012623950903854937,0.07391171473702848
1592295211.9282618,-0.31,10.25,-0.19,-0.29444444444444445,-0.5988888888888889,0.24333333333333335,-0.07526732399225547,0.05563236990731925,0.00545415391248228
1592295211.9382617,-0.9628056669208254,9.65127899254741,0.33335735543694817,-0.29444444444444445,-0.5988888888888889,0.24333333333333335,0.09455348696686738,-0.12442618455212706,-0.05922663546912547
1592295211.9482617,-0.5167430558151707,9.727104938502375,0.5425331788104228,-0.29444444444444445,-0.5988888888888889,0.24333333333333335,0.08027016292960266,0.007112115566868459,-0.14751348428902822
1592295211.9582617,-0.4461821002654305,9.664384089124827,0.5974139220157763,-0.29444444444444445,-0.5988888888888889,0.24333333333333335,0.2359207334717779,0.04303147799967813,-0.1765910634013027
1592295211.9682617,-0.47,9.7,0.44,-0.29444444444444445,-0.5788888888888889,0.25,0.284706834231575,0.0839939702522271,-0.07744898555724837
1592295211.9782617,-0.4873858787537235,9.717385878753724,0.27483415183962645,-0.29444444444444445,-0.5788888888888889,0.25,0.14531370405052627,0.03468483576641396,-0.01865732520877885
1592295211.9882617,-0.4669428907168037,9.871209400705052,-0.09260916568742655,-0.29444444444444445,-0.5788888888888889,0.25,0.2207509255431084,0.07457349921440624,-0.10893771960013314
1592295211.9982617,-0.4420465771468296,9.969317807617724,-0.3813643847645531,-0.29444444444444445,-0.5788888888888889,0.25,0.1971137130924951,-0.03373415447930613,-0.04303970217298748
1592295212.0082617,-0.4650660422231166,9.961644652592295,-0.3967106948154111,-0.29444444444444445,-0.5788888888888889,0.25,0.10755349649601806,0.11441685802140822,-0.07317211149516667
1592295212.0182617,-0.46,9.98,-0.34,-0.3022222222222222,-0.5866666666666667,0.2577777777777778,0.04690572364734761,-0.016362461737446838,0.007635815477475192
1592295212.0282617,-0.49956952704616253,9.98989238176154,-0.4784933446615689,-0.3022222222222222,-0.5866666666666667,0.2577777777777778,0.029640260387035534,0.09586304945458164,-0.06358422047131211
1592295212.0382617,-0.5137942214169925,9.920948555354249,-0.4943086678745113,-0.3022222222222222,-0.5866666666666667,0.2577777777777778,0.04101662085367824,0.0732154241704841,-0.09097036723579209
1592295212.0482616,-0.5473461551303884,9.931326922434806,-0.4393365387825971,-0.3022222222222222,-0.5866666666666667,0.2577777777777778,-0.03469471276829882,0.006643581607337007,-0.05402968747747487
1592295212.0582616,-0.5193365387825971,9.9453317306087,-0.43233413469564924,-0.3022222222222222,-0.5866666666666667,0.2577777777777778,-0.020945524495159837,-0.0498808590711233,-0.06014043782109221
1592295212.0682616,-0.43054254644526385,9.999224933649623,-0.3587598938393968,-0.2877777777777778,-0.5911111111111111,0.2577777777777778,-0.16979759692672106,0.042288760647321275,0.0651372037847263
1592295212.0782616,-0.4995001996383024,9.900714000516711,-0.20114240082673746,-0.2877777777777778,-0.5911111111111111,0.2577777777777778,-0.12251574328623559,0.010051133165172088,-0.11324433494983246
1592295212.0882616,-0.533137526402253,9.85,-0.12780004693733865,-0.2877777777777778,-0.5911111111111111,0.2577777777777778,-0.1881724572368406,0.039899881507015636,0.05283581360952225
1592295212.0982616,-0.4513880476659798,9.850462682555326,0.02370146044261267,-0.2877777777777778,-0.5911111111111111,0.2577777777777778,-0.015318798317698595,-0.017534706554691037,-0.1326108937626928
1592295212.1082616,-0.4739360272377027,9.857978675745901,0.08382940596720724,-0.2877777777777778,-0.5911111111111111,0.2577777777777778,-0.10468437471080179,-0.0011373530880665929,-0.018649287169652917
1592295212.1182616,-0.4882676123794102,9.848845074919607,0.12173238762058977,-0.3022222222222222,-0.5911111111111111,0.2577777777777778,-0.17621065563275784,0.09930555546258127,0.030494127629438463
1592295212.1282616,-0.4606239908587327,9.829376009141267,0.1479720297091189,-0.3022222222222222,-0.5911111111111111,0.2577777777777778,-0.16606505217077117,0.06361028088691874,-0.09384724200030362
1592295212.1382616,-0.5005053063720138,9.791010612744026,0.02505306372013801,-0.3022222222222222,-0.5911111111111111,0.2577777777777778,-0.04626743256887062,0.012944998517304428,-0.03145991802581177
1592295212.1482615,-0.5096643665108966,9.809328733021793,0.11664366510896625,-0.3022222222222222,-0.5911111111111111,0.2577777777777778,-0.07424218983591364,-0.048999106859719394,-0.10739140203635711
1592295212.1582615,-0.5243548387096775,9.831532258064517,0.14153225806451614,-0.3022222222222222,-0.5911111111111111,0.2577777777777778,-0.09718950391145843,-0.048137306788875865,0.08007929526665514
1592295212.1682615,-0.5001523714962194,9.83005079049874,0.17984762850378064,-0.2944839481656865,-0.5911111111111111,0.27104339044612474,-0.045034323583463445,0.09201144736680736,-0.05673365660237992
1592295212.1782615,-0.5381440461958361,9.81,0.17768005774479506,-0.29444444444444445,-0.5911111111111111,0.27111111111111114,-0.13964221063649832,0.04918861178936419,-0.04462283550533103
1592295212.1882615,-0.5003004533868676,9.81,0.13037556673358447,-0.29444444444444445,-0.5911111111111111,0.27111111111111114,-0.006511127677481243,0.05125265958717841,-0.04255878770751681
1592295212.1982615,-0.5,9.791292570529391,0.1861222884118242,-0.29444444444444445,-0.5911111111111111,0.27111111111111114,-0.03606411380436327,-0.007910209013636496,0.020718183259192266
1592295212.2082615,-0.4930922785862051,9.796907721413795,0.2521694927241544,-0.29444444444444445,-0.5911111111111111,0.27111111111111114,0.09368613782647943,-0.05721006953792572,-0.09471985896831298
1592295212.2182615,-0.499765225149082,9.8,0.33,-0.2877777777777778,-0.5911111111111111,0.24333333333333335,-0.15181355833846472,-0.09015480549569985,0.024346419057840206
1592295212.2282615,-0.46037657886087247,9.8,0.33,-0.2877777777777778,-0.5911111111111111,0.24333333333333335,-0.00035718216001029424,-0.025705283717634114,-0.10025598971308686
1592295212.2382615,-0.527051119463211,9.780842537296225,0.24379141783301436,-0.2877777777777778,-0.5911111111111111,0.24333333333333335,0.0491551958556482,-0.03971739301968206,0.09707946252997805
1592295212.2482615,-0.5117438791298807,9.825640302175298,0.19435969782470192,-0.2877777777777778,-0.5911111111111111,0.24333333333333335,0.0393204436088722,-0.008497797169805602,-0.03558121825796828
1592295212.2582614,-0.5306325116396579,9.809367488360342,0.19687750387988595,-0.2877777777777778,-0.5911111111111111,0.24333333333333335,-0.03834329058959175,-0.039964241431506925,-0.04758694662455684
1592295212.2682614,-0.48431848141312944,9.818560506195624,0.2,-0.29396461317631895,-0.5869865541787503,0.262924978762047,-0.050814653780669995,0.015229930331838865,-0.05500427224610853
1592295212.2782614,-0.48,9.838825299788384,0.13411145074065367,-0.29444444444444445,-0.5866666666666667,0.2644444444444444,0.05974926223179776,-0.06346860277803279,-0.04331124000798285
1592295212.2882614,-0.48908201326211087,9.830917986737889,0.07550792042733469,-0.29444444444444445,-0.5866666666666667,0.2644444444444444,-0.040454270307913556,0.014495953622876784,0.11299655172625848
1592295212.2982614,-0.49,9.856999573196756,0.0789998577322521,-0.29444444444444445,-0.5866666666666667,0.2644444444444444,0.06457535108133272,0.03272476828485491,-0.03719470697147395
