time,acc_x,acc_y,acc_z,mag_x,mag_y,mag_z,gyr_x,gyr_y,gyr_z
1592295268.6582077,-0.617996205775106,9.801599241155023,0.20479772346506359,-0.3244444444444444,-0.6166666666666667,0.2877777777777778,0.11685335283830708,-0.09316191545396953,0.11214526826952495
1592295268.6682076,-0.6549203677327464,9.808306789244249,0.19782899564072684,-0.3244444444444444,-0.6166666666666667,0.2877777777777778,0.07043036118546381,-0.042981294062807505,0.04780728688503696
1592295268.6782076,-0.6167856886442503,9.8,0.044955366758406126,-0.3244444444444444,-0.6166666666666667,0.2877777777777778,0.03491632250265723,-0.0658199488524666,0.15502701207555647
1592295268.6882076,-0.4536310392427529,9.804270163675804,0.09288306054032736,-0.3244444444444444,-0.6166666666666667,0.2877777777777778,0.024304854227585007,-0.054242878218015836,0.1099330916270928
1592295268.6982076,-0.2633945967264839,9.853897061723526,0.010171563794123442,-0.3244444444444444,-0.6166666666666667,0.2877777777777778,0.04054521863666565,-0.012739724728143081,0.13248915330637145
1592295268.7082076,-0.16,9.89,-0.09,-0.3055555555555556,-0.5955555555555555,0.28,0.03599741582238304,0.044724062082354694,0.04036073895236887
1592295268.7182076,-0.6198248175182481,9.919491240875912,-0.1250875912408759,-0.3055555555555556,-0.5955555555555555,0.28,0.047973782341975885,0.0723087042684596,0.07591601000575901
1592295268.7282076,-0.43,9.909292551780677,-0.21363296602608928,-0.3055555555555556,-0.5955555555555555,0.28,-0.0947479368182596,0.05395549999901074,0.12725179037472725
1592295268.7382076,-0.43546671187166536,9.89514070055852,-0.10934797737370854,-0.3055555555555556,-0.5955555555555555,0.28,-0.08556470740581705,0.005392761712343206,0.10096885519607081
1592295268.7482076,-0.5028257882621652,9.835265965989187,0.14511964454595738,-0.3055555555555556,-0.5955555555555555,0.28,0.0026081174029278925,0.031518043137156525,0.01442886047637669
1592295268.7582076,-0.5439935344827587,9.755772030651341,0.37667744252873564,-0.3055555555555556,-0.6166666666666667,0.2877777777777778,-0.05023730266222219,-0.044526531853014695,-0.007935637214101014
1592295268.7682076,-0.4682815075762708,9.695155477271188,0.47250412122033286,-0.3055555555555556,-0.6166666666666667,0.2877777777777778,0.09681258061276063,0.0012265102972084329,-0.10267557129097905
1592295268.7782075,-0.45619485426845413,9.721268381910516,0.3387316180894847,-0.3055555555555556,-0.6166666666666667,0.2877777777777778,0.06216732554362235,0.025397908489938725,-0.05962272757252506
1592295268.7882075,-0.4370077946868869,9.733003340580094,0.32699665941990563,-0.3055555555555556,-0.6166666666666667,0.2877777777777778,0.11638520674561477,0.042979218698040146,-0.006538911348981485
1592295268.7982075,-0.48890185057532215,9.755243650246566,0.30475634975343335,-0.3055555555555556,-0.6166666666666667,0.2877777777777778,0.0735251413119016,0.04621394061756567,0.03389511264508753
1592295268.8082075,-0.7737019719455174,9.867460866029681,0.2050355763366538,-0.31222222222222223,-0.6166666666666667,0.29444444444444445,0.16388451850825286,0.0299846518791814,0.12586488558776346
1592295268.8182075,-1.0281145179165128,10.068663465090507,0.013460657554488362,-0.31222222222222223,-0.6166666666666667,0.29444444444444445,0.2109989912619502,0.08424912874926321,0.08308536099904167
1592295268.8282075,-1.2571542025148907,10.178577101257446,-0.18536068828590338,-0.31222222222222223,-0.6166666666666667,0.29444444444444445,0.03467917822553425,-0.05989173563645829,0.18845022223779606
1592295268.8382075,-1.4127347341954022,10.244007183908046,-0.2112724497126437,-0.31222222222222223,-0.6166666666666667,0.29444444444444445,0.10816351260185791,-0.21746318972239573,0.31520979731030485
1592295268.8482075,-1.5407934626436781,10.183744252873563,-0.022950790229885082,-0.31222222222222223,-0.6166666666666667,0.29444444444444445,0.04407026889137999,-0.16651727805509278,0.4244969949191967
1592295268.8582075,-1.48,10.19,0.0,-0.3055555555555556,-0.6166666666666667,0.29444444444444445,0.044724062082354694,-0.15926129424448257,0.5988660995905543
1592295268.8682075,-1.417355985014281,10.17210171000408,-0.03579657999183946,-0.3055555555555556,-0.6166666666666667,0.29444444444444445,0.14332029077442263,-0.09776067634745012,0.600818500158714
1592295268.8782074,-1.267697096920398,10.163995372247799,-0.1748531762123995,-0.3055555555555556,-0.6166666666666667,0.29444444444444445,0.0751391960665616,-0.21575774701705694,0.7401303382640732
1592295268.8882074,-1.0247784673113003,10.098041925241738,-0.11934730841391254,-0.3055555555555556,-0.6166666666666667,0.29444444444444445,0.030830649930314577,-0.09822310135991359,0.9665140138631663
1592295268.8982074,-0.9642459229326021,10.075342221099726,-0.11178074036657526,-0.3055555555555556,-0.6166666666666667,0.29444444444444445,0.0720998766497626,-0.11142925391013697,0.8278494120858209
1592295268.9082074,-0.87,10.06,-0.08,-0.3322222222222222,-0.6088888888888889,0.2877777777777778,-0.025089107997418484,-0.25198191075668136,0.940296134511945
1592295268.9182074,-0.8526136033531144,10.068693198323443,-0.02784081005934349,-0.3322222222222222,-0.6088888888888889,0.2877777777777778,-0.09146876630432405,-0.18655053328273158,1.1451247944303964
1592295268.9282074,-0.5991029205579715,9.917275730139492,0.12068106746512677,-0.3322222222222222,-0.6088888888888889,0.2877777777777778,-0.006650047244857734,-0.15067602749278627,1.064835746546121
1592295268.9382074,-0.4362917033075501,9.87804167190108,0.12951041797526966,-0.3322222222222222,-0.6088888888888889,0.2877777777777778,0.06472490384563226,-0.23612965579681247,1.2297855846661605
1592295268.9482074,-0.22552664166113312,9.847932377380161,0.12198309434504047,-0.3322222222222222,-0.6088888888888889,0.2877777777777778,0.0368073803383646,-0.14334494531677583,1.2026891647914595
1592295268.9582074,0.12,9.76,0.12,-0.3511111111111111,-0.6088888888888889,0.2877777777777778,0.016362461737446838,-0.17889624832941878,1.1431906600562858
1592295268.9682074,0.2763354218271893,9.751771819903832,0.16936908057700711,-0.3511111111111111,-0.6088888888888889,0.2877777777777778,0.07201088496095903,-0.014643644298729552,1.35321857996438
1592295268.9782073,0.37373006427041183,9.741640085693883,0.14679243037372056,-0.3511111111111111,-0.6088888888888889,0.2877777777777778,0.08134998442914447,-0.030396034808335547,1.3290704584678856
1592295268.9882073,0.27224483924332876,9.590382651226355,0.2677040926418759,-0.3511111111111111,-0.6088888888888889,0.2877777777777778,0.23117264434191526,0.026708681399726757,1.245814981261817
1592295268.9982073,0.5135913112277926,9.597924728475869,0.2224516291447889,-0.3511111111111111,-0.6088888888888889,0.2877777777777778,0.22952721833636797,-0.07037145292756526,1.398016886774944
1592295269.0082073,0.82,9.63,0.09,-0.3511111111111111,-0.59,0.2877777777777778,0.2694352032766246,-0.007635815477475192,1.413716694115407
1592295269.0182073,0.9905182541452896,9.638974644955017,0.000253550449847581,-0.3511111111111111,-0.59,0.2877777777777778,0.24496065582935675,0.09026237431159628,1.5762276891652653
1592295269.0282073,1.263191074523397,9.548936308492202,-0.1171634893125361,-0.3511111111111111,-0.59,0.2877777777777778,0.23593603256305692,0.04574541620756043,1.49217844768035
1592295269.0382073,1.35,9.518673069766617,-0.04066346511669118,-0.3511111111111111,-0.59,0.2877777777777778,0.36574351276609757,0.015845374968972415,1.6420102897630535
1592295269.0482073,1.35,9.488942602470274,-0.055528698764863285,-0.3511111111111111,-0.59,0.2877777777777778,0.421686830626975,0.053140920209557324,1.7222767893025732
1592295269.0582073,1.37,9.49,-0.1,-0.39111111111111113,-0.5755555555555556,0.2877777777777778,0.4406956361285682,0.03599741582238304,1.578432142272372
1592295269.0682073,1.45553286607312,9.497775715097557,-0.3488228831218033,-0.39111111111111113,-0.5755555555555556,0.2877777777777778,0.4016784849606185,0.10979072346611411,1.4537468983226192
1592295269.0782073,1.774102829213272,9.589316195131122,-0.7009117398251715,-0.39111111111111113,-0.5755555555555556,0.2877777777777778,0.33770681486266396,0.00035127232454486854,1.6106629672849238
1592295269.0882072,1.9515922714622136,9.55961785484907,-0.7400636908584886,-0.39111111111111113,-0.5755555555555556,0.2877777777777778,0.27171413117022164,0.06223293536150033,1.6351484537504377
1592295269.0982072,2.1386640976236353,9.514720616570328,-0.7475465639049454,-0.39111111111111113,-0.5755555555555556,0.2877777777777778,0.2831416987350451,0.06876297396997087,1.5061801912331445
1592295269.1082072,2.24,9.51,-0.69,-0.45111111111111113,-0.54,0.26666666666666666,0.2781618495365963,-0.00545415391248228,1.5969762655748114
1592295269.1182072,2.2614602969135555,9.474232838477409,-0.639925973868371,-0.45111111111111113,-0.54,0.26666666666666666,0.2492900681509852,-0.024181795892338105,1.4393519455776917
1592295269.1282072,2.2896603677940806,9.381358528823679,-0.6101698161029598,-0.45111111111111113,-0.54,0.26666666666666666,0.21849958963774108,-0.04235715988488964,1.268325468866354
1592295269.1382072,2.7068339175109233,9.38,-0.6596230854179671,-0.45111111111111113,-0.54,0.26666666666666666,0.2582226444306046,0.1490791768837862,1.2339763050205634
1592295269.1482072,2.72508160492709,9.39508160492709,-0.7580304320260847,-0.45111111111111113,-0.54,0.26666666666666666,0.20999503268509628,0.039487165383051456,1.152294794429088
1592295269.1582072,2.84,9.27,-0.74,-0.47555555555555556,-0.4955555555555556,0.2877777777777778,0.11235557059713495,0.007635815477475192,0.8170322560898455
1592295269.1682072,3.0130670133553954,9.45027813891187,-0.8409557577906472,-0.47555555555555556,-0.4955555555555556,0.2877777777777778,0.06830531128981718,0.015501933210924794,0.8201787031832254
1592295269.1782072,3.236925760261063,9.539615720032632,-1.2036593805384421,-0.47555555555555556,-0.4955555555555556,0.2877777777777778,0.06196776239354758,-0.0049930510532313795,0.6363077990593267
1592295269.1882071,3.1419137049803876,9.471339593486272,-1.1413395934862711,-0.47555555555555556,-0.4955555555555556,0.2877777777777778,-0.11115543631414587,0.020224778075139033,0.543875547390754
1592295269.1982071,3.3588234598790363,9.429477137059438,-1.0427451289426506,-0.47555555555555556,-0.4955555555555556,0.2877777777777778,-0.05618849825873365,0.08968337948053492,0.4616923718521193
1592295269.2082071,3.2443810471109504,9.351803960575097,-0.7277312596075595,-0.5004525223297264,-0.4955555555555556,0.25855090373853373,-0.18175860645196734,-0.015339394834828768,0.5162049176133152
1592295269.2182071,3.3271745450201107,9.357264545418342,-0.6328254549798893,-0.5011111111111111,-0.4955555555555556,0.2577777777777778,-0.2480439121534536,0.10586879597935528,0.5641060823122122
1592295269.228207,3.2846064970309263,9.31287906064433,-0.7130902544536099,-0.5011111111111111,-0.4955555555555556,0.2577777777777778,-0.2027395635015362,0.26888250434695443,0.3100156794022309
1592295269.238207,3.508604250430787,9.281424468696152,-0.6533237602910205,-0.5011111111111111,-0.4955555555555556,0.2577777777777778,-0.32841065729947533,0.26558983158079374,0.22589616395128403
1592295269.248207,3.3778168304109752,9.28,-0.4683215055251349,-0.5011111111111111,-0.4955555555555556,0.2577777777777778,-0.18237223505480007,0.1220372625280649,0.3078332576066192
1592295269.258207,3.81,9.28,-0.51,-0.5255555555555556,-0.4722222222222222,0.25555555555555554,-0.19634954084936207,-0.0839939702522271,0.3392483733563978
1592295269.268207,3.5911302131790785,9.392751102301686,-0.2778653776141742,-0.5255555555555556,-0.4722222222222222,0.25555555555555554,-0.19490257175346692,0.06866126936471029,0.17574086552024684
1592295269.278207,3.294059734513274,9.15249557522124,-0.28086117256637166,-0.5255555555555556,-0.4722222222222222,0.25555555555555554,-0.208365934855263,0.34798654332651635,0.05215474345250201
1592295269.288207,3.6147341592920355,9.706486607669616,-0.34578902654867255,-0.5255555555555556,-0.4722222222222222,0.25555555555555554,-0.2713101708488703,0.34904682682486554,0.00851646022247115
1592295269.298207,2.719240926058296,9.401813795568264,-0.22620046064649352,-0.5255555555555556,-0.4722222222222222,0.25555555555555554,-0.12911945910216954,0.38258013389020157,-0.193736259956405
1592295269.308207,3.0785026171674077,9.318485371093159,-0.4303098242110678,-0.5368521712235972,-0.4547638161897942,0.263771276041404,0.010613544891362667,0.30901677266942873,-0.032189821980941474
1592295269.318207,2.7672777437155123,9.571115408196953,-0.570907418761496,-0.5377777777777778,-0.4533333333333333,0.2644444444444444,-0.11233087603619556,0.26360780136494355,-0.15114300878265366
1592295269.328207,2.7670937022104827,9.499687659298392,-0.6251561703508041,-0.5377777777777778,-0.4533333333333333,0.2644444444444444,-0.22856976741835444,0.3759716701103003,-0.4156128975031593
1592295269.338207,2.9926533018867927,9.507812264150942,-0.5765632075471697,-0.5377777777777778,-0.4533333333333333,0.2644444444444444,-0.1914073570447024,0.20569219777575107,-0.21554435500441738
1592295269.348207,2.8629137173908683,9.457637905796956,-0.3381107256722344,-0.5377777777777778,-0.4533333333333333,0.2644444444444444,-0.22787188413894455,0.20773879325625869,-0.2308695197638326
1592295269.358207,3.0924876158284285,9.594084154088232,-0.32848184626143717,-0.5444357350531953,-0.46950265814506154,0.23876375209640552,-0.27484660506478564,0.32336877222903615,-0.3528212033564404
1592295269.368207,3.0755654510174635,9.371466739638787,-0.32159012886213245,-0.5455555555555556,-0.4722222222222222,0.23444444444444446,-0.05944091557282033,0.008067936214339544,-0.28553373595813436
1592295269.378207,3.1154440697020798,9.2850799004256,-0.1187476913193608,-0.5455555555555556,-0.4722222222222222,0.23444444444444446,-0.038944402091999064,0.02034798408329172,-0.29940690244214335
1592295269.388207,3.3240104496516785,9.030939940890859,-0.12391123073675321,-0.5455555555555556,-0.4722222222222222,0.23444444444444446,-0.12707125090470472,-0.010984069557588863,-0.2009663433932877
1592295269.398207,3.2825479821349535,9.149893373033436,-0.11002132539331269,-0.5455555555555556,-0.4722222222222222,0.23444444444444446,-0.15434208764528506,0.08119594298978931,-0.3105250866531766
1592295269.408207,3.128824506257043,9.07756953917324,-0.10874503291619714,-0.5562439291197966,-0.4615338486579813,0.19849264245563397,0.04011114372320862,0.07828769798618404,-0.34089112142763617
1592295269.418207,3.074954230751359,9.09504576924864,-0.05743134612703871,-0.5577777777777778,-0.46,0.19333333333333333,0.005644482874346227,0.2059314509543434,-0.4625369109103074
1592295269.428207,3.06136346480468,9.074090394414041,-0.19682109832043782,-0.5577777777777778,-0.46,0.19333333333333333,0.024990502988017502,0.21905854212716855,-0.3659714631118962
1592295269.438207,2.8162729570345406,9.19186352148273,-0.12425009026356963,-0.5577777777777778,-0.46,0.19333333333333333,0.09971674224713066,0.19917580214260838,-0.4039965649685837
1592295269.448207,3.1627318335341403,9.253328132098204,-0.23998439629461377,-0.5577777777777778,-0.46,0.19333333333333333,0.028250231281431892,0.2168304602870396,-0.4714136110846532
1592295269.458207,3.2772049177916998,9.15521721227095,-0.3309938527603753,-0.5413802366736277,-0.48368533715043904,0.19879918036805005,0.12998522997526182,0.002018705903229334,-0.39129642455736174
1592295269.468207,3.0749295423086522,9.341326329165627,-0.29123238557716313,-0.5377777777777778,-0.4888888888888889,0.2,-0.008309933009765652,0.1720894781082043,-0.5451382342382751
1592295269.4782069,2.908125381502498,9.321445527095156,-0.29523432731218774,-0.5377777777777778,-0.4888888888888889,0.2,-0.08512729196769761,0.37873936754722914,-0.6929627022294045
1592295269.4882069,2.7456448163890284,9.407774492462842,-0.22538688983341693,-0.5377777777777778,-0.4888888888888889,0.2,0.08468767976725015,0.11380093074321845,-0.5863211568219313
1592295269.4982069,2.504466988159649,9.541242844820827,-0.08485179957657021,-0.5377777777777778,-0.4888888888888889,0.2,0.0015843476732130685,0.12872143235995656,-0.5832007927415838
1592295269.5082068,2.983942959457731,9.775687428059854,-0.23256810333802277,-0.5490315612965568,-0.511396455926447,0.2,-0.14425954590223705,0.3348744474460731,-0.8117875070890561
1592295269.5182068,2.8709989177055357,9.824282679280074,-0.1652603519461258,-0.5511111111111111,-0.5155555555555555,0.2,-0.2222049020488677,0.2958898720764388,-0.827010863185366
1592295269.5282068,2.8104513464308036,9.777234314284938,-0.010771446428086195,-0.5511111111111111,-0.5155555555555555,0.2,-0.1906492156467346,0.14969941443680337,-0.7550755812292851
1592295269.5382068,2.687205544401171,9.743543385181065,-0.26330583710297784,-0.5511111111111111,-0.5155555555555555,0.2,-0.23812285275822725,0.15423649052581243,-0.7895293561325618
1592295269.5482068,2.5331768613242396,9.487907963910201,-0.12939382637112817,-0.5511111111111111,-0.5155555555555555,0.2,-0.2662362931846042,0.18206532254112798,-0.8753688223205178
1592295269.5582068,2.4189570079824954,9.42029458243851,-0.14954617285951619,-0.5401663132397765,-0.535621018319669,0.1826707367037202,-0.16008029029654613,0.3297669989627446,-1.04193359319388
1592295269.5682068,2.4188556125528065,9.369155099577549,-0.12686632468316233,-0.5377777777777778,-0.54,0.17888888888888888,-0.1323650245984216,0.2849845204472912,-0.9041867637046807
1592295269.5782068,2.484202171620736,9.581983527601242,-0.12194533899512669,-0.5377777777777778,-0.54,0.17888888888888888,-0.23598839597488064,0.15820027641534512,-0.8332754660138564
1592295269.5882068,1.9502199498360024,9.530503569361374,-0.008709241751881147,-0.5377777777777778,-0.54,0.17888888888888888,-0.09002374102562544,0.07226948612502035,-0.8816156260318115
1592295269.5982068,1.8670149987705926,9.478407917383821,0.041592082616179,-0.5377777777777778,-0.54,0.17888888888888888,-0.0818883476660485,0.08086805745296353,-0.8243531870483507
1592295269.6082067,1.9115157753058072,9.53775582914374,-0.03314951902141641,-0.523239292893305,-0.5605249198369028,0.14639109914712622,-0.1471762658295561,0.07783339534410494,-0.773027483360408
1592295269.6182067,2.0467641040631395,9.59751826951184,0.0033820520315697156,-0.5188888888888888,-0.5666666666666667,0.13666666666666666,-0.23472376247493967,0.05999569303730508,-0.8359201138510783
1592295269.6282067,1.7926614708564794,9.510045325152698,-0.28485835889782496,-0.5188888888888888,-0.5666666666666667,0.13666666666666666,-0.3212564637300763,0.02401187378466213,-0.9402738855796431
1592295269.6382067,2.146407547169811,9.8810875,-0.06871981132075472,-0.5188888888888888,-0.5666666666666667,0.13666666666666666,-0.39055197168422395,-0.050611409596621776,-1.0521547339245167
1592295269.6482067,1.8321675039419163,9.607572146235928,-0.029458765721829053,-0.5188888888888888,-0.5666666666666667,0.13666666666666666,-0.3941733892408478,-0.0622363941034151,-1.0094320303146755
1592295269.6582067,2.097498658901065,9.727531994788873,0.28713732853092194,-0.5231103703136043,-0.591995555214959,0.15270829608058514,-0.32128210029413024,-0.032947453288902834,-0.7333402308745084
1592295269.6682067,1.910776664702416,9.87382086034178,0.360298566097034,-0.5244444444444445,-0.6,0.15777777777777777,-0.31775084338733567,0.002627721577367917,-0.715177886956107
1592295269.6782067,0.9517647874434986,9.747756024514018,0.18937910762319404,-0.5244444444444445,-0.6,0.15777777777777777,-0.2682243723356699,0.007719001874188128,-0.8006151333273586
1592295269.6882067,1.4600617180984152,9.99181436911712,0.8000617180984153,-0.5244444444444445,-0.6,0.15777777777777777,-0.4059344605345838,-0.04259787133565911,-0.8515669734977914
1592295269.6982067,0.9246663782848491,9.851870877041202,0.6624299772899318,-0.5244444444444445,-0.6,0.15777777777777777,-0.3599881961672842,-0.03175606944476029,-0.9624693611119647
1592295269.7082067,1.0685860942603826,9.880107326178255,0.11089127391507231,-0.5025670140509151,-0.6098071239695132,0.1253388292632343,-0.28306473432287993,0.07103125596988705,-0.8501226562338164
1592295269.7182066,1.3358917535918127,9.785547333202127,0.0883148986419996,-0.4922222222222222,-0.6144444444444445,0.11,-0.2506052870323114,0.07911273329037857,-0.8167236632603315
1592295269.7282066,1.2269830453911363,9.588864416782917,0.18679659834746218,-0.4922222222222222,-0.6144444444444445,0.11,-0.16095115137416494,-0.011215224694983414,-1.0172662794185339
1592295269.7382066,1.1354895445159148,9.87333554864589,0.6864752794854145,-0.4922222222222222,-0.6144444444444445,0.11,-0.26453823239894625,0.034500737267091436,-1.0478604488378656
1592295269.7482066,1.0729750627879844,9.8797793027073,0.7280710740206063,-0.4922222222222222,-0.6144444444444445,0.11,-0.35970090583547676,0.21583787012308486,-0.9885659413301428
1592295269.7582066,0.1354152490197985,9.551966235702018,0.7863335601568322,-0.47921479465272604,-0.6380204069141563,0.12544632023877675,-0.2378626843252957,0.20590686706848765,-0.9683377776214049
1592295269.7682066,0.10188238018059731,9.568923361889325,0.9162329242880296,-0.47444444444444445,-0.6466666666666666,0.13111111111111112,-0.20336404497584368,0.1864292696118312,-1.0468646697491955
1592295269.7782066,0.5168150684931507,9.095571061643836,0.9670667808219179,-0.47444444444444445,-0.6466666666666666,0.13111111111111112,0.07735979519789182,0.015153862323381229,-1.0594812584165816
1592295269.7882066,1.0217238421955404,9.521290737564323,-0.06696826758147512,-0.47444444444444445,-0.6466666666666666,0.13111111111111112,0.0766084096926917,0.130972197660847,-0.912682492323646
1592295269.7982066,0.10466434589975893,9.093303532576448,0.5547537481704181,-0.47444444444444445,-0.6466666666666666,0.13111111111111112,0.05129541244085277,0.1250407558518336,-1.004710320074996
1592295269.8082066,0.6642798366544874,9.689047867604163,0.37618410144616043,-0.46082044616387086,-0.6587768873605098,0.09705111540967723,0.011458094041755969,0.15338519657573235,-1.0260258416450128
1592295269.8182065,1.0136702612393682,10.155874848116646,0.16586041919805591,-0.45444444444444443,-0.6644444444444444,0.0811111111111111,-0.058797750757104486,0.1442876370383657,-1.012792145244963
1592295269.8282065,0.14814633610026934,10.074109174866692,0.5241091748666924,-0.45444444444444443,-0.6644444444444444,0.0811111111111111,-0.1923827689790458,-0.10951497911880786,-0.923830922043598
1592295269.8382065,0.013900627939736886,10.080850941909606,0.9548200940715803,-0.45444444444444443,-0.6644444444444444,0.0811111111111111,-0.23284969779808587,-0.19520451101573807,-0.8853521524567892
1592295269.8482065,-0.011697908177125776,9.825850765190618,0.8964167345829938,-0.45444444444444443,-0.6644444444444444,0.0811111111111111,-0.12172102901597691,-0.07578266078409499,-0.8638147019307496
1592295269.8582065,-0.10947874453714737,10.322684942391737,1.0300262216924911,-0.43339027943318764,-0.6812877764534498,0.07690027810885974,-0.13199910571087267,0.09927036844540055,-0.7710979222382419
1592295269.8682065,-0.16714441813877254,10.540838098706976,0.8662516845747587,-0.4211111111111111,-0.6911111111111111,0.07444444444444444,-0.10234213735655093,0.11238445546251011,-0.7023362962287165
1592295269.8782065,-0.23870038049491327,10.14,0.6660050732655098,-0.4211111111111111,-0.6911111111111111,0.07444444444444444,0.07069659082655519,0.05873027398886732,-0.45917797208145295
1592295269.8882065,-0.3479332706766917,9.862671992481204,1.031169172932331,-0.4211111111111111,-0.6911111111111111,0.07444444444444444,0.062177354602297986,0.00398296765977324,-0.3411749609564611
1592295269.8982065,-0.4461052359044831,9.713168429228654,0.6716528250781701,-0.4211111111111111,-0.6911111111111111,0.07444444444444444,0.13011081800835544,0.07046417952448228,-0.377380351081619
1592295269.9082065,-0.8165562712688381,9.633479278074866,0.8921657754010694,-0.40901643439745045,-0.7146285380543402,0.06705325311942958,0.1542344309994755,0.10288792701690708,-0.33119557495249496
1592295269.9182065,-0.9466214724893584,9.582643071102002,1.0487198486520573,-0.4011111111111111,-0.73,0.06222222222222222,0.17458632311177177,0.060863645576996014,-0.314275089816178
1592295269.9282064,-0.8374917091320877,9.400217315106906,0.21418048477985388,-0.4011111111111111,-0.73,0.06222222222222222,0.2714818675838953,-0.06392308384616704,-0.3443093881961191
1592295269.9382064,-0.7189894340162664,9.662674410284541,0.528179693276409,-0.4011111111111111,-0.73,0.06222222222222222,0.1009758798419042,-0.10298088338192155,-0.3545741985184209
1592295269.9482064,-0.7347595984156241,10.083246205733557,0.35232656182595395,-0.4011111111111111,-0.73,0.06222222222222222,0.03374324325004351,-0.1578441639289263,-0.4121890137689671
1592295269.9582064,-0.6100400013008553,10.758074734137695,-0.08472210478389543,-0.3903527485988704,-0.7333619882850752,0.05348105268102667,-0.08664078428462038,-0.09305624856635332,-0.4770587670810939
1592295269.9682064,-0.7427921419932665,11.050154937403981,-0.16976759389402807,-0.38333333333333336,-0.7355555555555555,0.04777777777777778,-0.13149140889436203,0.025021682082676536,-0.3962754363653203
1592295269.9782064,-2.3932386175309612,10.111160092807424,-0.2029324735589237,-0.38333333333333336,-0.7355555555555555,0.04777777777777778,-0.07113185029078879,-0.0022829644990229325,0.03306094550428658
1592295269.9882064,-2.728380508778216,9.50153111190732,-0.1282885465185716,-0.38333333333333336,-0.7355555555555555,0.04777777777777778,-0.11544137233058904,-0.11626361008033179,0.09127286315311334
1592295269.9982064,-0.9349690366438516,9.764969036643851,0.17847813940494484,-0.38333333333333336,-0.7355555555555555,0.04777777777777778,-0.108578295378116,-0.12911432637846265,-0.02775180780523041
1592295270.0082064,-0.8957088248469465,9.662859190682395,0.21572315962371208,-0.3712712823320558,-0.7355555555555555,0.043333864250991325,-1.511558856440165e-05,-0.03367831316223252,-0.054383770169182055
1592295270.0182064,-0.9116555142503099,9.654586121437422,0.15694258570838496,-0.3622222222222222,-0.7355555555555555,0.04,0.09623632672684697,0.05413079920688651,-0.07504523787383642
1592295270.0282063,-1.011469008486411,9.68,0.19180631646793428,-0.3622222222222222,-0.7355555555555555,0.04,0.09609400103969988,-0.15263797456421013,-0.09014962362538348
1592295270.0382063,-1.196838199027644,9.68613969983794,0.35279399675881346,-0.3622222222222222,-0.7355555555555555,0.04,0.10393370210423421,-0.13639801701770848,-0.00760379024135896
1592295270.0482063,-1.2097188576956408,9.82879542110885,0.5019679961305145,-0.3622222222222222,-0.7355555555555555,0.04,0.10899107464568848,-0.21471862647086837,-0.04849172508110568
1592295270.0582063,-1.06033742715709,9.987932514568582,0.43033742715709,-0.36718800258997014,-0.7392798908313665,0.03255132944837814,0.05827793701280991,-0.24927732163347743,-0.036248643878092415
1592295270.0682063,-0.9556810225514939,10.013787348367662,0.29159488724253035,-0.3711111111111111,-0.7422222222222222,0.02666666666666667,-0.012531632409614295,-0.20417371846065432,-0.0028627314396949682
1592295270.0782063,-0.9122323625922888,9.93964315012305,0.06834854388843314,-0.3711111111111111,-0.7422222222222222,0.02666666666666667,-0.06927046722405361,-0.2076792424669189,-0.11172505989028131
1592295270.0882063,-0.788399818351299,9.774533091135066,0.1928671813379861,-0.3711111111111111,-0.7422222222222222,0.02666666666666667,-0.03191050914489436,-0.15324713759825329,-0.12151501379272747
1592295270.0982063,-0.7478640635773125,9.708185216097544,0.34088870341474037,-0.3711111111111111,-0.7422222222222222,0.02666666666666667,-0.05272076968321125,-0.14062022843791197,-0.13891678753131217
1592295270.1082063,-0.9069532046433622,9.706395146173831,0.515279029234766,-0.3646589642686193,-0.7492609278685769,0.030186019489844014,-0.03495763085538505,-0.145207158003529,-0.0735594235553638
1592295270.1182063,-0.94,9.744862741855465,0.5408078385976518,-0.35888888888888887,-0.7555555555555555,0.03333333333333333,0.021681005919361618,-0.1523497077870219,-0.16011427809681175
1592295270.1282063,-0.9180643172711395,9.895807048186581,0.6819356827288605,-0.35888888888888887,-0.7555555555555555,0.03333333333333333,0.1336443106706171,-0.08005294758339886,-0.22801871317136183
1592295270.1382062,-0.7370268074735987,9.973281884646628,0.729102355808286,-0.35888888888888887,-0.7555555555555555,0.03333333333333333,0.08236924381867125,-0.08907328954164195,-0.17753160218397235
1592295270.1482062,-0.6442021697814381,9.975478698131138,0.8080852074754514,-0.35888888888888887,-0.7555555555555555,0.03333333333333333,0.06492766829281943,-0.06526412583936865,-0.2550108924947426
1592295270.1582062,-0.5884285584796205,10.027176481252077,0.874798320089434,-0.35515686215266234,-0.7491577954363101,0.03333333333333333,0.09437428130601624,-0.0516998815958606,-0.47181366306297134
1592295270.1682062,-0.5004398092004204,10.100192416525184,0.8794777265745007,-0.3511111111111111,-0.7422222222222222,0.03333333333333333,0.10798025353179305,-0.06868635749120844,-0.5832316520910821
1592295270.1782062,-0.6746228518215425,10.145628580297428,0.5925143211897169,-0.3511111111111111,-0.7422222222222222,0.03333333333333333,0.05683915744568286,-0.017349833359744327,-0.5441200739435055
1592295270.1882062,-0.6952016887605547,10.19802533140832,0.5212101325633285,-0.3511111111111111,-0.7422222222222222,0.03333333333333333,-0.001442844076091146,0.11199179330179528,-0.75091983097281
1592295270.1982062,-0.7511904902481745,10.250311349904548,0.561813190057271,-0.3511111111111111,-0.7422222222222222,0.03333333333333333,0.009082270276662006,0.09838052355332338,-0.7741921532942196
1592295270.2082062,-0.8148805646036916,10.09148479913138,0.6102388707926167,-0.3494311738448546,-0.7497819399203765,0.027873537217999757,0.038179077387375956,-0.03341927694529384,-0.7241803194223706
1592295270.2182062,-0.7918209865598071,9.879579772332352,0.6604202276676479,-0.3466666666666667,-0.7622222222222222,0.01888888888888889,0.038301316660849793,-0.006321743287631417,-0.8401476640204342
1592295270.2282062,-0.94113516099136,9.89227032198272,0.5843241950432001,-0.3466666666666667,-0.7622222222222222,0.01888888888888889,0.0017181506106557984,0.15026820989987472,-0.9223475345710159
1592295270.2382061,-0.8191923278282804,9.783034362952739,0.4507719765836943,-0.3466666666666667,-0.7622222222222222,0.01888888888888889,-0.16104916439139755,0.30712849209459314,-0.9526418459093045
1592295270.2482061,-0.8181607305936073,9.630845662100457,0.4737315068493151,-0.3466666666666667,-0.7622222222222222,0.01888888888888889,-0.22015754529765688,0.41944406086204733,-1.0687708966391427
1592295270.2582061,-1.1146099038118988,9.64711435696473,0.4674047025293908,-0.3366243122352848,-0.7622222222222222,0.02240371293987254,-0.10727156856221874,0.40080997399543766,-1.1090937458163035
1592295270.2682061,-1.29,9.68,0.44,-0.3244444444444444,-0.7622222222222222,0.02666666666666667,-0.009817477042468103,0.3021601267515183,-1.0439250588491082
1592295270.278206,-1.5884908333333332,9.63349361111111,0.7869927777777779,-0.3244444444444444,-0.7622222222222222,0.02666666666666667,0.10445083503091933,0.2637115232583005,-1.0283845078054175
1592295270.288206,-1.6538022995086112,9.670210867802108,0.951126854634798,-0.3244444444444444,-0.7622222222222222,0.02666666666666667,0.12682103487818366,0.18342849644962372,-0.9522338127332541
1592295270.298206,-1.6483780472647858,9.495557074625806,0.8912975621881714,-0.3244444444444444,-0.7622222222222222,0.02666666666666667,0.16529699473950488,0.23881505000814515,-0.9705209267470071
1592295270.308206,-1.778815503032188,9.33789457316125,0.8002635670968745,-0.3106577083225349,-0.7659211026451735,0.02666666666666667,0.08591721466636738,0.3327893015507573,-1.009535308110927
1592295270.318206,-1.73,9.31,0.87,-0.2788888888888889,-0.7744444444444445,0.02666666666666667,0.07526732399225547,0.29779680362153244,-1.030835089459151
1592295270.328206,-1.8970741735650458,9.730244504139028,0.7796332437914588,-0.2788888888888889,-0.7744444444444445,0.02666666666666667,-0.06825959884472711,0.3305412820367187,-1.0938343495641423
1592295270.338206,-2.1768303167420813,9.729509049773755,0.602781221719457,-0.2788888888888889,-0.7744444444444445,0.02666666666666667,-0.0025497799349412653,0.3123836791264569,-1.1186903785665503
1592295270.348206,-2.2598722852835267,9.524042638025344,0.5986383742228092,-0.2760803834348821,-0.780572092707732,0.020283699725742167,-0.05728485139224791,0.3707432596384591,-1.0081736939588002
1592295270.358206,-2.3278114058586787,9.41952091406357,0.5045688226572137,-0.26969294474832933,-0.7945083225693017,0.0057667936199403864,-0.07096671306469982,0.31088511482148207,-0.966558031371759
1592295270.368206,-2.36,9.37,0.46,-0.26666666666666666,-0.8011111111111111,-0.0011111111111111111,-0.07744898555724837,0.2825251726665821,-0.9468411192069237
1592295270.378206,-2.322612473450473,8.949390326317822,0.43195935508785477,-0.26666666666666666,-0.8011111111111111,-0.0011111111111111111,-0.032587174231458134,0.3538962361394302,-1.0416626749637075
1592295270.388206,-2.4599302829294705,9.151675578719372,0.4716755787193719,-0.26666666666666666,-0.8011111111111111,-0.0011111111111111111,-0.2670593569980832,0.33154968780911787,-0.7635338875830341
1592295270.398206,-2.6721462190147474,9.470709130844053,0.7628490743646061,-0.2585705818777673,-0.8011111111111111,0.0017463305790886591,-0.22174669644773656,0.270061909007014,-0.6615921211976662
1592295270.408206,-2.7480730612343414,9.354287972774008,0.5806246530375805,-0.2394482660594992,-0.8011111111111111,0.008495383220830351,-0.140027670892997,0.3462593787810279,-0.7350288130813173
1592295270.418206,-2.785436277487547,9.408656785323776,0.5667107277366055,-0.2288888888888889,-0.8011111111111111,0.012222222222222223,-0.0033024964890465414,0.3589640894725396,-0.7302786204608432
1592295270.428206,-2.813444987524353,9.44297603992207,0.5696650374269405,-0.2288888888888889,-0.8011111111111111,0.012222222222222223,0.034304254955078495,0.3389346993852749,-0.7117034224022238
1592295270.438206,-2.8720745243128962,9.23339663243733,0.36886778918755664,-0.2288888888888889,-0.8011111111111111,0.012222222222222223,-0.09193659218279801,0.3514100987929624,-0.768416611537936
1592295270.448206,-2.8464521339019093,9.38007761755923,0.392163647560508,-0.22317090710035414,-0.7992051171815995,0.00626599119249852,0.021185119396297233,0.1996114497439927,-0.681860611649098
1592295270.458206,-2.9293020229366857,9.652994899085554,0.4652664908264876,-0.2101748460752911,-0.7948730968399119,-0.007271572375275473,-0.0075223000238187,0.162398128273472,-0.7291746918044743
1592295270.468206,-3.0252264517921645,9.691858386588867,0.4647735482078355,-0.20222222222222222,-0.7922222222222223,-0.015555555555555555,-0.08881271548648248,0.1478487411258772,-0.7264711501146631
1592295270.478206,-3.088241858524757,9.432967434099027,0.24498292180533465,-0.20222222222222222,-0.7922222222222223,-0.015555555555555555,-0.1244791707983228,0.21745044545163544,-0.6724232712273239
1592295270.488206,-3.114765499170653,9.270469001658693,-0.006859299502391884,-0.20222222222222222,-0.7922222222222223,-0.015555555555555555,-0.06470573038172317,0.21156177778709198,-0.5960344078741803
1592295270.498206,-3.17,9.16,-0.04,-0.20222222222222222,-0.7922222222222223,-0.015555555555555555,-0.12435470920459597,0.09708393964218458,-0.5050546522958591
1592295270.508206,-3.3724932975871313,9.266062811183454,0.41,-0.19468658240776204,-0.7959900421294523,-0.012779267202859695,-0.2992515231867001,0.08805398309952721,-0.6631682973026864
1592295270.518206,-3.43,9.34,0.41,-0.16,-0.8133333333333334,0.0,-0.1854412330243975,0.016362461737446838,-0.48214720586343357
1592295270.5282059,-3.35,9.26208073297039,0.6090744920993229,-0.16,-0.8133333333333334,0.0,-0.34891405240921564,0.13574846642108052,-0.5343241436704692
1592295270.5382059,-3.3085032537960957,9.18,0.48353796095444684,-0.16,-0.8133333333333334,0.0,-0.17732318042442172,0.07268482352367275,-0.4618442658134241
1592295270.5482059,-3.293802677243431,9.092394645513139,0.4590852751611303,-0.16,-0.8133333333333334,0.0,-0.2417155157836448,0.05294141189652871,-0.40127870260427334
1592295270.5582058,-3.3970370508842116,8.87302463827719,-0.014876434740344717,-0.15869684242884977,-0.8133333333333334,-0.004300419984795803,-0.28665280913667907,0.10713033331762656,-0.38358189460900766
1592295270.5682058,-3.45,8.67,0.4,-0.14888888888888888,-0.8133333333333334,-0.03666666666666667,-0.23561944901923448,0.01854412330243975,-0.39706240482870997
1592295270.5782058,-3.624694604064471,9.170594814295725,0.6082475122634898,-0.14888888888888888,-0.8133333333333334,-0.03666666666666667,-0.03548531395986726,-0.0712933059084573,-0.4153679060308946
1592295270.5882058,-3.4801428231373484,9.343704832182814,0.7,-0.14888888888888888,-0.8133333333333334,-0.03666666666666667,-0.06300639638338694,-0.14933476008974395,-0.5948342062179544
1592295270.5982058,-3.39,9.53,0.7,-0.14888888888888888,-0.8133333333333334,-0.03666666666666667,-0.09053895494720585,-0.2181661564992912,-0.6610434541928523
1592295270.6082058,-3.1783072806646953,8.870756231516687,0.4066145613293902,-0.14742430643571328,-0.8123569450312162,-0.03666666666666667,0.018434133886826815,-0.03470488657242879,-0.6611181118129471
1592295270.6182058,-3.366232953484028,9.373064870166262,0.87,-0.1288888888888889,-0.8,-0.03666666666666667,-0.11377127658512272,-0.17780360900532047,-0.5664998277459976
1592295270.6282058,-3.332484865955607,9.364111803445905,0.7164008692374215,-0.1288888888888889,-0.8,-0.03666666666666667,-0.19481523729558836,-0.10107601699418614,-0.5457505235295657
1592295270.6382058,-3.481393327503511,8.970696663751754,0.5197169886318468,-0.1288888888888889,-0.8,-0.03666666666666667,-0.08986925763239868,-0.06770750274132671,-0.5607424352622462
1592295270.6482058,-3.674081191188665,8.99730432274579,0.7729217290983164,-0.1288888888888889,-0.8,-0.03666666666666667,-0.020359605200712227,-0.04856503548262506,-0.573675172330206
1592295270.6582057,-3.8152098708487086,8.920390913284134,0.7629958487084871,-0.1270557861828618,-0.7993246463714637,-0.03734202029520295,0.12732870738155214,0.012671599558017523,-0.5518925763823481
1592295270.6682057,-3.87,9.24,1.11,-0.10777777777777778,-0.7922222222222223,-0.044444444444444446,-0.11671889372712078,-0.04908738521234052,-0.7003133623627248
1592295270.6782057,-3.9971673819742493,8.991888412017166,1.1835836909871245,-0.10777777777777778,-0.7922222222222223,-0.044444444444444446,0.03681436848996087,-0.07724299176141214,-0.4677814794424448
1592295270.6882057,-4.093628455303876,8.744948779502293,1.0884902431488128,-0.10777777777777778,-0.7922222222222223,-0.044444444444444446,0.18316911181544931,-0.10497153316564706,-0.37522344002054375
1592295270.6982057,-4.157612876329956,8.548943104167044,0.88663899512425,-0.10777777777777778,-0.7922222222222223,-0.044444444444444446,0.04598981410848904,-0.11756744069368656,-0.2190730105470696
1592295270.7082057,-4.300117062053247,8.883411374702165,0.9895752615767119,-0.10829022641205382,-0.7927346708564983,-0.045322927817489096,0.12068930080709726,-0.05560683092909028,-0.18122165140019594
1592295270.7182057,-4.16,8.79,0.7,-0.11555555555555555,-0.8,-0.057777777777777775,0.06872233929727672,-0.08617563181722002,-0.1832595714594046
1592295270.7282057,-4.037045669291338,9.286178095919828,1.1569634931997137,-0.11555555555555555,-0.8,-0.057777777777777775,0.1318535656847556,0.02990769095519725,-0.07532610548209535
1592295270.7382057,-3.9567430241327304,9.093027903469078,0.8091982466063349,-0.11555555555555555,-0.8,-0.057777777777777775,0.04026397502266213,0.06804380923333414,-0.04007497172531781
1592295270.7482057,-3.919503883051622,9.082921699406121,0.5942558245774326,-0.11555555555555555,-0.8,-0.057777777777777775,0.1627852009119286,0.13329182750170568,-0.06549196527675702
1592295270.7582057,-3.77,9.216381936887922,0.3887704026115343,-0.11526357151493169,-0.7994577439245557,-0.056985249667513,-0.16698672639668952,0.10929554692218844,0.08535661849847948
1592295270.7682056,-3.77,9.38,0.87,-0.10777777777777778,-0.7855555555555556,-0.03666666666666667,-0.02945243112740431,-0.025089107997418484,0.0643590161672909
1592295270.7782056,-3.575494707374683,8.97245385355612,0.4427110489021083,-0.10777777777777778,-0.7855555555555556,-0.03666666666666667,-0.1411323756253288,-0.0037517288263361204,0.2608567557923696
1592295270.7882056,-3.7273262337168394,8.775561471902634,0.5516711039269754,-0.10777777777777778,-0.7855555555555556,-0.03666666666666667,-0.12235684075043161,0.0658640037734546,0.4492837633707568
1592295270.7982056,-3.9188181587623636,8.514248034491505,0.40808267816383464,-0.10777777777777778,-0.7855555555555556,-0.03666666666666667,-0.23735044780342934,0.040263358167322266,0.6097608515676004
1592295270.8082056,-3.9972729985082047,8.219994032819493,0.3418130283441074,-0.10883827835792033,-0.784495054975413,-0.0395451682413393,0.06951797857712047,0.0940105198442607,0.7004647008949557
1592295270.8182056,-3.98,8.6,0.67,-0.11555555555555555,-0.7777777777777778,-0.057777777777777775,-0.07744898555724837,0.04690572364734761,0.5355979142057599
1592295270.8282056,-3.771602928782132,8.741333227981459,0.517843973872735,-0.11555555555555555,-0.7777777777777778,-0.057777777777777775,0.06771045928886107,-0.040029651353930995,0.6243064063734036
1592295270.8382056,-3.4586905669366366,9.049166031443544,0.4462691757979991,-0.11555555555555555,-0.7777777777777778,-0.057777777777777775,-0.07975194293197672,0.03591920237180385,0.6958023951044362
1592295270.8482056,-3.3376502290487737,9.08435462139585,0.39034492050660197,-0.11555555555555555,-0.7777777777777778,-0.057777777777777775,-0.09126499968791355,0.01022253358202082,0.578648546041617
1592295270.8582056,-2.932571134286082,9.651233101583623,0.6880343118321102,-0.11804933264666752,-0.7777777777777778,-0.057777777777777775,-0.06397177615505473,0.15037239972115582,0.5670290297913716
1592295270.8682055,-3.79,9.12,0.25,-0.15222222222222223,-0.7777777777777778,-0.057777777777777775,-0.148352986419518,0.08835729338221293,0.7286749627076325
1592295270.8782055,-3.4232646417977053,9.103061717375896,0.20204079489670018,-0.15222222222222223,-0.7777777777777778,-0.057777777777777775,-0.22030320319123314,0.03541868245629864,0.7404069847965961
1592295270.8882055,-3.6200794502898863,8.969920549710114,0.2294135471094887,-0.15222222222222223,-0.7777777777777778,-0.057777777777777775,-0.25234840991157637,0.019131844074761824,0.6918306324555209
1592295270.8982055,-3.5226364218274924,9.055707713234117,0.3429416706673068,-0.15222222222222223,-0.7777777777777778,-0.057777777777777775,-0.22803814016871313,-0.004059543602183059,0.6183658126531287
1592295270.9082055,-3.588268562923764,8.9982321812469,0.5726542086985282,-0.15367951050107492,-0.7761880087463021,-0.05870514304613858,-0.178841950319574,-0.1886509489352557,0.7028976590040418
1592295270.9182055,-3.28,9.65,0.74,-0.16444444444444445,-0.7644444444444445,-0.06555555555555556,-0.2912518189265538,-0.26070855701665296,0.6414085001079161
1592295270.9282055,-3.026052355753253,9.310032722345783,1.012031086228494,-0.16444444444444445,-0.7644444444444445,-0.06555555555555556,-0.16166986712877843,-0.1359241189893387,0.6261332996987601
1592295270.9382055,-2.8411991398877077,9.137285867877194,0.8167719507824632,-0.16444444444444445,-0.7644444444444445,-0.06555555555555556,-0.1851942160812246,-0.12054906370174812,0.6743792677297764
1592295270.9482055,-2.986477900552486,9.091530386740331,0.774696132596685,-0.16444444444444445,-0.7644444444444445,-0.06555555555555556,-0.35004458475840966,-0.14822717927816656,0.7766829678473481
1592295270.9582055,-2.7505935937127886,9.06059359371279,1.0941551559895213,-0.16688477415257602,-0.76338916673282,-0.06555555555555556,-0.24160154788473617,-0.06951922508563296,0.8195825503960537
1592295270.9682055,-2.7332335230747518,9.186799172037446,1.2548993272804252,-0.20555555555555555,-0.7466666666666667,-0.06555555555555556,-0.26725354171163174,-0.12494733560021438,0.7881979812218358
1592295270.9782054,-2.6243458445679924,9.456712162065427,1.526678040516357,-0.20555555555555555,-0.7466666666666667,-0.06555555555555556,-0.2461380833219305,-0.1535874853420581,0.7692590787335509
1592295270.9882054,-2.5446355988278664,9.115233008791002,1.4105974099631344,-0.20555555555555555,-0.7466666666666667,-0.06555555555555556,-0.17317492903670695,-0.16160195581577189,0.7809031651649718
1592295270.9982054,-2.5412104194049467,9.009394790297527,1.3138212450710958,-0.20555555555555555,-0.7466666666666667,-0.06555555555555556,-0.1337730143900447,-0.1655560226242034,0.957863801988471
1592295271.0082054,-2.457761968852144,9.059325129782735,1.4551509325129783,-0.20675746117199684,-0.7468324467516931,-0.06609434083189131,-0.011088470032648554,-0.2090984814271028,1.0519193111285998
1592295271.0182054,-2.4,9.3,1.33,-0.23777777777777778,-0.7511111111111111,-0.08,0.06872233929727672,-0.14398966328953217,1.0330167510241437
1592295271.0282054,-2.282013286584241,9.132718213692563,1.2509060712308544,-0.23777777777777778,-0.7511111111111111,-0.08,-0.032823760513868726,-0.010809470785989516,1.1260101255563246
1592295271.0382054,-1.8765230645618678,9.363419746667928,1.3457758294734854,-0.23777777777777778,-0.7511111111111111,-0.08,-0.013980348802648365,-0.007391283366624416,1.2624172581628672
1592295271.0482054,-1.7903449245101188,9.277114118213943,1.3887295213620303,-0.23777777777777778,-0.7511111111111111,-0.08,0.10547007359477077,-0.031432168105691924,1.2225877141588093
1592295271.0582054,-1.6303471329906842,9.63921438323161,1.4897807581111469,-0.23777777777777778,-0.7511111111111111,-0.08,0.10363291026718288,-0.018572024812576686,1.1977860092363726
1592295271.0682054,-1.4,9.83,1.55,-0.27,-0.7466666666666667,-0.10444444444444445,0.05781403147231216,0.15707963267948966,0.9141161957320302
1592295271.0782053,-1.213817851147174,9.708815612758814,1.5330237828763291,-0.27,-0.7466666666666667,-0.10444444444444445,0.09550519557236332,0.19871716861350863,1.0712677670839972
1592295271.0882053,-1.472260002374451,9.620339071589694,1.1163841861569512,-0.27,-0.7466666666666667,-0.10444444444444445,0.11549863444123754,0.10161981684252518,1.0894996140948028
1592295271.0982053,-1.16993181735756,9.39993181735756,1.068961302723679,-0.27,-0.7466666666666667,-0.10444444444444445,0.137859837562802,0.09906130533219792,1.052315946183644
1592295271.1082053,-1.4513467885250064,9.681346788525007,0.894027671997969,-0.27,-0.7466666666666667,-0.10444444444444445,0.12790385551291653,-0.03119612648713746,1.0996068609206002
1592295271.1182053,-1.2,9.5,1.32,-0.3111111111111111,-0.7122222222222222,-0.08666666666666667,0.24216443371421323,-0.10362892433716332,1.00029182754925
1592295271.1282053,-1.2049385821714347,9.598965397275672,1.2178079588942115,-0.3111111111111111,-0.7122222222222222,-0.08666666666666667,0.2718774941997712,0.05278979339288647,0.7901443150895787
1592295271.1382053,-0.8016967064784655,9.853140788997466,1.0568592110025334,-0.3111111111111111,-0.7122222222222222,-0.08666666666666667,0.2600272911468463,0.009638317068129745,0.8583243268612187
1592295271.1482053,-0.5485411752090928,9.828154621488313,1.0940773107441562,-0.3111111111111111,-0.7122222222222222,-0.08666666666666667,0.3179200348994272,0.12058575200011473,0.8022475572116196
1592295271.1582053,-0.7059511044392022,9.87312888698263,1.1165644434913147,-0.3111111111111111,-0.7122222222222222,-0.08666666666666667,0.24841934116915426,0.039637885184855656,0.8169653511780304
1592295271.1682053,-0.59,9.92,1.01,-0.34444444444444444,-0.6877777777777778,-0.0811111111111111,0.26070855701665296,0.04908738521234052,0.7264933011426397
1592295271.1782053,-0.8176510873483118,9.751736152829508,0.8318382794665384,-0.34444444444444444,-0.6877777777777778,-0.0811111111111111,0.2477522710819576,0.13222355329330254,0.5548225125079259
1592295271.1882052,-0.97,9.85041717791411,0.5016073619631902,-0.34444444444444444,-0.6877777777777778,-0.0811111111111111,0.3078351237058557,0.16280013668487597,0.612634659418212
1592295271.1982052,-0.9729514629208249,9.737870567788868,0.4391779692903087,-0.34444444444444444,-0.6877777777777778,-0.0811111111111111,0.2860652471946237,0.12907528415536285,0.6077382147110802
1592295271.2082052,-0.9954962105602637,9.79798989482737,0.3565138946123663,-0.34444444444444444,-0.6877777777777778,-0.0811111111111111,0.26311224279982376,0.11513953148709147,0.6921724808776657
1592295271.2182052,-0.75,9.75,0.49,-0.37777777777777777,-0.7066666666666667,-0.07444444444444444,0.2585268954516601,-0.01854412330243975,0.7755806863549802
1592295271.2282052,-0.6273761521580102,9.82213167520117,0.45393416239941475,-0.37777777777777777,-0.7066666666666667,-0.07444444444444444,0.27583725482620414,-0.045296496881280554,0.6819473788290373
1592295271.2382052,-0.279643820065276,9.878928622108699,0.31571448843479494,-0.37777777777777777,-0.7066666666666667,-0.07444444444444444,0.23222993267975317,-0.00646681390667723,0.7007426051270021
1592295271.2482052,-0.11304517629107555,9.872283882218307,0.27847741185446223,-0.37777777777777777,-0.7066666666666667,-0.07444444444444444,0.2564507879288891,-0.05276384419372855,0.5790425471624854
1592295271.2582052,-0.14352091696790248,9.895140687725927,0.2632395415160488,-0.37777777777777777,-0.7066666666666667,-0.07444444444444444,0.23567336539785017,-0.06772358841607654,0.5989888727922827
1592295271.2682052,-0.26,9.91,0.39,-0.4122222222222222,-0.6677777777777778,-0.06666666666666667,-0.00545415391248228,-0.07308566242726255,0.7134033317526822
1592295271.2782052,-0.17270881766854868,9.90030097974095,0.4287960810362006,-0.4122222222222222,-0.6677777777777778,-0.06666666666666667,0.10880973656070717,-0.08789764822934266,0.6922433520354249
1592295271.2882051,0.0076358985290982725,9.9866062673204,0.14745470049030057,-0.4122222222222222,-0.6677777777777778,-0.06666666666666667,0.1451793222712529,-0.19641604641401653,0.6815383298795092
1592295271.2982051,0.08697263836489505,9.973613420753818,0.12121094465404197,-0.4122222222222222,-0.6677777777777778,-0.06666666666666667,0.20936922814905137,-0.12580985613209822,0.5740303906928974
1592295271.3082051,0.04856470458957548,10.27319530420131,0.1365741181641698,-0.4122222222222222,-0.6677777777777778,-0.06666666666666667,0.26383475153951647,-0.11659261371217336,0.2866200134170585
1592295271.318205,1.04,12.08,0.5,-0.4311111111111111,-0.6533333333333333,-0.08,-0.04690572364734761,-0.011999138607461015,-0.016362461737446838
1592295271.328205,-0.49440749340784773,9.193852571923335,0.9292687630367192,-0.4311111111111111,-0.6533333333333333,-0.08,0.16929072105172632,-0.07775473929934526,-0.026325431539247483
1592295271.338205,-0.4397195991520524,10.230811090768935,-0.4229172287531316,-0.4311111111111111,-0.6533333333333333,-0.08,0.032573460075628176,-0.02168554357575557,-0.1385475181857703
1592295271.348205,0.32711934526486197,10.473625326018526,-0.5458377551938124,-0.4311111111111111,-0.6533333333333333,-0.08,0.041244862255890594,-0.0873273858766236,0.044322615948531915
1592295271.358205,0.16868729202266391,10.149216836046408,-0.002642144077704911,-0.4311111111111111,-0.6533333333333333,-0.08,-0.0015492956096178137,-0.04782508630846199,0.03938482850251171
1592295271.368205,0.03,9.99,0.31,-0.42444444444444446,-0.6622222222222223,-0.08,-0.0818123086872342,-0.19853120241435498,-0.0272707695624114
1592295271.378205,-0.16035949815023323,9.857576001286795,0.5003594981502333,-0.42444444444444446,-0.6622222222222223,-0.08,-0.13507904790048744,-0.1290135936106177,0.0738457523339337
1592295271.388205,-0.2935390946502058,9.846982167352538,0.2968998628257888,-0.42444444444444446,-0.6622222222222223,-0.08,-0.031708909618494374,-0.05873577600182906,-0.05467172057623184
1592295271.398205,-0.66,9.797410835537132,0.5631069973554428,-0.42444444444444446,-0.6622222222222223,-0.08,-0.0015075622907834662,-0.06743698183317577,0.05924004069337286
1592295271.408205,-0.66,9.759937638481881,0.6080748338217425,-0.42444444444444446,-0.6622222222222223,-0.08,-0.03911432580789173,0.014316851899668304,0.016728047152293944
1592295271.418205,-0.66,9.74,0.73,-0.45111111111111113,-0.6555555555555556,-0.044444444444444446,0.001090830782496456,-0.12217304763960307,-0.042542400517361786
1592295271.428205,-0.626648929833618,9.83171544295755,0.6382845570424492,-0.45111111111111113,-0.6555555555555556,-0.044444444444444446,0.03929022344751967,-0.05941690254706493,0.05386559049436347
1592295271.438205,-0.6270542871418331,9.732209284643625,0.47889535767818736,-0.45111111111111113,-0.6555555555555556,-0.044444444444444446,-0.062418350171954295,-0.08845238829086885,-0.044176502138593796
1592295271.448205,-0.5541622314426607,9.786878326418003,0.4515608367909978,-0.45111111111111113,-0.6555555555555556,-0.044444444444444446,-0.06838181753366206,-0.19877653448246235,-0.13859806869896657
1592295271.458205,-0.499560717864626,9.876467340803497,0.39956071786462605,-0.45111111111111113,-0.6555555555555556,-0.044444444444444446,-0.10016275164029928,-0.1484834448918931,-0.07246272520915584
1592295271.468205,-0.5469598044150428,9.843040195584956,0.3226058819299633,-0.45111111111111113,-0.6555555555555556,-0.06463867117279068,0.06920551450545807,-0.05453800943580199,-0.005072790623167706
1592295271.478205,-0.5306420187235661,9.898073943829303,0.290963028085349,-0.45111111111111113,-0.6555555555555556,-0.06555555555555556,-0.03446730831836993,-0.10194812324931155,0.032625186820161786
1592295271.488205,-0.53,9.805608780578552,0.2333652683471305,-0.45111111111111113,-0.6555555555555556,-0.06555555555555556,-0.1277584949231718,-0.2117420144665721,0.07706099030915364
1592295271.498205,-0.4920687504497805,9.8,0.37224218581332313,-0.45111111111111113,-0.6555555555555556,-0.06555555555555556,-0.09067036647093499,-0.10334616190677359,-0.005191330865023963
1592295271.508205,-0.4969700261023422,9.855760208818738,0.5542506525585551,-0.45111111111111113,-0.6555555555555556,-0.06555555555555556,-0.03209421258064678,-0.09100144442039364,-0.015899972264259037
1592295271.518205,-0.46,9.77,0.74,-0.45111111111111113,-0.6488888888888888,-0.044444444444444446,-0.09926560120717749,-0.04690572364734761,0.07963064712224129
1592295271.528205,-0.44469279221513974,9.73173198053785,0.7859216233545808,-0.45111111111111113,-0.6488888888888888,-0.044444444444444446,-0.03915433680231565,0.0015172393454577632,0.016179868028220454
1592295271.538205,-0.4986215196105246,9.739540506536843,0.7120677205842131,-0.45111111111111113,-0.6488888888888888,-0.044444444444444446,-0.12410540714183847,-0.01987369452368509,0.1096990536430984
1592295271.548205,-0.5494490026707731,9.74,0.7396694016024639,-0.45111111111111113,-0.6488888888888888,-0.044444444444444446,-0.05641372820945152,0.08499758391554366,-0.012786376125571694
1592295271.558205,-0.55,9.75465952860525,0.7693190572105022,-0.45111111111111113,-0.6488888888888888,-0.044444444444444446,-0.028447559306177407,-0.11611134118539429,0.02579686247628408
1592295271.5682049,-0.55,9.712400383209737,0.78,-0.4257246488229705,-0.6488888888888888,-0.05713767558851474,0.0271482286598324,0.04800336655835133,-0.04479318970459288
1592295271.5782049,-0.5116188359888422,9.767571746016737,0.6936423809748947,-0.42444444444444446,-0.6488888888888888,-0.057777777777777775,0.10690703819452418,0.04115538321016782,-0.013500133316636798
1592295271.5882049,-0.4741291070393651,9.787935446480317,0.6361936605590477,-0.42444444444444446,-0.6488888888888888,-0.057777777777777775,0.06908838108319133,0.07948981318946477,0.0016960373755225515
1592295271.5982049,-0.47924571315293885,9.826982852611755,0.63,-0.42444444444444446,-0.6488888888888888,-0.057777777777777775,0.09461554170736505,-0.012826911476010228,-0.05320635532731574
1592295271.6082048,-0.5203914646176211,9.803072356921586,0.6367319107696036,-0.42444444444444446,-0.6488888888888888,-0.057777777777777775,0.0868032139526805,-0.03688121095093909,-0.0020043777292899564
1592295271.6182048,-0.5851376110871863,9.771944955565125,0.6129174333476882,-0.4374841987585205,-0.6488888888888888,-0.057777777777777775,0.12415655492237448,-0.02305956400856199,0.04675360607121119
1592295271.6282048,-0.627744457995552,9.751127771002224,0.5345110840088959,-0.4388888888888889,-0.6488888888888888,-0.057777777777777775,0.09475045859817285,-0.053664038187586784,0.032618258552263454
1592295271.6382048,-0.6036199657907013,9.81155341315503,0.3980998289535065,-0.4388888888888889,-0.6488888888888888,-0.057777777777777775,0.12437438520689259,-0.06906124147476513,-0.07387846962324894
1592295271.6482048,-0.5645971104431301,9.855402889556869,0.3445971104431301,-0.4388888888888889,-0.6488888888888888,-0.057777777777777775,0.04086080442623172,-0.12207359513856142,0.05839324114602015
1592295271.6582048,-0.5270487156775908,9.879770770593446,0.34,-0.4388888888888889,-0.6488888888888888,-0.057777777777777775,0.015074721022733575,-0.09205487156767142,-0.003066191028907747
1592295271.6682048,-0.5269113263785395,9.856177347242921,0.3907339791356185,-0.4548606971352873,-0.6488888888888888,-0.052140668984931283,-0.053240589298156935,-0.010364518112974896,-0.04841354115966573
1592295271.6782048,-0.5394681996943965,9.831063600611207,0.44734099847198217,-0.4577777777777778,-0.6488888888888888,-0.051111111111111114,-0.012717997759935068,-0.060878391306330534,-0.07180943331157709
1592295271.6882048,-0.4875189456342669,9.864987369577154,0.33629104887424494,-0.4577777777777778,-0.6488888888888888,-0.051111111111111114,0.04743047255754359,-0.05290942624728856,0.010877996986087948
1592295271.6982048,-0.5392511445389143,9.85307110156031,0.34539334765953467,-0.4577777777777778,-0.6488888888888888,-0.051111111111111114,0.015005930137425544,-0.09374214290040411,0.08938707514679708
1592295271.7082047,-0.55,9.831274684549546,0.37496708726727257,-0.4577777777777778,-0.6488888888888888,-0.051111111111111114,-0.04819566257037809,-0.10961772297429528,0.02382789085198414
1592295271.7182047,-0.501229479154364,9.836256840281878,0.438770520845636,-0.4523588310171516,-0.6488888888888888,-0.06285216242580126,-0.0587588083399521,0.0025036157548427446,0.09856676693594546
1592295271.7282047,-0.5076364024375786,9.866454603656367,0.4147271951248429,-0.45111111111111113,-0.6488888888888888,-0.06555555555555556,0.04081711194756407,0.07370059167163859,-0.014865359665246741
1592295271.7382047,-0.5016299030709304,9.85325980614186,0.3514093214965124,-0.45111111111111113,-0.6488888888888888,-0.06555555555555556,0.0004946239226185298,0.14993441436909477,-0.06851111991168146
1592295271.7482047,-0.5081372365339578,9.817451053864168,0.4376468384074942,-0.45111111111111113,-0.6488888888888888,-0.06555555555555556,-0.03999706056783446,0.022490682652902244,-0.02023396579894035
1592295271.7582047,-0.5341789823756425,9.791865763218269,0.538581692720838,-0.45111111111111113,-0.6488888888888888,-0.06555555555555556,0.015075945274909089,-0.07443666379120381,-0.02609844026282825
1592295271.7682047,-0.5729924537109071,9.802992453710907,0.597664151236969,-0.45111111111111113,-0.6352637311342773,-0.06555555555555556,0.05396031148912042,0.038782539165369764,0.0002782662311969705
1592295271.7782047,-0.5627643758093137,9.792764375809313,0.6172356241906863,-0.45111111111111113,-0.6311111111111111,-0.06555555555555556,0.03276944397731105,0.10685689618223532,0.0627622420488622
1592295271.7882047,-0.5681000783611329,9.773799843277734,0.5389992163886712,-0.45111111111111113,-0.6311111111111111,-0.06555555555555556,0.018849453347055685,0.11547539792231637,0.014354786033743634
1592295271.7982047,-0.57,9.754155991759998,0.5754540288400066,-0.45111111111111113,-0.6311111111111111,-0.06555555555555556,-0.026845368028357065,0.08388094310510982,0.05639685288272546
