time,acc_x,acc_y,acc_z,mag_x,mag_y,mag_z,gyr_x,gyr_y,gyr_z
1592295282.3081946,-0.5008876532986316,9.82,0.4435506131945266,-0.4565942400462689,-0.67,-0.03673909328706442,-0.015639284675443982,0.06961198645385197,0.023551991108671753
1592295282.3181946,-0.51,9.82,0.48,-0.4444444444444444,-0.67,-0.04888888888888889,0.014180800172453926,-0.05563236990731925,-0.0818123086872342
1592295282.3281946,-0.5072964837871118,9.797296483787113,0.4802613216582296,-0.4444444444444444,-0.67,-0.04888888888888889,-0.05568938144910522,0.04943602123750288,0.005041939571087395
1592295282.3381946,-0.503617207661529,9.797234415323057,0.407234415323058,-0.4444444444444444,-0.67,-0.04888888888888889,-0.008191290261904328,0.053383662938738,-0.026483528425208076
1592295282.3481946,-0.5292677774307916,9.80724746036703,0.4227525396329702,-0.4444444444444444,-0.67,-0.04888888888888889,0.048927639028714276,0.13069854836630324,-0.06832004823073377
1592295282.3581946,-0.5675916565814765,9.803545240976721,0.42911368975581976,-0.44375509203230423,-0.67,-0.04701778948450836,0.04994082226648988,0.09042557750416144,-0.010977654439100627
1592295282.3681946,-0.44,9.84,0.42,-0.43666666666666665,-0.67,-0.027777777777777776,-0.053450708342326333,-0.022907446432425576,-0.022907446432425576
1592295282.3781946,-0.2960873856873276,9.89434954274931,0.27804122514152996,-0.43666666666666665,-0.67,-0.027777777777777776,0.015034400198913774,0.008894269059558053,-0.009912800040154686
1592295282.3881946,-0.312107998033846,10.015089998361537,0.15069400557076984,-0.43666666666666665,-0.67,-0.027777777777777776,0.025851818882298625,0.15240782424851557,-0.047556295197519874
1592295282.3981946,-0.2467884174979622,9.984642316500407,0.27696347475061134,-0.43666666666666665,-0.67,-0.027777777777777776,0.0717607283417182,0.2071192242912232,-0.11390635149375862
1592295282.4081945,-0.1582005460412013,10.005056908839485,0.3092709995390561,-0.4384459494064855,-0.6695317677000477,-0.027777777777777776,0.06783785472704913,0.2645377006644185,-0.32539807522402586
1592295282.4181945,-0.03,10.06,0.41,-0.4577777777777778,-0.6644444444444444,-0.027777777777777776,-0.0839939702522271,0.18762289458939044,-0.29343348049154666
1592295282.4281945,0.012367505508523717,10.135264988982954,0.3357949669488577,-0.4577777777777778,-0.6644444444444444,-0.027777777777777776,-0.01102013600677215,0.19376699296293448,-0.24730631628417055
1592295282.4381945,0.057181562782724626,10.12,0.25281843721727537,-0.4577777777777778,-0.6644444444444444,-0.027777777777777776,-0.03031918477092216,0.18787476061788075,-0.21978850822828
1592295282.4481945,0.0877954874767129,10.114144634086674,0.18707231704333754,-0.4577777777777778,-0.6644444444444444,-0.027777777777777776,-0.04116486768674565,0.16164695415945854,-0.26723997329652416
1592295282.4581945,0.00867020465428371,10.102659590691433,0.1786702046542837,-0.4549704320479323,-0.6608983235225343,-0.02689124754730025,-0.09431046736077825,0.10619944826180544,-0.3517463656788298
1592295282.4681945,-0.00611417714647607,10.104714557133809,0.18834253143942822,-0.43666666666666665,-0.6377777777777778,-0.021111111111111112,-0.11556578897160748,0.2698831613804653,-0.32091712637693326
1592295282.4781945,-0.03875169703465524,10.045890675241157,0.2219635584137192,-0.43666666666666665,-0.6377777777777778,-0.021111111111111112,-0.1062389678943392,0.3201536513653153,-0.6044181515711191
1592295282.4881945,-0.16219344363692595,10.005989639709293,0.22021416421833928,-0.43666666666666665,-0.6377777777777778,-0.021111111111111112,-0.09829722954762714,0.12109916884313428,-0.6252619442621649
1592295282.4981945,-0.3805827439886846,10.092827793493635,0.3105827439886846,-0.43666666666666665,-0.6377777777777778,-0.021111111111111112,-0.09773265223412324,0.02300279769460136,-0.6760253669721544
1592295282.5081944,-0.49923338048090526,10.159568776520508,0.4292333804809052,-0.43666666666666665,-0.6377777777777778,-0.021111111111111112,-0.11876466431450636,0.042416962691878106,-0.7836121979987297
1592295282.5181944,-0.05333183906757817,10.063336321864844,0.5599955172027344,-0.4222222222222222,-0.67,-0.042222222222222223,-0.02290255645917668,0.08544580330982297,-1.0635590349393946
1592295282.5281944,-0.03696337032797492,10.126439556064302,0.46230403623152344,-0.4222222222222222,-0.67,-0.042222222222222223,0.0035010494367398587,0.11087035668521804,-1.0548333666740728
1592295282.5381944,0.003114310790616033,10.223245724316246,0.3266885689209384,-0.4222222222222222,-0.67,-0.042222222222222223,-0.025883225147946658,0.2153050577189653,-1.1176858372937846
1592295282.5481944,0.04315663335049442,10.276843366649505,0.2882760212324025,-0.4222222222222222,-0.67,-0.042222222222222223,-0.053103255238249374,0.21588604149649157,-1.2741856895723676
1592295282.5581944,-0.038750199719505066,10.358750199719504,0.1914770366951304,-0.4222222222222222,-0.67,-0.042222222222222223,-0.19849436951925106,0.2621837706250787,-1.3643444252438268
1592295282.5681944,-0.011349500713266762,10.272975748930099,0.3012111269614836,-0.4088888888888889,-0.6844444444444444,-0.027777777777777776,-0.15147827107510414,0.4077593933665661,-1.564987380559434
1592295282.5781944,-0.1482612469260813,10.161624475625633,0.3828489801822653,-0.4088888888888889,-0.6844444444444444,-0.027777777777777776,-0.15083919064474788,0.5032861746458043,-1.5818569059499796
1592295282.5881944,-0.49032853768520507,9.963626798368049,0.41930355736883546,-0.4088888888888889,-0.6844444444444444,-0.027777777777777776,-0.20854364076695792,0.49748762372836736,-1.6469896584516293
1592295282.5981944,-0.7059345852505907,9.862814859559046,0.5184356956313181,-0.4088888888888889,-0.6844444444444444,-0.027777777777777776,-0.2938109214693906,0.3729956781614494,-1.8779622945537595
1592295282.6081944,-0.8624188533764456,9.73613711869526,0.6153069092330379,-0.4088888888888889,-0.6844444444444444,-0.027777777777777776,-0.16131687083299917,0.38762692301700186,-2.155143099872836
1592295282.6181943,-0.95,9.67,0.65,-0.3422222222222222,-0.7177777777777777,-0.04888888888888889,-0.11235557059713495,0.5028729907308661,-2.155481626212997
1592295282.6281943,-1.337597594124111,9.418720721762767,0.5861881903880631,-0.3422222222222222,-0.7177777777777777,-0.04888888888888889,-0.11577328834866729,0.5648767309491823,-2.2929121103175807
1592295282.6381943,-1.6978263467329477,9.295279384350652,0.42,-0.3422222222222222,-0.7177777777777777,-0.04888888888888889,-0.11797905068743653,0.4439612980744273,-2.2837119105166592
1592295282.6481943,-2.015923201730665,9.156607896160086,0.42425310978907516,-0.3422222222222222,-0.7177777777777777,-0.04888888888888889,-0.0580018738309638,0.39098136244165727,-2.341442257518038
1592295282.6581943,-2.2503261222282314,9.073432666306111,0.4393758788534343,-0.3422222222222222,-0.7177777777777777,-0.04888888888888889,-0.043155130020174556,0.39263100064285605,-2.281230463174282
1592295282.6681943,-2.7789691466775084,8.83354971314993,0.41354971314993,-0.2788888888888889,-0.7444444444444445,-0.027777777777777776,-0.1852746789274179,0.3731100039049974,-2.142616554130322
1592295282.6781943,-3.161317492955601,8.768997029929174,0.28778437793516615,-0.2788888888888889,-0.7444444444444445,-0.027777777777777776,-0.21487898793230284,0.3071047943195446,-2.0202887504362494
1592295282.6881943,-3.5554004252303333,8.780965036617056,0.15823411292227735,-0.2788888888888889,-0.7444444444444445,-0.027777777777777776,-0.2849397921874873,0.331151151662041,-1.7339975482384313
1592295282.6981943,-3.7013981828282647,8.66445457966703,0.24563323237934803,-0.2788888888888889,-0.7444444444444445,-0.027777777777777776,-0.3158026956389688,0.345893192692444,-1.5653421728824144
1592295282.7081943,-4.1072909087650755,8.882434006559022,0.26818282826472645,-0.2788888888888889,-0.7444444444444445,-0.027777777777777776,-0.3354809302986697,0.2458621665056309,-1.5653421728824144
1592295282.7181942,-4.24,8.42,0.38,-0.20444444444444446,-0.7566666666666667,-0.042222222222222223,-0.18762289458939044,0.17671458676442586,-1.473712387152712
1592295282.7281942,-4.3354588616433,8.756641624308775,0.59227056917835,-0.20444444444444446,-0.7566666666666667,-0.042222222222222223,-0.2690740403730192,0.16050186063821653,-1.4817827253205393
1592295282.7381942,-4.381357570071537,8.414178960947579,0.6315358273718775,-0.20444444444444446,-0.7566666666666667,-0.042222222222222223,-0.18003382352002176,-0.07032362310994995,-1.367138181324805
1592295282.7481942,-4.638282370365019,8.598471110950566,0.7068705185399244,-0.20444444444444446,-0.7566666666666667,-0.042222222222222223,-0.183834431223735,-0.14588884012969922,-1.3373457725599542
1592295282.7581942,-4.63070691928405,8.371207578521501,0.7371723228637997,-0.20444444444444446,-0.7566666666666667,-0.042222222222222223,-0.21523586509931897,-0.21199712197303383,-1.3084233992534955
1592295282.7681942,-4.78624746724301,8.678336710342654,0.6655954793101896,-0.13111111111111112,-0.7833333333333333,-0.07222222222222222,-0.1150249600954067,-0.1566725051025563,-1.1663114690407923
1592295282.7781942,-4.942795129045776,8.452795129045777,0.651801217738556,-0.13111111111111112,-0.7833333333333333,-0.07222222222222222,-0.0855994681576802,-0.05344363637506733,-1.1546622783075209
1592295282.7881942,-4.924289643822735,8.444496532267545,0.6763310215116962,-0.13111111111111112,-0.7833333333333333,-0.07222222222222222,-0.17056982553698302,-0.1593967024149676,-0.8166711676352187
1592295282.7981942,-5.101693425630618,8.560526601913597,0.7429323717019426,-0.13111111111111112,-0.7833333333333333,-0.07222222222222222,-0.14907043537665612,-0.2390198151042559,-0.7345841368031802
1592295282.8081942,-5.732540953899681,8.666934618730066,0.7581335169614382,-0.13111111111111112,-0.7833333333333333,-0.07222222222222222,-0.07362289421558323,-0.5167662578400736,-0.6690857219490621
1592295282.8181942,-4.56,7.9,1.1,-0.07222222222222222,-0.7833333333333333,-0.08666666666666667,0.09272061651219875,-0.509417975425845,-0.667588438887831
1592295282.8281941,-6.005310648006455,8.618443282045575,0.5668289697003422,-0.07222222222222222,-0.7833333333333333,-0.08666666666666667,-0.08243425310711448,-0.11371406328861661,-0.5627240024754928
1592295282.8381941,-5.469524833369167,8.398690604171145,0.7163885902673259,-0.07222222222222222,-0.7833333333333333,-0.08666666666666667,-0.1450050513926687,-0.28697949608545387,-0.3462863544617845
1592295282.8481941,-5.104220193321303,8.341451696474834,0.8228764137290285,-0.07222222222222222,-0.7833333333333333,-0.08666666666666667,-0.03100067061176089,-0.2813489955674362,-0.5105529508548842
1592295282.858194,-5.231617681216387,8.296487877217745,0.7854065643481213,-0.07222222222222222,-0.7833333333333333,-0.08666666666666667,-0.05061983786945662,-0.4472944519554459,-0.42471909410246533
1592295282.868194,-5.224742532322781,8.434829246544806,0.9317235844850646,-0.03888888888888889,-0.7855555555555556,-0.07222222222222222,-0.21014543775707822,-0.0490684671038077,-0.40846970816164624
1592295282.878194,-5.012169137010006,8.153051438316655,0.9921508288816994,-0.03888888888888889,-0.7855555555555556,-0.07222222222222222,-0.10899681964213646,-0.08965059798461901,-0.28778084697314027
1592295282.888194,-4.966719785676344,8.187921661008337,0.7433598928381717,-0.03888888888888889,-0.7855555555555556,-0.07222222222222222,-0.17522321281439873,-0.21954527053646114,-0.1764096509508658
1592295282.898194,-5.002148601303393,7.945040209123749,0.8072692286746419,-0.03888888888888889,-0.7855555555555556,-0.07222222222222222,-0.04521035871053462,-0.1569996327455436,-0.11414848000786335
1592295282.908194,-5.017376513514985,8.051635594604898,1.1422832973296784,-0.03888888888888889,-0.7855555555555556,-0.07222222222222222,-0.09504358489121122,-0.04819708891773307,-0.2196288087569621
1592295282.918194,-5.44,8.26,0.72,-0.0044444444444444444,-0.7777777777777778,-0.07222222222222222,-0.2181661564992912,-0.009817477042468103,-0.025089107997418484
1592295282.928194,-5.1565652358363225,8.269773612557367,1.4921153920320878,-0.0044444444444444444,-0.7777777777777778,-0.07222222222222222,-0.1435366544628932,0.03709249566612491,-0.095454067060308
1592295282.938194,-5.208887748036009,8.615016117863368,0.9980641849136799,-0.0044444444444444444,-0.7777777777777778,-0.07222222222222222,-0.15644965504617797,-0.003249154054284736,-0.11481489533797763
1592295282.948194,-4.973382000916762,8.199537714547645,0.9142773712714124,-0.0044444444444444444,-0.7777777777777778,-0.07222222222222222,-0.03901139999723489,-0.027264398990637827,-0.12705020182897714
1592295282.958194,-5.222606149092576,8.27074461402645,0.8715532315841299,-0.0044444444444444444,-0.7777777777777778,-0.07222222222222222,-0.04522537422744372,0.00535896571795854,-0.0983105710142613
1592295282.968194,-4.949022693722321,8.254397377836716,1.5476873420571973,-0.02666666666666667,-0.7866666666666666,-0.07222222222222222,-0.21754081271845802,0.024026771406052874,-0.19550746108024347
1592295282.978194,-5.252596094747293,8.27274100515342,1.4459609474729327,-0.02666666666666667,-0.7866666666666666,-0.07222222222222222,-0.15943450379405538,-0.16133297535258578,-0.12017491032119487
1592295282.988194,-5.239019735314604,8.079276062224286,1.598552124448572,-0.02666666666666667,-0.7866666666666666,-0.07222222222222222,-0.1282869173687203,-0.11281955991534566,-0.11403054164356217
1592295282.998194,-5.007084357084357,8.037174447174447,1.4655118755118755,-0.02666666666666667,-0.7866666666666666,-0.07222222222222222,-0.21658574728206248,-0.08510713581732995,0.002178981391080144
1592295283.008194,-4.976549822549822,8.426489762489762,1.7326890526890528,-0.02666666666666667,-0.7866666666666666,-0.07222222222222222,-0.24573025620659997,-0.09676493938714494,0.08211820586981142
1592295283.018194,-5.19,8.19,1.63,-0.0044444444444444444,-0.7866666666666666,-0.07777777777777778,-0.17235126363444003,-0.2454369260617026,-0.06872233929727672
1592295283.028194,-4.13736443501969,7.919854589518328,1.7976764616782794,-0.0044444444444444444,-0.7866666666666666,-0.07777777777777778,-0.14796371084793947,-0.05440109590078129,-0.1225781850341322
1592295283.038194,-5.367217204959436,8.374776191205092,1.1379007675318713,-0.0044444444444444444,-0.7866666666666666,-0.07777777777777778,-0.11632922781859349,0.0496944969106655,-0.050796872642949374
1592295283.048194,-5.1104102250114805,8.090454177691282,1.3396776803481227,-0.0044444444444444444,-0.7866666666666666,-0.07777777777777778,-0.0012746197042155238,0.10572108868810172,-0.14384103398762021
1592295283.058194,-5.289274163731538,7.878130533771819,1.470381209986573,-0.0044444444444444444,-0.7866666666666666,-0.07777777777777778,-0.07931394130436493,0.03469866724591214,-0.25332423822350747
1592295283.068194,-5.46,7.85,1.48,-0.012222222222222223,-0.78,-0.08666666666666667,0.11235557059713495,0.15707963267948966,-0.17016960206944715
1592295283.078194,-5.522996902530271,8.17398407015568,1.5789951325475684,-0.012222222222222223,-0.78,-0.08666666666666667,-0.04471633907588947,-0.08736352674915457,-0.010152594090053507
1592295283.088194,-5.162318519913379,7.935302231428302,1.4435081442425384,-0.012222222222222223,-0.78,-0.08666666666666667,-0.059907777478523695,-0.22983982267009545,0.07263704658525667
1592295283.098194,-5.195227379719424,8.152500706148198,1.3513633367856135,-0.012222222222222223,-0.78,-0.08666666666666667,0.003272697757673443,-0.2097369441858509,0.03530312940023108
1592295283.1081939,-5.131461801834766,7.9841784062099785,1.2858344005645435,-0.012222222222222223,-0.78,-0.08666666666666667,0.0751290492661608,-0.1624900233539193,0.06335710886328708
1592295283.1181939,-5.147749103942652,8.224913261648746,1.7747075268817205,0.03111111111111111,-0.7922222222222223,-0.07777777777777778,-0.03949651946791361,-0.01643815522830394,0.16793601852312248
1592295283.1281939,-5.512167153659135,7.909568844378025,1.2356543171324694,0.03111111111111111,-0.7922222222222223,-0.07777777777777778,0.07778275792747313,-0.2901098200951739,0.2098174190054903
1592295283.1381938,-5.128596346441237,8.115387326299823,1.3572743291771687,0.03111111111111111,-0.7922222222222223,-0.07777777777777778,0.17881366898661788,-0.07784285544565764,0.1240942217431857
1592295283.1481938,-5.490221451313976,8.256397376799885,1.3307719906857387,0.03111111111111111,-0.7922222222222223,-0.07777777777777778,0.1938310348028474,0.06294766992938525,0.20931940118058057
1592295283.1581938,-5.135491007707679,8.063165144162147,1.5778661147587782,0.03111111111111111,-0.7922222222222223,-0.07777777777777778,0.17190129204417245,-0.05592555208879811,0.3261350490396098
1592295283.1681938,-5.23529395335847,8.323528836754644,1.283137364427687,0.0044444444444444444,-0.7744444444444445,-0.07222222222222222,0.35443452213370386,-0.0655564521365793,0.3947095504143391
1592295283.1781938,-5.126585786038386,7.932689685293475,1.3611244024943587,0.0044444444444444444,-0.7744444444444445,-0.07222222222222222,0.40603435765923407,0.17443636948413566,0.3400804782296204
1592295283.1881938,-5.521223598288674,8.68147669443819,1.4130740824138708,0.0044444444444444444,-0.7744444444444445,-0.07222222222222222,0.41545330582938855,0.29545862834912984,0.5263307896630129
1592295283.1981938,-5.256777752758388,7.82202769646476,0.9030713803197479,0.0044444444444444444,-0.7744444444444445,-0.07222222222222222,0.246494842787713,0.09353266032371266,0.5757820471386254
1592295283.2081938,-4.932514057413436,7.837795945546019,1.0411837821840781,0.0044444444444444444,-0.7744444444444445,-0.07222222222222222,0.3559564208744491,0.06032158640070555,0.6652795029706631
1592295283.2181938,-5.24,8.31,1.35,0.02666666666666667,-0.8011111111111111,-0.057777777777777775,0.2825251726665821,0.19416787928436915,0.5770494839406253
1592295283.2281938,-5.175000712555223,8.39449907367821,1.4864985036340317,0.02666666666666667,-0.8011111111111111,-0.057777777777777775,0.31939484893083314,0.125391752406824,0.6685146423654018
1592295283.2381938,-5.195815448779216,8.39348712601732,1.2251073073247023,0.02666666666666667,-0.8011111111111111,-0.057777777777777775,0.3534549222787499,0.15837528449951976,0.8283747857781237
1592295283.2481937,-4.951033236151603,7.772193586005831,1.319872886297376,0.02666666666666667,-0.8011111111111111,-0.057777777777777775,0.47019322701431493,0.06203335221794977,0.7350759450182631
1592295283.2581937,-5.224105067328137,8.164577427356484,1.535189581856839,0.02666666666666667,-0.8011111111111111,-0.057777777777777775,0.44862974859925836,0.15566508955156386,0.8458677609490484
1592295283.2681937,-5.31637712631198,8.378724574737605,1.3769873326094824,-0.008231632283749544,-0.8011111111111111,-0.04905320304017373,0.3922756988065239,0.024925976879312278,0.8896057847165092
1592295283.2781937,-4.95,8.31,0.87,-0.013333333333333334,-0.8011111111111111,-0.04777777777777778,0.44724062082354693,0.16580627893946132,0.7286749627076325
1592295283.2881937,-5.165726816043378,8.326594370464875,1.1106183717406906,-0.013333333333333334,-0.8011111111111111,-0.04777777777777778,0.5151218087706816,0.12507756617118052,0.8698678336376726
1592295283.2981937,-5.0431273125228,8.614665172755224,0.6593819375683986,-0.013333333333333334,-0.8011111111111111,-0.04777777777777778,0.1960453543093058,-0.01177277516090823,0.8271033829812635
1592295283.3081937,-4.898858805303358,8.68685635538262,1.0362811644329155,-0.013333333333333334,-0.8011111111111111,-0.04777777777777778,0.1338923454707719,-0.03686981320348466,0.7738983011360326
1592295283.3181937,-4.87,8.55,0.69,-0.0011111111111111111,-0.8211111111111111,-0.056666666666666664,0.19853120241435498,-0.07744898555724837,0.9555677654668954
1592295283.3281937,-5.09903856858847,8.499897813121272,0.6756850894632207,-0.0011111111111111111,-0.8211111111111111,-0.056666666666666664,0.17042394130239183,-0.029042035864422944,0.99694789988173
1592295283.3381937,-4.816838081619184,7.618857111428886,0.4690666593334067,-0.0011111111111111111,-0.8211111111111111,-0.056666666666666664,0.0601065039742356,-0.14654671415196655,1.1688982574683318
1592295283.3481936,-5.120366701132565,8.647889003775218,0.9356960107725971,-0.0011111111111111111,-0.8211111111111111,-0.056666666666666664,0.006918947098279095,-0.21413758178698927,1.167443683912216
1592295283.3581936,-4.696849298881361,8.527595123680479,1.1425114227193949,-0.0011111111111111111,-0.8211111111111111,-0.056666666666666664,0.1218277052568114,-0.18973482169873535,1.1776888065654332
1592295283.3681936,-4.757133742255649,8.637470949049103,1.0818546373639923,-0.03279005572165884,-0.8211111111111111,-0.03591149605975609,0.027204162412020685,-0.1296376212104958,1.0226303729293735
1592295283.3781936,-4.306320625073619,8.655644116376772,0.751473556087793,-0.03333333333333333,-0.8211111111111111,-0.035555555555555556,0.016556566143048707,-0.08008254376467405,1.0284593234885562
1592295283.3881936,-4.3809137269333895,9.071394774196941,1.281875821460491,-0.03333333333333333,-0.8211111111111111,-0.035555555555555556,0.0079190036591674,-0.4349430392639744,0.9734352880873577
1592295283.3981936,-4.092520181935084,8.658174457647704,0.9453473197913939,-0.03333333333333333,-0.8211111111111111,-0.035555555555555556,0.04322615371091479,-0.3825168167945029,0.8378990153734096
1592295283.4081936,-4.199725725844836,8.40853026336665,0.9140365698873553,-0.03333333333333333,-0.8211111111111111,-0.035555555555555556,0.0029318997757056126,-0.4614520968259545,0.7304354914223388
1592295283.4181936,-3.69,8.38,1.49,-0.09333333333333334,-0.8066666666666666,-0.021111111111111112,0.08835729338221293,-0.31525009614147576,0.8410305333047675
1592295283.4281936,-4.2100803148341495,8.973216609107702,1.5956413139506869,-0.09333333333333334,-0.8066666666666666,-0.021111111111111112,0.08658441957973936,-0.3675498733144457,0.8738286986505284
1592295283.4381936,-3.5734763980757664,8.596311134495892,1.0129131589496894,-0.09333333333333334,-0.8066666666666666,-0.021111111111111112,0.04949833258770675,-0.6281996959754678,0.9384448488363792
1592295283.4481936,-3.538601613704659,9.015739535764144,1.2025201713082365,-0.09333333333333334,-0.8066666666666666,-0.021111111111111112,0.13111425690491965,-0.4002481479567883,0.9424777960769379
1592295283.4581935,-4.137214132251134,8.87936739078539,0.8011745046550489,-0.09333333333333334,-0.8066666666666666,-0.021111111111111112,0.20343668589028435,-0.25826727303816066,0.7944188053493365
1592295283.4681935,-3.757226533854803,9.2516068809582,1.2796186751405525,-0.11831744479752301,-0.8181177177544202,-0.03464417148754719,0.0477668093618977,-0.3400599303938888,0.6401839818936
1592295283.4781935,-3.581228583368157,9.481218554116172,1.1742900125365652,-0.12,-0.8188888888888889,-0.035555555555555556,0.11546988564352685,-0.36386951358059816,0.7136680849990148
1592295283.4881935,-3.0024881976500213,8.998013271086865,0.5834090432228284,-0.12,-0.8188888888888889,-0.035555555555555556,0.2406594202513191,-0.22430591335112893,0.8593331620983148
1592295283.4981935,-3.6670818173337065,9.74671704450042,0.9423220449668812,-0.12,-0.8188888888888889,-0.035555555555555556,0.0034025494181144367,-0.2886387708808254,0.7932392410904562
1592295283.5081935,-3.3490761676599283,9.238614251489892,0.499981982695468,-0.12,-0.8188888888888889,-0.035555555555555556,0.11340191029103097,-0.3601582563011267,0.8418094513195127
1592295283.5181935,-1.80706761424017,8.92429961477152,1.2813034670563233,-0.15630114240170032,-0.8263626535010037,-0.014201942378084784,0.25473213598836136,0.02595631702047191,0.8355514922792547
1592295283.5281935,-3.6484886318308734,9.880072197846031,1.009600717989629,-0.15777777777777777,-0.8266666666666667,-0.013333333333333334,0.047496782496547124,-0.2952632653697406,0.8297609938421371
1592295283.5381935,-2.453206182996759,8.90734729493892,0.7592221391174271,-0.15777777777777777,-0.8266666666666667,-0.013333333333333334,0.3171192758891941,-0.2580403593584448,0.8783458663477882
1592295283.5481935,-2.8458065139654005,9.012334493089785,0.5621561805354209,-0.15777777777777777,-0.8266666666666667,-0.013333333333333334,0.17470329173509686,0.11187778523845385,0.9284340481918374
1592295283.5581934,-3.1484306300620597,9.008394165702466,0.09273728130149717,-0.15777777777777777,-0.8266666666666667,-0.013333333333333334,0.0773514567716039,0.023849000803012083,0.7760385361953527
1592295283.5681934,-2.3514988575780653,8.918353389185073,1.238006092916984,-0.1864703393416265,-0.8151896420411272,0.011533553355335532,0.03798633348673683,-0.35529845704798124,0.6070261452460609
1592295283.5781934,-3.060820427127486,9.77436990544506,1.1094192207368765,-0.19111111111111112,-0.8133333333333334,0.015555555555555555,0.09953746419360421,-0.1374182258591612,0.6827410547627055
1592295283.5881934,-2.8149698732599213,9.076141699563681,0.13181331809682117,-0.19111111111111112,-0.8133333333333334,0.015555555555555555,0.00944232689646203,-0.043505404879470126,0.7971080494002633
1592295283.5981934,-3.022449799196787,9.639477911646587,0.4457429718875502,-0.19111111111111112,-0.8133333333333334,0.015555555555555555,-0.18948913520522775,-0.32600507433837866,0.6666596994264284
1592295283.6081934,-2.9121163252077236,9.721293877310496,1.1630642911862341,-0.19111111111111112,-0.8133333333333334,0.015555555555555555,-0.03045187544999492,-0.23656802547410727,0.7624146937153753
1592295283.6181934,-2.5807533508452885,9.645009429514381,1.1229002492085944,-0.20349026739408635,-0.8071437551918457,-0.0050763715827365045,-0.2774920836974882,-0.1854412330243975,0.6715820168899853
1592295283.6281934,-2.375886613790871,9.233680802848818,1.1634873745548722,-0.20444444444444446,-0.8066666666666666,-0.006666666666666667,-0.23913900270897187,-0.14181122407186536,0.703980923320741
1592295283.6381934,-2.346182150111851,9.194687716952508,0.7090483659458486,-0.20444444444444446,-0.8066666666666666,-0.006666666666666667,-0.10778909282063397,-0.08532486739113988,0.8182402731367546
1592295283.6481934,-2.394043439170965,9.493836653574977,1.5561945772015333,-0.20444444444444446,-0.8066666666666666,-0.006666666666666667,-0.29478492759074326,-0.10748237066454183,1.0535857738092198
1592295283.6581933,-2.2519413405059034,9.46244546407452,1.2194207226628166,-0.20444444444444446,-0.8066666666666666,-0.006666666666666667,-0.1520950086831566,0.02146446821281721,1.1173012758118743
1592295283.6681933,-2.353336959149142,9.454500543872372,0.5608233623398597,-0.2216855679101872,-0.7939626809550667,0.011481884349904652,-0.22533256141342595,0.031124009987843343,1.2089877363477943
1592295283.6781933,-2.031513132851161,8.999088313665778,1.2025799390940237,-0.22555555555555556,-0.7911111111111111,0.015555555555555555,-0.220353112351485,-0.02396547339618689,1.203907933296211
1592295283.6881933,-1.5378989500784424,8.860586105635786,0.9789178969387344,-0.22555555555555556,-0.7911111111111111,0.015555555555555555,-0.16666792072895809,0.0025387189718545575,1.1952003694820668
1592295283.6981933,-1.6734422880490296,9.29745999319033,1.4151855635001702,-0.22555555555555556,-0.7911111111111111,0.015555555555555555,0.08964497139478195,0.08393603031280952,1.280972207401171
1592295283.7081933,-1.9155078402156946,9.65101568043139,1.3081907194550872,-0.22555555555555556,-0.7911111111111111,0.015555555555555555,-0.010525522501952517,0.11764175406079412,1.2571219138154368
1592295283.7181933,-0.9987683965917893,9.185282726568552,1.7500852052672347,-0.2648291591358981,-0.7868422411567261,0.015555555555555555,0.028965739779055782,0.12419416865566157,1.2196409144091107
1592295283.7281933,-1.0143316571161267,9.329854208084825,1.6838779090164893,-0.27666666666666667,-0.7855555555555556,0.015555555555555555,0.1471001447501346,0.1424920193430337,1.2114407865192107
1592295283.7381933,-1.4642982354306942,9.735745588576735,0.8763010796377989,-0.27666666666666667,-0.7855555555555556,0.015555555555555555,-0.00029030991047979127,-0.010753655271780932,1.1854778917755595
1592295283.7481933,-0.9590776351577038,9.772431168583289,1.2167786419811997,-0.27666666666666667,-0.7855555555555556,0.015555555555555555,0.037154923812131396,0.010287809005565765,1.0600079031335052
1592295283.7581933,-0.8205726165726166,9.728479952479951,1.1324882684882684,-0.27666666666666667,-0.7855555555555556,0.015555555555555555,0.05099988663058616,0.04993801939782394,1.077104262966478
1592295283.7681932,-0.8110702422425666,9.483486591590374,0.7510702422425667,-0.3016954729176231,-0.7648420607271778,0.02677536525426017,0.1922425536737335,-0.05810045961507092,1.2660906483587282
1592295283.7781932,-0.6608437955055295,9.489789051123617,0.8355991971348735,-0.3088888888888889,-0.7588888888888888,0.03,0.1835702193220574,-0.09971113790129171,1.348624504344138
1592295283.7881932,-1.0342968003149076,10.201753922285329,0.9125428780295788,-0.3088888888888889,-0.7588888888888888,0.03,0.4348523335637686,0.10149265526944574,1.1726687931517419
1592295283.7981932,-1.531037034090457,13.00000397788297,0.9904574565416285,-0.3088888888888889,-0.7588888888888888,0.03,0.32559934180001826,0.17914236759423915,0.7288639781373853
1592295283.8081932,-0.8046837820914212,12.483606762680026,1.8416593613024421,-0.3088888888888889,-0.7588888888888888,0.03,0.27080403539191755,0.12401250117577273,0.08421118013878556
1592295283.8181932,-0.33843871805976616,9.758295799047207,0.6137859102064387,-0.3395691577242032,-0.7443157611921145,0.03,0.49856643741423246,0.12467694285389341,-0.08106430143779603
1592295283.8281932,-0.7265650674882629,9.857992957746479,0.4558241637323943,-0.35333333333333333,-0.7377777777777778,0.03,0.3965971693409287,0.158197830255385,-0.06865328215486956
1592295283.8381932,-0.4885657635672887,9.712487729125648,0.634627436843127,-0.35333333333333333,-0.7377777777777778,0.03,0.31303836647527095,-0.044172400148953295,0.05792716497184177
1592295283.8481932,-0.12973630348898094,10.143979722975867,0.12929411204721786,-0.35333333333333333,-0.7377777777777778,0.03,0.2566355301837273,-0.07371360794982489,0.024838635928554523
1592295283.8581932,-0.02964856172304134,10.23,0.00811957935819601,-0.35333333333333333,-0.7377777777777778,0.03,0.19570928089094536,-0.07290543409763064,0.12270776049552867
1592295283.8681931,-0.07200622689239151,10.15079315041837,0.17881805798793543,-0.35813374845949275,-0.7321772934639251,0.045201314566171547,0.05252442553075637,0.08645217089942206,0.21982530608642978
1592295283.8781931,-0.07143555025579874,10.104130861253221,0.2980859329922684,-0.36,-0.73,0.051111111111111114,0.015252455293620196,0.10390057254602902,0.22401871939280218
1592295283.8881931,-0.030935282920920577,10.230503835727058,0.17064717079079428,-0.36,-0.73,0.051111111111111114,-0.0033824122515685798,-0.025450138569603098,0.26744195336175486
1592295283.8981931,-0.24882368277594752,10.322373966011709,0.44544144485790804,-0.36,-0.73,0.051111111111111114,-0.07874611007095622,0.05023786252170809,0.5081714741889527
1592295283.908193,-0.3094849944423861,10.119699888847721,0.5594849944423861,-0.36,-0.73,0.051111111111111114,-0.03847411498323458,0.02113317924637169,0.47864312921124963
1592295283.918193,-0.27200398115047125,9.907603184920378,0.5164047773805656,-0.3643549362654822,-0.7343549362654822,0.051111111111111114,-0.011733343879096792,-0.10920294732937638,0.550104155606141
1592295283.928193,-0.2377989140206408,9.87779891402064,0.5367708295875436,-0.36777777777777776,-0.7377777777777778,0.051111111111111114,-0.027161094174304668,-0.1808170582023839,0.6596053180146846
1592295283.938193,0.027912294338644894,9.971002072807359,0.4700417800233191,-0.36777777777777776,-0.7377777777777778,0.051111111111111114,-0.1290322874132936,-0.21693641048694706,0.5392962672298982
1592295283.948193,0.15594424070349777,9.996501833668521,0.32702787964825114,-0.36777777777777776,-0.7377777777777778,0.051111111111111114,-0.20265811220073102,-0.24719626116971571,0.5593190423717594
1592295283.958193,0.14102060431308946,9.976257784185337,0.4890464748403116,-0.36777777777777776,-0.7377777777777778,0.051111111111111114,-0.2530946931407959,-0.37304896899535717,0.6245416539082157
1592295283.968193,0.1480408965788439,9.982217459693276,0.5748977585528903,-0.3755268493030978,-0.7286197841569451,0.060269104731943905,-0.23092501606580823,-0.31327746400641227,0.6012051015924406
1592295283.978193,0.18630268353614313,9.871091949391571,0.5246579095817552,-0.38,-0.7233333333333334,0.06555555555555556,-0.17557778092356485,-0.3028966067495645,0.6190249759467195
1592295283.988193,0.3940479192938209,9.819117276166457,0.5143253467843631,-0.38,-0.7233333333333334,0.06555555555555556,-0.23584366770466564,-0.384661598392133,0.576160862647444
1592295283.998193,0.5215733326997553,9.810711112167075,0.6316488868825584,-0.38,-0.7233333333333334,0.06555555555555556,-0.2895685459178916,-0.3221218454187852,0.5478627304570559
1592295284.008193,0.6026502815811727,9.743454002410983,0.7630919951780348,-0.38,-0.7233333333333334,0.06555555555555556,-0.18665524079804074,-0.3071806293543466,0.5267575117570236
1592295284.018193,0.7318273582872333,9.93653243767512,0.9515539909476256,-0.40271463467203106,-0.7202637881073832,0.07353637314302593,-0.2606458219033985,-0.36349151735628354,0.6194239769250105
1592295284.028193,0.7875087288493267,9.990453900164985,1.0375436442466333,-0.4211111111111111,-0.7177777777777777,0.08,-0.31253881892511076,-0.3941416502664372,0.6712888426008671
1592295284.038193,0.9799151122528762,9.76243102870546,0.9625159164525857,-0.4211111111111111,-0.7177777777777777,0.08,-0.08207749278173922,-0.20281054753508854,0.6093349620983326
1592295284.048193,0.8626870287114347,9.88712148243298,1.0213644472989367,-0.4211111111111111,-0.7177777777777777,0.08,-0.0868036269312327,-0.2137747575609688,0.6190337415399466
1592295284.058193,0.8579763143154356,9.877268144354645,1.0145362887092904,-0.4211111111111111,-0.7177777777777777,0.08,-0.09639227419283658,-0.22998687963748576,0.6286459457987895
1592295284.068193,0.9458004329744203,9.720789608613911,1.0380043297442032,-0.4282005291909582,-0.7139108224614975,0.08773391063256043,-0.06531592452420312,-0.23756306424956364,0.7257791621386485
1592295284.078193,0.8453443632166218,9.656937283570604,1.153874567141208,-0.43333333333333335,-0.7111111111111111,0.09333333333333334,0.06137570520077115,-0.1952352062100669,0.7438479614063741
1592295284.088193,0.873121298325794,9.645079513127827,1.0952385393834818,-0.43333333333333335,-0.7111111111111111,0.09333333333333334,0.08852481218866542,-0.22501097594836378,0.762484765036582
1592295284.098193,0.962545352139119,9.642545352139118,1.1439994367651545,-0.43333333333333335,-0.7111111111111111,0.09333333333333334,0.06558867437306956,-0.2910137412875118,0.8250050922251688
1592295284.108193,1.044097807757167,9.66,1.253735244519393,-0.43333333333333335,-0.7111111111111111,0.09333333333333334,0.023589905488591148,-0.2758744160154591,0.7403825386185916
1592295284.118193,0.9896500110059433,9.673484481620076,1.225051727933084,-0.43333333333333335,-0.6926323770391567,0.09682931004964904,-0.04394129555122142,-0.2583446501151171,0.6005687368519855
1592295284.128193,0.8869073125291104,9.633092687470889,1.0960204937121565,-0.43333333333333335,-0.67,0.10111111111111111,-0.02835479217886898,-0.3017508238738382,0.6134090535505087
1592295284.138193,0.9543042306097055,9.37126192451265,0.8698703857320614,-0.43333333333333335,-0.67,0.10111111111111111,-0.10117288670719314,-0.385230131434011,0.6147863868945219
1592295284.148193,1.0723886939291938,9.46677385471126,0.7983957602234477,-0.43333333333333335,-0.67,0.10111111111111111,-0.3333393876158202,-0.5316158050418502,0.5627422547904201
1592295284.1581929,1.1938105796642382,9.631905289832119,0.9103983211910041,-0.43333333333333335,-0.67,0.10111111111111111,-0.19964423334818984,-0.39002063775883916,0.6066675091929935
1592295284.1681929,1.1614993596129217,9.670411840045539,0.9535585598406148,-0.4454804800531284,-0.6520684976993502,0.10920920892430783,0.00449809746972731,-0.29444147830043554,0.6790358440717615
1592295284.1781929,1.0742933472784322,9.548746987403938,0.9599465690509754,-0.45666666666666667,-0.6355555555555555,0.11666666666666667,-0.15545898680955542,-0.3998257667523194,0.6940767130842345
1592295284.1881928,1.075379554891989,9.50379554891989,0.8931680119441983,-0.45666666666666667,-0.6355555555555555,0.11666666666666667,-0.10563723781065326,-0.352237316333662,0.6759982133868815
1592295284.1981928,1.1584647557834542,9.628464755783455,0.6635324558708855,-0.45666666666666667,-0.6355555555555555,0.11666666666666667,0.039118729679375436,-0.28440447725058104,0.6702740287544806
1592295284.2081928,1.3633471208900634,9.583321269221194,0.6550129258344344,-0.45666666666666667,-0.6355555555555555,0.11666666666666667,0.03599741582238304,-0.31861767402394003,0.7293163096277411
1592295284.2181928,1.6508011144612802,9.564627685966185,0.7379641998397007,-0.46737982859008775,-0.630198974593845,0.1220232476283772,-0.03188905424775802,-0.35086402880147666,0.7696690254973868
1592295284.2281928,1.7769541747113755,9.734161708499153,0.6327924662122227,-0.4811111111111111,-0.6233333333333333,0.1288888888888889,-0.10840151854603053,-0.3113072193141173,0.7413056733832603
1592295284.2381928,1.6274779925839962,9.510504401483201,0.9376481077868041,-0.4811111111111111,-0.6233333333333333,0.1288888888888889,0.06798914934677824,-0.1720761553021339,0.7926667354961974
1592295284.2481928,1.5126066501873854,9.53,1.0913894426281796,-0.4811111111111111,-0.6233333333333333,0.1288888888888889,0.07474047907960249,-0.15989060296877583,0.7310500268916256
1592295284.2581928,1.410997342504299,9.618372674691262,1.3785915272784117,-0.4811111111111111,-0.6233333333333333,0.1288888888888889,0.14476741523559541,-0.12298712082322634,0.6996080823695395
1592295284.2681928,1.7026479527981406,9.854485964598606,1.0120132308242447,-0.48535133202217057,-0.6037223116196833,0.13948944116653753,0.20465822709379822,-0.14339539162955245,0.6131875200015529
1592295284.2781928,1.7537210410906665,9.485814424635333,0.9811628849270665,-0.49,-0.5822222222222222,0.1511111111111111,0.07080249920875485,-0.19543628596171858,0.5222542166814145
1592295284.2881927,1.6751980078721183,9.145594023616356,0.881122178488232,-0.49,-0.5822222222222222,0.1511111111111111,0.08906652178236767,-0.1944594918511736,0.5501693420292998
1592295284.2981927,1.6952190558356475,9.285387560324606,0.5146461405731848,-0.49,-0.5822222222222222,0.1511111111111111,0.06206706867217042,-0.17993193614685146,0.38576492001351126
1592295284.3081927,1.6665037152913569,9.156311106765742,0.6291259288228392,-0.49,-0.5822222222222222,0.1511111111111111,0.12128261488607717,-0.181417274731125,0.38056097628352037
1592295284.3181927,1.854357370772176,9.559538608806637,0.7933797064454371,-0.4995235765439977,-0.5767085726441182,0.16063468765510885,0.14582702051181753,-0.0686508470692216,0.5090141522369961
1592295284.3281927,1.9807299793026587,9.992936634293903,1.0014766756885847,-0.5111111111111111,-0.57,0.17222222222222222,0.1421301623839137,0.024442963127767472,0.5701321475185851
1592295284.3381927,1.5320408845461557,9.54225456415531,1.0780272563641038,-0.5111111111111111,-0.57,0.17222222222222222,0.24463121471618418,-0.015938499092102695,0.3536369334570068
1592295284.3481927,1.5558716249910949,9.598109282610244,1.015472679347439,-0.5111111111111111,-0.57,0.17222222222222222,0.2953653785647006,0.15779107784681565,0.4333370161630375
1592295284.3581927,1.7061026922456874,9.607661615347412,0.8448097694663872,-0.5111111111111111,-0.57,0.17222222222222222,0.2674381019093151,0.10550877414486787,0.35909892610961397
1592295284.3681927,1.8623993874425728,9.579491271056662,0.6446545176110261,-0.5080080993704271,-0.57,0.17894541432703762,0.2894031196763651,-0.020575039737551377,0.34220280417098164
1592295284.3781927,1.9642174916022501,9.505490711886356,0.5996462827309887,-0.5044444444444445,-0.57,0.18666666666666668,0.33586882428271336,-0.0070850803602449,0.4746049380984563
1592295284.3881927,1.9113570443752235,9.381758668232651,0.10185952101312362,-0.5044444444444445,-0.57,0.18666666666666668,0.26343273741972606,0.09989033759287372,0.33872206407546956
1592295284.3981926,2.0236424957841486,9.52814502529511,0.20403035413153459,-0.5044444444444445,-0.57,0.18666666666666668,0.17226664606952463,0.01670093199710847,0.2764363870172343
1592295284.4081926,1.9193129273852165,9.747671768153696,0.27719472484532726,-0.5044444444444445,-0.57,0.18666666666666668,0.10221849896119531,-0.004790100461529133,0.2713108567924086
1592295284.4181926,1.817188879082083,9.812703736393056,0.2718887908208296,-0.5110872478833645,-0.5586123369618515,0.18666666666666668,0.02288401876336931,-0.09424903122288995,0.24231671356307893
1592295284.4281926,1.8,9.87,0.1,-0.52,-0.5433333333333333,0.18666666666666668,0.031634092692397225,-0.1636246173744684,0.1854412330243975
1592295284.4381926,1.8894376980677006,9.478201475166166,0.04022464032307822,-0.52,-0.5433333333333333,0.18666666666666668,-0.005111091501317139,-0.05134271311281458,0.2206907275137892
1592295284.4481926,2.089857204055405,9.829143224332428,0.03549978580608311,-0.52,-0.5433333333333333,0.18666666666666668,-0.01555247743515046,-0.045207404638128855,0.21645132627160257
1592295284.4581926,2.0045797812449737,9.674267331510375,-0.016594820653048094,-0.52,-0.5433333333333333,0.18666666666666668,-0.07580098360701547,-0.08564197220246002,0.141562314768903
1592295284.4681926,1.9498614801831855,9.486162152993723,0.06164188386950866,-0.5151599102919282,-0.5336531539171897,0.1947334828467864,-0.10695319213791812,-0.14120914567783602,0.12427382355009017
1592295284.4781926,2.031967311142117,9.511065876021526,0.1771312537372932,-0.5066666666666667,-0.5166666666666667,0.2088888888888889,-0.15700809922773734,-0.11566404709740549,0.10199251509323987
1592295284.4881926,1.97,9.32,0.11,-0.5066666666666667,-0.5166666666666667,0.2088888888888889,-0.15926129424448257,0.022907446432425576,0.20507618710933373
1592295284.4981925,2.317579083449859,9.435859694483286,0.10239215893201065,-0.5066666666666667,-0.5166666666666667,0.2088888888888889,-0.024682625819966053,-0.17469852265405356,0.10817666673882256
1592295284.5081925,2.5570208144081517,9.582286425214265,0.11820648524823255,-0.5066666666666667,-0.5166666666666667,0.2088888888888889,-0.051163319902644624,-0.14637622991402796,0.11838411354521276
1592295284.5181925,2.5448537993828104,9.57036023098781,0.5602175440740628,-0.5096940871330556,-0.5162882391083681,0.21872800540465304,-0.2006646366536651,-0.1636246173744684,0.0994628433035084
1592295284.5281925,2.38,9.3,0.58,-0.5155555555555555,-0.5155555555555555,0.23777777777777778,-0.09708393964218458,-0.1636246173744684,0.05126904677733343
1592295284.5381925,2.6574468927299115,9.394760522496371,0.4803456920438053,-0.5155555555555555,-0.5155555555555555,0.23777777777777778,-0.02671376796216581,-0.06172484477512173,0.20603935370076612
1592295284.5481925,2.5776257898987978,9.446125338528057,0.5608737587304604,-0.5155555555555555,-0.5155555555555555,0.23777777777777778,-0.03755133269988619,0.015434320071036112,0.12349788331509953
1592295284.5581925,2.593614718185603,9.483614718185603,0.6812739636406892,-0.5155555555555555,-0.5155555555555555,0.23777777777777778,-0.07888723602850606,0.01571450725785368,0.02439258180161258
1592295284.5681925,2.7101249521422854,9.393015906164074,0.6820939055375727,-0.5180659682340794,-0.5155555555555555,0.24321700524791265,-0.05158956445739452,0.019537682550191296,-0.0006885321165491301
1592295284.5781925,2.76,9.1,0.52,-0.5222222222222223,-0.5155555555555555,0.25222222222222224,0.038179077387375956,0.14398966328953217,-0.05781403147231216
1592295284.5881925,2.7500591868244983,9.228136129696345,1.1902071538857437,-0.5222222222222223,-0.5155555555555555,0.25222222222222224,0.08308063105587901,0.10261874092569394,0.043820407307518724
1592295284.5981925,2.668169443792537,9.517878901666275,0.958169443792537,-0.5222222222222223,-0.5155555555555555,0.25222222222222224,0.14721561420631096,0.2354966697553797,0.002874458153491369
1592295284.6081924,2.5048414557155367,9.755847707879356,0.9373058672586196,-0.5222222222222223,-0.5155555555555555,0.25222222222222224,0.22094511695129673,0.22450196328970223,-0.11723666235729908
1592295284.6181924,2.3820902796350776,9.459801194615316,0.8250994026923419,-0.5183079584889339,-0.5137763447676972,0.25222222222222224,0.2722944564688061,0.20637392921347514,-0.21218388113102954
1592295284.6281924,2.62,9.99,0.56,-0.51,-0.51,0.25222222222222224,0.2181661564992912,0.17671458676442586,-0.31525009614147576
1592295284.6381924,2.424266225930007,9.417064903720027,0.45173094076289416,-0.51,-0.51,0.25222222222222224,0.18040883954195963,0.28034402621135585,-0.3458210595099383
1592295284.6481924,2.2262781605359145,9.6,0.5984492335566309,-0.51,-0.51,0.25222222222222224,0.12255503475105539,0.21537223374891917,-0.5314343093013819
1592295284.6581924,1.9488832068292095,9.654875274315971,0.4705782278684894,-0.51,-0.51,0.25222222222222224,0.0805810967744207,0.2206044440823934,-0.612897865603069
1592295284.6681924,1.9990250438666455,9.703572818631361,0.5218794066039241,-0.5004304780135056,-0.51,0.24991233760479256,0.13874542774616838,0.22433891193762348,-0.6837409822561594
1592295284.6781924,1.76,9.57,0.55,-0.4777777777777778,-0.51,0.24444444444444444,0.0643590161672909,0.13308135546456762,-0.7581273938350369
1592295284.6881924,1.6774309051679852,9.84657454022398,0.51,-0.4777777777777778,-0.51,0.24444444444444444,0.03456307365096728,0.12390122373725022,-0.8308640251553037
1592295284.6981924,1.56,9.69,0.51,-0.4777777777777778,-0.51,0.24444444444444444,0.06872233929727672,0.20289452554434081,-0.8813912722571364
1592295284.7081923,1.7623758003974388,9.668509604769264,0.5195032015897549,-0.4777777777777778,-0.51,0.24444444444444444,-0.13809980328618304,0.052414069859688946,-0.9024513634010329
1592295284.7181923,1.7523767495765357,9.722550592850139,0.5610145315146653,-0.4763091735758224,-0.51,0.24933979178429566,-0.01658379817864876,0.04428138919995085,-1.0620706598597882
1592295284.7281923,1.6684163269045764,9.561221769206101,0.6251809519446607,-0.4711111111111111,-0.51,0.26666666666666666,-0.09611391528310124,0.08573870484178561,-0.9690204539568918
1592295284.7381923,1.6013834405327394,9.513179617718585,0.6445630582513239,-0.4711111111111111,-0.51,0.26666666666666666,-0.16807520895042768,0.14783661505794532,-1.04788595544073
1592295284.7481923,1.5243513152028534,9.56694605439144,0.5868702630405707,-0.4711111111111111,-0.51,0.26666666666666666,-0.07107032459281525,0.06395925562194445,-1.0169212826436256
1592295284.7581923,1.395924760520184,9.644913269472049,0.6521243502678589,-0.4711111111111111,-0.51,0.26666666666666666,-0.08648771982274338,0.09968335509456536,-0.9952696785148019
1592295284.7681923,1.1380423313852472,9.594723424419522,0.8501491075659454,-0.46481321188508046,-0.5141985994840205,0.269815616279682,-0.03642451285976296,0.16020363695742357,-1.155925415934761
1592295284.7781923,0.97,9.61,0.98,-0.4444444444444444,-0.5277777777777778,0.28,-0.07308566242726255,0.19853120241435498,-1.0701049976290233
1592295284.7881923,0.9035383177084686,9.660801672423197,0.8773116576206924,-0.4444444444444444,-0.5277777777777778,0.28,0.012462020031253886,0.27378342752051,-1.0574930085489591
1592295284.7981923,0.7418513964102442,9.699444273653842,0.8316671790384752,-0.4444444444444444,-0.5277777777777778,0.28,0.05769279079130539,0.18022922512736428,-1.09648555104217
1592295284.8081923,0.6186072144288577,9.682855711422846,0.9328356713426854,-0.4444444444444444,-0.5277777777777778,0.28,0.07307582527591738,0.18448921537754942,-0.9349993750209853
1592295284.8181922,0.44,9.70493476078956,1.0250652392104382,-0.43842905468198207,-0.5317188952083566,0.2775108732017397,0.1262458718392218,0.2849119352351759,-0.909489379853646
1592295284.8281922,0.44,9.77,0.96,-0.4122222222222222,-0.5488888888888889,0.26666666666666666,0.14398966328953217,0.3523383427463553,-0.8323038870447959
1592295284.8381922,0.3318444248567651,9.784692595857205,0.9571518289995593,-0.4122222222222222,-0.5488888888888889,0.26666666666666666,0.18653753238342588,0.27315251324487416,-0.9807431087096249
1592295284.8481922,0.21968332177282401,9.806772226075726,0.8229110956970987,-0.4122222222222222,-0.5488888888888889,0.26666666666666666,0.2659833365927564,0.2914590843415637,-0.8740039195877101
1592295284.8581922,0.18,9.82,0.77,-0.4122222222222222,-0.5488888888888889,0.26666666666666666,0.28907015736156083,0.3174317577064687,-0.8595746566072073
1592295284.8681922,0.2995177865612648,9.8459209486166,0.7504822134387352,-0.4075388669301713,-0.5505507246376812,0.26787527448397014,0.22704543283712994,0.3279520229605847,-0.828571779830057
1592295284.8781922,0.36,9.82,0.69,-0.37777777777777777,-0.5611111111111111,0.27555555555555555,0.11017390903214205,0.20071286397934787,-0.7494007475750653
1592295284.8881922,0.24209018428963536,9.857108090445694,0.5010450921448177,-0.37777777777777777,-0.5611111111111111,0.27555555555555555,0.21231299604806958,0.2912518189265538,-0.7360031328233941
1592295284.8981922,0.1049238626690627,9.889045682398564,0.45206090986474984,-0.37777777777777777,-0.5611111111111111,0.27555555555555555,0.2550251563436763,0.2807266895302463,-0.7405833105188582
1592295284.9081922,0.07,9.905092585265491,0.48245370736725485,-0.37777777777777777,-0.5611111111111111,0.27555555555555555,0.3042609924304293,0.2718693951458189,-0.6028809688817143
1592295284.9181921,0.06214895313468979,9.891121578123617,0.4922431562472315,-0.37628234027962343,-0.562108069443214,0.27368625868286267,0.31131449799539535,0.32059218082523333,-0.6011588639925325
1592295284.9281921,0.01906668501192442,9.9,0.4691428178315905,-0.36444444444444446,-0.57,0.2588888888888889,0.25665066050229457,0.2745610173236912,-0.465121910836806
1592295284.9381921,0.08776262174517989,9.907612552176506,0.3016370999801232,-0.36444444444444446,-0.57,0.2588888888888889,0.2015075432025038,0.1715893245122893,-0.4092088738906942
1592295284.9481921,0.14,9.93,0.13,-0.36444444444444446,-0.57,0.2588888888888889,0.08835729338221293,0.2912518189265538,-0.4385139745635753
1592295284.958192,0.12039253287413901,9.892744990607389,0.129607467125861,-0.36444444444444446,-0.57,0.2588888888888889,0.2582496198594436,0.23557692915936573,-0.6220094970927535
1592295284.968192,0.06294086568566061,9.90915975266124,0.1870591343143394,-0.36444444444444446,-0.57,0.2588888888888889,0.1391765304170693,0.19618432814083586,-0.5190515626125052
1592295284.978192,0.03,9.93,0.19,-0.35,-0.5822222222222222,0.29444444444444445,0.1287180323345818,0.11671889372712078,-0.5028729907308661
1592295284.988192,-0.002981375713930966,9.935093121430345,0.21956518500124161,-0.35,-0.5822222222222222,0.29444444444444445,0.10692173262919881,0.18689111426683908,-0.4924729065746674
1592295284.998192,-0.02,9.844568355505237,0.16543164449476366,-0.35,-0.5822222222222222,0.29444444444444445,0.06268227165286197,0.10838724780144686,-0.5846618340517065
1592295285.008192,-0.017166673204409053,9.82283332679559,0.19708331698897735,-0.35,-0.5822222222222222,0.29444444444444445,-0.02934340367540568,0.11017390903214205,-0.4301326817435883
1592295285.018192,-0.0007139214686384503,9.839286078531362,0.23821519632840388,-0.35,-0.5822222222222222,0.29444444444444445,0.11064450711576877,0.11017390903214205,-0.6221673798801994
1592295285.028192,0.02,9.77,0.32,-0.33,-0.5844444444444444,0.28,0.12217304763960307,0.07308566242726255,-0.5530512067257032
1592295285.038192,-0.026450113558337297,9.790806264194792,0.3083874716104157,-0.33,-0.5844444444444444,0.28,0.07319069514878006,0.08413570393019369,-0.6140706663173937
1592295285.048192,-0.11977945766003191,9.801648288138336,0.3031863051066879,-0.33,-0.5844444444444444,0.28,0.0942311915759596,0.02305179105639417,-0.4654485704393819
1592295285.058192,-0.24137819196090726,9.813772622110749,0.3762877035179139,-0.33,-0.5844444444444444,0.28,0.06680186954368224,-0.01332382498053138,-0.5405362650007172
1592295285.068192,-0.3952229419533363,9.839050374190302,0.421899251619395,-0.3296834580634342,-0.5851302853070037,0.2805275698942764,0.05624758721801846,0.18364106381720993,-0.5787523763696492
1592295285.078192,-0.5,9.82,0.46,-0.3233333333333333,-0.5988888888888889,0.2911111111111111,0.11235557059713495,0.05999569303730508,-0.6566801310628665
1592295285.088192,-0.6971783182692561,10.006602545521622,0.4219001818229729,-0.3233333333333333,-0.5988888888888889,0.2911111111111111,0.03880821157632691,0.135064104040684,-0.5710645887815221
1592295285.098192,-2.652555966245903,10.827796220099032,0.36451844619569007,-0.3233333333333333,-0.5988888888888889,0.2911111111111111,0.18521293375818149,0.1276655430483109,-0.3352748554380384
1592295285.108192,-4.654240864269141,10.324976616879349,-0.07,-0.3233333333333333,-0.5988888888888889,0.2911111111111111,-0.01741849223395878,-0.12863358232240008,0.06575375626545896
1592295285.118192,-2.37340777262181,10.104496084686774,-0.07,-0.3233333333333333,-0.5988888888888889,0.2911111111111111,-0.04395719032575046,-0.21903102269756547,0.0939511229879876
1592295285.128192,0.04,9.94,-0.15,-0.3111111111111111,-0.5988888888888889,0.2966666666666667,0.0032724923474893677,0.009817477042468103,-0.1461713248545251
1592295285.138192,-0.7243488667166503,9.687116327354518,0.4305115635273084,-0.3111111111111111,-0.5988888888888889,0.2966666666666667,0.015180282763233164,-0.050226438025795135,0.030857821798734166
1592295285.148192,-0.7608908607338715,9.868130486972486,0.1756085390825429,-0.3111111111111111,-0.5988888888888889,0.2966666666666667,-0.048802706799736174,-0.12956934607963363,0.012886037154088396
1592295285.158192,-0.4670244179443498,9.9,0.0728201306076093,-0.3111111111111111,-0.5988888888888889,0.2966666666666667,0.018532818554125977,-0.10132856291487574,0.0006984166423990648
1592295285.168192,-0.34793583191368543,9.9,0.035604947473026685,-0.3111111111111111,-0.5988888888888889,0.2966666666666667,0.007166087699081189,0.018022111063094523,-0.08049251803649228
1592295285.178192,-0.39,9.91,0.09,-0.3088888888888889,-0.6055555555555555,0.2611111111111111,0.0839939702522271,0.11017390903214205,-0.19853120241435498
1592295285.188192,-0.40917715942358523,9.879725719807862,0.05780575846289401,-0.3088888888888889,-0.6055555555555555,0.2611111111111111,0.022608253155812132,-0.0013625540857337846,0.003599155597478927
1592295285.198192,-0.3854426961014561,9.86818576796618,0.0035850164396430267,-0.3088888888888889,-0.6055555555555555,0.2611111111111111,0.006062078160219266,-0.07846219263681002,-0.06573959087064303
1592295285.2081919,-0.41240434192673,9.86,0.11961736770691994,-0.3088888888888889,-0.6055555555555555,0.2611111111111111,-0.039478305692498605,-0.031979843127663395,-0.09295891197486081
1592295285.2181919,-0.42663195386702846,9.86,0.17652781546811397,-0.3088888888888889,-0.6055555555555555,0.2611111111111111,-0.15044571271362456,-0.02111590118153918,-0.1589185595049007
1592295285.2281919,-0.3945596690000241,9.86,0.26408024824998194,-0.28888888888888886,-0.6055555555555555,0.32666666666666666,-0.03261180203198054,-0.038249558527636854,-0.0759824215478734
1592295285.2381918,-0.36542369830340665,9.854576301696593,0.2872881508482966,-0.28888888888888886,-0.6055555555555555,0.32666666666666666,-0.08088779511328362,-0.08728506774199479,-0.02982217764888234
1592295285.2481918,-0.4048984977199602,9.81836716742668,0.27734774657994027,-0.28888888888888886,-0.6055555555555555,0.32666666666666666,-0.16567197350828844,0.04062743080498172,-0.043341996322767105
1592295285.2581918,-0.4586718048780488,9.8,0.3608854634146341,-0.28888888888888886,-0.6055555555555555,0.32666666666666666,-0.08947647512280277,-0.001397412764761412,0.13660059905618344
1592295285.2681918,-0.4341198048780488,9.8,0.37725346341463417,-0.28888888888888886,-0.6055555555555555,0.32666666666666666,-0.06983628505011057,0.07359240387642695,1.2004459733233608e-05
1592295285.2781918,-1.52,9.72,0.53,-0.29444444444444445,-0.6077777777777778,0.31222222222222223,-0.031634092692397225,-0.053450708342326333,-0.042542400517361786
1592295285.2881918,0.27630107526881725,9.819778064516129,0.6692232258064517,-0.29444444444444445,-0.6077777777777778,0.31222222222222223,-0.10072098059956631,-0.02719814134515099,-0.03174706991924675
1592295285.2981918,-0.653410737255433,9.753503486561506,0.4746171552366123,-0.29444444444444445,-0.6077777777777778,0.31222222222222223,0.077894445666924,-0.006218496109952886,-0.051193129504000116
1592295285.3081918,-0.3247051233804634,9.717404978226977,0.5655701306381378,-0.29444444444444445,-0.6077777777777778,0.31222222222222223,-0.00434473308869496,-0.009949014779425232,0.003567000824974299
1592295285.3181918,-0.45248158701145097,9.694856190527391,0.700862856835654,-0.29444444444444445,-0.6077777777777778,0.31222222222222223,0.04320929625729778,-0.10587697052910026,-0.012830940328816303
1592295285.3281918,-0.36,9.8,0.65,-0.28888888888888886,-0.6,0.2911111111111111,-0.04690572364734761,0.09926560120717749,-0.011999138607461015
1592295285.3381917,-0.4233895225598062,9.776228929040073,0.6975421419198546,-0.28888888888888886,-0.6,0.2911111111111111,0.18992358190141867,0.05604857464718365,-0.005084414357862001
1592295285.3481917,-0.41140208363689346,9.739688425858468,0.5703115741415319,-0.28888888888888886,-0.6,0.2911111111111111,0.19454174141544334,0.02457929600049915,0.09147361027489129
1592295285.3581917,-0.45723808829957746,9.729502647044539,0.5804973529554616,-0.28888888888888886,-0.6,0.2911111111111111,0.20676379859677166,0.007912854389596904,0.12202875322821208
1592295285.3681917,-0.4965969029760465,9.722041858214373,0.5865969029760464,-0.28926701078043926,-0.6,0.2911111111111111,0.21356302479224845,0.00862363361675646,0.13397822265111523
1592295285.3781917,-0.4531762808032486,9.752541024642598,0.526659620626356,-0.29444444444444445,-0.6,0.2911111111111111,0.16577970143026993,0.2243265561411764,-0.09341357348700598
1592295285.3881917,-0.49206207932358015,9.783649663458863,0.3633392668409635,-0.29444444444444445,-0.6,0.2911111111111111,0.35241813595317417,0.13949090408531084,-0.10189713869259254
1592295285.3981917,-0.4623191432320695,9.822970749671939,0.2263776438881912,-0.29444444444444445,-0.6,0.2911111111111111,0.2543622801909301,0.07644547233805853,0.02430552791097816
1592295285.4081917,-0.4442990314219453,9.857975080714837,0.10190032285935155,-0.29444444444444445,-0.6,0.2911111111111111,0.10144726277217041,0.029065027716404478,0.1350761606084035
1592295285.4181917,-0.5603420204489886,9.890684040897977,0.0360966325850189,-0.29444444444444445,-0.6,0.2911111111111111,0.13473181589806424,-0.030720925003004627,-0.02561142900501862
1592295285.4281917,-0.5910903195924039,9.91,0.027030106530801297,-0.30928578045391386,-0.6,0.2950167258504452,0.1842767370598316,0.03315185817207271,-0.07256909670608405
1592295285.4381917,-0.5498449005169983,9.909534701550996,0.008759204135986213,-0.31555555555555553,-0.6,0.2966666666666667,0.08734302412103222,0.0014292053633115872,-0.021740908609878058
1592295285.4481916,-0.5438712204292653,9.891613661287796,-0.03903023656587811,-0.31555555555555553,-0.6,0.2966666666666667,0.13230531557998101,0.014461753612282247,-0.06083855335679004
1592295285.4581916,-0.48142760782446536,9.86242828234734,-0.011427607824465343,-0.31555555555555553,-0.6,0.2966666666666667,0.11607923225291077,-0.04098512195710219,-0.010782401117577264
1592295285.4681916,-0.474117443195356,9.90458790911257,-0.017764420473498396,-0.31555555555555553,-0.6,0.2966666666666667,0.10334647602616276,0.05747950719699463,0.03509912906584807
1592295285.4781916,-0.47582666528109735,9.934724444906301,-0.06834666943780526,-0.3055817274200315,-0.6094488898126017,0.2966666666666667,0.035052021587111265,0.020767953531164215,-0.036393030436423626
1592295285.4881916,-0.4784051931399263,9.953803894854945,-0.11840519313992628,-0.29444444444444445,-0.62,0.2966666666666667,-0.030188247980768045,-0.04872529023709606,-0.060155497386592094
1592295285.4981916,-0.5,9.923234337527514,-0.20547192746148035,-0.29444444444444445,-0.62,0.2966666666666667,-0.06667026293907467,-0.0169917527306016,0.05414479193887653
1592295285.5081916,-0.518837001083832,9.910581499458084,-0.11581499458083973,-0.29444444444444445,-0.62,0.2966666666666667,-0.12124655341106924,-0.039092103934602856,-0.11992600099589869
1592295285.5181916,-0.5340733346405462,9.888889998039181,-0.032596659476996026,-0.29444444444444445,-0.62,0.2966666666666667,-0.13817117317904928,-0.08488045620338514,0.02184899115132588
1592295285.5281916,-0.54,9.83,0.21,-0.28888888888888886,-0.6133333333333333,0.2966666666666667,-0.05999569303730508,0.01854412330243975,-0.13526301702956053
1592295285.5381916,-0.5330664328155201,9.83,0.18226573126208032,-0.28888888888888886,-0.6133333333333333,0.2966666666666667,-0.09932510532746258,-0.10322578782670173,-0.05433518789404415
1592295285.5481915,-0.4902678434550273,9.821071373820109,0.09053568691005454,-0.28888888888888886,-0.6133333333333333,0.2966666666666667,-0.08051679035640481,-0.14672678589400792,0.07209227801610714
1592295285.5581915,-0.49945358183132216,9.857814327325288,0.10890716366264427,-0.28888888888888886,-0.6133333333333333,0.2966666666666667,-0.1857276952550301,0.05868498081283194,0.038023985001314174
1592295285.5681915,-0.597856370820561,9.83204103690841,0.30571274164112194,-0.28888888888888886,-0.6133333333333333,0.2966666666666667,-0.1797868186845813,-0.08082602463299268,0.054296514374575486
1592295285.5781915,-0.55,9.78,0.47,-0.28888888888888886,-0.6133333333333333,0.32666666666666666,-0.11235557059713495,0.016362461737446838,-0.03599741582238304
1592295285.5881915,-0.5150571918217688,9.842897054720815,0.47698856163564624,-0.28888888888888886,-0.6133333333333333,0.32666666666666666,-0.07881288270397344,-0.09874994444135746,-0.03294808055936836
1592295285.5981915,-0.6252573622124464,9.725472274370254,0.5474462719605481,-0.28888888888888886,-0.6133333333333333,0.32666666666666666,-0.09168593345441989,-0.031688070309082716,0.08187771757721549
1592295285.6081915,-0.5702074444607915,9.64027659261439,0.7792047962336326,-0.28888888888888886,-0.6133333333333333,0.32666666666666666,-0.0035817509789253937,-0.118583753767228,-0.0094855897306831
1592295285.6181915,-0.5248045769889179,9.670130282007388,0.7272720064870709,-0.28888888888888886,-0.6133333333333333,0.32666666666666666,0.06081823389547874,-0.0285161977699792,0.03126632183122939
1592295285.6281915,-0.49,9.68,0.67,-0.28888888888888886,-0.6133333333333333,0.32666666666666666,0.10799224746714915,0.10362892433716332,0.1308996938995747
1592295285.6381915,-0.47344921558518077,9.754478529866686,0.33070891949620684,-0.28888888888888886,-0.6133333333333333,0.32666666666666666,0.10438142644431968,-0.013722758904794477,0.13270510441098946
1592295285.6481915,-0.4,9.88,0.08,-0.28888888888888886,-0.6133333333333333,0.32666666666666666,0.022907446432425576,0.01854412330243975,0.038179077387375956
1592295285.6581914,-0.4344957125357289,9.914495712535729,0.011008574928542264,-0.28888888888888886,-0.6133333333333333,0.32666666666666666,0.0022115046284585174,0.005373978518097075,-0.023908748024525216
1592295285.6681914,-0.491038882483035,9.912708731073852,0.014582537852295711,-0.28888888888888886,-0.6133333333333333,0.32666666666666666,0.005272001687985113,0.0016817842298689763,0.026631154212184767
1592295285.6781914,-0.5496881063600432,9.870311893639956,0.13906431908012937,-0.29440112588333933,-0.6265627021200144,0.30572016608775504,-0.0984320544080194,-0.007567770840809226,0.04908738521234052
1592295285.6881914,-0.5891203703703703,9.877824074074075,0.14782407407407408,-0.29444444444444445,-0.6266666666666667,0.3055555555555556,-0.07195443050467362,0.014554510718309197,0.04908738521234052
1592295285.6981914,-0.6,9.85404521484144,0.12404521484144063,-0.29444444444444445,-0.6266666666666667,0.3055555555555556,-0.019059370400828952,-0.007586493736606057,-0.02074956867762165
1592295285.7081914,-0.5219933991820725,9.85,0.13733480018176167,-0.29444444444444445,-0.6266666666666667,0.3055555555555556,-0.004435405148784707,0.13454819715439248,-0.05054342633908798
1592295285.7181914,-0.47760802963912935,9.869435182216522,0.1594351822165224,-0.29444444444444445,-0.6266666666666667,0.3055555555555556,-0.02729972004272774,0.05602393972598711,0.022871073748430823
1592295285.7281914,-0.4950836662842676,9.871229083428933,0.20508366628426755,-0.30126626844416315,-0.6208193889526221,0.2850900835563995,-0.1331663210807208,-0.03143896089135885,-0.03131684169698941
1592295285.7381914,-0.49050325231085246,9.87,0.2764772338240329,-0.3022222222222222,-0.62,0.2822222222222222,-0.08297932210568727,0.05930855553651991,-0.06544275150820315
1592295285.7481914,-0.5339117031817682,9.79974127490917,0.28,-0.3022222222222222,-0.62,0.2822222222222222,0.03916194198320895,0.008794740617967409,0.02542777834935507
1592295285.7581913,-0.5742042599159288,9.807102129957965,0.3227553248949111,-0.3022222222222222,-0.62,0.2822222222222222,-0.12252793972472402,-0.030623569884987684,0.0531035012308979
1592295285.7681913,-0.5480072619303141,9.797202904772126,0.38758692852543464,-0.3022222222222222,-0.62,0.2822222222222222,-0.05430207847172165,-0.008078485020175333,-0.0762845781331122
1592295285.7781913,-0.5050385349103396,9.83992293017932,0.3950385349103396,-0.3022222222222222,-0.6255469922421468,0.2775997286870999,-0.06607338097433378,0.0003748196118719231,-0.02437484481965413
1592295285.7881913,-0.4734172823187858,9.867721811787476,0.3456954705313098,-0.3022222222222222,-0.6266666666666667,0.27666666666666667,-0.13859171547137308,-0.006890280128312698,0.08614942118780133
1592295285.7981913,-0.5035642266130126,9.836435773386988,0.2812626034272279,-0.3022222222222222,-0.6266666666666667,0.27666666666666667,-0.08850602061577165,-0.024111616688547607,-0.04204504836242694
1592295285.8081913,-0.5017764291954946,9.81355285839099,0.32756499563153796,-0.3022222222222222,-0.6266666666666667,0.27666666666666667,-0.06668435654653598,-0.01650614055169901,-0.06513412962703925
1592295285.8181913,-0.5249298350444529,9.81,0.40232458761113227,-0.3022222222222222,-0.6266666666666667,0.27666666666666667,-0.03308564997788556,0.038847951192189915,-0.030366226830980746
1592295285.8281913,-0.5320451637184795,9.81,0.45590967256304105,-0.2863125496591812,-0.6213634424789863,0.3049505290009618,-0.008974372001092596,-0.03148908650783652,0.004066331414495446
1592295285.8381913,-0.53,9.81,0.4776572437308055,-0.2822222222222222,-0.62,0.31222222222222223,-0.1126086197035236,0.09242227549340847,-0.034738527512856276
1592295285.8481913,-0.5381090710382515,9.785672786885245,0.4151274316939891,-0.2822222222222222,-0.62,0.31222222222222223,-0.024811691250875387,0.052205325316504375,-0.04212986381356389
