time,acc_x,acc_y,acc_z,mag_x,mag_y,mag_z,gyr_x,gyr_y,gyr_z
1592295294.9581826,-0.5257553931054254,9.802877696552713,0.5527338206837239,-0.30333333333333334,-0.6044444444444445,0.2788888888888889,0.03993696999540463,0.08165536446048285,-0.01865400380590128
1592295294.9681826,-0.48263606178720947,9.818681969106395,0.5980229536595929,-0.30333333333333334,-0.6106717674799096,0.30483606820332676,0.08212489697989414,0.07713639726458843,-0.06524670392836099
1592295294.9781826,-0.48,9.82943529799144,0.590564702008561,-0.30333333333333334,-0.6111111111111112,0.30666666666666664,0.0654678059682677,0.11643657795660968,0.15062713692968474
1592295294.9881825,-0.5550162441604023,9.82062296947995,0.5056067253195475,-0.30333333333333334,-0.6111111111111112,0.30666666666666664,0.07867927112284233,0.00843001706357413,-0.09516284717942516
1592295294.9981825,-0.541413511085898,9.82,0.5464662222852551,-0.30333333333333334,-0.6111111111111112,0.30666666666666664,-0.11804781677656688,-0.09622779759845528,-0.002872113668564283
1592295295.0081825,-0.5469334828500739,9.833866965700148,0.5569334828500739,-0.30333333333333334,-0.6111111111111112,0.30666666666666664,-0.07181897763011574,-0.04614817476409737,0.05990960087643949
1592295295.0181825,-0.5402861297802932,9.820572259560587,0.6474248319773612,-0.31088856572643864,-0.6111111111111112,0.2796836938341478,0.012495356642936939,0.0640437243552216,0.04372845337146633
1592295295.0281825,-0.5807896625987078,9.813201722900216,0.6160086145010768,-0.3111111111111111,-0.6111111111111112,0.2788888888888889,0.0037987222727137882,0.011663980262228792,0.13375637063650728
1592295295.0381825,-0.6090478930352348,9.81,0.5457126417885911,-0.3111111111111111,-0.6111111111111112,0.2788888888888889,-0.020830271261635294,-0.057607569226559366,0.01978603495527209
1592295295.0481825,-0.5921357419834211,9.80106787099171,0.6203891610746047,-0.3111111111111111,-0.6111111111111112,0.2788888888888889,0.14175671112304497,0.043051811172795613,0.06757920476560213
1592295295.0581825,-0.5495880602398774,9.8,0.63,-0.3111111111111111,-0.6111111111111112,0.2788888888888889,0.05197119593048549,-0.00020557472894409262,0.13037055883067325
1592295295.0681825,-0.4835840828563641,9.809283183428727,0.63,-0.29254474425365673,-0.6049223221586263,0.32530480603252476,0.07384439782026636,0.04766445904035141,0.11961201837810825
1592295295.0781825,-0.4742427188095861,9.821514562380829,0.6242427188095862,-0.2911111111111111,-0.6044444444444445,0.3288888888888889,0.12296416198958124,0.029585874067559408,0.002418897990079147
1592295295.0881824,-0.5418213562604537,9.812044660934887,0.4853349570116494,-0.2911111111111111,-0.6044444444444445,0.3288888888888889,0.1862359496143157,0.08055096657581498,0.031787863374609523
1592295295.0981824,-0.6995979773018488,9.818799881017757,0.557998810177558,-0.2911111111111111,-0.6044444444444445,0.3288888888888889,0.07173462866774967,0.05763991387349522,0.05816291561741869
1592295295.1081824,-0.7527766067664606,9.806889357293416,0.6158872494730449,-0.2911111111111111,-0.6044444444444445,0.3288888888888889,0.08137505666409782,0.08920443994896325,-0.008651471647437778
1592295295.1181824,-0.77,9.784368252216204,0.6790793694594874,-0.2911111111111111,-0.6192077617958063,0.29415167159156674,0.1136590289106544,-0.04206175920055276,0.047354532918280574
1592295295.1281824,-0.6931564687829673,9.814152680540904,0.6729236597295483,-0.2911111111111111,-0.6233333333333333,0.28444444444444444,0.13287110350665812,-0.08585671001416637,0.05073278528399145
1592295295.1381824,-0.18341611082606468,9.829195997947666,0.5412560287326834,-0.2911111111111111,-0.6233333333333333,0.28444444444444444,0.1733818720504939,-0.04003175468661647,0.03888070153767742
1592295295.1481824,-0.14,9.774893148739794,0.6402137025204118,-0.2911111111111111,-0.6233333333333333,0.28444444444444444,0.10157427466306809,0.042148508763029016,0.14137177267324064
1592295295.1581824,-0.16747185699248926,9.749396107255633,0.6774718569924892,-0.2911111111111111,-0.6233333333333333,0.28444444444444444,0.13460874819635749,0.0940381061019622,0.08685446005754688
1592295295.1681824,-0.41606180193596426,9.74907930007446,0.7717137006701416,-0.29615516670803343,-0.6061835443037975,0.29655017787705795,0.0784364595139275,-0.018176099901435178,0.06771801147705568
1592295295.1781824,-0.5300514078747517,9.75600342719165,0.8220239903415508,-0.2966666666666667,-0.6044444444444445,0.29777777777777775,0.12394865862940802,-0.08271413350519716,0.06217361611614853
1592295295.1881824,-0.5200794526594571,9.742519863164864,0.7888195210770249,-0.2966666666666667,-0.6044444444444445,0.29777777777777775,0.32801195562132623,-0.019472749882837995,0.004423991714666717
1592295295.1981823,-0.6537296608743721,9.766949311413944,0.8249155190232412,-0.2966666666666667,-0.6044444444444445,0.29777777777777775,0.2621871181436189,0.027862603005920306,0.1005973968687069
1592295295.2081823,-0.8271309771309772,9.814894564894564,0.847957825957826,-0.2966666666666667,-0.6044444444444445,0.29777777777777775,0.21133484087304716,0.03946967242900141,0.1828757882265726
1592295295.2181823,-1.1658792343975364,10.024996686547382,0.8152952871009239,-0.30274496809989737,-0.615587997072034,0.29372557682229067,0.39019169745825766,0.0431200267345462,0.17097378839301836
1592295295.2281823,-1.2992293073470542,10.050839027940642,0.7829024301483968,-0.30333333333333334,-0.6166666666666667,0.29333333333333333,0.34316629560321477,-0.0059341353356000895,0.26608133197989314
1592295295.2381823,-1.340840579710145,10.119159420289856,0.5149109730848861,-0.30333333333333334,-0.6166666666666667,0.29333333333333333,0.2699564532654449,-0.059812306992711464,0.540743564008741
1592295295.2481823,-1.3124880106036871,10.112488010603688,0.30363610073502834,-0.30333333333333334,-0.6166666666666667,0.29333333333333333,0.3341127015485051,-0.13954295384210866,0.5252010179253834
1592295295.2581823,-1.273771454795778,10.13415236346948,0.23974606088419764,-0.30333333333333334,-0.6166666666666667,0.29333333333333333,0.2878456968879793,-0.1281404276733407,0.47642989757677395
1592295295.2681823,-1.2038100397255327,10.202379920548935,0.16381003972553268,-0.30333333333333334,-0.6004767063921994,0.29333333333333333,0.2377481251236836,-0.16819338227154407,0.6158454775451877
1592295295.2781823,-1.1747291751395719,10.21,0.15494583502791437,-0.30333333333333334,-0.5966666666666667,0.29333333333333333,0.1974717490988154,-0.25325406942020356,0.7056770539893661
1592295295.2881823,-1.1666716274183664,10.143313490326536,0.16667162741836647,-0.30333333333333334,-0.5966666666666667,0.29333333333333333,0.3096614863293389,-0.09228936449313602,0.785409527212831
1592295295.2981822,-1.2042557364652504,10.121436065883687,0.20425573646525036,-0.30333333333333334,-0.5966666666666667,0.29333333333333333,0.1340420093571237,-0.035695560103333177,1.0284474132992265
1592295295.3081822,-1.234026796181544,10.08996650477307,0.2700669904538603,-0.30333333333333334,-0.5966666666666667,0.29333333333333333,0.17068558640407833,-0.004985668489833825,1.0987191094975566
1592295295.3181822,-1.1571574087644731,10.05673677268064,0.33652645463872194,-0.31291233084176073,-0.6062456641750941,0.30217548487957396,0.24782542660146534,0.05179743542399191,1.2942544161273675
1592295295.3281822,-0.9886459160446773,9.963318511460484,0.2893229580223387,-0.31777777777777777,-0.6111111111111112,0.30666666666666664,0.2089939620778806,-0.05769057605899483,1.445579623946708
1592295295.3381822,-0.765206651211128,9.893112958669757,0.17191462147253977,-0.31777777777777777,-0.6111111111111112,0.30666666666666664,0.21312369114098315,-0.04021650407234256,1.526530520029675
1592295295.3481822,-0.2452303769805136,9.793258058641413,-0.015377891094518314,-0.31777777777777777,-0.6111111111111112,0.30666666666666664,0.2853095624402973,-0.08804261919545744,1.5328655718402506
1592295295.3581822,-0.06815112504692297,9.787654072912757,-0.05913518228189105,-0.31777777777777777,-0.6111111111111112,0.30666666666666664,0.3125024127035859,-0.07909283119909377,1.4636813180868422
1592295295.3681822,0.04298805396692204,9.79691567116391,-0.08228917790977543,-0.31777777777777777,-0.6111111111111112,0.30666666666666664,0.3276566674047967,-0.046763754503177435,1.393466604637899
1592295295.3781822,0.34937891189215214,9.725172524474402,-0.060069009789760874,-0.33274327288289735,-0.6003026979796359,0.2991839191141069,0.2804639559063328,-0.07680947266229418,1.44762637081138
1592295295.3881822,0.5534546976354886,9.622850805607866,-0.08630550324335635,-0.3377777777777778,-0.5966666666666667,0.2966666666666667,0.19061445064746846,-0.12568675990149758,1.4776727032038999
1592295295.3981822,0.6976834489147034,9.530698495355882,-0.12720601857647149,-0.3377777777777778,-0.5966666666666667,0.2966666666666667,0.10507661078485471,-0.16212100069012594,1.4735243326558471
1592295295.4081821,0.8595935858446226,9.549932264307436,-0.08172311307713574,-0.3377777777777778,-0.5966666666666667,0.2966666666666667,0.1227295462576295,-0.09031404837931899,1.3707023140087151
1592295295.4181821,1.216313992605669,9.614819471738334,-0.08445841521500183,-0.3529265711102969,-0.5851404108701848,0.2966666666666667,0.10742439634302307,-0.12346629051580395,1.4013384007056031
1592295295.4281821,1.3490317423308797,9.649745195350231,-0.1892355860506945,-0.38862842191356994,-0.5579759591720422,0.2966666666666667,0.09066125239962176,-0.12651413486914964,1.2847583541901304
1592295295.438182,1.5155840595469652,9.552849003721686,-0.2269231004855038,-0.3888888888888889,-0.5577777777777778,0.2966666666666667,-0.028401980446929417,-0.09247820224644249,1.0445807802492921
1592295295.448182,1.6183650621046666,9.559272816381542,-0.400366042301625,-0.3888888888888889,-0.5577777777777778,0.2966666666666667,0.12645918580006482,-0.03782132004162099,0.8960261773336236
1592295295.458182,1.6525310198728942,9.502725713709271,-0.37,-0.3888888888888889,-0.5577777777777778,0.2966666666666667,0.08528364409171652,-0.10351690317943292,0.8964930007881813
1592295295.468182,1.763733404142326,9.646971398224718,-0.3595429026629239,-0.3926327879354964,-0.5560994782051607,0.29769946640366185,0.04213514930116687,0.005408471597639852,0.880458384767895
1592295295.478182,1.6342785245197322,9.67711409807893,-0.3028859019210704,-0.4211111111111111,-0.5433333333333333,0.3055555555555556,0.003206612675852684,-0.018511183466621405,0.8554071648182147
1592295295.488182,1.7232056384502945,9.680262095315282,-0.2835282284324935,-0.4211111111111111,-0.5433333333333333,0.3055555555555556,-0.03688151651389449,-0.012170679590175267,0.8827460134581893
1592295295.498182,1.8632476993865033,9.707618353783232,-0.2276183537832311,-0.4211111111111111,-0.5433333333333333,0.3055555555555556,-0.038793143734311974,-0.030642139362731354,0.8854563736279504
1592295295.508182,1.9911739703942546,9.591931701597538,-0.0729349259856368,-0.4211111111111111,-0.5433333333333333,0.3055555555555556,-0.06800753577557928,-0.013542816845830433,0.7822001730497602
1592295295.518182,1.9484594720859612,9.575663396402708,0.11587713151132914,-0.44013158919255624,-0.534615614212671,0.28891263723429106,-0.03076570883190951,-0.001362837757575841,0.9018712953189821
1592295295.528182,2.0164824318989343,9.560814054480852,0.12837189103829452,-0.4477777777777778,-0.5311111111111111,0.2822222222222222,0.04729713939871398,0.024328239530574933,0.9761554415968838
1592295295.538182,1.9736982621566799,9.474566087385561,0.237086782522888,-0.4477777777777778,-0.5311111111111111,0.2822222222222222,0.20928629997317427,0.05623648001996544,0.9461941915491722
1592295295.548182,2.1502025174038395,9.423299580432694,0.1886194126057708,-0.4477777777777778,-0.5311111111111111,0.2822222222222222,0.17098482951873847,0.08339157536120641,0.914858143734901
1592295295.558182,2.218710332103321,9.426934501845018,0.22080350553505534,-0.4477777777777778,-0.5311111111111111,0.2822222222222222,0.2548787507692021,0.16332041244315043,0.897262457621876
1592295295.568182,2.129911405041178,9.434279386074369,0.219955702520589,-0.4649396195546682,-0.5190342594903363,0.2739591132185342,0.26405611714259836,0.2443605915954447,0.8448883909854397
1592295295.578182,2.1424494796285063,9.515622112288234,-0.033934755215382445,-0.4777777777777778,-0.51,0.2677777777777778,0.26907132998508154,0.20746395444848714,0.7480868073556765
1592295295.588182,2.3212123562104177,9.63766679591573,-0.19236370686312523,-0.4777777777777778,-0.51,0.2677777777777778,0.16596472221636055,-0.017761042995842635,0.7443400089676725
1592295295.598182,2.524463083284111,9.568875841701121,-0.3689093916125221,-0.4777777777777778,-0.51,0.2677777777777778,0.1598131141590492,-0.02895826480906795,0.6738195375083851
1592295295.608182,2.645893487836819,9.53,-0.43599031707607444,-0.4777777777777778,-0.51,0.2677777777777778,0.1684411727078249,-0.12589829601527333,0.7270094317597159
1592295295.618182,2.780865384615385,9.659807692307693,-0.5892788461538462,-0.490758547008547,-0.500625,0.2677777777777778,0.08143995779513204,-0.11952463636479196,0.7616516163631023
1592295295.628182,2.679982253141194,9.52283263529022,-0.6057066799176546,-0.49777777777777776,-0.4955555555555556,0.2677777777777778,-0.007017830323443573,-0.04129223374138787,0.5397806066404023
1592295295.638182,2.77485743908761,9.390727178472122,-0.6644676940477874,-0.49777777777777776,-0.4955555555555556,0.2677777777777778,-0.0097324478651153,-0.08012940956400483,0.5911058762477867
1592295295.648182,3.1833095711113706,9.376866191422227,-0.5558099801332242,-0.49777777777777776,-0.4955555555555556,0.2677777777777778,-0.00027655116273785346,0.00490864928650836,0.5618201757412887
1592295295.658182,3.362930268999739,9.511849046748498,-0.6103839122486289,-0.49777777777777776,-0.4955555555555556,0.2677777777777778,0.05737017815313498,0.06470657781645404,0.3961920762728137
1592295295.668182,3.233989291782886,9.390983937674328,-0.553989291782886,-0.5140011898019016,-0.4874438495434937,0.2758894837898397,0.016733241384012443,0.051366620368534906,0.4846000800448306
1592295295.678182,3.2605021122510562,9.317441963387648,-0.49576503721585197,-0.5222222222222223,-0.48333333333333334,0.28,0.004790658447997014,0.04551983531704493,0.520729348626245
1592295295.6881819,3.249960104514933,9.358812968842187,-0.6403017447250864,-0.5222222222222223,-0.48333333333333334,0.28,0.09351956202589247,0.08271217589246165,0.3357234388670428
1592295295.6981819,3.3604859446502506,9.351747657441708,-0.5665046851165831,-0.5222222222222223,-0.48333333333333334,0.28,-0.02121308125098413,0.003810372472709031,0.3827799617618138
1592295295.7081819,3.3849181610184407,9.337537203981462,-0.3326116119443847,-0.5222222222222223,-0.48333333333333334,0.28,-0.059860963052709826,-0.007567639886790198,0.33817296527479784
1592295295.7181818,3.3508634147800342,9.28,-0.1963549361485779,-0.5318158859280969,-0.4777791069773006,0.27394084397523705,-0.026281952353407374,0.04730072855551721,0.2348359638957953
1592295295.7281818,3.621071172174774,9.321071172174774,-0.16959227627181583,-0.5433333333333333,-0.4711111111111111,0.26666666666666666,-0.13296372558739086,-0.06149207145420012,0.2488036357281703
1592295295.7381818,3.592296792869658,9.491052284096392,-0.10717706508214621,-0.5433333333333333,-0.4711111111111111,0.26666666666666666,-0.14892727845409048,0.016168953602901742,0.12698042014045813
1592295295.7481818,3.56,9.281361245429887,-0.09344002830522467,-0.5433333333333333,-0.4711111111111111,0.26666666666666666,-0.20033722914991836,0.15947922882940402,-0.024861962009734118
1592295295.7581818,3.6249099428616622,9.221955752387355,-0.14409161905138496,-0.5433333333333333,-0.4711111111111111,0.26666666666666666,-0.206905273462633,0.20532433553028717,-0.05091198565641346
1592295295.7681818,3.6354611953612848,9.3,-0.13989384478144515,-0.5575610070373674,-0.4711111111111111,0.2425414808206958,-0.09279447383279775,0.20698713580751976,-0.006823676877054548
1592295295.7781818,3.715744124738064,9.3,-0.11218359207769091,-0.5688888888888889,-0.4711111111111111,0.22333333333333333,0.025037541719468974,0.31729070009486127,0.05034055882889635
1592295295.7881818,3.4994657124991315,9.339877255147178,-0.1313935014706223,-0.5688888888888889,-0.4711111111111111,0.22333333333333333,-0.018303114347507574,0.36691688348342677,0.036712560633307564
1592295295.7981818,3.2579473746312684,9.358973687315634,-0.09038159292035398,-0.5688888888888889,-0.4711111111111111,0.22333333333333333,0.0067459034975128895,0.271822134096122,0.035830914500821105
1592295295.8081818,3.3290216547321196,9.280760935208352,-0.054945647485117766,-0.5688888888888889,-0.4711111111111111,0.22333333333333333,0.03210840786311435,0.14742228406221503,0.157032107052265
1592295295.8181818,3.3461797821751804,9.30085565270747,-0.12814173953060287,-0.5644722946600536,-0.4830990097322357,0.2201786231698795,-0.07146402424973076,0.11711958453733186,0.0417551750994552
1592295295.8281817,3.365886926358598,9.35884015788844,-0.13089669470914236,-0.5611111111111111,-0.4922222222222222,0.21777777777777776,-0.09091107520457356,0.16711931196539997,-0.13530129026781249
1592295295.8381817,3.3267279917054466,9.14670170954597,-0.165791719914161,-0.5611111111111111,-0.4922222222222222,0.21777777777777776,-0.006998302963161081,0.25825203755189186,-0.02225470494931092
1592295295.8481817,3.329736381423128,9.0,-0.34590309957779836,-0.5611111111111111,-0.4922222222222222,0.21777777777777776,-0.07510410937718312,0.4166449010848514,-0.17247213006652384
1592295295.8581817,3.432037739616613,9.005197484025558,-0.18368051118210862,-0.5611111111111111,-0.4922222222222222,0.21777777777777776,-0.05199956360607476,0.38992604521869967,-0.3123066391334511
1592295295.8681817,3.2621477287350404,9.263264702097542,0.03331617552438554,-0.5655880124108151,-0.4928617795507514,0.21777777777777776,0.03242129884710577,0.17901991605807396,-0.17307095085897478
1592295295.8781817,3.2267919346951057,9.465767972012188,0.030068088628070574,-0.5688888888888889,-0.49333333333333335,0.21777777777777776,0.019847063489996743,0.18602971454460898,-0.19908997466599154
1592295295.8881817,3.138998653128885,9.38266576875259,-0.09842416079569001,-0.5688888888888889,-0.49333333333333335,0.21777777777777776,-0.11710603015951217,0.30872765814574155,-0.4731892157771284
1592295295.8981817,3.0254738535800483,9.307513274336282,-0.07646701528559935,-0.5688888888888889,-0.49333333333333335,0.21777777777777776,-0.14396732890223168,0.22608314831040424,-0.4611981210019492
1592295295.9081817,3.1829680549939345,9.450048524059845,0.04574201374848363,-0.5688888888888889,-0.49333333333333335,0.21777777777777776,-0.08438698692315488,0.016330702814543584,-0.3437074143512448
1592295295.9181817,3.3174891317848716,9.559469320581295,0.1638653583405788,-0.5802684276625402,-0.49617821802674617,0.20355335431071364,-0.21396095031417847,0.08771446061019027,-0.5026466206489068
1592295295.9281816,3.5428881737731297,9.653891794046661,0.3148592115848753,-0.5911111111111111,-0.4988888888888889,0.19,-0.20394520708444047,0.0783327076795122,-0.5723537777383381
1592295295.9381816,2.9502368539444785,9.220259083811893,0.03851218673088627,-0.5911111111111111,-0.4988888888888889,0.19,-0.21682180794793549,0.004401284399178473,-0.7771091542788916
1592295295.9481816,2.8909269312743797,9.360196244018177,-0.16073068725620301,-0.5911111111111111,-0.4988888888888889,0.19,-0.3141688282781326,0.1033684005901393,-0.8806251859264363
1592295295.9581816,2.5976044390726294,9.506850016481707,-0.031668168333150205,-0.5911111111111111,-0.4988888888888889,0.19,-0.22978102925808902,0.14261522369508725,-0.9395469479512294
1592295295.9681816,2.587007751445454,9.57,0.4270585805959718,-0.5754764879880835,-0.5061478210531517,0.1793907914522312,-0.38248384889917186,0.19867536201964076,-0.9668523783769075
1592295295.9781816,2.9568650713854816,9.57142368791474,0.7940518801528252,-0.56,-0.5133333333333333,0.1688888888888889,-0.510690209195899,0.2181571631226408,-0.9304510192875757
1592295295.9881816,2.5678745827240874,9.530708472425303,0.09256462603801696,-0.56,-0.5133333333333333,0.1688888888888889,-0.3741159259929159,0.07065244198813143,-0.8345435103745442
1592295295.9981816,2.855324840154218,9.229041404248186,0.3983280250963864,-0.56,-0.5133333333333333,0.1688888888888889,-0.26641353487543495,-0.0387960541409329,-0.788387179233248
1592295296.0081816,3.074902962815669,9.21645635315172,0.3631067806721018,-0.56,-0.5133333333333333,0.1688888888888889,-0.22979288560775274,-0.14492338754274603,-0.6733108647255056
1592295296.0181816,3.0421137779352283,9.330528444483807,0.42809258111179993,-0.56,-0.5245160189859508,0.15567298766306828,-0.35054041865971464,0.09790738436536926,-0.6296327897167029
1592295296.0281816,2.5691003526160294,9.029797484036976,0.6754498236919851,-0.56,-0.5377777777777778,0.14,-0.28322345822514766,0.23639377981914156,-0.6551068314286054
1592295296.0381815,2.4422766959278803,9.017075219459102,0.75,-0.56,-0.5377777777777778,0.14,-0.2770939127016207,0.22327068085921695,-0.9174897879582559
1592295296.0481815,2.256124599501602,9.205101459594161,0.959385546457814,-0.56,-0.5377777777777778,0.14,-0.23081187155846333,0.2708599238087795,-0.9233572294802519
1592295296.0581815,2.314928198816013,9.303982767715842,0.9725502608287908,-0.56,-0.5377777777777778,0.14,-0.13477856565865756,0.3371010460115679,-0.8476504522754092
1592295296.0681815,2.3286812422988215,9.596476256674354,1.0413187577011784,-0.5512893747432941,-0.5590704172941701,0.1308054511179215,-0.10542299994973908,0.43636987912770697,-0.9148130301951212
1592295296.0781815,1.99,9.89,1.38,-0.54,-0.5866666666666667,0.11888888888888889,-0.09926560120717749,0.46469391334349025,-0.8323038870447959
1592295296.0881815,1.536181926311914,9.506134632267566,0.75335476197219,-0.54,-0.5866666666666667,0.11888888888888889,0.022137182924431845,0.20103197932536437,-0.9721759120394701
1592295296.0981815,1.5726532121472363,9.523735776139699,0.5190660559650755,-0.54,-0.5866666666666667,0.11888888888888889,-0.00450022669988763,0.1358878916587284,-0.962546880984279
1592295296.1081815,1.6523981983078702,9.906506786779476,0.7888144946943414,-0.54,-0.5866666666666667,0.11888888888888889,0.061179324222970885,0.3817364835353445,-0.9356090169869277
1592295296.1181815,1.7630619534425422,10.004115038797883,0.7698460401527282,-0.5303636189459566,-0.588695378467518,0.10925250783484557,0.0965095706810844,0.4400890218924589,-0.8878704228489716
1592295296.1281815,1.6,10.14,0.21,-0.5188888888888888,-0.5911111111111111,0.09777777777777778,-0.06654067773228381,0.3523383427463553,-0.8410305333047675
1592295296.1381814,1.2989356089582949,9.756961935160517,0.7454934184494447,-0.5188888888888888,-0.5911111111111111,0.09777777777777778,0.05627903007179319,0.14718500991099678,-0.6536864970633466
1592295296.1481814,1.08634466533349,9.810935419362428,0.5283630161157511,-0.5188888888888888,-0.5911111111111111,0.09777777777777778,0.2129798534485173,0.16870888200173428,-0.532230055967487
1592295296.1581814,1.2928016277523722,9.906873023227703,0.3182896512822579,-0.5188888888888888,-0.5911111111111111,0.09777777777777778,0.20893130997992646,0.06060124377447691,-0.46832007580144713
1592295296.1681814,1.0890645510929127,9.961897392665744,0.41138435599446016,-0.5118005794076126,-0.610603962184621,0.09246154566682055,0.1671320649642646,0.021820720962382058,-0.5120555565706119
1592295296.1781814,0.59,10.01,0.7,-0.5011111111111111,-0.64,0.08444444444444445,0.15926129424448257,0.12217304763960307,-0.5028729907308661
1592295296.1881814,1.0657644418318817,9.64601346657404,0.7085956287073157,-0.5011111111111111,-0.64,0.08444444444444445,0.40151835501546845,0.34376733792224456,-0.6417580812655408
1592295296.1981814,1.06,9.94,0.87,-0.5011111111111111,-0.64,0.08444444444444445,0.4625122517784973,0.37960911230876665,-0.7090400086226963
1592295296.2081814,1.5025352169771165,9.846044348055212,-0.0828978251616434,-0.5011111111111111,-0.64,0.08444444444444445,0.1622268363567854,-0.08984627728977164,-0.8654936467758706
1592295296.2181814,0.9691375554053038,9.884639020359101,0.7022868304409886,-0.49259501331396754,-0.6446985367156655,0.08268249317606992,0.20124242212798377,-0.08815700862280933,-0.942657757341934
1592295296.2281814,0.41,9.48,0.82,-0.4688888888888889,-0.6577777777777778,0.07777777777777778,0.17235126363444003,-0.33052172709642613,-1.0221084431991792
1592295296.2381814,0.9621932768485916,9.543628136003521,0.15422507702464788,-0.4688888888888889,-0.6577777777777778,0.07777777777777778,0.04837350800295477,-0.1522228670597544,-0.9685263022306609
1592295296.2481813,0.43764680668666955,9.74338619802829,0.23254607801114446,-0.4688888888888889,-0.6577777777777778,0.07777777777777778,0.060367875336005114,-0.09924456075059268,-0.83824477685294
1592295296.2581813,0.9466066095958591,10.172423850288672,0.28778120645032845,-0.4688888888888889,-0.6577777777777778,0.07777777777777778,0.04621556632567256,-0.07218669885486675,-0.8331248875969017
1592295296.2681813,1.16,9.979332874210257,0.09066712578974159,-0.4606048447465341,-0.6641790846150519,0.08267289477098741,0.07844303723957005,-0.11282202430270227,-0.7689687434570455
1592295296.2781813,1.16,9.9,0.17,-0.4444444444444444,-0.6766666666666666,0.09222222222222222,0.11017390903214205,-0.0818123086872342,-0.717766654882668
1592295296.2881813,0.8282239330454144,10.003125888569972,0.6722307465329006,-0.4444444444444444,-0.6766666666666666,0.09222222222222222,-0.021000431122013316,0.09765988916582732,-0.7509515947402873
1592295296.2981813,0.8119817073170732,10.21310975609756,0.6315243902439024,-0.4444444444444444,-0.6766666666666666,0.09222222222222222,0.037587102145655325,0.07473770569313179,-0.7168429407063314
1592295296.3081813,0.8989295824837171,10.250105121453883,0.5149941599192287,-0.4444444444444444,-0.6766666666666666,0.09222222222222222,-0.04552657734652695,0.05852144213437972,-0.7862248867131553
1592295296.3181813,0.4013519915227825,9.85814685532631,0.6692152340584678,-0.44193192600441866,-0.683486359575308,0.0807364236392473,-0.11165081082274265,0.008987913933208733,-0.7613816637397345
1592295296.3281813,0.97,9.98,0.94,-0.43666666666666665,-0.6977777777777778,0.056666666666666664,-0.11017390903214205,0.13526301702956053,-0.7864889941799448
1592295296.3381813,-0.03897962346013792,9.725527233284264,0.5323808785930115,-0.43666666666666665,-0.6977777777777778,0.056666666666666664,0.06166722408373064,-0.05691986631551256,-0.45334224158539044
1592295296.3481812,0.21588590080181652,9.823300929539487,0.9096480522245086,-0.43666666666666665,-0.6977777777777778,0.056666666666666664,-0.003782186571766613,0.01256309185242441,-0.4227564892964323
1592295296.3581812,0.17060063476854898,9.987763339122102,0.47299419126893827,-0.43666666666666665,-0.6977777777777778,0.056666666666666664,0.16082395392343818,0.005062999069342645,-0.4955628110070735
1592295296.3681812,-0.07278896935580784,9.741284905600708,-0.1538847601277632,-0.42938690532662893,-0.7037339461468995,0.06096834382214351,0.12344105520015529,0.08857997175105056,-0.5457988603029141
1592295296.3781812,0.18,9.65,0.45,-0.4122222222222222,-0.7177777777777777,0.07111111111111111,-0.038179077387375956,0.19198621771937624,-0.667588438887831
1592295296.3881812,-0.4469906710803491,9.74783930183569,-0.011450496539271743,-0.4122222222222222,-0.7177777777777777,0.07111111111111111,0.11877088988161533,0.15063903684663366,-0.5118875270288304
1592295296.3981812,-0.4658490970090656,9.84162633545102,-0.07779879601208746,-0.4122222222222222,-0.7177777777777777,0.07111111111111111,0.19418355639176743,0.15189694708866086,-0.43497001389443246
1592295296.4081812,-0.4366301451580831,9.649954662954862,0.06334340823225293,-0.4122222222222222,-0.7177777777777777,0.07111111111111111,0.23887998973098803,0.15963877939277818,-0.3112803310492234
1592295296.4181812,-0.6891798874104401,10.021809749232345,0.15794971852610032,-0.40893445069941997,-0.7192722193790515,0.06901889286932787,0.23701801801506317,0.07561204661671378,-0.20054587587401818
1592295296.4281812,-0.85,10.38,0.56,-0.4,-0.7233333333333334,0.06333333333333334,0.05999569303730508,0.04690572364734761,-0.33052172709642613
1592295296.4381812,-0.6935315132076456,10.061975540431302,0.024003494224099715,-0.4,-0.7233333333333334,0.06333333333333334,-0.17173719664618653,0.20260464428265418,-0.4468840079908744
1592295296.4481812,-1.2502109734851197,10.14099520297845,-0.02135748550153934,-0.4,-0.7233333333333334,0.06333333333333334,-0.17729039629754575,0.045487469205476486,-0.5810328477553074
1592295296.4581811,-0.9658765349092325,9.955981988039209,0.007840510987649957,-0.4,-0.7233333333333334,0.06333333333333334,-0.14876995637997403,0.02801604256986598,-0.5796833390440149
1592295296.4681811,-0.7284909552523008,10.1383925737861,0.11680974293874961,-0.3989447794351,-0.7236264501569167,0.06333333333333334,-0.17986392358958167,0.009592629504152824,-0.32760796956276156
1592295296.4781811,-1.24,9.93,-0.12,-0.38,-0.7288888888888889,0.06333333333333334,-0.11890055529211369,0.044724062082354694,-0.4319689898685966
1592295296.488181,-1.0442343912517922,10.036063025328199,0.35929328423242346,-0.38,-0.7288888888888889,0.06333333333333334,-0.13744532255054345,-0.009341440243000113,-0.4382759561638413
1592295296.498181,-1.7449054325955733,10.226985915492957,0.32551307847082495,-0.38,-0.7288888888888889,0.06333333333333334,-0.20375797188203518,0.12360978371650885,-0.1912448039601664
1592295296.508181,-2.6454631379962192,9.24852714015663,0.5555884418039427,-0.38,-0.7288888888888889,0.06333333333333334,-0.1253809679893816,-0.08643238799059942,0.020098328867779014
1592295296.518181,-0.8221785752202994,9.965337084616202,0.4977715256396645,-0.37936676457750884,-0.7302704934470515,0.0622395630581213,-0.2401475722557595,-0.0629569992384341,0.031702189995731746
1592295296.528181,-0.13,9.88,0.64,-0.36777777777777776,-0.7555555555555555,0.042222222222222223,0.016362461737446838,-0.15707963267948966,-0.04690572364734761
1592295296.538181,-0.7338702041318249,9.830787936546976,0.3476709296606001,-0.36777777777777776,-0.7555555555555555,0.042222222222222223,-0.1327034480590108,0.09337790510470154,-0.03232169704447258
1592295296.548181,-0.8168361327616025,9.910508398284808,0.29025419914240363,-0.36777777777777776,-0.7555555555555555,0.042222222222222223,-0.008603352481968507,0.02671619306357522,-0.08175685103735057
1592295296.558181,-0.8653614812436453,9.891906137956868,0.3680938620431316,-0.36777777777777776,-0.7555555555555555,0.042222222222222223,-0.01294350958189392,-0.0009331048353510892,-0.0948070120721061
1592295296.568181,-0.9700437727983324,9.720189682126108,0.5400729546638875,-0.3677485959122228,-0.7555555555555555,0.042212494933703895,0.029379216429756817,0.04469222960511665,-0.14628592177258207
1592295296.578181,-1.0303713588882242,9.922891261331738,0.5535543693341309,-0.3477777777777778,-0.7555555555555555,0.035555555555555556,0.020355431477654985,0.018269244587012456,-0.24889605081678118
1592295296.588181,-1.023976570126912,10.148479561440837,0.4319882850634559,-0.3477777777777778,-0.7555555555555555,0.035555555555555556,0.09795149266282284,0.038255642245422966,-0.3049797013741768
1592295296.598181,-1.0351666230584429,10.37131942627435,0.28145001308246714,-0.3477777777777778,-0.7555555555555555,0.035555555555555556,0.03510536372318873,0.10313017432405357,-0.36826264032443345
1592295296.608181,-1.3870841674491114,10.54240526511595,0.18164738604354527,-0.3477777777777778,-0.7555555555555555,0.035555555555555556,-0.05896403499837345,0.07874649579514191,-0.5432929024267998
1592295296.618181,-1.2236129466579269,10.549835775151912,0.24852197636721174,-0.3477777777777778,-0.7555555555555555,0.035555555555555556,-0.20405121547447574,0.06253563764138748,-0.6883800829029021
1592295296.628181,-1.08,9.97,0.28,-0.3233333333333333,-0.7622222222222222,0.021111111111111112,-0.284706834231575,-0.053450708342326333,-0.5835944686356039
1592295296.638181,-1.100083482918768,9.917390375245748,0.3831524061885631,-0.3233333333333333,-0.7622222222222222,0.021111111111111112,-0.25909622725420073,0.007590282608672814,-0.6023663184429686
1592295296.648181,-0.7842053271762157,9.63280355145081,0.4999062150389184,-0.3233333333333333,-0.7622222222222222,0.021111111111111112,-0.32678027436326,0.16837048816860217,-0.5387174965421063
1592295296.658181,-0.8937595689874106,9.674880274280738,0.6,-0.3233333333333333,-0.7622222222222222,0.021111111111111112,-0.3344660600767806,0.08847954336541981,-0.5257020768632756
1592295296.668181,-0.9774538330370424,9.621620288067335,0.6,-0.3233333333333333,-0.7622222222222222,0.021111111111111112,-0.3560451806962065,0.07354015216735577,-0.4908434974011262
1592295296.678181,-1.07,9.75,0.65,-0.33,-0.7555555555555555,0.024444444444444446,-0.39269908169872414,0.15271630954950383,-0.5770494839406253
1592295296.688181,-1.108271826413805,9.534627826186002,0.9026860869069993,-0.33,-0.7555555555555555,0.024444444444444446,-0.27204048663704117,0.13384175006436014,-0.4664349933315446
1592295296.698181,-1.39,9.62,0.86,-0.33,-0.7555555555555555,0.024444444444444446,-0.2999784651865254,0.284706834231575,-0.667588438887831
1592295296.708181,-1.3508228855335171,9.658765671699726,0.8428750533711137,-0.33,-0.7555555555555555,0.024444444444444446,-0.14969722799397353,-0.009370313905646112,-0.511822392910052
1592295296.718181,-1.2368606140589218,9.829709078911618,1.0382389473275628,-0.33,-0.7555555555555555,0.024444444444444446,-0.22250945234363012,0.12293482546141282,-0.6752059207190375
1592295296.728181,-1.35,9.62,1.02,-0.30333333333333334,-0.75,-0.015555555555555555,-0.2399827721492203,0.03381575425739013,-0.6937683776677459
1592295296.7381809,-1.198461559765149,9.523252741774677,0.7867472582253241,-0.30333333333333334,-0.75,-0.015555555555555555,-0.2761264356679051,0.14176724813182884,-0.8937284632755904
1592295296.7481809,-0.8762768270776213,9.626359081024864,0.754810437742271,-0.30333333333333334,-0.75,-0.015555555555555555,-0.21897842682574878,0.11829310579708636,-0.7338037340807582
1592295296.7581809,-0.815798007668327,9.624625900311749,0.8935286845594296,-0.30333333333333334,-0.75,-0.015555555555555555,-0.21783699585789645,0.15293664900272105,-0.8377961127379122
1592295296.7681808,-0.8383423513813738,9.33154943204214,0.9461321532232057,-0.30333333333333334,-0.75,-0.015555555555555555,-0.1571765710942455,0.12834458490934902,-0.7361489144853077
1592295296.7781808,-0.69,9.42,1.07,-0.2911111111111111,-0.75,-0.022222222222222223,0.1265363707695889,0.22689280275926282,-0.755945732270044
1592295296.7881808,-1.7629656011118833,9.841610493398193,1.0506775538568451,-0.2911111111111111,-0.75,-0.022222222222222223,-0.10802939180929112,0.2723203331989189,-0.6820459265068529
1592295296.7981808,-1.829003362667239,9.632240824211204,1.1752107032982757,-0.2911111111111111,-0.75,-0.022222222222222223,-0.03473512083232096,0.028058786905966283,-0.8608471754530687
1592295296.8081808,-1.5559284884335058,9.316547480722509,1.1139843667476497,-0.2911111111111111,-0.75,-0.022222222222222223,0.024297861036036515,0.11881500106627618,-0.775349603526809
1592295296.8181808,-1.6223851272842504,9.42730854547375,0.9219985211788317,-0.2911111111111111,-0.75,-0.022222222222222223,-0.0063102722935901995,-0.004423009445115561,-0.71977167721775
1592295296.8281808,-1.45,9.49,0.74,-0.2644444444444444,-0.75,-0.03111111111111111,-0.09708393964218458,-0.07526732399225547,-0.7221299780126538
1592295296.8381808,-1.7325881796410727,9.719137273452976,0.5812940898205363,-0.2644444444444444,-0.75,-0.03111111111111111,0.06097109693955569,-0.004235157043901179,-0.9283526291451725
1592295296.8481808,-1.8188785046728972,9.635578720345075,0.5966714593817397,-0.2644444444444444,-0.75,-0.03111111111111111,-0.01951183371624322,0.13188230423060854,-0.8981199582759821
1592295296.8581808,-1.9079687080431786,9.41601564597841,0.5680469379352321,-0.2644444444444444,-0.75,-0.03111111111111111,-0.05179533489281761,-0.005045128983279958,-0.8665947280730523
1592295296.8681808,-1.8479010400816314,9.446049479959184,0.6581484398775532,-0.2644444444444444,-0.75,-0.03111111111111111,-0.11977613343474587,-0.0574640579794656,-0.8362900347471324
1592295296.8781807,-2.08,9.38,0.79,-0.23222222222222222,-0.7555555555555555,-0.017777777777777778,0.15053464798451094,0.0818123086872342,-0.9686577348568529
1592295296.8881807,-2.0677142294491646,9.852756428290101,1.0268573116525066,-0.23222222222222222,-0.7555555555555555,-0.017777777777777778,0.014081801126025818,0.10115394817646059,-0.9142336074963308
1592295296.8981807,-2.2128242637949107,9.530076717811875,0.5724430572762794,-0.23222222222222222,-0.7555555555555555,-0.017777777777777778,0.015746302960371026,0.02618804750011267,-0.706583742129469
1592295296.9081807,-2.135752979991486,9.697168653327656,0.71,-0.23222222222222222,-0.7555555555555555,-0.017777777777777778,0.03966424496828447,-0.053299436257439915,-0.7789418174106897
1592295296.9181807,-2.11343337590464,9.68228891726976,0.71,-0.23222222222222222,-0.7555555555555555,-0.017777777777777778,0.08186555769946335,0.03921882626860608,-0.7278133039094536
1592295296.9281807,-2.27,9.52,0.7,-0.2311111111111111,-0.7622222222222222,-0.024444444444444446,0.007635815477475192,0.053450708342326333,-0.7024950239277177
1592295296.9381807,-2.5496312402156893,9.510153649910128,0.7197387951527802,-0.2311111111111111,-0.7622222222222222,-0.024444444444444446,0.07274877426335188,-0.15274647863880925,-0.722062935591975
1592295296.9481807,-2.3436380799546894,9.50200405909284,0.5305253221314957,-0.2311111111111111,-0.7622222222222222,-0.024444444444444446,-0.09750421866599723,-0.15825325271474744,-0.6489488608126179
1592295296.9581807,-2.5,9.026428444969017,0.44417291236352907,-0.2311111111111111,-0.7622222222222222,-0.024444444444444446,0.1290214950851683,-0.0775474789828736,-0.5179723547531544
1592295296.9681807,-2.5,9.183193862496312,0.4689253467099439,-0.2311111111111111,-0.7622222222222222,-0.024444444444444446,0.1308215429069544,0.012454912106432667,-0.5557733590106632
1592295296.9781806,-2.57,8.87,0.79,-0.21666666666666667,-0.7622222222222222,-0.03111111111111111,0.2247111411942699,-0.2585268954516601,-0.469057236473476
1592295296.9881806,-2.533084869243734,9.303986842820638,0.9533855271027021,-0.21666666666666667,-0.7622222222222222,-0.03111111111111111,-0.03767141080236157,-0.139560746790034,-0.3595006523809853
1592295296.9981806,-2.3232812610447446,9.13508682641785,0.7503298697014679,-0.21666666666666667,-0.7622222222222222,-0.03111111111111111,0.027838892924639,-0.13052282125840825,-0.13034480721539393
1592295297.0081806,-2.402333488494465,9.292834186719556,0.8170004654833944,-0.21666666666666667,-0.7622222222222222,-0.03111111111111111,-0.06753878646328393,-0.09473893272980564,-0.10970089410943722
1592295297.0181806,-2.41931067980814,9.38620873894477,0.8679320394244197,-0.21666666666666667,-0.7622222222222222,-0.03111111111111111,0.13154307455356462,-0.12529568349053125,-0.07451433262738957
1592295297.0281806,-2.240105546924975,9.427006762313807,1.07992963538335,-0.20222222222222222,-0.76,-0.024444444444444446,0.02426131566208575,-0.030433735242417628,-0.12479458524731381
1592295297.0381806,-2.3821291740314336,9.886387522094301,0.9222806095638465,-0.20222222222222222,-0.76,-0.024444444444444446,0.1068574353546748,-0.11176010299327564,0.013355264355499412
1592295297.0481806,-2.3621417028349803,9.742856681133992,0.5657133622679842,-0.20222222222222222,-0.76,-0.024444444444444446,-0.09418602059460407,0.014306010502368332,-0.035889355177639935
1592295297.0581806,-2.5663261232636767,9.830854617296021,0.748546172960202,-0.20222222222222222,-0.76,-0.024444444444444446,-0.004184384046474754,-0.08462832196720203,0.13778220560680826
1592295297.0681806,-2.429642755305715,9.839397327793392,0.8339732779339281,-0.20222222222222222,-0.76,-0.024444444444444446,-0.1877618201033207,-0.04735371566124346,-0.05511388202652737
1592295297.0781806,-2.42,9.34,1.22,-0.2222222222222222,-0.7533333333333333,-0.017777777777777778,-0.05781403147231216,-0.042542400517361786,0.04908738521234052
1592295297.0881805,-2.3031065447779304,9.544563546638622,1.3466345764905754,-0.2222222222222222,-0.7533333333333333,-0.017777777777777778,-0.08119104433088964,-0.12861231149666974,0.12240619826878806
1592295297.0981805,-2.3008922931887814,9.551446617958991,1.4323389111477727,-0.2222222222222222,-0.7533333333333333,-0.017777777777777778,-0.03382264425620487,0.019175329462511704,0.12032025497325957
1592295297.1081805,-2.3113493670368324,9.231663292226516,1.1284101274106795,-0.2222222222222222,-0.7533333333333333,-0.017777777777777778,0.0837046927350659,-0.09342012957058596,0.14788006330034623
1592295297.1181805,-2.3285050207579197,8.871394564083687,0.8539196678732845,-0.2222222222222222,-0.7533333333333333,-0.017777777777777778,0.16323883221951593,0.09184763064025057,0.030918093470272662
1592295297.1281805,-2.511803519403333,9.287052791049994,0.9117228761216641,-0.22666666666666666,-0.7511111111111111,-0.03111111111111111,0.1550771109278861,-0.016380055372256012,0.17059825623546251
1592295297.1381805,-2.534150781751981,9.553082030413366,1.0078624973227672,-0.22666666666666666,-0.7511111111111111,-0.03111111111111111,0.16735035703788048,0.016396338469822507,0.13769139465930313
1592295297.1481805,-2.5798865559236397,9.46,0.735620724993446,-0.22666666666666666,-0.7511111111111111,-0.03111111111111111,0.01538230248289641,0.16583102859757845,0.22495583004111702
1592295297.1581805,-2.4382983828688953,9.461134411420737,1.0814919143444772,-0.22666666666666666,-0.7511111111111111,-0.03111111111111111,0.0644047662182566,0.1829231986087227,0.18784902741341844
1592295297.1681805,-2.4129265636972215,9.478048957535187,0.9546328184861071,-0.22666666666666666,-0.7511111111111111,-0.03111111111111111,0.09761639985073148,-0.017269148564806353,0.4839860939696527
1592295297.1781805,-2.27,9.64,1.26,-0.23777777777777778,-0.7688888888888888,-0.02666666666666667,0.06654067773228381,0.21162117180431245,0.29779680362153244
1592295297.1881804,-2.298016548940464,9.826776992936427,0.9144625630676084,-0.23777777777777778,-0.7688888888888888,-0.02666666666666667,0.08487746613442988,0.29209929868039797,0.29168454082081713
1592295297.1981804,-2.020848670998228,9.485469108092143,0.9710466627288836,-0.23777777777777778,-0.7688888888888888,-0.02666666666666667,0.0895741270399752,0.038043306647572266,0.4003467268591093
1592295297.2081804,-2.3346067573814646,9.275067433119611,0.6996741905010753,-0.23777777777777778,-0.7688888888888888,-0.02666666666666667,0.07727740109593313,0.13529244027861306,0.42654673672166676
1592295297.2181804,-2.418909211504834,9.367800132655319,0.8767093441601512,-0.23777777777777778,-0.7688888888888888,-0.02666666666666667,0.11406128589503979,0.1757547135576304,0.6067877722372894
1592295297.2281804,-2.45,9.28,0.79,-0.23777777777777778,-0.75,-0.02666666666666667,0.053450708342326333,0.07744898555724837,0.49632800603588745
1592295297.2381804,-2.221478136314805,9.584695818246926,0.79,-0.23777777777777778,-0.75,-0.02666666666666667,0.21859783608241734,0.12626606105274696,0.6760163903065526
1592295297.2481804,-2.2223140300203608,9.030175671196552,0.6699121644017236,-0.23777777777777778,-0.75,-0.02666666666666667,0.15802284310229225,-0.07449539037587166,0.6994941158528911
1592295297.2581804,-2.063141772302094,9.425199240611466,0.4837164553958115,-0.23777777777777778,-0.75,-0.02666666666666667,0.17836044325939984,0.028018886151035937,0.7260444311894649
1592295297.2681804,-1.8972509739553465,9.309075681768741,0.8154980520893073,-0.23777777777777778,-0.75,-0.02666666666666667,0.21817137692069968,0.046114765087990416,0.7151869038272923
1592295297.2781804,-1.66,9.86,0.39,-0.27111111111111114,-0.75,-0.04777777777777778,0.2585268954516601,-0.05563236990731925,0.6719517620178168
1592295297.2881804,-1.453190600522193,9.78841213094999,0.42181683068889336,-0.27111111111111114,-0.75,-0.04777777777777778,0.14746520483750714,0.05716465962267983,0.6736871009336629
1592295297.2981803,-1.2531432228701465,9.814237424738065,0.3071187123690324,-0.27111111111111114,-0.75,-0.04777777777777778,0.14322833652878117,-0.08843471118344542,0.9014649530733724
1592295297.3081803,-1.3647258932941753,9.602988660466634,0.20474669603524231,-0.27111111111111114,-0.75,-0.04777777777777778,0.03416094373408321,0.07105741840746656,0.837108285617223
1592295297.3181803,-1.1080996084189918,9.748410221895904,0.43571035242290745,-0.27111111111111114,-0.75,-0.04777777777777778,0.0509570948024565,0.07852237443785469,0.8585700342045888
1592295297.3281803,-1.14,9.62,0.45,-0.3055555555555556,-0.7377777777777778,-0.012222222222222223,0.10581058590215622,0.07526732399225547,0.9272061651219876
1592295297.3381803,-1.14,9.611489182236092,0.4755324532917211,-0.3055555555555556,-0.7377777777777778,-0.012222222222222223,0.03339646229367402,0.09569182039464788,0.8789300827163328
1592295297.3481803,-1.1893791700184544,9.699954573415983,0.5104391236454834,-0.3055555555555556,-0.7377777777777778,-0.012222222222222223,0.05779421038583705,0.11876180768678787,1.0504799540873246
1592295297.3581803,-0.7825124213315668,9.670183835707189,0.7982229214971845,-0.3055555555555556,-0.7377777777777778,-0.012222222222222223,0.04480427554168368,0.027832263777714306,1.0569749215094013
1592295297.3681803,-0.6561640688439524,9.769068744924837,0.7752328137687905,-0.3055555555555556,-0.7377777777777778,-0.012222222222222223,0.11406720553354074,0.04708309626275027,0.9975780481380492
1592295297.3781803,-0.72,9.89,0.78,-0.31777777777777777,-0.73,-0.03111111111111111,0.02945243112740431,0.007635815477475192,0.8944812416470939
1592295297.3881803,-0.6501586791467481,9.811428514040092,0.8760318161732215,-0.31777777777777777,-0.73,-0.03111111111111111,0.02945243112740431,-0.08188163316792794,1.0001880161113466
1592295297.3981802,-0.9325692156813438,9.79024769281062,0.6656969346443031,-0.31777777777777777,-0.73,-0.03111111111111111,0.12838691813498126,-0.01192496639341746,0.674079906574822
1592295297.4081802,-1.0570048563957193,9.835001867844507,0.6690003735689015,-0.31777777777777777,-0.73,-0.03111111111111111,0.17998911661420086,-0.07068836120860453,0.706641892403124
1592295297.4181802,-1.07,9.780250328445122,0.7231108191598906,-0.31777777777777777,-0.73,-0.03111111111111111,0.1535770289916313,-0.05862013771970471,0.7655356543344498
1592295297.4281802,-0.939910353739299,9.68495517686965,0.7407078824099499,-0.3539137906279725,-0.699026274699833,-0.02491636605107773,0.16582583671960296,-0.018679001506930304,0.7727617230713166
1592295297.4381802,-0.69,9.76,0.42,-0.3566666666666667,-0.6966666666666667,-0.024444444444444446,0.11453723216212788,-0.042542400517361786,0.6981317007977318
1592295297.4481802,-0.6504329755467678,9.84704745379711,0.2459050924057784,-0.3566666666666667,-0.6966666666666667,-0.024444444444444446,0.19654299582834167,-0.11246310427487037,0.7525144703869051
1592295297.4581802,-0.5822640916941435,9.927735908305856,0.16150939446276233,-0.3566666666666667,-0.6966666666666667,-0.024444444444444446,0.23496085144207013,0.01710355528366478,0.7280163080398322
1592295297.4681802,-0.5654037300657717,9.951894404901344,0.2402794846382557,-0.3566666666666667,-0.6966666666666667,-0.024444444444444446,0.1560091462498157,-0.055110650281604834,0.6835037376471536
1592295297.4781802,-0.65,9.91,0.31,-0.3977777777777778,-0.6911111111111111,-0.024444444444444446,0.10581058590215622,-0.17453292519943295,0.6370451769779303
1592295297.4881802,-0.6963217415889171,9.91661739165556,0.27691304172220205,-0.3977777777777778,-0.6911111111111111,-0.024444444444444446,0.12818779490708695,-0.1471027980320985,0.6197208861354032
1592295297.4981802,-0.7958370359213797,9.861015638727816,0.19258930140321812,-0.3977777777777778,-0.6911111111111111,-0.024444444444444446,0.05598179610947898,-0.15881813824920374,0.7184082234052448
1592295297.5081801,-0.7324927578215528,9.806940421011975,0.3264025685592893,-0.3977777777777778,-0.6911111111111111,-0.024444444444444446,0.06478551035793673,-0.19932236019799066,0.6088532684436251
1592295297.5181801,-0.5965497989372397,9.845481653023121,0.3694921370099095,-0.3977777777777778,-0.6911111111111111,-0.024444444444444446,0.026197093163181258,-0.18239605583781615,0.4625083156700081
1592295297.5281801,-0.4122799935410948,9.89716615533667,0.4071661553366704,-0.4279623948185227,-0.6800434181961713,-0.03048136785259343,0.03488174939636455,-0.09410982729559123,0.46600157162368616
1592295297.53818,-0.2911007194244605,9.96654956035172,0.39790007993605114,-0.4311111111111111,-0.6788888888888889,-0.03111111111111111,0.03289949127877521,-0.06373739085566682,0.4193048019903041
1592295297.54818,-0.22923200967546867,10.056160048377343,0.33460794194718807,-0.4311111111111111,-0.6788888888888889,-0.03111111111111111,0.09994635349554859,-0.09944018690387216,0.41217000438601026
1592295297.55818,0.1443155988658836,10.771199637845179,0.535873579376236,-0.4311111111111111,-0.6788888888888889,-0.03111111111111111,0.13745499666704758,-0.11179522388939334,0.13788230001686114
1592295297.56818,1.3555129011957205,10.94669603524229,0.4685525487728131,-0.4311111111111111,-0.6788888888888889,-0.03111111111111111,0.08977420636841349,-0.008702619150225022,0.07842654567951077
1592295297.57818,-1.0560937693291002,9.235523071213558,0.7214197352686487,-0.4441266568618018,-0.6669579719507557,-0.024603338235765767,0.13700044764292527,0.029402682298678026,-0.004622187966622129
1592295297.58818,-0.9783541455731803,9.969558255521806,0.036264671691603856,-0.4444444444444444,-0.6666666666666666,-0.024444444444444446,-0.03590795518109155,-0.06634752128592884,-0.0007732393700652677
1592295297.59818,-0.590262772946089,9.88717997819091,0.043195829676321185,-0.4444444444444444,-0.6666666666666666,-0.024444444444444446,0.07356157902493995,-0.02789401025683383,0.005076878891987482
1592295297.60818,-0.2956232034305641,9.94116441261015,0.19763017765421045,-0.4444444444444444,-0.6666666666666666,-0.024444444444444446,0.07860556124200263,-0.10227064185298791,-0.08404629887654175
1592295297.61818,-0.2632618820789669,9.902833174552768,0.2504287075261988,-0.4444444444444444,-0.6666666666666666,-0.024444444444444446,0.0715688684017652,-0.09106352827682175,-0.011869005624305151
1592295297.62818,-0.16385555638369234,9.984884847581426,0.09519192069762242,-0.45027138042119036,-0.6540416387170506,-0.024444444444444446,-0.08764020852705764,-0.08753288970519765,0.023457048883769097
1592295297.63818,-0.22719132390500513,9.87938855639843,0.12789349292875385,-0.45111111111111113,-0.6522222222222223,-0.024444444444444446,-0.029128836984554193,-0.018890088769994776,-0.013931222680114364
1592295297.64818,-0.5076565808163375,9.8716348189639,0.06836518103610001,-0.45111111111111113,-0.6522222222222223,-0.024444444444444446,-0.010186008461655793,-0.06544087192633102,-0.061743396139151696
1592295297.65818,-0.5873012086097056,9.84944576986603,0.12515664735338072,-0.45111111111111113,-0.6522222222222223,-0.024444444444444446,0.02875851827035337,-0.09985438615199141,0.07907343486924179
1592295297.66818,-0.5503783133827462,9.886225301053463,0.17301807218104487,-0.45111111111111113,-0.6522222222222223,-0.024444444444444446,0.06987415135949673,-0.11439279560296241,0.026531633383521283
1592295297.67818,-0.53,9.855420486879545,0.2718692696806829,-0.44504672076439383,-0.6451471001510521,-0.005240541679839814,-0.04480579679479593,0.10208303468096969,-0.015968272807825135
1592295297.68818,-0.5653159941662615,9.804593721786235,0.30522571011875826,-0.4444444444444444,-0.6444444444444445,-0.0033333333333333335,-0.022592295654233666,0.04125342625881702,-0.04938283906689543
1592295297.69818,-0.6074857312883767,9.789942925153508,0.30754280613486973,-0.4444444444444444,-0.6444444444444445,-0.0033333333333333335,0.03159673729272072,-0.024029406714652448,-0.07691290901591928
1592295297.70818,-0.5558855843909831,9.869575677211595,0.2845387383974238,-0.4444444444444444,-0.6444444444444445,-0.0033333333333333335,0.0027612751935025895,-0.1593720510733172,0.01580702450627608
1592295297.71818,-0.57465736063262,9.861118866139483,0.29155245354420667,-0.4444444444444444,-0.6444444444444445,-0.0033333333333333335,-0.003855283895660927,-0.13581373849153633,0.07908753914156634
1592295297.72818,-0.6678103787232463,9.806094810638376,0.27287584851070146,-0.44896513635932755,-0.6497185850118081,-0.007100576595735911,-0.05730776363038198,-0.16602542429047584,0.020005793660646712
1592295297.73818,-0.7079885209288922,9.805977041857785,0.22804591628443122,-0.45111111111111113,-0.6522222222222223,-0.008888888888888889,-0.0717941959020332,-0.11836751754656873,0.09517207145940945
1592295297.74818,-0.7403890636670213,9.802402734083245,0.18961093633297874,-0.45111111111111113,-0.6522222222222223,-0.008888888888888889,-0.020655816453391172,-0.03078528744372175,0.16081896791375053
1592295297.75818,-0.7724089749397935,9.807469658313265,0.1874696583132645,-0.45111111111111113,-0.6522222222222223,-0.008888888888888889,-0.044565193382111755,-0.12959503541820838,0.13975873074308212
1592295297.76818,-0.7856385199582478,9.776168880250513,0.24638519958247848,-0.45111111111111113,-0.6522222222222223,-0.008888888888888889,-0.0836468502526572,-0.1326505081265651,0.1336385692451237
1592295297.77818,-0.7154682436129467,9.802172229470937,0.26018729744517866,-0.46022054800286205,-0.6588472672344048,-0.013857672648025777,-0.09387274024030037,-0.13208446128634693,0.17321735361638427
1592295297.7881799,0.14489219383761476,9.837108446595034,0.294481961147086,-0.4633333333333333,-0.6611111111111111,-0.015555555555555555,-0.097257426214367,-0.11605386186708817,0.1171367751415924
1592295297.7981799,-0.4146053798403786,9.95473544191546,0.33378066804611295,-0.4633333333333333,-0.6611111111111111,-0.015555555555555555,-0.2000850639398798,-0.058137766058663456,0.022792011191475607
1592295297.8081799,-0.47833095577746076,9.68916547788873,0.7936447931526391,-0.4633333333333333,-0.6611111111111111,-0.015555555555555555,-0.06826717809345328,0.022320794214164275,-0.018757309917563886
1592295297.8181798,-0.3096520423600605,9.755869894099849,0.7326626323751891,-0.4633333333333333,-0.6611111111111111,-0.015555555555555555,-0.06071191173564616,0.020329719227797034,0.028557982891227185
1592295297.8281798,-0.2161034089055619,9.86896591094438,0.5188272712444952,-0.4588601641928995,-0.6405345330651153,-0.003925315790427519,-0.03197658971674981,0.021857893213383564,-0.04447719734402264
1592295297.8381798,-0.20406454189051837,9.819376361260346,0.4862581675620735,-0.4577777777777778,-0.6355555555555555,-0.0011111111111111111,0.020448919438682298,0.04438154406766781,-0.07070229140945865
1592295297.8481798,-0.4726113040732555,9.695427849700032,0.5063814335333123,-0.4577777777777778,-0.6355555555555555,-0.0011111111111111111,-0.06256036812618056,0.10645709344201915,0.030383787753823763
1592295297.8581798,-0.7168139656566618,9.707044189697,0.6240883793939971,-0.4577777777777778,-0.6355555555555555,-0.0011111111111111111,-0.04405611437445968,-0.012107090538345466,-0.10088524338290099
1592295297.8681798,-0.7956056338028169,9.71406572769953,0.6737370892018779,-0.4577777777777778,-0.6355555555555555,-0.0011111111111111111,0.010681947634418348,0.02341342803482299,-0.02552851307318467
1592295297.8781798,-0.769119242713361,9.71,0.719074718449508,-0.4577777777777778,-0.6589768565287704,-0.011610314995655662,0.12618986149644207,0.09687236083511826,-0.0395144237241036
1592295297.8881798,-0.6247201880480969,9.702170011753006,0.722170011753006,-0.4577777777777778,-0.6677777777777778,-0.015555555555555555,0.15926129424448257,0.19378486562814273,-0.029144886077660595
1592295297.8981798,-0.5511460836136473,9.746624699663624,0.5257304180682364,-0.4577777777777778,-0.6677777777777778,-0.015555555555555555,0.11094461950763679,0.010489221226883838,-0.12062475985379828
1592295297.9081798,-0.5769404926152941,9.782164295569176,0.425671408861647,-0.4577777777777778,-0.6677777777777778,-0.015555555555555555,0.13012651734376818,-0.03941638686065751,-0.03851225041084942
1592295297.9181798,-0.6066526654126413,9.80110177694176,0.37114378070383697,-0.4577777777777778,-0.6677777777777778,-0.015555555555555555,0.07944067757785635,0.007599160280152596,0.022889118833764276
1592295297.9281797,-0.6050882103477523,9.817455894826125,0.33254410517387617,-0.46191994157006877,-0.6628071812270285,-0.011413391763264537,0.16039565648441453,0.07019500711449438,-0.005184730737025994
1592295297.9381797,-0.5853528151178649,9.827323592441068,0.2823966491330606,-0.4633333333333333,-0.6611111111111111,-0.01,0.12798426640319593,0.0213124065880645,0.06435493591188005
1592295297.9481797,-0.5166966494265798,9.854434450191139,0.13504497413986957,-0.4633333333333333,-0.6611111111111111,-0.01,0.0748481133317458,0.016417162718894263,0.16753365253297156
1592295297.9581797,-0.454692463590517,9.86,0.12510251213649431,-0.4633333333333333,-0.6611111111111111,-0.01,0.09098372928379334,0.09957870671056646,0.04098065185994067
1592295297.9681797,-0.4961313621888954,9.85438686378111,0.13561313621888954,-0.4633333333333333,-0.6611111111111111,-0.01,0.09474780630069468,0.037387661810855885,-0.026385351311852198
1592295297.9781797,-0.6243012291084087,9.85,0.1175196722377577,-0.4633333333333333,-0.6529932149747458,-0.01,0.06466391248667502,0.022458685586352046,0.02229765379365732
1592295297.9881797,-0.6698535342814689,9.876861954291375,0.0731380457086252,-0.4633333333333333,-0.6466666666666666,-0.01,0.0477181544700008,0.019721630867554442,-0.04636729333964966
1592295297.9981797,-0.6272177759056445,9.89,0.007548441449031169,-0.4633333333333333,-0.6466666666666666,-0.01,0.05631149707519194,-0.031808239645457946,0.07581342861946565
1592295298.0081797,-0.5263778969500815,9.89643246946538,0.005729877861513383,-0.4633333333333333,-0.6466666666666666,-0.01,0.046587254351827014,0.018273277510570396,0.15972113937389423
1592295298.0181797,-0.4848956737433428,9.890208652513316,0.03958269497337127,-0.4633333333333333,-0.6466666666666666,-0.01,-0.004498214658134325,0.04922394796296165,0.11052753174914963
1592295298.0281796,-0.4947935842835554,9.884793584283557,0.0887615057013326,-0.46919215856879,-0.6535907328540245,-0.0020106928607409435,-0.04604005748233995,-0.027526056035550944,-0.018168948846610675
1592295298.0381796,-0.5128150044257315,9.896407502212867,0.12,-0.47555555555555556,-0.6611111111111111,0.006666666666666667,0.012759466008212601,-0.09943522394553847,-0.024902001069103397
1592295298.0481796,-0.50104069849317,9.893680232831057,0.12,-0.47555555555555556,-0.6611111111111111,0.006666666666666667,0.03289108532483036,-0.0736450313174654,-0.08532515965524828
1592295298.0581796,-0.5024248373743347,9.846513069189829,0.16969934949733886,-0.47555555555555556,-0.6611111111111111,0.006666666666666667,-0.04591756384494704,0.03894409101338317,-0.029760779509446472
1592295298.0681796,-0.51,9.801517133234734,0.24158645022185,-0.47555555555555556,-0.6611111111111111,0.006666666666666667,-0.06634493892760555,0.1199313232239194,-0.0365921935467475
1592295298.0781796,-0.51,9.792668846098577,0.3406753843943095,-0.46241749293480866,-0.6578265954559244,-0.0003715811658763224,-0.06673951648032186,0.07074595658342898,-0.06837258844464772
1592295298.0881796,-0.5161508823669315,9.803849117633069,0.3792455881653427,-0.4444444444444444,-0.6533333333333333,-0.01,-0.002483179791558432,0.0014115992692677569,-0.10457862113647992
1592295298.0981796,-0.5326368720565149,9.806318436028258,0.2841787676609105,-0.4444444444444444,-0.6533333333333333,-0.01,-0.06257408115282964,-0.04957612920451772,-0.05690175038103429
