time,acc_x,acc_y,acc_z,mag_x,mag_y,mag_z,gyr_x,gyr_y,gyr_z
1592295457.058028,-0.497064285220278,9.812935714779723,0.7353214261013902,-0.2822222222222222,-0.5877777777777777,0.27111111111111114,0.014000038670630752,0.012719091450490536,0.001371327971051807
1592295457.068028,-0.5293682600682327,9.79042115995451,0.8185259401592094,-0.30288877560357114,-0.6019180511439638,0.2787251044621344,0.034940763064090136,0.01571928179761637,-0.16201611143688893
1592295457.078028,-0.5900159602766447,9.740007980138323,0.8399441390317431,-0.30333333333333334,-0.6022222222222222,0.2788888888888889,0.12431379579610191,0.05125163681627213,-0.03831922757391944
1592295457.088028,-0.6086110125908849,9.749305506295443,0.7748614559319028,-0.30333333333333334,-0.6022222222222222,0.2788888888888889,0.07664626544981498,0.03096758134976705,-0.20160587407928526
1592295457.098028,-0.665291463848985,9.74078475602517,0.7792152439748309,-0.30333333333333334,-0.6022222222222222,0.2788888888888889,0.016792940369884005,0.11188105985428003,-0.01979398770726859
1592295457.108028,-0.7669829317269077,9.732539774482547,0.8769829317269077,-0.30333333333333334,-0.6022222222222222,0.2788888888888889,0.13813571500893615,0.08309404328137238,0.07973351276832008
1592295457.118028,-1.09,9.84,1.01,-0.2966666666666667,-0.5877777777777777,0.29333333333333333,0.001090830782496456,0.09053895494720585,-0.09708393964218458
1592295457.128028,-2.850363076203105,9.556339599095235,0.9015416114187661,-0.2966666666666667,-0.5877777777777777,0.29333333333333333,0.021112480593697882,-0.08419544340509752,-0.09890408962502108
1592295457.138028,-0.9886824163627717,9.559765340098304,1.0194524602293749,-0.2966666666666667,-0.5877777777777777,0.29333333333333333,0.06203230253059136,-0.15475718528019325,-0.1438147475560036
1592295457.148028,-0.9203950370792927,9.758683209735691,0.5530944571211258,-0.2966666666666667,-0.5877777777777777,0.29333333333333333,0.05134086654505342,-0.06278782262791785,0.02614319920920763
1592295457.158028,-0.8973992442186342,9.933272460990471,0.3239924421863417,-0.2966666666666667,-0.5877777777777777,0.29333333333333333,-0.05556322038332713,-0.1336727949328939,0.06836010308574239
1592295457.1680279,-0.9685321355485415,9.86238527973362,0.3677982033228122,-0.28903159793278066,-0.6074108116649132,0.30205912617206016,0.04652547844724739,-0.07034354592206221,-0.0445439658482774
1592295457.1780279,-0.8544099477269127,9.831102486931728,0.45669253920481545,-0.28888888888888886,-0.6077777777777778,0.3022222222222222,-0.021837782570704636,0.0707638240093787,0.014562755097958194
1592295457.1880279,-1.0160771369982302,9.937758363998988,0.39186803000084275,-0.28888888888888886,-0.6077777777777778,0.3022222222222222,-0.08548281224385434,-0.04156561990965822,-0.0110617944787898
1592295457.1980278,-1.0555729166666667,9.76925,0.5678645833333333,-0.28888888888888886,-0.6077777777777778,0.3022222222222222,0.010058368840269408,-0.01057651346195522,0.03767002302221095
1592295457.2080278,-1.0381992933379711,9.795402119986086,0.6272797173351885,-0.28888888888888886,-0.6077777777777778,0.3022222222222222,-0.01890342666253854,-0.04667994086670751,-0.08163651125065409
1592295457.2180278,-1.1973035965441028,9.752483021900744,0.7263821579264618,-0.2829787690040854,-0.602852677873775,0.29532708235661825,-0.07522077135849974,-0.007574446657081582,-0.02702424224391592
1592295457.2280278,-1.0814700882950092,9.795411964681996,0.74,-0.2822222222222222,-0.6022222222222222,0.29444444444444445,-0.07744898555724837,-0.031146543507491825,-0.021906492401213708
1592295457.2380278,-1.2097887133182845,9.782526410835214,0.6351584650112867,-0.2822222222222222,-0.6022222222222222,0.29444444444444445,-0.05076396503894591,0.013836068096721409,-0.04196817537407019
1592295457.2480278,-1.3393193438678481,9.704317377322258,0.7461377044629017,-0.2822222222222222,-0.6022222222222222,0.29444444444444445,-0.0707555047300204,-0.061831149649511585,0.00297550008299087
1592295457.2580278,-1.3395499873646561,9.785433392298271,0.9813167972318877,-0.2822222222222222,-0.6022222222222222,0.29444444444444445,0.019911356690729826,0.0630882851387221,-0.05194903747641973
1592295457.2680278,-1.817808135541479,9.703169884759214,1.197073952529955,-0.3028185657228625,-0.6022222222222222,0.29444444444444445,0.09415751945853842,-0.029852574465271148,0.030996310915345743
1592295457.2780278,-1.6687636201912386,9.800772737380475,1.1596909050478095,-0.30333333333333334,-0.6022222222222222,0.29444444444444445,0.05972595680645428,-0.03528143431033752,-0.14133301206982313
1592295457.2880278,-1.2824066276589927,10.049031005632417,0.5700475747798983,-0.30333333333333334,-0.6022222222222222,0.29444444444444445,0.04648983956490843,-0.06955064772652952,-0.2752489310917092
1592295457.2980278,-1.1493344121076552,10.262179758703567,0.45509149751326655,-0.30333333333333334,-0.6022222222222222,0.29444444444444445,0.06687101855845162,-0.06709607395393134,-0.21345977314939074
1592295457.3080277,-1.0783754995717956,10.21152833285755,0.5253188338566943,-0.30333333333333334,-0.6022222222222222,0.29444444444444445,-0.09933241576035173,0.024582345010074738,-0.44104068571004973
1592295457.3180277,-1.079324634529419,10.316848294470622,0.5697748781764729,-0.2968167478823514,-0.6022222222222222,0.2879278589934625,0.14743264874107975,0.08360105854836306,-0.5956039308399352
1592295457.3280277,-1.295040101213203,10.048862481079004,0.626097417707792,-0.2966666666666667,-0.6022222222222222,0.2877777777777778,0.08656602222061624,0.0880734895891752,-0.8506345167505801
1592295457.3380277,-1.2750992580709846,10.197523561259274,0.20421094846601162,-0.2966666666666667,-0.6022222222222222,0.2877777777777778,0.034604512188347064,0.0914029576724637,-0.8728697993025551
1592295457.3480277,-1.4392810627767647,9.794905183641573,0.5578431883302944,-0.2966666666666667,-0.6022222222222222,0.2877777777777778,-0.017109648146838005,0.1484567275809375,-0.7301279640854326
1592295457.3580277,-1.409956127171104,9.865109682072239,0.6491922591501893,-0.2966666666666667,-0.6022222222222222,0.2877777777777778,-0.011627552041249711,0.12259924458154725,-0.7484315281334866
1592295457.3680277,-1.7034537947306332,9.774058198977585,0.5747585528902871,-0.2838620614322541,-0.6130568881898021,0.279898020710447,0.07458219818580507,-0.044391965664026437,-0.8206051022375331
1592295457.3780277,-1.694313961809348,9.473944484200219,0.6404353884976084,-0.2822222222222222,-0.6144444444444445,0.2788888888888889,0.13326413977217663,-0.008700722030234337,-0.9585640065929052
1592295457.3880277,-1.5388238174251285,9.907225471261867,0.7678989745124174,-0.2822222222222222,-0.6144444444444445,0.2788888888888889,0.06826423368971034,-0.01863569101439971,-1.011530206413697
1592295457.3980277,-1.6475794519981817,9.547672852006448,0.6930140100012399,-0.2822222222222222,-0.6144444444444445,0.2788888888888889,0.0028443107228188977,-0.017498148354492368,-1.0745228690603201
1592295457.4080276,-1.8387661227661227,9.411359362859363,0.648518648018648,-0.2822222222222222,-0.6144444444444445,0.2788888888888889,-0.05266975147908451,0.03648256853403882,-0.9875375831576972
1592295457.4180276,-1.5448671795616198,10.256408041805777,1.2330552329801132,-0.27773822196416187,-0.6305868453734618,0.2726112885276044,-0.16208690066137232,0.16779028779371952,-0.632915450612624
1592295457.4280276,-1.7996861500915193,8.865655887736425,1.5755995118974986,-0.27666666666666667,-0.6344444444444445,0.27111111111111114,0.059310259964530515,0.07789886839784403,-0.467886966055715
1592295457.4380276,-1.7809422467377434,9.25089161486848,0.976612604453958,-0.27666666666666667,-0.6344444444444445,0.27111111111111114,0.00961927480009625,0.09299102292442424,-0.43306166167781196
1592295457.4480276,-2.638848579271459,8.893747310631353,1.3810156539802656,-0.27666666666666667,-0.6344444444444445,0.27111111111111114,0.0317965964546387,-0.09226749969706426,-0.2806070132180525
1592295457.4580276,-2.160889506852778,8.96914082955633,1.2448079596959136,-0.27666666666666667,-0.6344444444444445,0.27111111111111114,0.08343826288958442,0.0003443723174919311,-0.17386218412780707
1592295457.4680276,-2.1240118531143475,9.1655147970251,1.331715990083669,-0.2486982233240368,-0.6502932290052681,0.24127810487897255,0.13052274544084172,0.05365209118666234,0.16050576078484846
1592295457.4780276,-2.0447209642074506,9.224701241782322,1.4414642074506938,-0.24333333333333335,-0.6533333333333333,0.23555555555555555,0.1364820542933599,0.06493486964173223,0.15076600132103235
1592295457.4880276,-1.9057508661758336,9.219584776959724,1.4819169553919445,-0.24333333333333335,-0.6533333333333333,0.23555555555555555,0.16565982699378182,0.12418032509347038,0.21300791819156695
1592295457.4980276,-1.945556764599202,9.503588038528191,1.4395050981340425,-0.24333333333333335,-0.6533333333333333,0.23555555555555555,0.1999594420654147,0.10599834789272738,0.23666979073750335
1592295457.5080276,-1.8912270058708416,9.697037181996086,1.277986301369863,-0.24333333333333335,-0.6533333333333333,0.23555555555555555,0.265554108471034,0.14653230232090503,0.11365111893744241
1592295457.5180275,-1.9080488850771868,9.952845911949685,1.1313007432818754,-0.2539318102407725,-0.6468111936979862,0.25675250937043387,0.2318036852089216,0.19955108865625168,-0.07838030806494582
1592295457.5280275,-1.877725947521866,10.012915451895044,1.0373469387755103,-0.2577777777777778,-0.6444444444444445,0.2644444444444444,0.3079386676605447,0.15825633060813013,-0.16710064666096583
1592295457.5380275,-1.79613731975129,9.991816906998281,0.5563802090223574,-0.2577777777777778,-0.6444444444444445,0.2644444444444444,0.3324333578954173,0.16315180377799116,-0.2806135418675909
1592295457.5480275,-1.6588668487374825,9.893454314599204,0.38443342436874134,-0.2577777777777778,-0.6444444444444445,0.2644444444444444,0.18561640045133138,0.24158483676330073,-0.2548835802206571
1592295457.5580275,-1.6554516007750817,9.826368684385574,0.3263686843855742,-0.2577777777777778,-0.6444444444444445,0.2644444444444444,0.16421879000244474,0.24246353909203225,-0.3461783682856243
1592295457.5680275,-1.6760609941567277,10.069186744576964,0.23404066277115185,-0.2684173359303432,-0.6604037816732926,0.23075251029465388,0.1993462039771359,0.2991177103755232,-0.48856051899673736
1592295457.5780275,-1.826517928868765,9.998373256408383,0.1272851091798729,-0.27111111111111114,-0.6644444444444444,0.2222222222222222,0.12984626507810815,0.27532913892683947,-0.5039750938828743
1592295457.5880275,-1.9591606674941386,9.94022783064405,-0.041678665011722515,-0.27111111111111114,-0.6644444444444444,0.2222222222222222,0.09500168794908158,0.15506537926437428,-0.5921288542777255
1592295457.5980275,-2.053753454722809,9.88284709803284,-0.03509917086652577,-0.27111111111111114,-0.6644444444444444,0.2222222222222222,0.08626217472436655,0.17744692064774875,-0.5760065798398015
1592295457.6080275,-2.2483701059284837,9.781497824857103,0.11286358049979517,-0.27111111111111114,-0.6644444444444444,0.2222222222222222,0.02280168515213437,0.11159134426733658,-0.6165693887947754
1592295457.6180274,-2.4225000000000003,9.766875,0.1835,-0.25344444444444447,-0.6688611111111111,0.23473611111111112,-0.044478625156292986,-0.004690572364734761,-0.6193328121471441
1592295457.6280274,-2.446148164726947,9.479580349149508,0.17,-0.24444444444444444,-0.6711111111111111,0.2411111111111111,-0.08827648205969585,0.009903659510288435,-0.4833511969117507
1592295457.6380274,-2.4986052792498983,9.517210558499796,0.29958774969425195,-0.24444444444444444,-0.6711111111111111,0.2411111111111111,-0.15113270385430705,-0.05681124981127282,-0.6135445107070008
1592295457.6480274,-2.5819239076258516,9.281342415683667,0.5567336766904801,-0.24444444444444444,-0.6711111111111111,0.2411111111111111,-0.05399983897382063,-0.02728055604891328,-0.7354883508564869
1592295457.6580274,-2.6634126081019573,9.326825216203913,0.5958428159611592,-0.24444444444444444,-0.6711111111111111,0.2411111111111111,-0.05267685732863225,-0.032421473582660745,-0.7717565722508438
1592295457.6680274,-2.862542967379867,9.409828130480532,0.6300736583654858,-0.2544526287072762,-0.6911274796367747,0.23610701897969524,-0.17238875974692153,-0.08618098840471737,-0.7010437713293279
1592295457.6780274,-2.8360494071146243,9.378090513833993,0.66,-0.2577777777777778,-0.6977777777777778,0.23444444444444446,-0.10931655052977281,-0.06726252314574452,-0.6938527553689849
1592295457.6880274,-2.716432801308443,9.680291579719135,0.5514624104675427,-0.2577777777777778,-0.6977777777777778,0.23444444444444446,-0.04024544839422786,-0.06520087102193427,-0.7787701867265185
1592295457.6980274,-2.6353772159772517,9.80035166836984,0.6288938996756565,-0.2577777777777778,-0.6977777777777778,0.23444444444444446,-0.04972345679849076,-0.11573757252622341,-0.8449495901901293
1592295457.7080274,-2.568265742345465,9.61959445407279,0.5471958405545927,-0.2577777777777778,-0.6977777777777778,0.23444444444444446,-0.013424087518715195,-0.05198433600909867,-0.950552212492956
1592295457.7180274,-2.609030288300878,9.444689977823009,0.5580605766017559,-0.23771769399803547,-0.7072178172035388,0.22323439762635316,-0.01035856781673678,0.025630198771687165,-1.0222437158927464
1592295457.7280273,-2.8633892718764153,9.480011573491671,0.3999189855582952,-0.22,-0.7155555555555555,0.21333333333333335,-0.19458240925314152,0.04690951106364068,-1.0803022866575773
1592295457.7380273,-2.895987014917976,9.450212122713982,0.48048917083808296,-0.22,-0.7155555555555555,0.21333333333333335,-0.17468073366250206,-0.03189381173284492,-1.261128351878297
1592295457.7480273,-3.101229007633588,9.24212643129771,0.38935233778625955,-0.22,-0.7155555555555555,0.21333333333333335,-0.13878193512872553,0.05169294070497815,-1.2916487742515979
1592295457.7580273,-3.211740310498317,9.191740310498318,0.3562338508305287,-0.22,-0.7155555555555555,0.21333333333333335,-0.1491860016973467,0.12475143954021242,-1.295091007811044
1592295457.7680273,-3.223062574190266,9.1745938612854,0.4771171782262167,-0.20260245322480358,-0.7313715071693705,0.18486462042846646,-0.22436763216203387,0.14407752908937715,-1.229001695049307
1592295457.7780273,-3.3170182296860666,9.155099126411105,0.37808089672503886,-0.19555555555555557,-0.7377777777777778,0.17333333333333334,-0.27426046184827074,0.1459541943106399,-1.1948135121346874
1592295457.7880273,-3.5849390827491656,9.145936780568562,0.5778827698595411,-0.19555555555555557,-0.7377777777777778,0.17333333333333334,-0.28463787252970946,0.23652709675405853,-1.2709213041611696
1592295457.7980273,-3.69720564888752,9.122981304646588,0.8272056488875198,-0.19555555555555557,-0.7377777777777778,0.17333333333333334,-0.2190194253614994,0.0925023624751066,-1.1767953199601786
1592295457.8080273,-3.8875693188368348,9.201702609767247,0.9066872055812844,-0.19555555555555557,-0.7377777777777778,0.17333333333333334,-0.2704667778223426,0.0127218782330645,-1.205312119093851
1592295457.8180273,-3.9493014550504135,8.974820684658576,1.0477344080178712,-0.17936018702999323,-0.749044121099908,0.17333333333333334,-0.21740966143299006,-0.04155384952748845,-1.2337481544507702
1592295457.8280272,-4.002660134947777,8.431141048156022,0.8344662168407431,-0.17,-0.7555555555555555,0.17333333333333334,-0.009053472027737819,-0.049185891698568365,-1.1309559427332962
1592295457.8380272,-4.073526807789211,8.26,0.45519626080199677,-0.17,-0.7555555555555555,0.17333333333333334,-0.059216605248690254,-0.07254416405064454,-1.1716487345451352
1592295457.8480272,-4.09,8.5064286224891,0.7162935163342627,-0.17,-0.7555555555555555,0.17333333333333334,-0.1813790599753325,-0.02006453352455112,-1.1083830287845733
1592295457.8580272,-4.178451808302156,8.751621236415465,1.0039800463210404,-0.17,-0.7555555555555555,0.17333333333333334,-0.15651429743162182,0.01900509793562728,-0.9924900456566222
1592295457.8680272,-4.274988540624294,8.737551567190676,0.8238674586009878,-0.14917621614642176,-0.7631909429685342,0.16500381979190204,-0.006592485606098777,0.04471406189053995,-0.8155895523608534
1592295457.8780272,-4.343973271353864,8.666825101685067,0.847794305636258,-0.13666666666666666,-0.7677777777777778,0.16,0.02792615540151734,0.05781403147231216,-0.7063876608641637
1592295457.8880272,-4.391766506005661,8.585563461097085,1.1989847754571188,-0.13666666666666666,-0.7677777777777778,0.16,-0.13922100276297494,0.13292187435177208,-0.6516279763760966
1592295457.8980272,-4.420109548377977,8.527252809385821,1.581536504346597,-0.13666666666666666,-0.7677777777777778,0.16,-0.05837814263462232,0.14830518692236994,-0.7737700876605899
1592295457.9080272,-4.502324246771879,9.149573170731708,1.7623852223816356,-0.13666666666666666,-0.7677777777777778,0.16,-0.10476005482216952,0.12974547911895615,-0.7893444041694208
1592295457.9180272,-4.638203760541137,8.657037456420037,1.0762197920081051,-0.12029937324314391,-0.7708087580413931,0.15575662763093856,-0.12929268585237896,0.08527342676942444,-0.6930621119493967
1592295457.9280272,-4.696793342467961,7.967200370758443,0.6003373095832998,-0.10666666666666667,-0.7733333333333333,0.15222222222222223,-0.07994658976888439,0.06376981632132492,-0.6727617304697995
1592295457.9380271,-4.719451176051319,9.08196995449312,1.3381166730632161,-0.10666666666666667,-0.7733333333333333,0.15222222222222223,-0.13630091808770206,0.13521134326476658,-0.7794625583199297
1592295457.9480271,-4.790230858329672,9.112882134441028,1.5432284219355354,-0.10666666666666667,-0.7733333333333333,0.15222222222222223,-0.07726660677162989,0.11902951879078323,-0.7386057620676816
1592295457.9580271,-4.624479912799751,8.766522000266939,1.0314741735996797,-0.10666666666666667,-0.7733333333333333,0.15222222222222223,-0.18171905263888652,0.026186199276019496,-0.6265698625347085
1592295457.968027,-4.767642354754793,8.623414587147124,1.3182117737739665,-0.09560972476474934,-0.780090353384505,0.14853657492158312,-0.11620411492640129,0.0981307336101646,-0.5740073703459282
1592295457.978027,-4.786281251258102,8.535625025162043,1.3221562864849632,-0.08666666666666667,-0.7855555555555556,0.14555555555555555,0.007563090497572049,0.17786905190433755,-0.5101486067607777
1592295457.988027,-4.991424827322613,7.8336763220399135,0.7859147123863606,-0.08666666666666667,-0.7855555555555556,0.14555555555555555,0.09516899244253164,0.13757803577722344,-0.45583390990084854
1592295457.998027,-5.234174654138533,8.063203172954342,1.4094166391236602,-0.08666666666666667,-0.7855555555555556,0.14555555555555555,0.18435027347864708,0.06496283857054871,-0.42273403778717644
1592295458.008027,-5.365239218194172,8.249848914824733,1.118539509972421,-0.08666666666666667,-0.7855555555555556,0.14555555555555555,0.1809570504304411,-0.04704855755931286,-0.36368082031959514
1592295458.018027,-5.410394873458793,7.638831927319922,0.7659789097988319,-0.07564330521306512,-0.7886176004037782,0.1247336505876415,0.1427010530647064,-0.0663525961366256,-0.3635032895720947
1592295458.028027,-5.341591749135567,7.296157147967092,0.8842124716823655,-0.06666666666666667,-0.7911111111111111,0.10777777777777778,0.14922986505736124,-0.03664980728595789,-0.37722585449805185
1592295458.038027,-5.098553758325404,8.426685696162385,0.9823882017126546,-0.06666666666666667,-0.7911111111111111,0.10777777777777778,0.16194599036632606,-0.0036385243702871037,-0.30291917614473024
1592295458.048027,-4.977505146345504,8.444208409246858,0.8783825095236968,-0.06666666666666667,-0.7911111111111111,0.10777777777777778,0.20943651621687037,0.055266015125908695,-0.31016304551601637
1592295458.058027,-5.142661827701095,8.062795494209107,0.8722455576709504,-0.06666666666666667,-0.7911111111111111,0.10777777777777778,0.22178170759953378,0.11895491943927405,-0.33576342168170514
1592295458.068027,-5.191470061062673,8.134084515599843,1.091100343287663,-0.04901114925418477,-0.7943212051861078,0.11901310704026627,0.14281336747109508,0.05812994391419747,-0.3469216357088683
1592295458.078027,-5.013436838108939,8.303299364584582,0.9213747352435759,-0.03,-0.7977777777777778,0.13111111111111112,0.06848240273384067,-0.05541466583795158,-0.29879377840455984
1592295458.088027,-5.4155709498465265,8.25802765340317,0.7720587986820986,-0.03,-0.7977777777777778,0.13111111111111112,0.044905237491528305,0.08489984729809516,-0.2758499739059053
1592295458.098027,-5.58,7.982511875356261,0.40869656089682693,-0.03,-0.7977777777777778,0.13111111111111112,0.10386810707001547,0.027940232497517526,-0.37642325634111456
1592295458.108027,-5.598840434686894,8.04239097804551,0.4147819560910201,-0.03,-0.7977777777777778,0.13111111111111112,0.1672290067817431,-0.0282032162648748,-0.3871660086340269
1592295458.118027,-5.62,8.075145565983528,0.5892236480878503,-0.033300985336993764,-0.8005285988919393,0.11680684131747147,0.09519843832124238,-0.04497812265150154,-0.30064537418053583
1592295458.128027,-5.634318546231961,8.081854623196152,0.6360876536611438,-0.03666666666666667,-0.8033333333333333,0.10222222222222223,0.006484933615023026,-0.016900006356079512,-0.24424464976549454
1592295458.138027,-5.705261133758941,7.980920185626747,0.43446529754121477,-0.03666666666666667,-0.8033333333333333,0.10222222222222223,-0.07781941997804076,8.138649788643447e-06,-0.35845049670549534
1592295458.148027,-5.621351576839646,8.05304521942266,0.8154747205072584,-0.03666666666666667,-0.8033333333333333,0.10222222222222223,-0.11050518085329064,-0.011424327392522951,-0.20942367471819873
1592295458.158027,-5.5727495042961,7.969246530072703,0.9734500991407798,-0.03666666666666667,-0.8033333333333333,0.10222222222222223,-0.02952116380063497,-0.017566004491080294,-0.19617194138951083
1592295458.168027,-5.65625544009237,7.80777008023211,0.9388444799715783,-0.0252987733270174,-0.8113855911155848,0.09653827555239759,0.020152095137134916,-0.06146909129025341,-0.2675359621513668
1592295458.178027,-5.877468395200902,8.357974877204283,0.8636709880022546,-0.01,-0.8222222222222222,0.08888888888888889,0.0045750948520728646,-0.11902027526606834,-0.22933691720919813
1592295458.188027,-5.611650669261314,7.628471086333395,0.49582533463065714,-0.01,-0.8222222222222222,0.08888888888888889,-0.04692436934668287,0.0009743668758791686,-0.1229088643067558
1592295458.198027,-5.644247049343509,7.726158221548087,0.568291463241219,-0.01,-0.8222222222222222,0.08888888888888889,0.07118196959179046,0.013993367760900169,-0.27858198251868727
1592295458.208027,-5.67936394497052,8.297453993210649,0.8468179381811685,-0.01,-0.8222222222222222,0.08888888888888889,-0.02621443530457135,0.07131055312460438,-0.222529479629277
1592295458.2180269,-5.595544557616782,8.496951690667007,0.9707110699575338,-0.013651031854997499,-0.819483948330974,0.09025802583451295,-0.17402629265809405,0.11109062623879956,-0.15756237205959123
1592295458.2280269,-5.790641750080724,8.224813125605426,0.9012835001614465,-0.01888888888888889,-0.8155555555555556,0.09222222222222222,-0.17061762814478956,0.1361356024056623,-0.0649120483540417
1592295458.2380269,-5.948491222603095,8.718037810325129,1.0415087773969045,-0.01888888888888889,-0.8155555555555556,0.09222222222222222,-0.21347956129883042,-0.021387059246434352,-0.0940926248771991
1592295458.2480268,-5.965704809681177,8.00031810941252,0.7281396067616082,-0.01888888888888889,-0.8155555555555556,0.09222222222222222,-0.28445571051918317,0.010125008280880005,0.0637511894144945
1592295458.2580268,-6.064769552521506,7.763279733249151,0.5248017125720148,-0.01888888888888889,-0.8155555555555556,0.09222222222222222,-0.3403134851193796,0.04846304794279906,0.18866344953122882
1592295458.2680268,-6.187542745191166,8.037066017573023,0.7277873426739492,-0.010645201720362015,-0.8198736774057364,0.09222222222222222,-0.33700939849037725,0.09068162297224974,0.333763587589242
1592295458.2780268,-6.058845395937234,7.819522199245834,0.7397146332562948,0.0044444444444444444,-0.8277777777777777,0.09222222222222222,-0.3614544027249099,-0.010677403588533429,0.5457925180272101
1592295458.2880268,-6.12,7.58,0.49,0.0044444444444444444,-0.8277777777777777,0.09222222222222222,-0.25416357232167425,-0.022907446432425576,0.5835944686356039
1592295458.2980268,-6.061940163191296,7.885965548504079,0.7639347234814143,0.0044444444444444444,-0.8277777777777777,0.09222222222222222,-0.34166540910655313,-0.0774143717064892,0.5678649458834678
1592295458.3080268,-6.1226477499602465,7.869515362462234,0.9078900687291295,0.0044444444444444444,-0.8277777777777777,0.09222222222222222,-0.27571715048826423,-0.1867422355357783,0.6519622238459468
1592295458.3180268,-5.827860194635652,7.688060764300974,0.77,0.004234380357095762,-0.8242066882928502,0.08823100456259725,-0.30513486087449526,-0.1546479836660039,0.7400401352170773
1592295458.3280268,-5.69,7.98,0.77,0.0033333333333333335,-0.8088888888888889,0.07111111111111111,-0.5050546522958591,-0.05999569303730508,1.0133817969392076
1592295458.3380268,-5.822048618605655,8.046420785668033,1.2007141700841788,0.0033333333333333335,-0.8088888888888889,0.07111111111111111,-0.39880224814130605,-0.07566891006033133,0.9612591038515378
1592295458.3480268,-5.59890317358284,8.043937337809204,0.9238047282336976,0.0033333333333333335,-0.8088888888888889,0.07111111111111111,-0.4264863465299209,-0.10026527621397786,1.0481051874372822
1592295458.3580267,-5.4722420104181335,7.676239617063213,1.14568210615233,0.0033333333333333335,-0.8088888888888889,0.07111111111111111,-0.4391169799229266,-0.044479496684476955,1.157073835273583
1592295458.3680267,-5.185970613470614,7.7179118404118405,0.8513431288431288,0.0007963121852010745,-0.8114259100370211,0.07006645534423313,-0.36065298317131067,-0.08215341754089131,1.2922430229684854
1592295458.3780267,-4.9983669748005575,7.779183993921742,1.0126534126883626,-0.015555555555555555,-0.8277777777777777,0.06333333333333334,-0.48397232033259513,-0.1471063700277396,1.404389144718799
1592295458.3880267,-4.8,7.95,1.2,-0.015555555555555555,-0.8277777777777777,0.06333333333333334,-0.29343348049154666,-0.17235126363444003,1.4933473412376481
1592295458.3980267,-4.9864469428213685,8.209331959515861,1.2850133034223707,-0.015555555555555555,-0.8277777777777777,0.06333333333333334,-0.35256663300532776,-0.20227962432330185,1.5249765966691675
1592295458.4080267,-4.757305122101736,7.880283170237151,1.3177298774574626,-0.015555555555555555,-0.8277777777777777,0.06333333333333334,-0.3790289899767265,-0.10607366239766863,1.5753994730585676
1592295458.4180267,-4.624464354281326,8.203230513247151,1.7236904304791159,-0.02105939293959261,-0.8264616427511602,0.057470550032946044,-0.30883970262457544,-0.09943202515351511,1.5772574945079532
1592295458.4280267,-4.33,8.23,1.92,-0.06666666666666667,-0.8155555555555556,0.008888888888888889,-0.27379852640661045,-0.2454369260617026,1.5675238344474072
1592295458.4380267,-4.193290193858017,8.200012132977433,1.493362991722613,-0.06666666666666667,-0.8155555555555556,0.008888888888888889,-0.23962254417262302,-0.2527120723950716,1.6010071542812605
1592295458.4480267,-3.926312886672102,8.367374226655796,1.4582897702748068,-0.06666666666666667,-0.8155555555555556,0.008888888888888889,-0.203638033629365,-0.2514864305235499,1.6533362396508977
1592295458.4580266,-3.85,8.52,1.2,-0.06666666666666667,-0.8155555555555556,0.008888888888888889,-0.1287180323345818,-0.22907446432425577,1.5086189721925987
1592295458.4680266,-3.731574897811974,8.482808367396009,2.0021231065159895,-0.07187598514600198,-0.8140068392508883,0.007903342149555181,-0.09810002005848448,-0.31069609400719206,1.8508557865049386
1592295458.4780266,-3.139842702248085,8.872804764394335,1.8362844088832315,-0.10777777777777778,-0.8033333333333333,0.0011111111111111111,-0.027227873254959782,-0.1448088587840908,1.711384114539088
1592295458.4880266,-2.8787593676086143,9.234783269015312,1.8331689281712933,-0.10777777777777778,-0.8033333333333333,0.0011111111111111111,-0.0010223364408194734,-0.1390980483537174,1.784292592309781
1592295458.4980266,-2.7353278163754062,9.066721124890332,1.5381144334052592,-0.10777777777777778,-0.8033333333333333,0.0011111111111111111,-0.06135477616242053,-0.16519833341242277,1.8396323788552038
1592295458.5080266,-2.6254975079565246,8.857175884225065,1.3923617366240317,-0.10777777777777778,-0.8033333333333333,0.0011111111111111111,-0.04597387000465292,-0.20520994537858597,1.6673825703891973
1592295458.5180266,-2.4348683741864456,8.962128031603147,1.719686882751028,-0.12130722763692359,-0.7995911450744206,-0.00263107714780156,0.02976919343862499,-0.14880485308404143,1.5386094188780441
1592295458.5280266,-2.22,9.34,1.49,-0.16,-0.7888888888888889,-0.013333333333333334,0.05563236990731925,-0.11890055529211369,1.6493361431346414
1592295458.5380266,-2.1171959220753003,9.20222670838801,1.8135979610376503,-0.16,-0.7888888888888889,-0.013333333333333334,0.015766452145678057,-0.11973158843341701,1.547920370985646
1592295458.5480266,-1.9882574430823117,9.382197898423819,1.6779246935201402,-0.16,-0.7888888888888889,-0.013333333333333334,0.027072089349837618,-0.1975626363780578,1.4798132069493888
1592295458.5580266,-1.899036645863338,9.16907225156025,1.6939874379900783,-0.16,-0.7888888888888889,-0.013333333333333334,0.08114478797795809,-0.16932206547851802,1.3937820190425452
1592295458.5680265,-1.552977393262422,9.208850108144944,1.9129773932624219,-0.17396304307032878,-0.7888888888888889,-0.013333333333333334,0.05873240297788642,-0.10900020988644685,1.4491160615007268
1592295458.5780265,-1.3,9.28,1.66,-0.22666666666666666,-0.7888888888888889,-0.013333333333333334,0.22689280275926282,-0.21162117180431245,1.5086189721925987
1592295458.5880265,-0.8511722009010512,9.599971077368041,1.4761505089270817,-0.22666666666666666,-0.7888888888888889,-0.013333333333333334,-0.016283526821821506,-0.15603457929425632,1.270814706638646
1592295458.5980265,-0.61,9.98,1.52,-0.22666666666666666,-0.7888888888888889,-0.013333333333333334,0.04908738521234052,-0.10581058590215622,1.3122694313432366
1592295458.6080265,-0.9190172010515204,9.815080209476102,1.411475647368094,-0.22666666666666666,-0.7888888888888889,-0.013333333333333334,-0.013930756495333483,-0.027413922615774557,1.1620748508881737
1592295458.6180265,-1.0697826998097817,9.563478415062708,1.4819566689234935,-0.23545897769323632,-0.7866908111322465,-0.010797089767976702,-0.06668297071181054,-0.030922627794763565,1.2018583438993473
1592295458.6280265,-1.18,9.75,1.66,-0.28444444444444444,-0.7744444444444445,0.0033333333333333335,-0.07963064712224129,0.03381575425739013,1.1519173063162573
1592295458.6380265,-1.4358732416627153,9.51552394499763,1.5575291080554239,-0.28444444444444444,-0.7744444444444445,0.0033333333333333335,0.01328048116720713,-0.03261061640854389,1.2332441691566056
1592295458.6480265,-1.047990727532097,9.373646695197337,1.5627066096053257,-0.28444444444444444,-0.7744444444444445,0.0033333333333333335,0.01909910874976837,-0.06910773505162521,1.228323363241634
1592295458.6580265,-0.6479545722482021,9.419852241914567,1.5717841002868709,-0.28444444444444444,-0.7744444444444445,0.0033333333333333335,0.13460604086056063,-0.0777489672374429,1.1234019857219673
1592295458.6680264,-0.49431145857488323,9.592844270712558,1.5100450525060456,-0.28713070011741626,-0.7685978879797412,-0.0018811629730237076,0.11955548016381232,-0.06651119093602989,1.183120407563899
1592295458.6780264,-0.46,9.61,1.45,-0.30333333333333334,-0.7333333333333333,-0.03333333333333333,0.07744898555724837,-0.10581058590215622,1.1344640137963142
1592295458.6880264,-0.49522643482088813,9.739570241567161,1.258687613492544,-0.30333333333333334,-0.7333333333333333,-0.03333333333333333,0.08437404731791619,-0.01337880875194355,1.2001792604217085
1592295458.6980264,-0.663705499731891,9.941490686125942,1.1922269367962137,-0.30333333333333334,-0.7333333333333333,-0.03333333333333333,0.24779177573731498,-0.12674178051547338,1.3942121270265275
1592295458.7080264,-0.4251976144748812,12.362562417871223,1.6348023855251188,-0.30333333333333334,-0.7333333333333333,-0.03333333333333333,0.3110701401995311,-0.09572913949819045,1.548761170094638
1592295458.7180264,0.3180937256547013,17.652051896686043,2.866986276742374,-0.3085538309928554,-0.7309347263005799,-0.029664875518534056,-0.5384886451959184,0.26517516489742343,1.1079376788806978
1592295458.7280264,-1.07,7.01,4.84,-0.34444444444444444,-0.7144444444444444,-0.0044444444444444444,0.22907446432425577,-0.28907015736156083,1.0155634585042006
1592295458.7380264,-0.1035752801860858,10.988511577500528,0.6366179424825544,-0.34444444444444444,-0.7144444444444444,-0.0044444444444444444,-0.14751646752911343,0.009204216313114189,0.9192742579415768
1592295458.7480264,-1.0171205022711598,9.037139765511665,2.4020507027515516,-0.34444444444444444,-0.7144444444444444,-0.0044444444444444444,0.13566402685704348,-0.18681221034117967,1.0062591899891677
1592295458.7580264,0.6495753715498939,9.92790415529269,1.1591671216257202,-0.34444444444444444,-0.7144444444444444,-0.0044444444444444444,0.08965060776764776,-0.10108385102467446,0.9649523510941926
1592295458.7680264,0.08721573795180723,9.178332078313254,1.2139834337349398,-0.3473757530120482,-0.7101807228915663,-0.006176581325301205,-0.03339026453951877,-0.11087457067180281,0.896658385464117
1592295458.7780263,-0.08,9.9,1.39,-0.3688888888888889,-0.6788888888888889,-0.01888888888888889,0.0818123086872342,-0.0839939702522271,0.9446594576419308
1592295458.7880263,-0.12370694203663223,9.633956433255445,1.21480791939901,-0.3688888888888889,-0.6788888888888889,-0.01888888888888889,0.05970797309170954,-0.1486281813112807,0.9087039473060038
1592295458.7980263,-0.4254517866804676,9.593254604907196,1.1549281328659813,-0.3688888888888889,-0.6788888888888889,-0.01888888888888889,0.06211463869666809,-0.26774408068545374,0.9261937292215285
1592295458.8080263,0.0,9.75,1.14,-0.3688888888888889,-0.6788888888888889,-0.01888888888888889,0.04908738521234052,-0.25634523388666713,0.9424777960769379
1592295458.8180263,-0.2851671924290221,10.085521766561515,1.1962006309148265,-0.36950129688047667,-0.6786400981423063,-0.018774062390466178,-0.0165503461561355,-0.10849513078119973,1.0577477774719515
1592295458.8280263,-0.58,9.83,1.55,-0.40444444444444444,-0.6644444444444444,-0.012222222222222223,-0.0272707695624114,-0.38615409700374537,1.0995574287564276
1592295458.8380263,0.7378646826187157,9.83176743392039,0.7530190343414801,-0.40444444444444444,-0.6644444444444444,-0.012222222222222223,-0.2426030689163364,-0.09499060722070277,1.2692049081339254
1592295458.8480263,0.19,9.43,1.1,-0.40444444444444444,-0.6644444444444444,-0.012222222222222223,-0.07526732399225547,-0.18762289458939044,1.275181184738357
1592295458.8580263,0.7138295699534778,9.839382956995347,1.5352987631907409,-0.40444444444444444,-0.6644444444444444,-0.012222222222222223,-0.2530631118291042,-0.11456713624893727,1.28745168808059
1592295458.8680263,0.6205792180071796,9.83057921800718,1.9037818957989716,-0.4052167351206839,-0.6640368465875403,-0.012801440229401809,-0.10274436397235248,0.00016414849555176122,1.2099673475532895
1592295458.8780262,0.65,9.86,1.08,-0.4444444444444444,-0.6433333333333333,-0.042222222222222223,-0.05781403147231216,-0.04690572364734761,1.27736284630335
1592295458.8880262,0.7480099186164801,9.503243896236011,1.1270447609359104,-0.4444444444444444,-0.6433333333333333,-0.042222222222222223,0.04524936424071102,-0.05973519199336709,1.236736196540955
1592295458.8980262,0.8961639538826721,8.963963207867073,1.1981586978636827,-0.4444444444444444,-0.6433333333333333,-0.042222222222222223,0.20104235110023932,-0.07912850985969841,1.1753240232975724
1592295458.9080262,0.9592990988129739,9.630418238119814,1.4725324546428997,-0.4444444444444444,-0.6433333333333333,-0.042222222222222223,0.17462605440653758,-0.29610534250286413,1.216476113972494
1592295458.9180262,1.3002295918367348,9.191505102040816,1.1919132653061224,-0.44452947845804985,-0.6432454648526077,-0.042185374149659866,0.2710992767662493,-0.14884552991059422,1.2228435690312311
1592295458.9280262,1.39,9.78,1.94,-0.4777777777777778,-0.6088888888888889,-0.027777777777777776,0.06872233929727672,-0.34143003492139073,1.2315479534384988
1592295458.9380262,1.8068472515856238,8.660634249471459,1.4590089852008457,-0.4777777777777778,-0.6088888888888889,-0.027777777777777776,0.2786328901017652,-0.0882587034964799,1.184229420678959
1592295458.9480262,1.8667494715842972,9.925559408174413,1.3977797040872064,-0.4777777777777778,-0.6088888888888889,-0.027777777777777776,0.03566804487292904,-0.017395210903718976,1.1590164238261504
1592295458.9580262,1.548676453340631,9.479017944407522,1.2331256108526525,-0.4777777777777778,-0.6088888888888889,-0.027777777777777776,0.0690241419262977,-0.24781516233610235,1.1568358319935406
1592295458.9680262,2.032400797529223,9.528210250596192,1.5774717541733454,-0.4777777777777778,-0.6088888888888889,-0.027777777777777776,-0.000734484482072667,-0.3381436401212998,1.1836660729198372
1592295458.9780262,1.62,8.7,1.43,-0.51,-0.5633333333333334,-0.027777777777777776,0.39706240482870997,-0.4341506514335895,1.210822168571066
1592295458.9880261,2.5269879047990638,9.472916504096762,1.0288782676550916,-0.51,-0.5633333333333334,-0.027777777777777776,0.06023318175233942,-0.2839273349814219,1.1346561753641242
1592295458.9980261,2.027333046306927,9.60656907768848,0.9997072330654421,-0.51,-0.5633333333333334,-0.027777777777777776,0.23706157490447521,-0.13680444692260316,1.2275234537045496
1592295459.0080261,2.3794961923770033,9.604728428313988,1.1189923847540064,-0.51,-0.5633333333333334,-0.027777777777777776,0.11079961432063896,-0.06262988228696222,1.1863123907049604
1592295459.018026,2.436387893115275,9.393416397000408,1.2327757862305502,-0.51,-0.5633333333333334,-0.027777777777777776,0.07533720378699132,-0.16990367415124635,1.2616700130889618
1592295459.028026,2.7715454586904977,9.348908900237097,1.22,-0.5288888888888889,-0.5422222222222223,-0.013333333333333334,0.15570119798491106,-0.029908568693803865,1.1484761808405513
1592295459.038026,2.8701341579448143,8.985422454804949,1.19573311132255,-0.5288888888888889,-0.5422222222222223,-0.013333333333333334,0.11399425583114497,0.04706104508084009,1.0371569779822003
1592295459.048026,3.478609505923144,9.22470745449292,1.058146489453915,-0.5288888888888889,-0.5422222222222223,-0.013333333333333334,0.12703655812926007,0.20740952804851803,0.9639059549399769
1592295459.058026,2.8696422075196386,9.531749385356493,1.3700395770453138,-0.5288888888888889,-0.5422222222222223,-0.013333333333333334,0.14341717827033879,0.2504941387122098,0.94840694946166
1592295459.068026,3.028933218733135,9.22155110036179,0.8837828059725359,-0.5288888888888889,-0.5422222222222223,-0.013333333333333334,0.244929329655288,0.04381174039690791,1.120337440095628
1592295459.078026,3.07,9.12,0.38,-0.5722222222222222,-0.49,-0.021111111111111112,-0.05126904677733343,-0.17016960206944715,1.0570150282390658
1592295459.088026,3.4232037275064267,9.30641307840617,0.9588616645244216,-0.5722222222222222,-0.49,-0.021111111111111112,0.15956773987802936,0.049229084551615676,0.9970817284791657
1592295459.098026,3.3282705142363276,8.981235895712295,0.3540730782157776,-0.5722222222222222,-0.49,-0.021111111111111112,0.1128270051711615,0.04092713085143819,0.8827377493184712
1592295459.108026,3.787709025594971,8.485859003143242,0.702378985181859,-0.5722222222222222,-0.49,-0.021111111111111112,0.0877565772296967,-0.2335387884903219,0.9637273952410934
1592295459.118026,4.217120969914683,8.538593803322856,0.4537720700493938,-0.5722222222222222,-0.49,-0.021111111111111112,0.16089517948227233,-0.06753881483840862,0.9193511646608791
1592295459.128026,4.5,8.97,1.16,-0.5844444444444444,-0.4666666666666667,-0.006666666666666667,0.016362461737446838,0.025089107997418484,0.6523168079328807
1592295459.138026,4.404296379545637,9.500720077065104,0.8554884803724814,-0.5844444444444444,-0.4666666666666667,-0.006666666666666667,0.02585304857271744,0.2927236567520495,0.816503960183062
1592295459.148026,4.017983286105375,8.977596657221076,0.749226742231401,-0.5844444444444444,-0.4666666666666667,-0.006666666666666667,-0.03861297876294081,0.19156750970277225,0.7811309775560595
1592295459.158026,3.874872138312684,8.965383585061948,0.973845896265487,-0.5844444444444444,-0.4666666666666667,-0.006666666666666667,-0.017425397427058037,0.34245058006667933,0.49638379622165796
1592295459.168026,3.8157360638691595,9.14279180839252,1.0181979520981301,-0.5844444444444444,-0.4666666666666667,-0.006666666666666667,-0.004523907355258429,0.404539001037215,0.5221867763652572
1592295459.178026,3.846541578497141,8.854384989419657,0.6780750529017153,-0.5911111111111111,-0.41333333333333333,-0.013333333333333334,-0.012372096554526799,0.18536719640269594,0.5786631139523177
1592295459.188026,4.06,8.88,0.55,-0.5911111111111111,-0.41333333333333333,-0.013333333333333334,-0.2694352032766246,0.2868884957965679,0.7537640707050511
1592295459.198026,4.180965699631352,8.836797964417375,1.0338627985254047,-0.5911111111111111,-0.41333333333333333,-0.013333333333333334,-0.3966757010327192,0.20300401949810556,0.7094655270418182
1592295459.208026,3.9354937111464507,8.84244614717363,1.321716784733266,-0.5911111111111111,-0.41333333333333333,-0.013333333333333334,-0.2222486896613379,0.3341452660424173,0.4073714417308053
1592295459.218026,4.056768830417811,8.67569285817551,1.3596152595055662,-0.5911111111111111,-0.41333333333333333,-0.013333333333333334,-0.3123716835643508,0.2696535823320044,0.3941423784055924
1592295459.228026,4.224922969536821,8.824027022984493,1.854176347409882,-0.6055555555555555,-0.4011111111111111,-0.021111111111111112,-0.3960514678697907,0.17279002702566457,0.4297394953438785
1592295459.238026,3.9143019310109124,8.432370920098625,1.495487391060225,-0.6055555555555555,-0.4011111111111111,-0.021111111111111112,-0.17619530838494482,0.06266329264685028,0.5549868634871244
1592295459.248026,4.3,8.47,1.9,-0.6055555555555555,-0.4011111111111111,-0.021111111111111112,-0.02945243112740431,0.13962634015954636,0.30870511144649704
1592295459.258026,4.223430425963489,8.374288032454361,1.9765695740365112,-0.6055555555555555,-0.4011111111111111,-0.021111111111111112,-0.09418387860769684,0.18347667554942193,0.534221122023
1592295459.2680259,4.441418113912231,8.49216171802054,1.68223081232493,-0.6055555555555555,-0.4011111111111111,-0.021111111111111112,-0.008800672012793165,0.1654525686554787,0.44854554369799554
1592295459.2780259,4.59,8.16,1.75,-0.6266666666666667,-0.37333333333333335,-0.013333333333333334,0.31306843457648287,0.26289021858164585,0.6850417314077744
1592295459.2880259,4.414577052597819,8.41260904425914,1.693864656831302,-0.6266666666666667,-0.37333333333333335,-0.013333333333333334,0.23116774515594907,0.21313746332618141,0.7034119795020997
1592295459.2980258,4.881682061943349,7.965719010607385,1.5451220203642893,-0.6266666666666667,-0.37333333333333335,-0.013333333333333334,0.3879687895795642,0.1633695430026394,0.6550471190610418
1592295459.3080258,4.98212289492249,8.300589693034025,1.25976412278639,-0.6266666666666667,-0.37333333333333335,-0.013333333333333334,0.3676577048241257,0.2755878022302231,0.560374530350305
1592295459.3180258,5.255253513738401,8.376459309371779,1.2294162762512888,-0.6266666666666667,-0.37333333333333335,-0.013333333333333334,0.5141445207587538,0.2251036453261987,0.6605152350287796
1592295459.3280258,5.1,8.39,1.28,-0.6355555555555555,-0.3477777777777778,-0.03,0.39706240482870997,0.3239767424014474,0.3567016658763411
1592295459.3380258,5.223490497371613,8.791344116457743,1.3031544682571776,-0.6355555555555555,-0.3477777777777778,-0.03,0.4206361711074918,0.1951629480923893,0.4501548107672264
1592295459.3480258,4.855976871080706,8.791749328121181,0.8862684257675706,-0.6355555555555555,-0.3477777777777778,-0.03,0.3125882700370746,0.13128133809222922,0.3326684756801078
1592295459.3580258,5.544415295047797,8.740398907496585,1.0288032775102423,-0.6355555555555555,-0.3477777777777778,-0.03,0.28924421359221864,0.0973537267997042,0.1671204034809278
1592295459.3680258,5.406441684371085,8.732444299177425,1.0375557008225744,-0.6355555555555555,-0.3477777777777778,-0.03,0.2643441842397667,0.36824544487786054,0.20536783593433194
1592295459.3780258,4.76186902803542,8.799781946729201,0.6512148682230233,-0.6433091051921335,-0.3411318780892824,-0.03,0.3085420079813462,0.35483601727507796,-0.1646101868616884
1592295459.3880258,4.944799121155054,8.707600439422473,0.7093997175141243,-0.6433333333333333,-0.3411111111111111,-0.03,0.23887045686214078,0.28540529461961417,-0.09165195499937168
1592295459.3980258,4.855672137838547,8.611492667852248,0.44895600711349526,-0.6433333333333333,-0.3411111111111111,-0.03,-0.0457979425483277,0.2318097302232826,0.024860962461322467
1592295459.4080257,5.080221534566425,8.57162974423893,0.8428876854912442,-0.6433333333333333,-0.3411111111111111,-0.03,0.14640909461366547,0.06488068782640732,0.06703345287302759
1592295459.4180257,5.176064433265546,8.519795747261764,0.824139819472689,-0.6433333333333333,-0.3411111111111111,-0.03,0.05710449915181966,0.15560750343498925,-0.0408063493009216
1592295459.4280257,5.53,8.38,0.97,-0.6355555555555555,-0.31444444444444447,-0.03666666666666667,0.04690572364734761,0.4428772976935611,-0.14398966328953217
1592295459.4380257,5.726417575368826,8.071343810134703,0.8928359525336754,-0.6355555555555555,-0.31444444444444447,-0.03666666666666667,0.08363572435059902,0.2079583348623489,-0.03303445283179353
1592295459.4480257,5.316073021642161,8.091977531802412,0.8125070213117462,-0.6355555555555555,-0.31444444444444447,-0.03666666666666667,0.08475969633761078,0.41572465791438556,-0.242780943231299
1592295459.4580257,5.585744245767548,8.138160547840975,0.6668979455963477,-0.6355555555555555,-0.31444444444444447,-0.03666666666666667,0.20367073350508336,0.41323697475075816,-0.2459385588212014
1592295459.4680257,5.131194475020417,8.012143947732842,0.8162685083265278,-0.6355555555555555,-0.31444444444444447,-0.03666666666666667,0.061447067736957656,0.43402926295678146,-0.11526556302297591
1592295459.4780257,4.91,8.24,0.81,-0.6522222222222223,-0.30666666666666664,-0.044444444444444446,-0.05999569303730508,0.23780111058422737,-0.07963064712224129
1592295459.4880257,5.032874388385337,8.181796342343787,0.8229341461458249,-0.6522222222222223,-0.30666666666666664,-0.044444444444444446,-0.04306493532389654,0.2293357317275231,0.002201348492566646
1592295459.4980257,5.072542400972322,8.296440528147617,0.9947455941660681,-0.6522222222222223,-0.30666666666666664,-0.044444444444444446,0.13491155992091908,0.08992896714650811,0.014957356465655922
1592295459.5080256,5.097626436100912,8.438923368470922,1.0284176240672747,-0.6522222222222223,-0.30666666666666664,-0.044444444444444446,-0.1729225835112847,0.18292416974065998,-0.0422452418297221
1592295459.5180256,4.913961445783133,8.332864614011601,1.133354752342704,-0.6522222222222223,-0.30666666666666664,-0.044444444444444446,0.004478568599001392,0.14989566744689434,-0.10027052845710144
1592295459.5280256,5.2198410174880765,8.318033269998837,1.2275415874985458,-0.6701823774994506,-0.3003277883335272,-0.057122201110723345,-0.06471872088536258,0.06970509793082291,-0.182437715547818
1592295459.5380256,5.112837584321239,8.389939328623319,1.3062974494072566,-0.6711111111111111,-0.3,-0.057777777777777775,0.046207240135879596,-0.022235435803077783,-0.13897248609573165
1592295459.5480256,5.382870260907816,8.43,1.1334503615319056,-0.6711111111111111,-0.3,-0.057777777777777775,-0.035068141838207,0.19758195500755382,-0.037552883596967526
1592295459.5580256,4.965024252134407,8.244639510128833,0.9920433246274389,-0.6711111111111111,-0.3,-0.057777777777777775,-0.008991507242496026,0.18645341711724445,-0.17007120392805916
1592295459.5680256,5.243319337310483,8.256240642930425,0.8444896834745602,-0.6711111111111111,-0.3,-0.057777777777777775,0.027732435909466367,0.14286716496446525,-0.1804967441687825
1592295459.5780256,5.521292568592306,8.321496622087412,0.78,-0.6729554054261072,-0.2834013511650352,-0.0504006005177934,-0.004534023934912541,0.25019361302894466,-0.11712699648850285
1592295459.5880256,5.032402770997512,8.157933142711022,0.8058100285933468,-0.6733333333333333,-0.28,-0.04888888888888889,0.12377563089255447,-0.0815803578499491,-0.0701483792322901
1592295459.5980256,5.656807956137978,8.509909276424164,1.1280635802620904,-0.6733333333333333,-0.28,-0.04888888888888889,-0.0051389707847095956,0.04830682958345217,-0.1674813195647311
1592295459.6080256,5.020268755691503,8.221196207999627,0.6313888434865856,-0.6733333333333333,-0.28,-0.04888888888888889,0.04882641311068832,0.012437029723174918,-0.15643940285837607
1592295459.6180255,5.098661672160623,8.438480071920887,0.7531741084806712,-0.6733333333333333,-0.28,-0.04888888888888889,0.0837416114376969,0.05076432914827303,-0.25798988112457427
1592295459.6280255,5.0870215060792265,8.85347431036737,1.2448924696038697,-0.6917729986490609,-0.30663507212271757,-0.06118199909937392,0.11987526514839134,-0.05799935433828865,-0.45167314589329044
1592295459.6380255,5.236214640296273,9.094795130407377,1.2018926798518634,-0.6933333333333334,-0.3088888888888889,-0.06222222222222222,0.12217304763960307,-0.07298243275507138,-0.5151050192607269
1592295459.6480255,4.486657413119474,8.002503598601686,0.7263217149907465,-0.6933333333333334,-0.3088888888888889,-0.06222222222222222,-0.06427203906757611,0.017491425613306327,-0.6877741357814706
1592295459.6580255,4.426020813983949,9.149128860946393,1.794076825986521,-0.6933333333333334,-0.3088888888888889,-0.06222222222222222,0.10090612071720188,0.22148405791557638,-0.8466478273499944
1592295459.6680255,5.525042728232505,9.484971414912053,0.39914304495926367,-0.6933333333333334,-0.3088888888888889,-0.06222222222222222,-0.027605791354896214,-0.024713517669029572,-0.8142163607669691
1592295459.6780255,4.63999259478673,8.442446682464455,0.9087485189573459,-0.6869251908899421,-0.29241080832016847,-0.06588401790416008,-0.009652366103529805,-0.2616011577384084,-0.7462995053207995
1592295459.6880255,4.738431024752076,8.378191566556477,1.060648230266871,-0.6855555555555556,-0.28888888888888886,-0.06666666666666667,-0.025617857063319368,-0.23574961345994194,-0.6829902342834889
1592295459.6980255,4.9271255632882704,8.007008505986187,1.1731045516358691,-0.6855555555555556,-0.28888888888888886,-0.06666666666666667,0.05846667422349623,-0.2762690750294855,-0.6857692427943781
1592295459.7080255,5.335771725651054,8.102885862825527,0.9888591052179719,-0.6855555555555556,-0.28888888888888886,-0.06666666666666667,0.07176788306739083,-0.33201520690237674,-0.7332505883754404
1592295459.7180254,5.284826305701964,8.177652132247244,1.2994777192141829,-0.6855555555555556,-0.28888888888888886,-0.06666666666666667,-0.038359140254922694,-0.15826559101465232,-0.7813952273419863
1592295459.7280254,5.2449907200603985,7.815139199094026,1.6016140803422567,-0.69203463112677,-0.3175819378471239,-0.08517831115585056,0.08284037783831141,-0.12560946142683527,-0.6968971942630471
1592295459.7380254,5.391315832249675,8.130031697009102,1.505642067620286,-0.6933333333333334,-0.3233333333333333,-0.08888888888888889,0.01312897829310268,-0.12478070415826108,-0.8255338919039479
1592295459.7480254,5.074635894274485,8.494205902751021,1.41,-0.6933333333333334,-0.3233333333333333,-0.08888888888888889,0.1094292323039201,-0.1245981434302344,-0.9455489676473541
1592295459.7580254,4.929366845376476,8.306834226882383,1.4750130473976373,-0.6933333333333334,-0.3233333333333333,-0.08888888888888889,0.12523549412047186,0.1500447393548619,-1.1578228634685241
1592295459.7680254,4.92,8.220180116959064,1.728919298245614,-0.6933333333333334,-0.3233333333333333,-0.08888888888888889,0.2564502768509076,0.12620537911344193,-1.1413037141763884
1592295459.7780254,4.795270283924421,8.382936916910849,1.0350991883062206,-0.686865866573859,-0.333496495383936,-0.08242142212941445,0.3760467090217778,0.28680788946007546,-1.1282393970385343
1592295459.7880254,4.796347412496443,8.393652587503556,1.0632143583072482,-0.6855555555555556,-0.33555555555555555,-0.0811111111111111,0.3784899453796782,0.20379760164034227,-1.1749141956401947
1592295459.7980254,4.321935563274348,8.62173016437382,1.1560410797801057,-0.6855555555555556,-0.33555555555555555,-0.0811111111111111,0.26289663295186266,0.06487723761224792,-1.2016556755199026
1592295459.8080254,4.122373330807842,8.850817785775169,0.7051733118666541,-0.6855555555555556,-0.33555555555555555,-0.0811111111111111,0.23125612588924865,0.1652846244232935,-1.2236745808642957
1592295459.8180254,3.8312275060416625,9.009473925982146,0.7061990453174619,-0.6855555555555556,-0.33555555555555555,-0.0811111111111111,0.12482335968617701,0.05875468756420668,-1.2735418339812072
1592295459.8280253,3.4292595986438195,9.062331164665995,0.6909804819939522,-0.691520205259782,-0.3611183400022399,-0.0691818117026584,0.08094248284014502,0.14043179369618675,-1.134200427177287
1592295459.8380253,3.3967733567466176,9.24709342698647,0.9319307977810591,-0.6933333333333334,-0.3688888888888889,-0.06555555555555556,0.03909477099311608,0.13697050655149356,-1.0792540105031858
1592295459.8480253,3.7761109785519236,9.262816617619768,0.630865876613908,-0.6933333333333334,-0.3688888888888889,-0.06555555555555556,0.039292436794161625,0.08677600953255252,-1.0276133515861514
1592295459.8580253,3.031840439904245,9.021030551539429,1.109190111635183,-0.6933333333333334,-0.3688888888888889,-0.06555555555555556,0.014889681175380802,-0.02708032469161266,-0.9751855262530154
1592295459.8680253,2.7511262900435485,8.937605241702958,1.2611262900435483,-0.6933333333333334,-0.3688888888888889,-0.06555555555555556,-0.01934331535935676,-0.11300149235022569,-1.0328485788382444
1592295459.8780253,2.891855938941008,8.966244553983145,1.3710262362855778,-0.6822003851522058,-0.403144114061589,-0.0766885037366831,-0.0669455807977409,-0.07034427579705799,-1.0869199919649013
1592295459.8880253,2.94,9.083600097299927,1.2804998783750912,-0.6788888888888889,-0.41333333333333333,-0.08,-0.08648979957359944,-0.07960013251752539,-1.1597277184015855
1592295459.8980253,2.7278833751125604,9.377487892136582,0.8820540777337,-0.6788888888888889,-0.41333333333333333,-0.08,-0.02149790690686236,-0.04575810669230474,-1.182129753594975
1592295459.9080253,2.39781089512839,9.37582673386129,0.7651653467722582,-0.6788888888888889,-0.41333333333333333,-0.08,-0.01396436175369509,-0.12242733922158461,-1.2149261216172271
1592295459.9180253,2.4427442831657475,9.539634690236783,0.9243500648718781,-0.6788888888888889,-0.41333333333333333,-0.08,-0.15518436726808316,-0.06950917132111728,-1.0839882783936823
1592295459.9280252,2.0649415842471686,9.571786834792482,0.9275662593002062,-0.6686184732555784,-0.43150406868457486,-0.07367974422565512,-0.19931085617230504,-0.07283696852370238,-1.0430956663104463
1592295459.9380252,1.7709736707465857,9.54311503797867,0.9180353418080208,-0.6644444444444444,-0.4388888888888889,-0.07111111111111111,-0.17524729507706452,-0.1183483353560575,-1.0403108796112301
1592295459.9480252,1.6040083656677397,9.630736398910262,0.9867280332425218,-0.6644444444444444,-0.4388888888888889,-0.07111111111111111,-0.17913723430927186,-0.18484789360265158,-0.9298962746848318
1592295459.9580252,1.533204378005733,9.769675913861317,1.0683167894624623,-0.6644444444444444,-0.4388888888888889,-0.07111111111111111,-0.23159484136782488,-0.15626079246783434,-0.8786519331131647
1592295459.9680252,1.2558872077028886,9.634415405777167,1.2170563961485557,-0.6644444444444444,-0.4388888888888889,-0.07111111111111111,-0.2163348511759942,-0.0683869876055464,-0.8545218744063038
1592295459.9780252,1.248004153891801,9.58556720403521,1.4305251706062705,-0.6560480884405323,-0.45720821107924264,-0.05584500928581633,-0.09899750561875859,-0.09204913685734188,-0.8477084329956948
1592295459.9880252,1.330900193377797,9.595474564899956,1.4518493231777103,-0.6522222222222223,-0.46555555555555556,-0.04888888888888889,-0.0651445830846513,-0.14853336374216927,-0.876213022464194
1592295459.9980252,1.062802281155186,9.318659399932576,1.6075713563321723,-0.6522222222222223,-0.46555555555555556,-0.04888888888888889,0.011761764317057097,-0.12152696422047246,-0.9252282911933472
1592295460.0080252,0.6643986650057584,9.434549791994735,1.3751065880085553,-0.6522222222222223,-0.46555555555555556,-0.04888888888888889,0.03986443363618755,-0.17160003716117683,-0.7809269032191557
1592295460.0180252,0.8985249695971127,9.587377113491037,1.3691804950766937,-0.6522222222222223,-0.46555555555555556,-0.04888888888888889,-0.01936677172591124,-0.1978516530508132,-0.7017796997991934
1592295460.0280252,1.1624964451313755,9.779957341576507,1.2550639876352396,-0.6175098746350679,-0.4808289884939035,-0.06832780353769535,-0.04063771218412856,-0.22170166214209655,-0.7743281023958644
1592295460.0380251,0.9318881578947368,9.596871710526315,1.2390559210526315,-0.5966666666666667,-0.49,-0.08,0.04323206392655855,-0.24903989707717858,-0.8386357291460894
1592295460.0480251,0.9064193302061743,9.581892440274899,1.3091048325515435,-0.5966666666666667,-0.49,-0.08,0.06693126821558984,-0.16445332510169236,-0.7480422247528279
1592295460.0580251,1.0154330190232088,9.753020669221906,1.2188762433277682,-0.5966666666666667,-0.49,-0.08,0.134202581865783,-0.1171327358472985,-0.6963638813529166
1592295460.068025,0.8335843951080241,9.777345208164657,1.1342035624493971,-0.5966666666666667,-0.49,-0.08,0.16028458434743043,-0.11085930980292273,-0.6763054630413563
1592295460.078025,0.5414612794612794,9.774269360269361,1.138972582972583,-0.5847209662765218,-0.5117833360055583,-0.0743784939340495,0.10030417285261928,-0.10776809984315565,-0.7070400997191064
1592295460.088025,0.48368132298769495,9.784203307469237,1.096291245395407,-0.5777777777777777,-0.5244444444444445,-0.07111111111111111,0.06366377077789823,-0.13050710083168351,-0.7242487152531764
1592295460.098025,0.5400228767515013,9.718171419658407,0.9227085553851353,-0.5777777777777777,-0.5244444444444445,-0.07111111111111111,0.04075967329734405,-0.16064508711952513,-0.6252205508782157
1592295460.108025,0.6832130663467749,9.706450816646674,0.9545081664667343,-0.5777777777777777,-0.5244444444444445,-0.07111111111111111,0.03205791321557719,-0.08727454040448673,-0.6659244362696577
1592295460.118025,0.629555026274999,9.72004045215682,0.9397977392159087,-0.5777777777777777,-0.5244444444444445,-0.07111111111111111,0.021803377712566394,-0.006364066217688202,-0.6728881501977482
1592295460.128025,0.5753434053750407,9.7530597522396,0.9222836531354404,-0.5741907052071732,-0.532643467462969,-0.06086233233795543,0.04872926839807683,0.0029630747757993653,-0.6580054599862591
1592295460.138025,0.44936631922642223,9.809786512620871,0.9182988823307798,-0.57,-0.5422222222222223,-0.04888888888888889,0.04240415281854282,-0.06157334969382337,-0.581717028720965
1592295460.148025,0.1756103662683377,9.754666278053046,0.89,-0.57,-0.5422222222222223,-0.04888888888888889,-0.002254468399499377,-0.06786174555694227,-0.5821343312788041
1592295460.158025,0.10696829879479734,9.712262439839307,0.897918539437572,-0.57,-0.5422222222222223,-0.04888888888888889,-0.0038549398405975342,-0.0663728509367428,-0.6503621551047725
1592295460.168025,0.21196118009256426,9.758038819907437,0.9640055457010622,-0.57,-0.5422222222222223,-0.04888888888888889,0.07572543422239925,-0.09489622865576244,-0.7979695283429697
1592295460.178025,0.2158071585098612,9.88652463274085,0.9292825257690123,-0.5603861519176834,-0.5484429474519564,-0.04210264318372427,0.049297742645926394,-0.058376578245462274,-0.636309014494653
1592295460.188025,0.24910440535743103,9.953656608036146,0.8954477973212845,-0.5511111111111111,-0.5544444444444444,-0.035555555555555556,0.01951296832855892,-0.0383663686496926,-0.5578215010948582
1592295460.198025,0.13800128049756477,9.937332906500812,0.8553341869983766,-0.5511111111111111,-0.5544444444444444,-0.035555555555555556,0.061566601108592814,-0.012087187281510654,-0.5260569299541813
1592295460.208025,0.023179423248812163,9.89757256433175,0.8412137178341252,-0.5511111111111111,-0.5544444444444444,-0.035555555555555556,-0.04481183862906683,0.012427989002593107,-0.5646780968269672
1592295460.218025,-0.016133582169902738,9.836133582169902,0.9086641783009726,-0.5511111111111111,-0.5544444444444444,-0.035555555555555556,-0.1074996647264044,-0.017612358143504404,-0.5396892636988078
1592295460.228025,-0.024910494775660725,9.835964197910265,0.9878925937307929,-0.5451469132008468,-0.5623967083247968,-0.03754362152564365,-0.05544154156591295,-0.018891167730091706,-0.43327017600328005
1592295460.238025,-0.1388627802690583,9.862132735426009,1.0603318385650224,-0.5311111111111111,-0.5811111111111111,-0.042222222222222223,-0.011637158885915107,-0.01865800016619095,-0.4032454098021428
1592295460.248025,-0.21351429956374213,9.87,1.0734682501211827,-0.5311111111111111,-0.5811111111111111,-0.042222222222222223,0.007822467569681323,-0.03017894663644461,-0.38464078740631213
1592295460.258025,-0.31559332871529816,9.87,1.089847338413172,-0.5311111111111111,-0.5811111111111111,-0.042222222222222223,-0.02325869545563792,0.005720598645628974,-0.2730407515405473
1592295460.268025,-0.2831817377455318,9.830454786763404,1.1751513006547514,-0.5311111111111111,-0.5811111111111111,-0.042222222222222223,0.011668279651311855,-0.007041273129202483,-0.2129926729031688
1592295460.278025,-0.2765130826149973,9.776085513769166,1.2160855137691662,-0.5228471957349065,-0.5867653690000932,-0.04787648011120435,0.052209096769694596,0.07213113348485528,-0.3225236466245503
1592295460.288025,-0.22504940597485484,9.760485985620361,1.2059225652658694,-0.51,-0.5955555555555555,-0.056666666666666664,0.029409316280835568,0.06721730401603235,-0.3919155490493105
1592295460.298025,-0.06814682665754296,9.709515872821916,1.0848412717808353,-0.51,-0.5955555555555555,-0.056666666666666664,0.0978232808020799,0.16520891985995836,-0.3351763720766801
1592295460.308025,-0.03829840913869227,9.763085710281029,0.9752126988576635,-0.51,-0.5955555555555555,-0.056666666666666664,0.02436881872468167,0.14343281898231344,-0.3247662931983935
1592295460.3180249,-0.24985981308411215,9.877943925233645,0.9624506749740395,-0.51,-0.5955555555555555,-0.056666666666666664,-0.003591925660743782,0.18837276995596638,-0.35805982382879514
1592295460.3280249,-2.0165584263523533,10.300010928108657,0.9089142143470454,-0.5079249603205579,-0.5926505000043365,-0.048781515884786505,-0.045555532115223174,0.0688608750620977,-0.19128383202545596
1592295460.3380249,-4.367676113360323,10.76307044534413,0.8624906882591092,-0.5044444444444445,-0.5877777777777777,-0.035555555555555556,-0.19525270387308344,-0.20647439369127046,0.08119225750560463
1592295460.3480248,0.158372136788902,9.458060812990643,1.2901061942144316,-0.5044444444444445,-0.5877777777777777,-0.035555555555555556,0.17449356895386595,0.04655216262159814,-0.07687770413873479
1592295460.3580248,-0.20786737272836686,9.76301191479119,1.1010039715970634,-0.5044444444444445,-0.5877777777777777,-0.035555555555555556,0.10014173170544063,0.00972095775118258,-0.07885970059592859
1592295460.3680248,-1.04,9.79,1.11,-0.5044444444444445,-0.5877777777777777,-0.035555555555555556,0.10799224746714915,0.038179077387375956,-0.062177354602297986
1592295460.3780248,-0.45406207174526403,9.784062071745264,0.81863361547763,-0.5062456894621344,-0.5902995208025438,-0.042400286622777554,0.06265431277757093,0.0019689473640369347,0.02381387800888453
1592295460.3880248,-0.3948128688368552,9.736783171521036,0.9144138587473825,-0.51,-0.5955555555555555,-0.056666666666666664,0.025268608117043453,0.039326931229623704,-0.11952340658642549
1592295460.3980248,-0.2836724795640327,9.895442506811989,0.6934076294277929,-0.51,-0.5955555555555555,-0.056666666666666664,-0.005010212534624865,-0.038835834798003795,-0.052987030952491326
