time,acc_x,acc_y,acc_z,mag_x,mag_y,mag_z,gyr_x,gyr_y,gyr_z
1592295466.6580188,-0.7851254612546126,9.790029520295203,0.9699557195571955,-0.31945510455104553,-0.5588692086920869,0.2777712177121771,0.04322708803065568,-0.011915414326000039,0.1439735624661743
1592295466.6680188,-0.6926821073700765,9.866741725641576,0.8052384016012581,-0.32666666666666666,-0.5455555555555556,0.2733333333333333,0.05465928553139722,0.03543971893508484,0.12302331705502527
1592295466.6780188,-0.6330036726128017,9.89,0.7434981636935991,-0.32666666666666666,-0.5455555555555556,0.2733333333333333,-0.06012761145040342,0.007519921860761902,0.11180815210633861
1592295466.6880188,-0.6706812536960378,9.859318746303963,0.8627250147841513,-0.32666666666666666,-0.5455555555555556,0.2733333333333333,-0.08488681298991943,0.052110902368338256,0.243203193615123
1592295466.6980188,-0.6998733493975903,9.82025330120482,1.0634168674698794,-0.32666666666666666,-0.5455555555555556,0.2733333333333333,-0.03969818673463589,0.03558354148096435,0.22871614612601499
1592295466.7080188,-0.6484829697064824,9.738482969706482,1.4299164181447184,-0.32256553131376553,-0.5571754390554422,0.2788015138038682,0.0066246867400661805,0.0015872777851410128,0.1721675465681053
1592295466.7180188,-0.5874621347644603,9.691804412641622,1.5779511031604057,-0.32,-0.5644444444444444,0.2822222222222222,0.021779799297937885,-0.018673696046550246,0.18596186567693784
1592295466.7280188,-0.361845968919035,9.666279728685499,1.4820837984030222,-0.32,-0.5644444444444444,0.2822222222222222,0.03345873125207748,-0.0646548807196998,0.11981287457195383
1592295466.7380188,-0.25935962347571845,9.621839121443342,1.4644006275404693,-0.32,-0.5644444444444444,0.2822222222222222,0.11972262615494068,0.021162801720892337,0.1843342221946388
1592295466.7480187,-0.3017350950577168,9.63104105703463,1.495520528517315,-0.32,-0.5644444444444444,0.2822222222222222,0.13258578855108263,0.07429698729095213,0.2560528012335781
1592295466.7580187,-0.4557406692180752,9.670574066921807,1.488851866156385,-0.3094259330781925,-0.5685565815807029,0.2775226369236411,0.21551374597366965,0.13163800874084378,0.2617135568317124
1592295466.7680187,-0.5692304291914484,9.687396318919788,1.462603681080212,-0.3,-0.5722222222222222,0.2733333333333333,0.31718644790664347,0.15691173837403388,0.23214688627746308
1592295466.7780187,-0.8354184920451926,9.825642148950887,1.3243578510491123,-0.3,-0.5722222222222222,0.2733333333333333,0.3615950618387252,0.14586673733374964,0.2436208449768477
1592295466.7880187,-1.1539116726777654,9.916738959084721,1.3134779181694414,-0.3,-0.5722222222222222,0.2733333333333333,0.44522456272795824,0.17759163899650354,0.3649948406258535
1592295466.7980187,-1.2897214573183649,9.934953576219726,1.349907152439455,-0.3,-0.5722222222222222,0.2733333333333333,0.47884432922280745,0.2039954844245495,0.5139808567396511
1592295466.8080187,-1.330601778342331,9.982407113369323,1.24338043823436,-0.3170806428848664,-0.5722222222222222,0.2745113087047034,0.4509223912178828,0.13061486201297334,0.5998787293412475
1592295466.8180187,-1.3060809196775158,10.036959540161241,1.055202299193789,-0.3322222222222222,-0.5722222222222222,0.27555555555555555,0.44205066521457387,0.12265730940904965,0.6175811028868033
1592295466.8280187,-1.1730883567299752,10.062408133773742,0.7109929810074318,-0.3322222222222222,-0.5722222222222222,0.27555555555555555,0.510252087155483,0.22349409021078476,0.7607840982438936
1592295466.8380187,-1.1220975430032007,10.0619349713312,0.548390172012803,-0.3322222222222222,-0.5722222222222222,0.27555555555555555,0.47066061479821214,0.16552600422854194,0.9246326263599116
1592295466.8480186,-1.1280836417468543,10.097125462620282,0.5045209104367135,-0.3322222222222222,-0.5722222222222222,0.27555555555555555,0.4721235731070195,0.12693828660434625,1.0757445160691825
1592295466.8580186,-1.1314763084778854,10.157785537283171,0.49610723135841406,-0.3322222222222222,-0.5686203933151444,0.2817301193962604,0.4913713895697432,0.06927836237691823,1.2232611781180784
1592295466.8680186,-1.097454054054054,10.17207722007722,0.46924633204633204,-0.3322222222222222,-0.5644444444444444,0.28888888888888886,0.4509462445906191,0.020850114306426082,1.2863160821235466
1592295466.8780186,-0.9048554472695596,10.123786138182611,0.2904864702999945,-0.3322222222222222,-0.5644444444444444,0.28888888888888886,0.460181905351307,0.03428131872104723,1.3129893072029108
1592295466.8880186,-0.5651898341486696,10.075849421310107,0.13438706598257966,-0.3322222222222222,-0.5644444444444444,0.28888888888888886,0.3753184418148373,-0.02988412991506499,1.4087098576153199
1592295466.8980186,-0.3100040649688058,9.99791785228257,0.07250101624220145,-0.3322222222222222,-0.5644444444444444,0.28888888888888886,0.3722887029146347,-0.0799039090920033,1.3773129326928635
1592295466.9080186,-0.0992844831210325,9.922016227351074,0.05424391474334721,-0.3422457177823554,-0.5544209488843113,0.2846684697056749,0.40698448459598047,-0.0031340920741646863,1.3961091802173353
1592295466.9180186,0.05575814850530377,9.8580806171649,0.06800732883317262,-0.35333333333333333,-0.5433333333333333,0.28,0.355582854284959,0.04391855139768305,1.5160254291900201
1592295466.9280186,0.4923406377115864,9.736643747539693,0.06,-0.35333333333333333,-0.5433333333333333,0.28,0.3528002389456882,0.019062271502497112,1.5676721221643295
1592295466.9380186,0.6949079118028534,9.650992807451951,0.07770215776441457,-0.35333333333333333,-0.5433333333333333,0.28,0.3377444391300596,0.16273201656508635,1.63262869539026
1592295466.9480186,0.8593477556603434,9.570217414779885,0.13420287246679385,-0.35333333333333333,-0.5433333333333333,0.28,0.33904285849676036,0.23995905587577343,1.692044518300778
1592295466.9580185,1.1802563912560207,9.515946276398665,0.1737851055946647,-0.3663953316042979,-0.5406308509324441,0.27639669013214774,0.36280179045931765,0.2657777879068123,1.6841881260112395
1592295466.9680185,1.4365696729435085,9.506715163528245,0.14343032705649156,-0.38555555555555554,-0.5366666666666666,0.27111111111111114,0.4021498925685545,0.2895237008004834,1.612630433263239
1592295466.9780185,1.5261678425547716,9.459332661397273,0.08483316534931834,-0.38555555555555554,-0.5366666666666666,0.27111111111111114,0.331430569506372,0.18700303466991125,1.7270233627554163
1592295466.9880185,1.5712683482969931,9.473805044890979,0.06309747755451048,-0.38555555555555554,-0.5366666666666666,0.27111111111111114,0.35873183612060683,0.28740538511562175,1.8833491156958
1592295466.9980185,1.6048968881531445,9.512448444076572,0.05,-0.38555555555555554,-0.5366666666666666,0.27111111111111114,0.387593541036862,0.39002824353077803,1.8963194005456256
1592295467.0080185,1.6680540366677388,9.537013509166934,0.02194596333226118,-0.4011411314820771,-0.5273153211107537,0.27617642328723063,0.41259051609951913,0.4007196176499875,1.799318007620335
1592295467.0180185,1.7204360738318107,9.549651140934552,-0.030348859065448666,-0.43,-0.51,0.28555555555555556,0.4486659468014429,0.4555772072209907,1.7924775738488592
1592295467.0280185,1.9918436805199247,9.421531269596944,-0.17168747505843454,-0.43,-0.51,0.28555555555555556,0.2779027764484097,0.3992031470245174,1.8834352323699142
1592295467.0380185,2.3362119177210716,9.323188190664686,-0.2815529794302679,-0.43,-0.51,0.28555555555555556,0.3738483558090598,0.42004425938335993,1.9136739402488616
1592295467.0480185,2.549254939776573,9.262208616862559,-0.3298509879553146,-0.43,-0.51,0.28555555555555556,0.3988167803430431,0.4352060751691085,1.942236116434596
1592295467.0580184,2.878500055307695,9.184299988938461,-0.379472733306294,-0.44334242837653476,-0.49665757162346524,0.2797858567981351,0.296668285864249,0.4773058976658179,1.9844423278193024
1592295467.0680184,3.25,9.11,-0.42,-0.4711111111111111,-0.4688888888888889,0.2677777777777778,0.2716168648416175,0.45814892864851153,1.9394971312786988
1592295467.0780184,3.4442967113828042,8.991406577234391,-0.41142582215429896,-0.4711111111111111,-0.4688888888888889,0.2677777777777778,0.20818894779698732,0.41406799179570813,1.8796485741306044
1592295467.0880184,3.58815576397958,8.874169535794847,-0.3380068859076339,-0.4711111111111111,-0.4688888888888889,0.2677777777777778,0.1942403509578685,0.4743502069605879,1.8852054873311175
1592295467.0980184,3.7823976596627857,8.824400585084303,-0.224534601015991,-0.4711111111111111,-0.4688888888888889,0.2677777777777778,0.1539971856467188,0.43051508068190847,1.9186405743629602
1592295467.1080184,3.9576866806926687,8.748125910341479,-0.14581259103414793,-0.4971661002319685,-0.45260452068835305,0.2612640304975634,0.147786015689454,0.4348725522647571,1.8595199039667507
1592295467.1180184,4.01,8.69,-0.14,-0.5333333333333333,-0.43,0.25222222222222224,0.2181661564992912,0.48432886742842646,1.7878716525116913
1592295467.1280184,4.002774491180461,8.654306377204884,-0.19861275440976933,-0.5333333333333333,-0.43,0.25222222222222224,0.29515471377998737,0.5416322657664627,1.8882151780638843
1592295467.1380184,4.058478133701477,8.655095116643658,-0.1854755832182886,-0.5333333333333333,-0.43,0.25222222222222224,0.24399781659733413,0.5566349675616813,1.8196465115603013
1592295467.1480184,4.160070058116392,8.637957965130164,-0.17605604649311363,-0.5333333333333333,-0.43,0.25222222222222224,0.20016037091046465,0.4922344162400656,1.88423271376573
1592295467.1580184,4.270953178294574,8.608960930232557,-0.2699141085271318,-0.5431458397932817,-0.41241925925925926,0.2489513867355728,0.19268079787809145,0.39737855972247726,1.8755718429602124
1592295467.1680183,4.41,8.59,-0.39,-0.56,-0.38222222222222224,0.24333333333333335,0.2650718801466388,0.3567016658763411,1.7507834059068117
1592295467.1780183,4.845555178445553,8.480082500065269,-0.7213578570869122,-0.56,-0.38222222222222224,0.24333333333333335,0.14338405755134492,0.3112148794638603,1.6912005727983335
1592295467.1880183,5.056768129973788,8.333770515030581,-0.7426932250218433,-0.56,-0.38222222222222224,0.24333333333333335,-0.03644191899811589,0.18836883356498565,1.7700402643952362
1592295467.1980183,5.135954969417407,8.275954969417407,-0.6341576070390766,-0.56,-0.38222222222222224,0.24333333333333335,-0.058659679688203736,0.19690130691463004,1.7322090032999709
1592295467.2080183,5.398199167029278,8.219319636973955,-0.4501100267296575,-0.5693913650083229,-0.3617319712949725,0.23180756718675535,-0.06302753402362829,0.14113025859834719,1.5581232423213802
1592295467.2180183,5.78,8.09,-0.29,-0.5844444444444444,-0.3288888888888889,0.21333333333333335,-0.04690572364734761,0.15053464798451094,1.4398966328953218
1592295467.2280183,5.976202089626693,7.972599839259486,-0.2711002411107724,-0.5844444444444444,-0.3288888888888889,0.21333333333333335,-0.174171995434385,0.1574512340424153,1.3938737194497441
1592295467.2380183,6.2958358634435765,7.804164136556423,-0.3122622662062252,-0.5844444444444444,-0.3288888888888889,0.21333333333333335,-0.17309007161545598,0.11035143733665197,1.265604136943381
1592295467.2480183,6.591698286861757,7.632599619302613,-0.3249335871315916,-0.5844444444444444,-0.3288888888888889,0.21333333333333335,-0.23096944824891805,0.01514743592181448,1.1548048009062415
1592295467.2580183,6.7811741114243365,7.662941962858555,-0.24706472143915836,-0.597776292378286,-0.30928323016265125,0.21019642793713533,-0.11409480040297995,0.054735840088696225,1.0371959812030425
1592295467.2680182,6.82,7.65,-0.15,-0.6222222222222222,-0.2733333333333333,0.20444444444444446,-0.0032724923474893677,0.025089107997418484,0.8988445647770796
1592295467.2780182,6.822844401461422,7.552111003653557,-0.1465113905007522,-0.6222222222222222,-0.2733333333333333,0.20444444444444446,-0.1723707218237689,0.0636995476542536,0.7285560450385112
1592295467.2880182,6.857379644665202,7.507078278727672,-0.21707827872767219,-0.6222222222222222,-0.2733333333333333,0.20444444444444446,-0.20890071131140958,0.011295970058824344,0.6143971011181791
1592295467.2980182,6.92,7.49,-0.2,-0.6222222222222222,-0.2733333333333333,0.20444444444444446,-0.23125612588924865,-0.009817477042468103,0.5181446216858165
1592295467.3080182,6.767436539149088,7.586245977833393,-0.15223811226313907,-0.6284717753148215,-0.263794541770945,0.20378659675048663,-0.22695598280458443,0.11395457174416229,0.45403325569617503
1592295467.3180182,6.694164055534327,7.744984333205961,-0.17662488854922942,-0.6433333333333333,-0.2411111111111111,0.20222222222222222,-0.21792848293712863,0.15381055829624043,0.3018158849547137
1592295467.3280182,6.7,7.78,-0.27,-0.6433333333333333,-0.2411111111111111,0.20222222222222222,-0.13962634015954636,0.1461713248545251,0.2585268954516601
1592295467.3380182,6.327614793919448,7.739449407093977,-0.24114689442616102,-0.6433333333333333,-0.2411111111111111,0.20222222222222222,-0.156839391203284,0.004793717786006079,0.2532579086826622
1592295467.3480182,6.1211076011846,7.833391905231984,-0.12251332675222112,-0.6433333333333333,-0.2411111111111111,0.20222222222222222,-0.2111495194027987,-0.042580735735384366,0.24412943668746054
1592295467.3580182,5.8418036605657235,7.832310089245198,-0.006930267735592195,-0.6478903174843275,-0.23484525790349417,0.20079816467503656,-0.2643091071105891,-0.06424173247039203,0.2864329572056866
1592295467.3680182,5.784912347834406,7.830760289862004,0.06830411594480186,-0.6611111111111111,-0.21666666666666667,0.19666666666666666,-0.27192927243304593,-0.10185549275051457,0.36423542385923025
1592295467.3780181,5.82,7.86,0.08,-0.6611111111111111,-0.21666666666666667,0.19666666666666666,-0.1832595714594046,-0.0839939702522271,0.3687008044838021
1592295467.3880181,5.637441307106599,7.886279346446701,0.013255869289340102,-0.6611111111111111,-0.21666666666666667,0.19666666666666666,-0.33173904856769243,-0.19421857938260384,0.2939909220153113
1592295467.3980181,5.63896600799168,7.860029558268105,0.03799113251956867,-0.6611111111111111,-0.21666666666666667,0.19666666666666666,-0.3067329104094475,-0.22349462215313015,0.27333285290107157
1592295467.408018,5.811610133662883,7.70606783960454,0.07303391980226999,-0.660208100715109,-0.2180856830032413,0.19589265775580778,-0.3474684319688346,-0.29734754409993713,0.4189196752016135
1592295467.418018,5.952843154799949,7.641519621628531,0.09926473219992332,-0.6533333333333333,-0.2288888888888889,0.19,-0.3205545205263798,-0.23641617520164893,0.41923726698846775
1592295467.428018,6.04,7.71,0.23,-0.6533333333333333,-0.2288888888888889,0.19,-0.2825251726665821,-0.19634954084936207,0.33706671179140485
1592295467.438018,6.2289073634204275,7.687395091053048,0.29231195566112433,-0.6533333333333333,-0.2288888888888889,0.19,-0.13381030335089145,-0.23262592606426005,0.42431503706219625
1592295467.448018,6.33127921615852,7.639573594613827,0.11793475286003613,-0.6533333333333333,-0.2288888888888889,0.19,-0.10640797831437786,-0.3222775923889945,0.3747414239907712
1592295467.458018,6.459412335076359,7.5975849291823945,0.22625341967655918,-0.6533333333333333,-0.22599939205750058,0.1891572300908451,-0.13430742100833906,-0.23828391379200822,0.342646090070822
1592295467.468018,6.29,7.66,0.36,-0.6533333333333333,-0.20222222222222222,0.18222222222222223,-0.09053895494720585,-0.2781618495365963,0.26289021858164585
1592295467.478018,6.3301464078007,7.544890194149475,0.11992679609964989,-0.6533333333333333,-0.20222222222222222,0.18222222222222223,-0.0614992663371681,-0.11233776935986381,0.37064107622140197
1592295467.488018,6.626568957006182,7.404362849956512,-0.014362849956512538,-0.6533333333333333,-0.20222222222222222,0.18222222222222223,-0.004331347718364728,-0.2592485089511315,0.2900007777416446
1592295467.498018,6.679737942717984,7.492623749272063,-0.08507279368944888,-0.6533333333333333,-0.20222222222222222,0.18222222222222223,-0.060568106331608904,-0.13823977405823132,0.3607374914486194
1592295467.508018,6.4132780983641275,7.6184520091058285,-0.15908941712107577,-0.6533333333333333,-0.20222222222222222,0.18222222222222223,-0.0880195741585357,-0.11482528679408788,0.3050271596822091
1592295467.518018,6.41,7.37,-0.06,-0.68,-0.19666666666666666,0.16666666666666666,-0.15926129424448257,-0.20289452554434081,0.36324665057131983
1592295467.528018,6.632312138728324,7.4576195480819765,-0.2325853914871256,-0.68,-0.19666666666666666,0.16666666666666666,0.02881386807343634,-0.31579923743923277,0.3418897544629368
1592295467.538018,6.567503737892479,7.521669158594985,-0.27291728964874645,-0.68,-0.19666666666666666,0.16666666666666666,-0.06259722127740437,-0.28656374500845294,0.28302058366942817
1592295467.548018,6.603272284603365,7.551681928849159,-0.244679494167666,-0.68,-0.19666666666666666,0.16666666666666666,-0.16250748599150727,-0.19731051365578894,0.22428426679125002
1592295467.558018,6.57278934554308,7.55930266361423,-0.08464406410116646,-0.68,-0.19666666666666666,0.16666666666666666,-0.05859583515424746,-0.13246964353333884,0.19269512493672303
1592295467.568018,6.668246029864897,7.484780753733112,-0.17002133206921072,-0.6611111111111111,-0.19111111111111112,0.18444444444444444,-0.04198470390730137,-0.09214663112771378,0.312145662577732
1592295467.578018,6.567314595638085,7.432897295061246,-0.33010594534966564,-0.6611111111111111,-0.19111111111111112,0.18444444444444444,-0.14603264271611197,-0.07692491648575045,0.1145332211096792
1592295467.588018,6.61130747228329,7.367808902441907,-0.3065193957875328,-0.6611111111111111,-0.19111111111111112,0.18444444444444444,-0.19492330983548883,-0.15688685554950021,0.04434242731458533
1592295467.598018,6.571992566403772,7.568826760946424,-0.31718810624603394,-0.6611111111111111,-0.19111111111111112,0.18444444444444444,-0.23938147528981973,-0.17556893261271395,0.03212574281336684
1592295467.608018,6.53396972169341,7.705709001903726,-0.25635155470945514,-0.6611111111111111,-0.19111111111111112,0.18444444444444444,-0.28832373283863094,-0.11833137717427368,-0.13129162561232482
1592295467.618018,6.620405157415572,7.653468385805191,-0.3967341929025954,-0.7,-0.18444444444444444,0.19111111111111112,-0.307105248830037,-0.14366277022108176,0.08571537136836954
1592295467.628018,6.332883635152788,7.588465459388847,-0.3333951486898389,-0.7,-0.18444444444444444,0.19111111111111112,-0.2593896467362564,-0.4157481313279349,0.08347156398342415
1592295467.638018,6.272604592862379,7.68,-0.25986401154128136,-0.7,-0.18444444444444444,0.19111111111111112,-0.33309134394621864,-0.294688620837076,0.06218075998184269
1592295467.648018,6.241600251527129,7.701241466043838,-0.17601365432985985,-0.7,-0.18444444444444444,0.19111111111111112,-0.3663942833623003,-0.3469189950765915,-0.1052117460640326
1592295467.6580179,6.460131872080488,7.776597197269134,-0.055444484369385566,-0.7,-0.18444444444444444,0.19111111111111112,-0.3853003641516593,-0.521183739743727,-0.09534770391306266
1592295467.6680179,6.363953941870183,7.6798544433095,-0.17465131395672764,-0.7,-0.19111111111111112,0.1688888888888889,-0.41525129147461565,-0.43463220120979784,-0.05995469445255111
1592295467.6780179,6.569871901027714,7.557093663240953,-0.2120296137548098,-0.7,-0.19111111111111112,0.1688888888888889,-0.3853523515209208,-0.2491640065040261,-0.1660534439484805
1592295467.6880178,6.602085385878489,7.407914614121511,-0.07358292282430214,-0.7,-0.19111111111111112,0.1688888888888889,-0.3857892329144276,-0.3257446405661831,-0.20341361053739085
1592295467.6980178,6.515056723212063,7.477641808030158,-0.08629254240904725,-0.7,-0.19111111111111112,0.1688888888888889,-0.2502541704188299,-0.5074453713339796,-0.1623012979231181
1592295467.7080178,6.485224225612575,7.4030605640314375,-0.06391816920943134,-0.7,-0.19111111111111112,0.1688888888888889,-0.22666107056113194,-0.46920827846115876,-0.14114886356794062
1592295467.7180178,6.476392994897103,7.578584365491962,-0.14068517764308475,-0.6855555555555556,-0.2,0.1688888888888889,-0.2604645763696779,-0.32349865950130147,-0.2219964122302841
1592295467.7280178,6.413886824434448,7.621943412217225,-0.11578308016602559,-0.6855555555555556,-0.2,0.1688888888888889,-0.20934582826847342,-0.4157023909575924,-0.21506855928866994
1592295467.7380178,6.496890831126836,7.6485486327530054,-0.26424772125500856,-0.6855555555555556,-0.2,0.1688888888888889,-0.119878793586926,-0.8182284969561578,-0.10333038171374652
1592295467.7480178,6.44589799072643,7.507409582689336,-0.017409582689335394,-0.6855555555555556,-0.2,0.1688888888888889,-0.24265876383079432,-0.29836936333364344,-0.3750731445541632
1592295467.7580178,6.8882462042003825,7.675196836076007,-0.1851968360760069,-0.6855555555555556,-0.2,0.1688888888888889,-0.2684490025946404,-0.4090178070624024,-0.37340925818230214
1592295467.7680178,6.65,7.63,-0.14831021258463142,-0.6855555555555556,-0.18666666666666668,0.19111111111111112,-0.30415539523408,-0.22455914484026743,-0.45652231459166165
1592295467.7780178,6.586326634877384,7.606846049046322,-0.14630790190735696,-0.6855555555555556,-0.18666666666666668,0.19111111111111112,-0.21105049193990014,-0.34426337127946904,-0.4795548108413391
1592295467.7880177,6.311591965869326,7.499489957336657,-0.3273879488039883,-0.6855555555555556,-0.18666666666666668,0.19111111111111112,-0.14487985566962996,-0.3209891806389647,-0.28765559649064887
1592295467.7980177,6.30372504178028,7.474235025068168,-0.27525499164394407,-0.6855555555555556,-0.18666666666666668,0.19111111111111112,-0.21380283336930533,-0.29423973003550985,-0.5232093617700079
1592295467.8080177,6.4144023221039665,7.54064139326238,-0.25311953557920663,-0.6855555555555556,-0.18666666666666668,0.19111111111111112,-0.21380283336930533,-0.14533916939876013,-0.5570138133740268
1592295467.8180177,6.39,7.53,-0.04,-0.6933333333333334,-0.2,0.17333333333333334,-0.222529479629277,-0.04908738521234052,-0.4385139745635753
1592295467.8280177,6.442163709486634,7.615672581026733,-0.16459072628341614,-0.6933333333333334,-0.2,0.17333333333333334,-0.13920861416294666,-0.10830445164994171,-0.602601272446664
1592295467.8380177,6.443145679127653,7.587931445116399,-0.12198286127909963,-0.6933333333333334,-0.2,0.17333333333333334,-0.08008193579070445,-0.3050280690413713,-0.47450074366153017
1592295467.8480177,6.280687164876041,7.66,-0.1453216200708336,-0.6933333333333334,-0.2,0.17333333333333334,-0.071542687562486,-0.2618209493027151,-0.2606989741261793
1592295467.8580177,6.164503868146653,7.66,-0.2117120753447696,-0.6933333333333334,-0.2,0.17333333333333334,-0.16116336850498092,-0.13961092983567655,-0.315014538333752
1592295467.8680177,6.353474475107085,7.646525524892915,-0.3262142171663975,-0.6977777777777778,-0.22666666666666666,0.15777777777777777,-0.04479197889253751,-0.23359534934733864,-0.42276146195336806
1592295467.8780177,6.364975926259687,7.629658333118773,-0.45107314812430804,-0.6977777777777778,-0.22666666666666666,0.15777777777777777,-0.023002994884292333,-0.11494720298867081,-0.4724520431971793
1592295467.8880177,6.281202066902367,7.724832744084852,-0.4632961653521893,-0.6977777777777778,-0.22666666666666666,0.15777777777777777,-0.10770567076443183,-0.034005025413015026,-0.5139948960982287
1592295467.8980176,6.4775523136168225,7.821783451170561,-0.45303001283644734,-0.6977777777777778,-0.22666666666666666,0.15777777777777777,-0.08247733339929184,-0.08757513755045529,-0.5862783715500961
1592295467.9080176,6.375000101876567,8.001249821716009,-0.23083355406589373,-0.6977777777777778,-0.22666666666666666,0.15777777777777777,-0.15985208405335272,0.11658233706688613,-0.6263640857443686
1592295467.9180176,6.26,7.95,-0.45,-0.7055555555555556,-0.23222222222222222,0.14333333333333334,-0.3687008044838021,0.15053464798451094,-0.6697701004528239
1592295467.9280176,6.31713222331048,8.038975794039457,-0.28964152791381,-0.7055555555555556,-0.23222222222222222,0.14333333333333334,-0.25824200042736906,-0.19561775166932044,-0.649182443731209
1592295467.9380176,5.821736010487822,7.875277720278755,-0.23175924009291843,-0.7055555555555556,-0.23222222222222222,0.14333333333333334,-0.21652357543347034,-0.04799908838667453,-0.8988394968634187
1592295467.9480176,6.167381290361277,8.076117320111162,-0.30388267988883777,-0.7055555555555556,-0.23222222222222222,0.14333333333333334,-0.29794458276426783,0.005555457648905818,-0.9649716092122681
1592295467.9580176,6.058366555371173,8.04257432472959,-0.33742567527040807,-0.7055555555555556,-0.23222222222222222,0.14333333333333334,-0.31806893530891217,0.19490732022805915,-0.9896696782443314
1592295467.9680176,6.073426981541802,7.91957654723127,-0.3017372421281216,-0.7033333333333334,-0.2733333333333333,0.12777777777777777,-0.3034607440729395,0.09252548690154044,-0.8935181778251423
1592295467.9780176,6.168632121465386,8.319550773088174,-0.23267098481682685,-0.7033333333333334,-0.2733333333333333,0.12777777777777777,-0.3866132062403122,0.3212167688211067,-1.0223485961524785
1592295467.9880176,5.797749923570773,7.787153775603791,-0.26837511464383984,-0.7033333333333334,-0.2733333333333333,0.12777777777777777,-0.3215611408199699,0.049074712766686325,-1.100766813602873
1592295467.9980175,6.0453181083265966,7.986446443007275,0.14121261115602263,-0.7033333333333334,-0.2733333333333333,0.12777777777777777,-0.4437952225377569,0.31644562286952754,-0.9905345578403915
1592295468.0080175,5.99445755860954,7.6219458367016975,0.48028294260307197,-0.7033333333333334,-0.2733333333333333,0.12777777777777777,-0.31156728563465286,0.1398334833695774,-0.9082388488587393
1592295468.0180175,5.653280451855352,7.895634915277122,0.5205555930601499,-0.7033333333333334,-0.29444444444444445,0.12777777777777777,-0.23375522537316964,0.3586928941460166,-0.9386801270920014
1592295468.0280175,5.772887931034483,7.888062739463602,0.683838601532567,-0.7033333333333334,-0.29444444444444445,0.12777777777777777,-0.2236937116210363,0.498302263472216,-1.1193000031197136
1592295468.0380175,5.548413247652002,8.043381352541017,0.5475962149565708,-0.7033333333333334,-0.29444444444444445,0.12777777777777777,-0.11497253226465506,0.5014465374839013,-1.095825166242251
1592295468.0480175,5.002619100510936,7.913348748914514,0.7180261324393642,-0.7033333333333334,-0.29444444444444445,0.12777777777777777,-0.16212661682496501,0.5286306255323402,-1.0433904929471343
1592295468.0580175,5.265202253771432,8.184402326473737,0.8112007997253468,-0.7033333333333334,-0.29444444444444445,0.12777777777777777,-0.1953898952620464,0.2957876764727706,-0.8345710227587899
1592295468.0680175,4.75,7.94,0.65,-0.6766666666666666,-0.3388888888888889,0.1111111111111111,-0.1854412330243975,0.13962634015954636,-0.918479518862016
1592295468.0780175,5.286518624641834,8.218194842406877,0.5605802292263611,-0.6766666666666666,-0.3388888888888889,0.1111111111111111,-0.09331838552982755,0.38889992749779456,-0.8946359583340096
1592295468.0880175,4.79819672896106,8.076108350248479,0.41424091831735144,-0.6766666666666666,-0.3388888888888889,0.1111111111111111,-0.07647555759782315,0.31081446834633814,-0.7768472268904538
1592295468.0980175,5.000457167228563,8.370457167228563,0.5925563589097851,-0.6766666666666666,-0.3388888888888889,0.1111111111111111,-0.09782568596471522,0.38401738640462607,-0.6392268385429232
1592295468.1080174,4.838607173321418,8.208607173321418,0.8055168772086599,-0.6766666666666666,-0.3388888888888889,0.1111111111111111,-0.22141135481525948,0.3477779797492034,-0.6392268385429232
1592295468.1180174,4.94,8.6,0.59,-0.67,-0.35888888888888887,0.09777777777777778,-0.04690572364734761,0.5203262832508094,-0.6850417314077744
1592295468.1280174,4.759036348267118,8.479357565511412,0.7795809684820674,-0.67,-0.35888888888888887,0.09777777777777778,-0.011185593031721598,0.40658586734315827,-0.8542423501133712
1592295468.1380174,4.860638574345647,8.84229812511602,0.7594041210321143,-0.67,-0.35888888888888887,0.09777777777777778,-0.16253844393520517,0.1642418165994636,-0.5753922797223309
1592295468.1480174,4.527481175315109,8.53974811753151,0.908917171386479,-0.67,-0.35888888888888887,0.09777777777777778,-0.140610101142083,0.36268607979250167,-0.6604004550689745
1592295468.1580174,4.441659027664102,8.531165902766409,0.5312997217220494,-0.67,-0.35888888888888887,0.09777777777777778,-0.02546064935454395,0.4179203696743294,-0.7128262217364719
1592295468.1680174,4.5,8.5,0.8,-0.6577777777777778,-0.38333333333333336,0.07444444444444444,-0.1854412330243975,0.3196134192714616,-0.6479534848028948
1592295468.1780174,4.662362989039123,8.394941595327627,0.9432614609168732,-0.6577777777777778,-0.38333333333333336,0.07444444444444444,-0.019790780820046816,0.3341989936793918,-0.4541737105261072
1592295468.1880174,4.449361837766542,8.51949395471532,0.6770846339854913,-0.6577777777777778,-0.38333333333333336,0.07444444444444444,-0.0013668356694284017,0.3435853189559209,-0.32593637709866424
1592295468.1980174,4.790511760826555,8.501053418333699,0.9352521433282039,-0.6577777777777778,-0.38333333333333336,0.07444444444444444,-0.011424588034838128,0.26312330003264317,-0.39734641889307326
1592295468.2080173,4.530893959889431,8.941917896841733,0.8337058166205964,-0.6577777777777778,-0.38333333333333336,0.07444444444444444,-0.0018505566030177188,0.3574755699949822,-0.4470943469786906
1592295468.2180173,4.9325903906426705,8.291946104882225,0.9772781026850625,-0.6501176128469418,-0.40959675595334255,0.03942654761776543,0.029023556883925786,0.4097894806280318,-0.28736255550849976
1592295468.2280173,4.4782739963930265,8.667849843029858,0.7768405584129316,-0.65,-0.41,0.03888888888888889,0.11003882117757333,0.40410839496490475,-0.3511906060229645
1592295468.2380173,4.643226735119833,8.67228726339275,0.7322872633927501,-0.65,-0.41,0.03888888888888889,0.0643203897192194,0.29377206381481846,-0.1924525090823425
1592295468.2480173,4.106655729279911,9.388167262951908,1.0889389417089996,-0.65,-0.41,0.03888888888888889,-0.016446638831690206,0.27184835185078676,-0.39279020167830214
1592295468.2580173,4.678707477614595,9.230645767033662,0.9977422861773834,-0.65,-0.41,0.03888888888888889,-0.02368155658548022,0.2917443756737093,-0.5881329810306326
1592295468.2680173,4.67,8.61,0.66,-0.65,-0.42444444444444446,0.03111111111111111,-0.0272707695624114,0.25634523388666713,-0.8366672101747817
1592295468.2780173,4.9579231551128276,8.51402561496239,0.5814755031510469,-0.65,-0.42444444444444446,0.03111111111111111,-0.09579632023671854,0.37912017884480076,-0.6701120522858407
1592295468.2880173,4.740888032871084,8.360478171545967,0.45040986132511557,-0.65,-0.42444444444444446,0.03111111111111111,0.07464885039143482,0.39271398467705715,-0.7403499615363502
1592295468.2980173,4.769916996613079,8.200442684730238,0.6793636407002814,-0.65,-0.42444444444444446,0.03111111111111111,0.2601954820027993,0.40140158325216146,-0.5775021971881432
1592295468.3080173,4.5352890811671855,8.162143400188256,0.7557131996234886,-0.65,-0.42444444444444446,0.03111111111111111,0.17729236533814663,0.5599990824366484,-0.4424273132119466
1592295468.3180172,3.36,8.74,0.48,-0.6377777777777778,-0.45111111111111113,0.01888888888888889,-0.02945243112740431,0.062177354602297986,-0.5857761302005968
1592295468.3280172,4.489470467712307,8.927046064716688,0.9116447647308182,-0.6377777777777778,-0.45111111111111113,0.01888888888888889,0.050592306272804574,0.29838780516565955,-0.7772556980991358
1592295468.3380172,3.617070938215103,9.136155606407323,0.7298855835240274,-0.6377777777777778,-0.45111111111111113,0.01888888888888889,0.18683909398137236,0.3883956668954658,-0.8519388411297321
1592295468.3480172,4.335500567214975,8.917224191718661,1.0299489506522972,-0.6377777777777778,-0.45111111111111113,0.01888888888888889,0.06407292831530181,0.2066060107677129,-0.7948841528666194
1592295468.3580172,4.3021339649860195,8.693002368697572,0.8013026055673298,-0.6377777777777778,-0.45111111111111113,0.01888888888888889,0.022122461684744375,0.2535775827422972,-0.7946120301812801
1592295468.3680172,4.0,8.74,0.23,-0.5911111111111111,-0.4577777777777778,0.0044444444444444444,0.17671458676442586,0.1636246173744684,-0.6588617926278594
1592295468.3780172,3.970830919844993,8.761876810116256,0.6748284723638589,-0.5911111111111111,-0.4577777777777778,0.0044444444444444444,-0.08578829010962752,0.2662393783343256,-0.8322727840173855
1592295468.3880172,3.322192951708146,9.33165098282417,0.3640245908269744,-0.5911111111111111,-0.4577777777777778,0.0044444444444444444,-0.2507566931042513,0.0551216468586157,-1.089808512841956
1592295468.3980172,3.6254657406744473,9.062873201116918,0.5987878570917162,-0.5911111111111111,-0.4577777777777778,0.0044444444444444444,-0.4726798537152113,0.07390837392313265,-1.07551018247867
1592295468.4080172,3.9465992125425657,8.950177000567537,0.6741719282065834,-0.5911111111111111,-0.4577777777777778,0.0044444444444444444,-0.3740349909998198,0.11960110994352152,-1.1654692498168708
1592295468.4180171,2.9919295004712536,9.434466729500471,0.5348901036757776,-0.5792404649701539,-0.4631735260236674,-0.0009513038014451773,-0.3326406324776645,0.036796672985731554,-1.2857922848700096
1592295468.4280171,3.505472633108536,9.227770408733559,0.7387611311896867,-0.5788888888888889,-0.4633333333333333,-0.0011111111111111111,-0.4443611510799825,0.08082954895994315,-1.2765177054526762
1592295468.4380171,3.185478294381589,8.964736421945108,0.511206540589644,-0.5788888888888889,-0.4633333333333333,-0.0011111111111111111,-0.3610240907343595,-0.07171499978245748,-1.441180424247321
1592295468.4480171,3.6101923351582954,9.023875743870507,0.7847374434658415,-0.5788888888888889,-0.4633333333333333,-0.0011111111111111111,-0.49101505511781635,0.03050696147110213,-1.2830828399099812
1592295468.458017,3.4188734763265454,8.980973161645025,0.669923318985785,-0.5788888888888889,-0.4633333333333333,-0.0011111111111111111,-0.3561850333930333,0.012856746951525218,-1.376360168713349
1592295468.468017,3.2707549000582183,9.216074519697264,1.0630549194643897,-0.5526248355866054,-0.5092954266123294,-0.024092157750609137,-0.36219261124816704,0.18480663327284155,-1.5331025664368145
1592295468.478017,3.166153936224191,8.914952187658562,1.2647113695796417,-0.5522222222222222,-0.51,-0.024444444444444446,-0.30519142802985183,0.1522233686494709,-1.4533800013106986
1592295468.488017,2.396214833067071,9.097970268879804,1.485990089626601,-0.5522222222222222,-0.51,-0.024444444444444446,-0.1063954774879512,0.15060027918861335,-1.5368522047548652
1592295468.498017,1.7917648185846007,9.112724464136031,1.5090918452879896,-0.5522222222222222,-0.51,-0.024444444444444446,-0.26866066247817044,0.06841615951591262,-1.422330795793628
1592295468.508017,1.945791498849252,9.226615182681241,1.441402833716916,-0.5522222222222222,-0.51,-0.024444444444444446,-0.11179120845430637,-0.07843592302388457,-1.293370125096316
1592295468.518017,2.7413251199770787,9.613129431989112,0.9629052360146122,-0.5288447182229863,-0.5226628146662529,-0.024444444444444446,-0.1263061875817632,-0.2345675290403827,-1.2201926401764838
1592295468.528017,1.7248947566955866,9.744844964164466,1.2151384383251602,-0.5255555555555556,-0.5244444444444445,-0.024444444444444446,-0.1475593257581528,-0.12201298231542687,-1.2107563319338728
1592295468.538017,1.854198350766506,9.338035585809951,1.402567380596602,-0.5255555555555556,-0.5244444444444445,-0.024444444444444446,0.05170609749679125,0.06612907309035228,-1.214065260586989
1592295468.548017,1.8919960367076363,9.595614664181745,1.2239920734152727,-0.5255555555555556,-0.5244444444444445,-0.024444444444444446,0.093332000544154,0.1346108963647833,-1.1422274432738933
1592295468.558017,1.7992050125130152,9.700596240615239,1.442384962460954,-0.5255555555555556,-0.5244444444444445,-0.024444444444444446,0.11620124577089455,0.0926000418804671,-1.0904188640057673
1592295468.568017,1.651585865034361,9.458964662585903,1.4154478200458147,-0.5084903676442976,-0.5485364744368086,-0.045524970687763136,0.13639149374277593,0.1367226878122672,-1.2396131127678403
1592295468.578017,1.2892078135654406,9.47933015121736,1.5753960932172797,-0.5066666666666667,-0.5511111111111111,-0.04777777777777778,0.04955362775448814,0.0369658666883642,-1.2864270108600677
1592295468.588017,1.5437376758613048,9.435040988146671,0.9893524980613714,-0.5066666666666667,-0.5511111111111111,-0.04777777777777778,0.23102453430902772,-0.06609719163814823,-1.0635698614671978
1592295468.598017,1.1865647688192589,9.690317157050057,1.1215972487581198,-0.5066666666666667,-0.5511111111111111,-0.04777777777777778,0.07052218924715051,-0.08394145031390286,-1.1844834195014564
1592295468.608017,0.9058252168822184,9.801391594372594,1.0626478258555538,-0.5066666666666667,-0.5511111111111111,-0.04777777777777778,0.15151124217273987,-0.10741458147716351,-1.0373129797491956
1592295468.618017,1.1213585965424173,9.83191808301116,0.7513786563571376,-0.47882895259399744,-0.5726628897480163,-0.03610389768278746,0.12434273385754181,-0.0677677330606723,-0.9693442683743508
1592295468.628017,1.148218683566644,10.011234607516746,0.8755497172195259,-0.4722222222222222,-0.5777777777777777,-0.03333333333333333,0.042437215919827735,-0.09564233310326944,-0.945077570792528
1592295468.638017,1.1038649058981926,9.788611819301613,1.0722701882036152,-0.4722222222222222,-0.5777777777777777,-0.03333333333333333,0.06768672344481755,-0.1249236698419014,-0.8003915011057027
1592295468.648017,1.1176354701417228,9.509655127023827,1.0676354701417228,-0.4722222222222222,-0.5777777777777777,-0.03333333333333333,0.2265005708140846,-0.17803649696502125,-0.8133782529632206
1592295468.658017,1.3673269070708245,9.447935272825813,0.8468025472775487,-0.4722222222222222,-0.5777777777777777,-0.03333333333333333,0.22974590072716283,-0.16476415896770405,-0.781012944684135
1592295468.668017,0.9928855786976009,9.235048444503033,1.0816339309253888,-0.46358441720127724,-0.5997649178310924,-0.043541648358086535,0.3376748219125725,-0.03837330882416175,-1.0021321551345501
1592295468.678017,0.27806288006863306,9.466840856904948,1.3067033382957787,-0.46,-0.6088888888888889,-0.04777777777777778,0.24535592091439654,-0.005460154293764212,-0.9478449444608323
1592295468.688017,0.32108127780024265,9.968919530934087,1.1423420946219167,-0.46,-0.6088888888888889,-0.04777777777777778,0.31402181979819244,-0.041834882290461534,-0.9368172973848148
1592295468.698017,0.22607282184655397,10.194057217165149,0.9320156046814044,-0.46,-0.6088888888888889,-0.04777777777777778,0.22215215714794534,-0.015508521384959367,-0.9826115741382802
1592295468.7080169,0.3599472718527887,9.874270089245952,0.5707421130448723,-0.46,-0.6088888888888889,-0.04777777777777778,0.11589126373819923,-0.02515280472693776,-0.9472750653215133
1592295468.7180169,0.22850730421411053,9.736984219968512,0.4757463478929448,-0.4295907524703336,-0.6129982466631682,-0.03216221823551667,0.07260776248425546,-0.04520196202536179,-0.907751252232361
1592295468.7280169,0.3829926386268635,9.823356268264714,0.7079754374283284,-0.41888888888888887,-0.6144444444444445,-0.02666666666666667,0.11441448192203783,-0.005895844947336207,-0.938716441415612
1592295468.7380168,0.41794897616649884,10.10094774532841,0.7925176233635448,-0.41888888888888887,-0.6144444444444445,-0.02666666666666667,0.16080727865660074,0.27416274695656784,-0.8640135335309007
1592295468.7480168,0.6190321045241438,10.152027654156454,0.8058064209048287,-0.41888888888888887,-0.6144444444444445,-0.02666666666666667,0.18361143895805893,0.23360876276382822,-0.8809890934693871
1592295468.7580168,0.21064539261384002,9.982225887414844,0.754088741484403,-0.41888888888888887,-0.6144444444444445,-0.02666666666666667,0.24274765075305138,0.18938934426528395,-0.9487315731494327
1592295468.7680168,-0.08690602523287348,9.669852218684904,0.88705380654797,-0.41204622969862914,-0.6392490840091358,-0.01982400747640696,0.17487621341526632,0.1856140132803996,-0.838908808910467
1592295468.7780168,-0.12059334731795025,9.79774423134552,1.0414833682948756,-0.41,-0.6466666666666666,-0.017777777777777778,0.18384208882662323,0.12618373855304169,-0.8477987019124671
1592295468.7880168,-0.16761316763617135,11.601604706504494,0.9039918032786884,-0.41,-0.6466666666666666,-0.017777777777777778,0.2648833354394685,0.008407934463393496,-0.7094979152726941
1592295468.7980168,-1.8847437092264678,10.906533084808947,-0.2712115563839702,-0.41,-0.6466666666666666,-0.017777777777777778,0.1880691897557613,-0.09218790884208866,-0.07954830108926625
1592295468.8080168,-2.9284640692331076,8.909537432724802,0.9115763405868363,-0.41,-0.6466666666666666,-0.017777777777777778,0.11919661480625739,-0.11582500035251081,0.11969532656046648
1592295468.8180168,-0.3178508582143369,9.218336939275927,1.5420395211308238,-0.3917029664887735,-0.64209240828886,-0.018540154174078883,0.16694572745047231,-0.11821581628080191,-0.004396836321486158
1592295468.8280168,0.7903518187239118,9.747245080500894,1.3441383422778772,-0.38333333333333336,-0.64,-0.01888888888888889,0.21673643314811217,-0.07564459403032817,-0.05450446258659841
1592295468.8380167,-0.4417944124069202,9.594878506242651,0.8874766250489894,-0.38333333333333336,-0.64,-0.01888888888888889,0.33530847163703,-0.09867499155026399,-0.14164624900479
1592295468.8480167,-0.7902221381983174,9.627555534549579,0.8106664145949523,-0.38333333333333336,-0.64,-0.01888888888888889,0.24119517297544144,-0.11082846936934665,-0.09613880730903754
1592295468.8580167,-0.6545783772302465,9.680338254035684,0.8567794180118946,-0.38333333333333336,-0.64,-0.01888888888888889,0.1607039573428713,-0.10484915804914666,-0.06043950917236709
1592295468.8680167,-0.40194217218757594,9.823543370859317,0.8492913258281364,-0.3610906832968872,-0.64,-0.022723828550345115,0.23707109238095792,-0.1012926540518846,-0.16180376838870245
1592295468.8780167,-0.2725301204819277,9.848915662650603,0.9074698795180722,-0.3511111111111111,-0.64,-0.024444444444444446,0.3113861895143196,-0.0652264237774688,-0.1846001104933159
1592295468.8880167,-0.04231468197034913,10.067833572453372,0.7177450980392157,-0.3511111111111111,-0.64,-0.024444444444444446,0.23007478380079183,-0.06960919359198928,-0.20159971827406045
1592295468.8980167,0.03442360017184591,10.338659601890305,0.582788199914077,-0.3511111111111111,-0.64,-0.024444444444444446,0.18615481100154826,0.09215044146478187,-0.3041663618567169
1592295468.9080167,-0.07393448795180724,10.45425451807229,0.4823418674698795,-0.3511111111111111,-0.64,-0.024444444444444446,0.20637565570715705,0.22931719060153566,-0.38637382383681607
1592295468.9180167,-0.1638868008782049,10.396075614929483,0.4061131991217951,-0.3592620432735046,-0.656301864324787,-0.014935023588318719,0.09964858741760632,0.24136180665127632,-0.4918040600723387
1592295468.9280167,-0.25509095439820584,10.32049090456018,0.4004909045601794,-0.36444444444444446,-0.6666666666666666,-0.008888888888888889,8.725558962904487e-05,0.17473190056269916,-0.5896681100520258
1592295468.9380167,-0.5058962169014897,10.424575445875472,0.28165096378252225,-0.36444444444444446,-0.6666666666666666,-0.008888888888888889,-0.09486110516322414,0.1727886079839499,-0.6941285620906984
1592295468.9480166,-0.6656716346840627,10.304344078853388,0.3942340840912337,-0.36444444444444446,-0.6666666666666666,-0.008888888888888889,-0.279358070331839,0.28998189264679297,-0.7046698291685694
1592295468.9580166,-0.6822602665706052,10.23,0.45460860951008647,-0.36444444444444446,-0.6666666666666666,-0.008888888888888889,-0.2301065686440562,0.22257535660833194,-0.8369063205966654
1592295468.9680166,-0.6826610487639283,9.942582770877431,0.4565322097527857,-0.36444444444444446,-0.6536022471610953,-0.0038082813033889357,-0.1501826406071168,0.22584531941989844,-1.0493608282178704
1592295468.9780166,-0.7035813142081798,9.797162628416359,0.5065570847063384,-0.36444444444444446,-0.6466666666666666,-0.0011111111111111111,-0.17879433314485524,0.24544259271511815,-1.1084463781194511
1592295468.9880166,-0.7033764708951913,9.942470582096172,0.6893529365721293,-0.36444444444444446,-0.6466666666666666,-0.0011111111111111111,-0.2737715736904828,0.271505211720848,-1.1256526671317006
1592295468.9980166,-0.8995439986713801,9.72788607084391,1.0289947566964814,-0.36444444444444446,-0.6466666666666666,-0.0011111111111111111,-0.24204349484860296,0.22238819881023864,-1.200585300491317
1592295469.0080166,-0.7211201292871252,9.522438498832823,1.2427322679116537,-0.36444444444444446,-0.6466666666666666,-0.0011111111111111111,-0.2312881711246619,0.34401187017800516,-1.2687748015628062
1592295469.0180166,-0.9311431558455604,9.336070514438155,1.244047009625437,-0.34214078854080293,-0.6545030863084866,-0.008947530752931091,-0.14819635571881923,0.3663177605893393,-1.2609332571227465
1592295469.0280166,-1.3593482606957217,9.300535785685726,1.1648660535785684,-0.3233333333333333,-0.6611111111111111,-0.015555555555555555,-0.07674044713015302,0.24053254911896715,-1.2312762270980369
1592295469.0380166,-1.2742833169376773,9.292322203576182,0.9840888837451537,-0.3233333333333333,-0.6611111111111111,-0.015555555555555555,0.04607306646015297,0.15793532980856334,-1.160523955509073
1592295469.0480165,-1.2888292349081985,9.106418322556285,0.6812771982819654,-0.3233333333333333,-0.6611111111111111,-0.015555555555555555,0.14993900814297123,0.17306300407608968,-1.0477856226176425
1592295469.0580165,-1.3216730952970734,9.218117767790792,0.716653809405853,-0.3233333333333333,-0.6611111111111111,-0.015555555555555555,0.08350979563511918,0.16385275035598063,-0.9746729183384213
1592295469.0680165,-1.531928651059086,9.174461697722569,0.8382959069915592,-0.31927876873529043,-0.6738540284192458,-0.020189343667604536,0.04433031021604984,0.21242470183723836,-0.9689965456123177
1592295469.0780165,-1.7937904191616767,9.11085389221557,0.8099353293413174,-0.31555555555555553,-0.6855555555555556,-0.024444444444444446,0.08072291492732546,0.2532999217464546,-0.9884549418557844
1592295469.0880165,-1.883418007829491,9.615410178338408,0.8219921705089169,-0.31555555555555553,-0.6855555555555556,-0.024444444444444446,0.1452658261745267,0.1213613063161168,-0.7873582425459881
1592295469.0980165,-1.9406955775010735,9.50623157292114,0.6555359954200658,-0.31555555555555553,-0.6855555555555556,-0.024444444444444446,0.11690233814810738,0.07421755353547771,-0.6232624902297451
1592295469.1080165,-1.7836586878333125,9.434607997732146,0.5705226696904733,-0.31555555555555553,-0.6855555555555556,-0.024444444444444446,0.06243683785181159,0.11901166576444007,-0.6506139321968912
1592295469.1180165,-1.6627161400930688,9.459086456037227,0.627234876316434,-0.2978874465942798,-0.6855555555555556,-0.029997278689416824,-0.018937388771907003,0.19277274865831073,-0.7340428226346272
1592295469.1280165,-1.6933897110641296,9.472346723044398,0.7140028188865398,-0.27666666666666667,-0.6855555555555556,-0.03666666666666667,-0.021781253975514153,0.20898442086423996,-0.6989965243567935
1592295469.1380165,-1.9797911559644712,9.57997389449556,0.4200913692655439,-0.27666666666666667,-0.6855555555555556,-0.03666666666666667,0.02856378482855032,0.2568059311316004,-0.5650546168363397
1592295469.1480165,-2.144975436901023,9.578854393170653,0.3985105097849722,-0.27666666666666667,-0.6855555555555556,-0.03666666666666667,-0.11310365544277792,0.32288055278205535,-0.5762960402580867
1592295469.1580164,-2.151306747843734,9.602159512937595,0.7563961440892948,-0.27666666666666667,-0.6855555555555556,-0.03666666666666667,-0.026592561711522276,0.36763397087164,-0.7562983180005933
1592295469.1680164,-2.11,9.725366616989568,0.8039679582712369,-0.27666666666666667,-0.7010015731081305,-0.03347093889716841,-0.1098163408792209,0.3703394078924717,-0.7909121423066457
1592295469.1780164,-2.1170821250170806,9.581426901295112,0.8251543355146288,-0.27666666666666667,-0.7177777777777777,-0.03,-0.1804260746134996,0.31813695613180487,-0.7158848670274648
1592295469.1880164,-2.2380782837101254,9.434957867087743,0.7423674900930719,-0.27666666666666667,-0.7177777777777777,-0.03,-0.05747038408446134,0.36745816532706876,-0.8701004788774449
1592295469.1980164,-2.365792771084337,9.37096546184739,0.7,-0.27666666666666667,-0.7177777777777777,-0.03,-0.10758167453166491,0.2970073750793403,-0.8126620988392946
1592295469.2080164,-2.4469759517959937,9.21364829725804,0.7269759517959937,-0.27666666666666667,-0.7177777777777777,-0.03,-0.18796151124998997,0.21522353663867014,-0.7709362390176301
1592295469.2180164,-2.5825615314494077,9.116834928593132,0.828374354299605,-0.26242200952091566,-0.7201518873020696,-0.026676246665991422,-0.19099747623527205,0.14962251490654604,-0.9203239625700224
1592295469.2280164,-2.718343622553972,9.241779848093689,0.9315946421221986,-0.24333333333333335,-0.7233333333333334,-0.022222222222222223,-0.19195368911034236,0.07123842924674137,-0.9750231795880421
1592295469.2380164,-2.7845161902181275,9.171290340062322,0.872903129657228,-0.24333333333333335,-0.7233333333333334,-0.022222222222222223,-0.02213326841169269,0.16051052530237256,-0.8960119812369578
1592295469.2480164,-2.9605206222012725,9.457576243224134,0.8165349988215885,-0.24333333333333335,-0.7233333333333334,-0.022222222222222223,-0.11569657729850959,0.24037444801467714,-0.908256663083314
1592295469.2580163,-3.178165075399304,9.546376193450522,0.9147648790934237,-0.24333333333333335,-0.7233333333333334,-0.022222222222222223,-0.10312171284366914,0.13483149305426656,-0.978164928115218
1592295469.2680163,-3.3309785614249288,9.486181276259561,0.9818616008905806,-0.24131795565450898,-0.7205118045829793,-0.029477581865989956,0.009302048039843462,0.023188546791358133,-1.0904975829907313
1592295469.2780163,-3.28,9.62,0.95,-0.23777777777777778,-0.7155555555555555,-0.042222222222222223,-0.04908738521234052,0.10799224746714915,-1.0439250588491082
1592295469.2880163,-3.4170391312152217,9.188268114641298,0.7582681146412972,-0.23777777777777778,-0.7155555555555555,-0.042222222222222223,-0.2169961225124293,-0.046326760298090464,-0.9439647407838626
1592295469.2980163,-3.544765494536953,9.156318049525265,0.7487007967937401,-0.23777777777777778,-0.7155555555555555,-0.042222222222222223,-0.18634272069001234,0.08493131756807049,-0.959749968737962
1592295469.3080163,-3.646856619890177,9.220898108602807,0.9025302013422819,-0.23777777777777778,-0.7155555555555555,-0.042222222222222223,-0.13683896468659126,0.07777869731420307,-0.9550157611648804
1592295469.3180163,-3.763650523677379,8.942946916122102,0.7126470324948527,-0.2237664985726932,-0.7311835208227653,-0.04922786182476452,-0.16256649882114896,0.11191459021813988,-0.8890428091343056
1592295469.3280163,-3.81,8.67,0.45,-0.2088888888888889,-0.7477777777777778,-0.056666666666666664,-0.16144295580947549,0.1832595714594046,-0.8323038870447959
1592295469.3380163,-3.9866193626307265,9.076217507068156,0.8477659136449727,-0.2088888888888889,-0.7477777777777778,-0.056666666666666664,-0.18453095478282647,0.03760400407045831,-0.7155321150776628
1592295469.3480163,-3.904747959329801,8.936178576543032,0.6789918373192038,-0.2088888888888889,-0.7477777777777778,-0.056666666666666664,-0.2336540634414056,0.0052802895761055735,-0.5355994763291774
1592295469.3580163,-3.891212338593974,8.936965566714491,0.8181779053084649,-0.2088888888888889,-0.7477777777777778,-0.056666666666666664,-0.14951033127411792,0.014047772028247044,-0.4732041932395018
1592295469.3680162,-4.023535655789341,8.954269560287262,1.0939426105581453,-0.19197391261741772,-0.7448780675598113,-0.04361797068581748,-0.11400964911232211,-0.038785961100089666,-0.5299931302645997
1592295469.3780162,-4.21,8.7,1.19,-0.17,-0.7411111111111112,-0.02666666666666667,-0.09490227807719166,-0.16144295580947549,-0.5028729907308661
1592295469.3880162,-4.508660978384528,8.762875995449374,0.9542150170648463,-0.17,-0.7411111111111112,-0.02666666666666667,-0.14677125076013187,-0.1734456932898253,-0.31768789817689785
1592295469.3980162,-4.832798550230786,8.847237074440073,0.625098045289799,-0.17,-0.7411111111111112,-0.02666666666666667,-0.25438913210833397,-0.150567696294826,-0.01910411982446606
1592295469.4080162,-4.553447074130293,8.821250890616772,0.6965600508038784,-0.17,-0.7411111111111112,-0.02666666666666667,-0.31037352734562,-0.06623677182347112,0.006407756486195917
1592295469.4180162,-4.73461108145122,8.736595250806621,1.0243518024186997,-0.17,-0.7411111111111112,-0.02666666666666667,-0.24533853075006218,-0.16023408103756376,0.3028168888702341
1592295469.4280162,-4.675667057949836,8.664958675706107,0.9199173514122129,-0.16380558816248633,-0.7462731209757059,-0.05970352980007293,-0.1588981108073761,-0.09602530356356748,0.22176190248881586
1592295469.4380162,-4.596795446543832,8.687451707546062,0.919150569182021,-0.16333333333333333,-0.7466666666666667,-0.06222222222222222,-0.2774878413134014,-0.058597442815648076,0.3126218865263122
1592295469.4480162,-4.545024058209131,8.672009623283651,0.8390433047764346,-0.16333333333333333,-0.7466666666666667,-0.06222222222222222,-0.24099023841985645,-0.20183457240352232,0.5651383440516113
1592295469.4580162,-4.646042844740609,8.608141673901311,0.7504678664445434,-0.16333333333333333,-0.7466666666666667,-0.06222222222222222,-0.2500787989325531,-0.19117536999442994,0.6549782978532893
1592295469.4680161,-4.501559326475791,8.655322020572626,0.8346779794273733,-0.16333333333333333,-0.7466666666666667,-0.06222222222222222,-0.2889333657663503,-0.007646964635705515,0.7526917503839754
1592295469.4780161,-4.519879447028762,8.600361658913712,0.8896383410862871,-0.16333333333333333,-0.7466666666666667,-0.06222222222222222,-0.3898533305293968,-0.23846391374722756,0.842620431855997
1592295469.4880161,-4.559835101443566,8.593677856881559,0.9376030615977713,-0.16333333333333333,-0.7466666666666667,-0.06222222222222222,-0.33078319251571603,-0.22551352509427436,1.0227842689959044
1592295469.498016,-4.375271679603791,8.582949902376305,1.1223853516834135,-0.16333333333333333,-0.7466666666666667,-0.06222222222222222,-0.3501636160787129,-0.2524407308379424,1.1140623249930748
1592295469.508016,-4.213102181767372,8.61212966844322,1.2954164920055093,-0.16333333333333333,-0.7466666666666667,-0.06222222222222222,-0.3976380321630029,-0.3148964803180184,1.1459479489555717
1592295469.518016,-4.050412371134021,8.638556701030929,1.35,-0.17268041237113402,-0.7408247422680413,-0.0688430698739977,-0.41165929509345633,-0.3257985422649982,1.194763340144211
1592295469.528016,-3.94,8.71,1.35,-0.19,-0.73,-0.0811111111111111,-0.38615409700374537,-0.284706834231575,1.2337296150034915
1592295469.538016,-3.767304226022148,8.807648862224806,1.4155485371461796,-0.19,-0.73,-0.0811111111111111,-0.29664101944016813,-0.38499831282238106,1.2047832322606093
1592295469.548016,-3.578150509899453,8.859099854314442,1.5518986888299777,-0.19,-0.73,-0.0811111111111111,-0.36203993969710013,-0.3481553006943202,1.2559497268001405
1592295469.558016,-3.449790865888602,8.880023237123488,1.7001161856174436,-0.19,-0.73,-0.0811111111111111,-0.42205772607861525,-0.3356342388150614,1.230378544570248
1592295469.568016,-3.212198373438417,8.906422402951288,1.8240840110673262,-0.19731440336118797,-0.7312488005738613,-0.08004071061922995,-0.3442323368561347,-0.3541697165695052,1.1540684205951472
1592295469.578016,-2.91,8.94,1.95,-0.23555555555555555,-0.7377777777777778,-0.07444444444444444,-0.358883327441334,-0.3523383427463553,1.1082840750163994
1592295469.588016,-2.9692684025110587,8.99,1.8478052075331761,-0.23555555555555555,-0.7377777777777778,-0.07444444444444444,-0.2561410697060955,-0.39897772257591213,1.1514213428065614
1592295469.598016,-2.937211515297519,9.019839797639124,1.7857371717658397,-0.23555555555555555,-0.7377777777777778,-0.07444444444444444,-0.23931489779756654,-0.39315698886290146,1.0985820930664165
1592295469.608016,-2.92,9.06,1.78,-0.23555555555555555,-0.7377777777777778,-0.07444444444444444,-0.17235126363444003,-0.3174317577064687,1.186823891356144
1592295469.618016,-2.684351594380846,9.04,2.019128236611173,-0.2388880863818569,-0.7343003543068546,-0.0780667605599894,-0.15039397568216378,-0.40024137826111333,1.2255287467383191
1592295469.628016,-2.58,9.04,2.08,-0.2611111111111111,-0.7111111111111111,-0.10222222222222223,-0.10581058590215622,-0.36324665057131983,1.1126473981463851
1592295469.638016,-2.365723355244677,9.109535367155457,2.1278352716444746,-0.2611111111111111,-0.7111111111111111,-0.10222222222222223,-0.14712738756630356,-0.332231118196229,1.1366341535799087
1592295469.648016,-2.1049532554257095,9.224570951585976,2.1286661101836395,-0.2611111111111111,-0.7111111111111111,-0.10222222222222223,-0.097105246353629,-0.35787499187494287,1.1067789470669278
1592295469.658016,-2.0338741243783756,9.26,2.179188813432437,-0.2611111111111111,-0.7111111111111111,-0.10222222222222223,-0.022397874873905224,-0.35649721895410963,1.0437862332642551
1592295469.668016,-2.018780104078422,9.257560208156844,2.197560208156844,-0.2669395027364288,-0.7054182634770799,-0.09964688638777953,0.06100771152679047,-0.2551230492824856,1.1063931080396985
1592295469.678016,-2.01,9.24,2.18,-0.3088888888888889,-0.6644444444444444,-0.0811111111111111,0.0839939702522271,-0.29343348049154666,1.0613783513690518
1592295469.688016,-2.100208387873711,9.179895806063145,2.053819571705325,-0.3088888888888889,-0.6644444444444444,-0.0811111111111111,0.13593719717284491,-0.41462935530232453,1.1204270851742613
1592295469.698016,-2.042229832572298,9.20355403348554,2.002648401826484,-0.3088888888888889,-0.6644444444444444,-0.0811111111111111,0.19075508982710665,-0.38572075326823313,1.1182418491686406
1592295469.708016,-1.9689180585576733,9.21,2.096916093535076,-0.3088888888888889,-0.6644444444444444,-0.0811111111111111,0.29982297517873935,-0.34960297041749033,1.042652244310601
1592295469.718016,-1.7931983240223464,9.228264068674207,2.1351604442022074,-0.3156110808314787,-0.6644444444444444,-0.08212578159301145,0.3784987732090332,-0.2888056245798265,1.056706313763627
1592295469.728016,-1.43,9.37,2.02,-0.36777777777777776,-0.6644444444444444,-0.09,0.3021601267515183,-0.3883357585687383,1.0373800741541295
1592295469.738016,-1.2556565656565657,9.487818181818183,1.8617575757575757,-0.36777777777777776,-0.6644444444444444,-0.09,0.2430084502590539,-0.3624445042989386,1.0657460818961386
1592295469.7480159,-1.162905253172062,9.559131981501245,1.6772453456658365,-0.36777777777777776,-0.6644444444444444,-0.09,0.32306273667286683,-0.31170997318933974,1.066161941214599
1592295469.7580159,-1.0473240353828621,9.545445994102856,1.7036149852571407,-0.36777777777777776,-0.6644444444444444,-0.09,0.31451255553697566,-0.2924502114137116,1.1006227849176218
1592295469.7680159,-0.9494938356688873,9.563939811624168,1.7419699058120837,-0.3712798325548153,-0.6628393360049688,-0.08905152683121899,0.3894818033145727,-0.276586038011074,0.979428759552096
1592295469.7780159,-0.8,9.62,1.77,-0.4211111111111111,-0.64,-0.07555555555555556,0.40578905108868163,-0.25416357232167425,1.0395617357191225
1592295469.7880158,-0.7421505496657249,9.65430109933145,1.7290318610310778,-0.4211111111111111,-0.64,-0.07555555555555556,0.2875452705808263,-0.1750255978284348,0.9168140254000946
1592295469.7980158,-0.7400539740160489,9.650107948032097,1.4832613679786015,-0.4211111111111111,-0.64,-0.07555555555555556,0.29713488566868407,-0.22638985140544937,0.9791337431497973
1592295469.8080158,-0.7023746278083551,9.632661192817828,1.5049641793738158,-0.4211111111111111,-0.64,-0.07555555555555556,0.4244503971161916,-0.2438291735730191,0.9546667744762674
1592295469.8180158,-0.6393796656502997,9.71365471559247,1.4915171906213858,-0.42142953383411796,-0.639662846528581,-0.07570540154285292,0.47049672939231874,-0.14342622221875684,0.8057929486183364
1592295469.8280158,-0.02,10.51,1.58,-0.44,-0.62,-0.08444444444444445,0.2999784651865254,-0.23780111058422737,0.7864889941799448
1592295469.8380158,1.0480722712549404,11.088097233366023,1.555437579863897,-0.44,-0.62,-0.08444444444444445,0.2586012901693751,-0.03628209312563953,0.4911357409793615
1592295469.8480158,2.9114791210881767,11.861796109578616,1.927125701512413,-0.44,-0.62,-0.08444444444444445,0.23652991866716666,0.06704915449910812,-0.1585311857311147
1592295469.8580158,4.646990534023933,10.092554027504912,1.52622968387212,-0.44,-0.62,-0.08444444444444445,0.29601804222767775,0.06552602391638071,0.07769368701515435
1592295469.8680158,0.3920121450258973,9.845345776031435,1.0992336131452047,-0.44,-0.62,-0.08444444444444445,0.11624312863141509,0.208528796095226,0.09240254358212129
1592295469.8780158,-0.88,9.85,0.77,-0.48,-0.5933333333333334,-0.056666666666666664,0.2454369260617026,0.1308996938995747,0.007635815477475192
1592295469.8880157,-0.43673712867323244,9.707578135425841,1.3137913363760108,-0.48,-0.5933333333333334,-0.056666666666666664,0.18819738075055145,0.10344544512635667,-0.07411934156094696
1592295469.8980157,-0.33214335155261715,9.882631214645441,0.9064670501467886,-0.48,-0.5933333333333334,-0.056666666666666664,0.10579847915671237,0.08395689497155605,0.0029113207930871188
1592295469.9080157,-0.20464679090529678,9.924238509136439,0.6746467909052968,-0.48,-0.5933333333333334,-0.056666666666666664,0.0630815472050387,0.10362716266593643,0.053933564610961576
1592295469.9180157,-0.21986862399970966,9.741576512003483,0.6898686239997096,-0.48,-0.5933333333333334,-0.056666666666666664,0.09462999100531554,0.021435164344162566,-0.037390877968787165
1592295469.9280157,-0.19,9.76,0.85,-0.5133333333333333,-0.59,-0.06333333333333334,0.0032724923474893677,0.07090400086226964,0.10581058590215622
1592295469.9380157,-0.3399454064659217,9.787111660837668,0.9014259717364724,-0.5133333333333333,-0.59,-0.06333333333333334,-0.037684638151009385,0.07310154304259532,0.004485126208915096
1592295469.9480157,-0.52,9.870409505270155,0.9072013578957364,-0.5133333333333333,-0.59,-0.06333333333333334,-0.0908180847782886,0.06132862278916721,0.05260914964017152
1592295469.9580157,-0.5389821392881153,9.786253974598907,0.9674920508021876,-0.5133333333333333,-0.59,-0.06333333333333334,-0.008111970041108656,0.12784472554209023,-0.06772198660265018
1592295469.9680157,-0.6075699983647365,9.664320002907136,1.2113599941857296,-0.5133333333333333,-0.59,-0.06333333333333334,-0.04136430247946747,-0.009321145766139904,0.09355182572339006
1592295469.9780157,-0.53,9.72,1.29,-0.4866666666666667,-0.5955555555555555,-0.051111111111111114,0.053450708342326333,0.03599741582238304,-0.009817477042468103
1592295469.9880157,-0.5430426141496528,9.852768242005007,1.2083292465735744,-0.4866666666666667,-0.5955555555555555,-0.051111111111111114,0.002418421651976692,0.05956598291154144,-0.0003019683592461733
1592295469.9980156,-0.4133053545586107,9.732231548480463,1.180715870718765,-0.4866666666666667,-0.5955555555555555,-0.051111111111111114,-0.09571306055170711,0.011493978187202162,0.020473204657303238
1592295470.0080156,-0.48,9.71,1.24,-0.4866666666666667,-0.5955555555555555,-0.051111111111111114,-0.1854412330243975,0.05999569303730508,0.044724062082354694
1592295470.0180156,-0.4979998740871317,9.64700044069504,1.3299993704356585,-0.4866666666666667,-0.5955555555555555,-0.051111111111111114,-0.029344439978734232,-0.01068964720978774,0.08203021387943145
1592295470.0280156,-0.48,9.76,1.44,-0.4922222222222222,-0.6022222222222222,-0.06555555555555556,-0.1265363707695889,-0.044724062082354694,0.025089107997418484
1592295470.0380156,-0.5742246506313538,9.77359593355404,1.537887674684323,-0.4922222222222222,-0.6022222222222222,-0.06555555555555556,-0.06564639015760246,0.07042852609058294,0.016117405913458827
1592295470.0480156,-0.61,9.55,1.52,-0.4922222222222222,-0.6022222222222222,-0.06555555555555556,0.1636246173744684,0.02945243112740431,-0.022907446432425576
1592295470.0580156,-0.6381801027782239,9.568189537497993,1.5545403083346716,-0.4922222222222222,-0.6022222222222222,-0.06555555555555556,-0.0415395088793672,-0.020723726530883068,-0.009616898714869189
1592295470.0680156,-0.6213409346394733,9.643965794122371,1.5040228039184198,-0.4922222222222222,-0.6022222222222222,-0.06555555555555556,0.06867258886492905,-0.0005181752777620868,0.01242552083399006
1592295470.0780156,-0.5162973753734476,9.783702624626551,1.2959329399274093,-0.4922222222222222,-0.6022222222222222,-0.051111111111111114,0.0793889465360305,0.04771668917563007,0.011754259876702323
1592295470.0880156,-0.49786873912317925,9.785081173862256,1.1686873912317925,-0.4922222222222222,-0.6022222222222222,-0.051111111111111114,0.07476693621918952,-0.011606515460295987,0.048622416218347224
1592295470.0980155,-0.4750070707797033,9.73,1.096425541094413,-0.4922222222222222,-0.6022222222222222,-0.051111111111111114,0.0910093186915339,-0.060933335316298576,0.035223760280711704
1592295470.1080155,-0.43642919789507256,9.737301865731144,1.1364291978950727,-0.4922222222222222,-0.6022222222222222,-0.051111111111111114,0.04841133452884945,-0.046732818879718606,0.0015240494180900482
1592295470.1180155,-0.5105305809093236,9.769204128636014,1.2126529045466177,-0.4922222222222222,-0.6023696058081455,-0.0518775057579118,-0.04260027791621129,-0.07376251162216824,0.042426645719662766
1592295470.1280155,-0.53,9.738311571660168,1.3184421416991632,-0.4922222222222222,-0.6077777777777778,-0.08,-0.0277795976967696,-0.024437850045251952,0.01939282339466205
1592295470.1380155,-0.519479266195299,9.727130708962354,1.3485228358494172,-0.4922222222222222,-0.6077777777777778,-0.08,0.06825634422479997,-0.047608207831756746,-0.04835936562360196
1592295470.1480155,-0.4267568973261779,9.695173644767015,1.2554443367455494,-0.4922222222222222,-0.6077777777777778,-0.08,0.1855169998472296,0.0015287207252088104,0.16638288560784206
1592295470.1580155,-0.5035514953186074,9.654743023361513,1.391191528042905,-0.4922222222222222,-0.6077777777777778,-0.08,0.15967158781886798,-0.052528068376416596,-0.014364320726243987
1592295470.1680155,-0.6560576311244432,9.708120170893556,1.292062539769112,-0.4922222222222222,-0.6077777777777778,-0.08,0.09063285702438284,-0.017592807010532563,-0.0409816627192985
1592295470.1780155,-0.4277377064697809,9.764932083865776,1.1849320838657769,-0.4922222222222222,-0.6022222222222222,-0.03,0.03974864705226579,0.011850968587783567,0.01590824576771785
1592295470.1880155,-0.55,9.731149774106695,1.143101355359832,-0.4922222222222222,-0.6022222222222222,-0.03,0.018247085595181213,-0.0643590161672909,-0.06239847769524963
1592295470.1980155,-0.55,9.73925742923696,1.095940566104327,-0.4922222222222222,-0.6022222222222222,-0.03,0.1290311832340251,-0.05901289046034561,0.04697055597027144
1592295470.2080154,-0.5476826744683888,9.732780790637934,1.168146139574711,-0.4922222222222222,-0.6022222222222222,-0.03,0.28110959905373206,0.003287982238007193,-0.02825457220690781
1592295470.2180154,-0.5102709790209791,9.777674825174824,1.138216783216783,-0.4922222222222222,-0.6022222222222222,-0.03,0.25825609480285855,-0.06690492367539015,0.06152705163580972
1592295470.2280154,-0.54,9.765705722070845,1.1078528610354224,-0.4988888888888889,-0.6044444444444445,-0.06555555555555556,0.12220336500739998,-0.1131557113236964,-0.0961209173709888
1592295470.2380154,-0.542916249203024,9.737776664541398,1.0686141725111578,-0.4988888888888889,-0.6044444444444445,-0.06555555555555556,0.08893261496396407,-0.045389648694245006,0.020513709240760045
1592295470.2480154,-0.5666320318803021,9.811683984059849,0.8722453120797985,-0.4988888888888889,-0.6044444444444445,-0.06555555555555556,0.11521077743369061,-0.10929400118094071,0.016339793322779895
1592295470.2580154,-0.5076692517291972,9.8405826870677,0.91,-0.4988888888888889,-0.6044444444444445,-0.06555555555555556,0.12202351854051427,-0.05183926936621336,-0.022632623837464196
1592295470.2680154,-0.4783651226158038,9.847908719346048,0.91,-0.4988888888888889,-0.6044444444444445,-0.06555555555555556,0.06528414172874056,0.023280468947965927,-0.04660700840581928
1592295470.2780154,-0.5137631754964597,9.82811841225177,0.9637631754964596,-0.4922222222222222,-0.6044444444444445,-0.057777777777777775,0.026936352449582028,-0.04847163706161934,0.02993901154886985
1592295470.2880154,-0.5506103565948286,9.810610356594829,0.9902342944827428,-0.4922222222222222,-0.6044444444444445,-0.057777777777777775,0.04871883665398705,-0.038547625945729434,0.058428712107461894
1592295470.2980154,-0.5602225257258577,9.819332422822427,0.8411126286292886,-0.4922222222222222,-0.6044444444444445,-0.057777777777777775,0.10701831618052339,0.020916995556789192,0.10047631112551851
1592295470.3080153,-0.56953630105553,9.79046369894447,0.8900772831574116,-0.4922222222222222,-0.6044444444444445,-0.057777777777777775,-0.030858506499324204,-0.0652761350261865,0.05605210196848324
1592295470.3180153,-0.5233393299678751,9.836660670032124,0.8977767783386875,-0.4922222222222222,-0.6044444444444445,-0.057777777777777775,0.046410879952128656,0.06070656027509533,-0.11948378681796949
1592295470.3280153,-0.556530278232406,9.81,0.97,-0.4922222222222222,-0.6088888888888889,-0.03,-0.0034887711652487772,-0.04420223842535499,-0.06459161791469253
1592295470.3380153,-0.4890900987544275,9.809090098754428,0.9675735966784734,-0.4922222222222222,-0.6088888888888889,-0.03,-0.008231344450096583,0.006709437075619695,-0.1516906763188781
1592295470.3480153,-0.46114545368485826,9.78042954513182,0.8905727268424292,-0.4922222222222222,-0.6088888888888889,-0.03,-0.02758314359725324,-0.024859784150187077,-0.11668269964473663
1592295470.3580153,-0.5398413640533104,9.809894242702207,0.930846058382345,-0.4922222222222222,-0.6088888888888889,-0.03,-0.049445011491650315,-0.15856334618324894,0.03585897984329538
1592295470.3680153,-0.5172098419036314,9.794806561269088,1.0515475098472995,-0.4922222222222222,-0.6088888888888889,-0.03,-0.10046514425726533,-0.05899179675358093,0.01610925103079925
1592295470.3780153,-0.5381787297875626,9.74757163971675,1.135463810637312,-0.5066666666666667,-0.6088888888888889,-0.044444444444444446,-0.0528584048661099,-0.07143378689186179,0.02634364401062513
1592295470.3880153,-0.5104209040171185,9.710561205356159,1.2187372879486444,-0.5066666666666667,-0.6088888888888889,-0.044444444444444446,-0.07708167751056892,-0.07950821110668146,0.012213401634690691
1592295470.3980153,-0.5199614151011648,9.700038584898834,1.1901157546965055,-0.5066666666666667,-0.6088888888888889,-0.044444444444444446,-0.033984112638946004,0.022511804235769275,0.04677103694210291
1592295470.4080153,-0.5001132766949858,9.729830084957522,1.2198300849575212,-0.5066666666666667,-0.6088888888888889,-0.044444444444444446,-0.022969229285340585,0.09666381624236252,-0.013834816196129883
1592295470.4180152,-0.5225562486478691,9.722481250450711,1.2275187495492896,-0.5066666666666667,-0.6088888888888889,-0.044444444444444446,-0.02618811981412419,0.016707441790568503,0.02846795378962807
1592295470.4280152,-0.5098551982459346,9.769275991229673,1.1994207929837384,-0.5066666666666667,-0.6166666666666667,-0.06555555555555556,0.049403293633728584,-0.0787461035423547,0.011904366081044596
1592295470.4380152,-0.5002756714781655,9.721378357390828,1.161102685912662,-0.5066666666666667,-0.6166666666666667,-0.06555555555555556,0.0703025789937911,-0.02022810453417967,0.005634580473025843
1592295470.4480152,-0.5,9.756970549530335,1.0860589009393293,-0.5066666666666667,-0.6166666666666667,-0.06555555555555556,0.13240513640935667,0.14781140727574643,0.027634891322907106
1592295470.4580152,-0.5,9.76,1.1281143127773068,-0.5066666666666667,-0.6166666666666667,-0.06555555555555556,0.06501596722506787,-0.07473762474319484,-0.0755167157848936
1592295470.4680152,-0.5216095353477765,9.738390464652223,1.1804222491448118,-0.5066666666666667,-0.6166666666666667,-0.06555555555555556,0.06532033411600463,-0.05413566487201393,-0.09220256517706789
1592295470.4780152,-0.51,9.73,1.18,-0.48,-0.6044444444444445,-0.051111111111111114,0.038179077387375956,0.011999138607461015,0.03381575425739013
1592295470.4880152,-0.5262691626222942,9.738134581311147,1.1555962560665587,-0.48,-0.6044444444444445,-0.051111111111111114,0.05237660010244731,0.03507011301945196,-0.049594691693654054
1592295470.4980152,-0.54903589112086,9.73048205443957,1.0262667077144103,-0.48,-0.6044444444444445,-0.051111111111111114,0.0037200298901067658,0.09434957257026987,-0.016809999280064235
1592295470.5080152,-0.5127120852529201,9.80457582949416,1.06660989343385,-0.48,-0.6044444444444445,-0.051111111111111114,0.1485369997094128,0.003531887633382469,0.024460264787703474
1592295470.5180151,-0.538063275211217,9.781936724788784,1.041936724788783,-0.48,-0.6044444444444445,-0.051111111111111114,0.08655711865657771,-0.05990521859490998,-0.03548441357662227
1592295470.5280151,-0.5598072349036175,9.769935744967873,1.070128510064255,-0.4988888888888889,-0.6044444444444445,-0.03,0.04057802218999135,-0.1502227414014722,0.15653642458543346
1592295470.5380151,-0.5151379175689588,9.755045972522986,1.0999080549540277,-0.4988888888888889,-0.6044444444444445,-0.03,0.09092891078446452,-0.07794485293521235,0.030659203099250548
1592295470.548015,-0.5133543633211327,9.790063089963398,0.9964879117703718,-0.4988888888888889,-0.6044444444444445,-0.03,0.13639858112024886,-0.08258540952499271,-0.06735507085452712
1592295470.558015,-0.555054024599097,9.757418963101355,0.9925810368986455,-0.4988888888888889,-0.6044444444444445,-0.03,-0.03013994493305619,0.00998248579044779,0.0848163646132984
1592295470.568015,-0.5257490258334536,9.763700389666619,1.047951363833165,-0.4988888888888889,-0.6044444444444445,-0.03,0.004146857214856282,0.026583588675472874,0.0772953341149455
1592295470.578015,-0.5216577387329476,9.787486608099421,1.005882436968788,-0.5073083668626844,-0.6070350530517662,-0.038419477973795524,-0.0052441060737842965,-0.02868235960007091,-0.021752339141425485
1592295470.588015,-0.5727603473632608,9.791447930527347,0.9771041389453042,-0.5133333333333333,-0.6088888888888889,-0.044444444444444446,0.0653860579097016,-0.0631250229163864,-0.020241828497440717
1592295470.598015,-0.463862857682947,9.781066373667919,0.917464615675433,-0.5133333333333333,-0.6088888888888889,-0.044444444444444446,-0.056567750666204855,-0.06802439936371091,-0.013715506883410047
1592295470.608015,-0.5212155445097153,9.833411658382285,0.8120786262991415,-0.5133333333333333,-0.6088888888888889,-0.044444444444444446,0.03955629438073119,-0.06483813389010452,0.005240226863407062
1592295470.618015,-0.48964175016218553,9.819820875081094,0.8538109997837526,-0.5133333333333333,-0.6088888888888889,-0.044444444444444446,-0.016987725658906647,-0.04821687504200834,0.0296478261028605
1592295470.628015,-0.5022564015601153,9.834192301170086,0.9041923011700865,-0.4918290656265898,-0.6088888888888889,-0.04982051137113033,0.020862818519064574,0.044086322858048296,-0.0669574020983696
1592295470.638015,-0.5281756621187801,9.80364867576244,0.9281756621187801,-0.4866666666666667,-0.6088888888888889,-0.051111111111111114,-0.023283294980026306,0.026688529877592744,-0.03720621566422252
1592295470.648015,-0.5212071617123838,9.808792838287617,0.8948286468495352,-0.4866666666666667,-0.6088888888888889,-0.051111111111111114,0.04152465902797005,-0.019295147714013226,-0.07000008737097796
