time,acc_x,acc_y,acc_z,mag_x,mag_y,mag_z,gyr_x,gyr_y,gyr_z
1592288268.1425824,-0.3988646901186779,9.702576460079118,0.9485588498022034,-0.4866666666666667,-0.56,-0.18777777777777777,0.01087494582179067,0.020692422864258774,-0.0051731057160646935
1592288268.1525824,-0.3747880485885897,9.705635854234231,0.9643641457657692,-0.4866666666666667,-0.56,-0.18777777777777777,0.024890497292110077,0.02617993877991494,-0.008250591805911384
1592288268.1625824,-0.3464727058742082,9.755290941188688,0.9088272352798643,-0.4670605882285068,-0.5671888954273253,-0.17536059476694318,0.043632249555929925,0.028104761029509574,-0.009817477042468103
1592288268.1725824,-0.33964438004553926,9.77517780997723,0.8631223349203063,-0.4533333333333333,-0.5722222222222222,-0.16666666666666666,0.05100603711153921,0.030241460124786967,-0.009817477042468103
1592288268.1825824,-0.395873328950252,9.747063335524874,0.7776583388121849,-0.4533333333333333,-0.5722222222222222,-0.16666666666666666,0.04876704481160739,0.03625285143296763,-0.011934233817312475
1592288268.1925824,-0.2949545751024972,9.773836889675735,0.76,-0.4533333333333333,-0.5722222222222222,-0.16666666666666666,0.04578193517931029,0.038179077387375956,-0.015304588640491239
1592288268.2025824,-0.2013435945113028,9.843152557546958,0.731007695883477,-0.4533333333333333,-0.5722222222222222,-0.16666666666666666,0.03681763763590422,0.05293773635408351,-0.02374179122080062
1592288268.2125823,-0.14060339920305764,9.875754249003823,0.7048491501992356,-0.4624928392652228,-0.5695282498893135,-0.18121411726437342,0.020956157116122854,0.07718570298731672,-0.04062641661306472
1592288268.2225823,-0.13539498303364728,9.863195699743127,0.7034021501284369,-0.4722222222222222,-0.5666666666666667,-0.19666666666666666,0.010930828068500067,0.08737515477358525,-0.05521621241157091
1592288268.2325823,-0.15373398249649034,9.925542578930076,0.5815636667761881,-0.4722222222222222,-0.5666666666666667,-0.19666666666666666,-0.009160678245802627,0.0978463710263483,-0.08495368890267763
1592288268.2425823,-0.1535077378479435,9.993612380556709,0.4162829767345243,-0.4722222222222222,-0.5666666666666667,-0.19666666666666666,-0.04631167519488348,0.11313225503021648,-0.10842054130444996
1592288268.2525823,-0.15933335225337725,10.013600011352025,0.3949333068452719,-0.4722222222222222,-0.5666666666666667,-0.19666666666666666,-0.06914410903790369,0.11990411589706851,-0.1191914352453529
1592288268.2625823,-0.09121696547816585,10.024539641426202,0.5018094621393014,-0.46134863140286264,-0.5737025195497817,-0.18771194481542938,-0.13578704314912154,0.14207001478431977,-0.14451717703027644
1592288268.2725823,-0.009955747013902491,10.07119208928921,0.5188079107107891,-0.4533333333333333,-0.5788888888888889,-0.1811111111111111,-0.1782702007430673,0.16735706566615746,-0.15901087520994198
1592288268.2825823,0.15884245117097104,10.104115754882903,0.5153054707025826,-0.4533333333333333,-0.5788888888888889,-0.1811111111111111,-0.25430387680860184,0.22947081566453106,-0.1931472007453365
1592288268.2925823,0.14273319900438547,10.077093279601755,0.602993481095176,-0.4533333333333333,-0.5788888888888889,-0.1811111111111111,-0.3084542863050909,0.28664713477905407,-0.23177905752168734
1592288268.3025823,0.1,10.046071865354376,0.6917844039368704,-0.4533333333333333,-0.5788888888888889,-0.1811111111111111,-0.34411769306099105,0.3265864522928314,-0.27469381952976707
1592288268.3125823,-0.0018892045454545342,9.98709928229665,0.8204388456937799,-0.44916243022328545,-0.5723346125730994,-0.20017809675704412,-0.3727643448718279,0.3587417543074813,-0.32731374186234546
1592288268.3225822,-0.1130539329869199,9.939753807561369,0.8976846443289733,-0.44555555555555554,-0.5666666666666667,-0.21666666666666667,-0.3853963986322303,0.3747943677891994,-0.36080155562007915
1592288268.3325822,-0.2453613798906184,9.862464450988641,1.0685485906604963,-0.44555555555555554,-0.5666666666666667,-0.21666666666666667,-0.39658807470805857,0.36930179396329615,-0.4234000253321696
1592288268.3425822,-0.2129380413057961,9.788780812791472,1.2560226515656228,-0.44555555555555554,-0.5666666666666667,-0.21666666666666667,-0.3859506109150718,0.34117567731054876,-0.4594941170418499
1592288268.3525822,-0.09945497630331754,9.778502800517018,1.5846940973718224,-0.44555555555555554,-0.5666666666666667,-0.21666666666666667,-0.2771008626811522,0.26269729051778773,-0.6030362596651304
1592288268.3625822,-0.1749149368500737,9.952534762341129,1.4895517749711145,-0.43568778747271913,-0.5666666666666667,-0.19809204439309225,-0.17101426903856218,0.22371640295968773,-0.7463423881916524
1592288268.3725822,-0.038372804683342206,9.959712613092071,1.4016271953166577,-0.4266666666666667,-0.5666666666666667,-0.1811111111111111,-0.1182795248346493,0.2055510671413093,-0.825080253502165
1592288268.3825822,-0.21316533823829964,10.044765174739425,1.1684344982628245,-0.4266666666666667,-0.5666666666666667,-0.1811111111111111,-0.10234650148957848,0.23515088001480958,-0.8901312501502152
1592288268.3925822,-0.4302544955806157,9.897711571675302,0.9783053946967388,-0.4266666666666667,-0.5666666666666667,-0.1811111111111111,-0.14734543912102502,0.27736691616233566,-0.9860094580979017
1592288268.4025822,-0.4982678864244412,9.82862201892926,1.0527559621414804,-0.4266666666666667,-0.5666666666666667,-0.1811111111111111,-0.17065497014610984,0.30177803315214896,-1.0201459457026814
1592288268.4125822,-0.6663504898149588,9.79207588244441,1.1025781371481884,-0.41735862748146996,-0.5790773855802623,-0.19765873632923858,-0.2063520740858441,0.36521526852523895,-1.0832838482707345
1592288268.4225821,-0.8352335152933021,9.740002599428125,1.1409522571700892,-0.4066666666666667,-0.5933333333333334,-0.21666666666666667,-0.22117881921147317,0.39680229163978087,-1.1106211239660575
1592288268.4325821,-1.1041687895329693,9.587363659994802,1.1482207780954856,-0.4066666666666667,-0.5933333333333334,-0.21666666666666667,-0.2275218003063868,0.41979559810884276,-1.1367859209825764
1592288268.4425821,-1.7125693557451593,9.297633985592396,1.3384981862770142,-0.4066666666666667,-0.5933333333333334,-0.21666666666666667,-0.22838891231610733,0.42296207037482453,-1.184231405742044
1592288268.4525821,-2.0646113313352026,9.053827226143286,1.6835947017306392,-0.4066666666666667,-0.5933333333333334,-0.21666666666666667,-0.17051969515486695,0.34631377809355274,-1.1969653587460771
1592288268.462582,-1.866819716502037,9.18,1.5844904849600983,-0.4005698637696796,-0.5952494713866722,-0.21806022161454944,-0.057417030917144424,0.26308444234477746,-1.1735213746322344
1592288268.472582,-2.1535554439421842,9.18,1.7132289748311849,-0.37781306000458853,-0.6024016097128436,-0.22326177676085596,0.005139000669500848,0.25159455899212835,-1.1645847986912852
1592288268.482582,-1.901157629615549,9.380563607850592,1.3967288409447323,-0.36777777777777776,-0.6055555555555555,-0.22555555555555556,0.08742016279788697,0.1693466969106418,-1.187991572237726
1592288268.492582,-1.58307297467435,9.669773860829983,1.0548612657982666,-0.36777777777777776,-0.6055555555555555,-0.22555555555555556,0.1124351736182585,0.13938193194538673,-1.2337352141542808
1592288268.502582,-1.57,9.77,1.02,-0.36777777777777776,-0.6055555555555555,-0.22555555555555556,0.09817477042468103,0.1636246173744684,-1.2522737383059315
1592288268.512582,-1.663508585155461,9.67649141484454,1.0695045450823029,-0.34516459051796045,-0.6165565655738451,-0.2371677327970834,0.030373412353944126,0.22662587929860448,-1.3140749761934172
1592288268.522582,-1.74,9.6,1.11,-0.32666666666666666,-0.6255555555555555,-0.24666666666666667,-0.025089107997418484,0.2781618495365963,-1.3646293089030663
1592288268.532582,-1.886772423478012,9.421121108886172,1.1466931058695031,-0.32666666666666666,-0.6255555555555555,-0.24666666666666667,-0.03759722343112326,0.3171871696897552,-1.4126604721684928
1592288268.542582,-2.1391458674783426,9.219893233434794,1.1355872161086398,-0.32666666666666666,-0.6255555555555555,-0.24666666666666667,-0.04534517923991806,0.38105319246032676,-1.492011935517826
1592288268.552582,-2.339648916608216,9.237719284942466,1.0375439328164395,-0.32666666666666666,-0.6255555555555555,-0.24666666666666667,-0.03902112075078624,0.4110326734814468,-1.526110520611911
1592288268.562582,-2.6803821382567623,9.16113782739373,0.9836711034778874,-0.3156538333094795,-0.6327708601688851,-0.24894518391298126,-0.05229102735586811,0.4294145067909943,-1.5446440217703132
1592288268.572582,-2.9828451216738685,8.980366158744598,1.0132112804184672,-0.29444444444444445,-0.6466666666666666,-0.25333333333333335,-0.0773691021112707,0.4267698675786765,-1.5450465678141287
1592288268.582582,-3.148644309103852,8.828050304516333,1.040677845448074,-0.29444444444444445,-0.6466666666666666,-0.25333333333333335,-0.10246415208661344,0.38791954661787514,-1.5021014243550772
1592288268.592582,-3.1715322171486555,8.780383054287164,1.0305107390495518,-0.29444444444444445,-0.6466666666666666,-0.25333333333333335,-0.10333643115169941,0.3681297463598011,-1.475016569161313
1592288268.602582,-3.2442157104161535,8.887481105449586,1.0559125262818936,-0.29444444444444445,-0.6466666666666666,-0.25333333333333335,-0.07534301041197558,0.30476792992729684,-1.3902679544431757
1592288268.612582,-3.156952294733528,9.05438164213178,1.04219082106589,-0.2781900163565912,-0.6585188538140596,-0.25333333333333335,-0.06877437767043211,0.2574668926823035,-1.354853265053746
1592288268.622582,-3.15,9.11,1.07,-0.2411111111111111,-0.6855555555555556,-0.25333333333333335,-0.07635815477475191,0.2301652951067522,-1.34499435481813
1592288268.632582,-3.294886095836606,9.037022780832679,1.0670227808326789,-0.2411111111111111,-0.6855555555555556,-0.25333333333333335,-0.09721718723580453,0.1994887856032315,-1.3664945609893187
1592288268.642582,-3.53,8.99,1.02,-0.2411111111111111,-0.6855555555555556,-0.25333333333333335,-0.10362892433716332,0.19307704850187268,-1.3722651243805415
1592288268.652582,-3.7262834991986287,8.757126243989713,0.8640038764024004,-0.2411111111111111,-0.6855555555555556,-0.25333333333333335,-0.10518785809773878,0.1854704665900397,-1.346582522144348
1592288268.662582,-3.755882459838628,8.56,0.9342967216689686,-0.22734296883202895,-0.6869053734260538,-0.25009377044413755,-0.11633111238367388,0.16041349763915116,-1.3165016042141362
1592288268.672582,-3.93,8.56,1.01,-0.18444444444444444,-0.6911111111111111,-0.24,-0.1287180323345818,0.1538071403320003,-1.2719086923908676
1592288268.682582,-4.122258951667801,8.564187338325391,1.1645179033356023,-0.18444444444444444,-0.6911111111111111,-0.24,-0.15176671499221556,0.11247176746632832,-1.2249669096946445
1592288268.692582,-4.14,8.44,1.2,-0.18444444444444444,-0.6911111111111111,-0.24,-0.16144295580947549,0.09053895494720585,-1.207549676223577
1592288268.702582,-4.54329754162455,8.574045925276067,1.463801422768104,-0.18444444444444444,-0.6911111111111111,-0.24,-0.13102295925510066,0.07418982875286316,-1.170101723627635
1592288268.7125819,-4.8103281299777,8.402166294998407,1.5580089200382288,-0.17024317723266433,-0.6925553077767159,-0.24144419666560474,-0.07750632454390398,0.06688436414320735,-1.1232502455515296
1592288268.7225819,-4.956181071295952,8.322131683995543,1.6749547437801708,-0.11888888888888889,-0.6977777777777778,-0.24666666666666667,-0.0050124342807287,0.07882082779735972,-0.9981451784928951
1592288268.7325819,-4.99,8.24,1.96,-0.11888888888888889,-0.6977777777777778,-0.24666666666666667,0.007635815477475192,0.05563236990731925,-0.952295273119406
1592288268.7425818,-5.0598991307813,8.303136659111853,0.9991225623272147,-0.11888888888888889,-0.6977777777777778,-0.24666666666666667,0.03432898890440118,0.01984838753932818,-0.814293347378336
1592288268.7525818,-4.95,8.28,1.19,-0.11888888888888889,-0.6977777777777778,-0.24666666666666667,0.030543261909900768,0.002181661564992912,-0.7701265324424978
1592288268.7625818,-5.233935704036917,8.258258036995386,1.5763206266723542,-0.11424365420991628,-0.6981648806676922,-0.24666666666666667,0.025659164057639613,-0.05197984018634913,-0.6809878443181949
1592288268.7725818,-5.3,8.25,0.99,-0.09222222222222222,-0.7,-0.24666666666666667,0.028361600344907853,-0.05017821599483697,-0.6152285613280012
1592288268.7825818,-5.4248351887048605,8.02,1.4632234591365734,-0.09222222222222222,-0.7,-0.24666666666666667,-0.0068553220541695565,-0.09582262767630366,-0.5182578216654717
1592288268.7925818,-5.54,8.02,1.54,-0.09222222222222222,-0.7,-0.24666666666666667,-0.022907446432425576,-0.1090830782496456,-0.4603305902135044
1592288268.8025818,-5.578346617272864,8.144849573417153,1.579418874419997,-0.09222222222222222,-0.7,-0.24666666666666667,-0.014720745898799651,-0.11478097920664508,-0.32400731537914873
1592288268.8125818,-5.432471856095509,7.809938704378831,1.6274668482833219,-0.0838610899670152,-0.7,-0.2457201233924923,0.0006061384941799548,-0.13056319307728304,-0.22370723250729788
1592288268.8225818,-5.81,7.87,1.31,-0.03333333333333333,-0.7,-0.24,0.017453292519943295,-0.15489797111449674,-0.13853550937704992
1592288268.8325818,-5.444096570551101,7.793830973099016,1.460052323266792,-0.03333333333333333,-0.7,-0.24,0.03636307336842377,-0.1906517599970593,-0.017917281794941363
1592288268.8425817,-5.72,8.19,1.17,-0.03333333333333333,-0.7,-0.24,0.074176493209759,-0.21380283336930533,0.04690572364734761
1592288268.8525817,-5.655254672590593,8.398343925163564,1.3107644864368333,-0.03333333333333333,-0.7,-0.24,0.04804518303342423,-0.23250329211092524,0.16352042783063284
1592288268.8625817,-5.441660802251936,8.303969035890217,1.625819845179451,-0.03458440847603409,-0.701751505199781,-0.2410008601141606,0.031157381984494126,-0.23902090658238845,0.25685341824839314
1592288268.8725817,-5.77,8.02,1.12,-0.044444444444444446,-0.7155555555555555,-0.24888888888888888,0.03599741582238304,-0.1712604328519436,0.41560652813114973
1592288268.8825817,-5.774926845865941,7.926378019734604,1.8352194624021776,-0.044444444444444446,-0.7155555555555555,-0.24888888888888888,0.01642630076248576,-0.15807600397435584,0.55044382794141
1592288268.8925817,-5.75,7.97,1.91,-0.044444444444444446,-0.7155555555555555,-0.24888888888888888,0.038179077387375956,-0.17235126363444003,0.5912302841130791
1592288268.9025817,-5.155587689042187,7.829278323162643,1.4200756168745023,-0.044444444444444446,-0.7155555555555555,-0.24888888888888888,0.10613821138525148,-0.08687661142857753,0.7090812512298881
1592288268.9125817,-5.649558194006946,7.650903804216138,1.5734940634843713,-0.04328424377854957,-0.7155555555555555,-0.24975903938831004,0.12115560850897798,-0.07875338340353381,0.7874188567175804
1592288268.9225817,-5.5,8.38,1.91,-0.02666666666666667,-0.7155555555555555,-0.26222222222222225,0.16907877128695067,-0.0818123086872342,0.8944812416470939
1592288268.9325817,-5.193192358977332,7.967394921444721,1.704073279610412,-0.02666666666666667,-0.7155555555555555,-0.26222222222222225,0.1990616298703344,-0.11096852256232163,1.0064885799001035
1592288268.9425817,-4.71,8.65,1.52,-0.02666666666666667,-0.7155555555555555,-0.26222222222222225,0.23671027980173093,-0.12435470920459597,1.0591966898040588
1592288268.9525816,-4.418417052678016,8.918417052678016,1.87721149411458,-0.02666666666666667,-0.7155555555555555,-0.26222222222222225,0.2501565535614589,-0.14786517601063767,1.1286343064597673
1592288268.9625816,-4.44813568417018,8.94651782292066,1.3223369106937524,-0.027365742515225076,-0.7154756611728631,-0.26210238064818364,0.24578261363968956,-0.08623445891231286,1.213003830136059
1592288268.9725816,-3.8,8.21,1.45,-0.06555555555555556,-0.7111111111111111,-0.25555555555555554,0.20507618710933373,-0.08944812416470939,1.213003830136059
1592288268.9825816,-4.204974694849658,8.473188719586457,1.086811280413543,-0.06555555555555556,-0.7111111111111111,-0.25555555555555554,0.17757168707234858,-0.010507627011409608,1.2741292647510467
1592288268.9925816,-3.96,8.54,1.02,-0.06555555555555556,-0.7111111111111111,-0.25555555555555554,0.15489797111449674,0.028361600344907853,1.3308135546456763
1592288269.0025816,-3.678654722023563,8.868183084277486,1.4767960251439758,-0.06555555555555556,-0.7111111111111111,-0.25555555555555554,0.13538631905236465,0.0379059898903163,1.371174293598045
1592288269.0125816,-4.136496028908043,8.899758346821244,0.924228930628223,-0.06555555555555556,-0.7111111111111111,-0.25555555555555554,0.11902576658699918,0.028434091094578402,1.371174293598045
1592288269.0225816,-3.18,8.41,1.51,-0.08666666666666667,-0.6966666666666667,-0.23444444444444446,0.13526301702956053,-0.017453292519943295,1.3482668471656194
1592288269.0325816,-3.6855220177796153,8.863433946661154,0.6389569981393426,-0.08666666666666667,-0.6966666666666667,-0.23444444444444446,0.18511558496776634,-0.03308315888899242,1.282605238771804
1592288269.0425816,-3.51,9.39,1.48,-0.08666666666666667,-0.6966666666666667,-0.23444444444444446,0.17235126363444003,-0.05781403147231216,1.2315479534384988
1592288269.0525815,-3.1459800695335303,9.096004982616616,1.190049826166174,-0.08666666666666667,-0.6966666666666667,-0.23444444444444446,0.21730001410319438,-0.07897560513358505,1.1301278666242465
1592288269.0625815,-3.2083639169316007,9.0804090207671,1.0340902076709986,-0.08666666666666667,-0.6966666666666667,-0.23444444444444446,0.19688494778148147,-0.08067686066039446,1.0450650902837761
1592288269.0725815,-2.94,9.66,1.21,-0.14,-0.6966666666666667,-0.22666666666666666,0.16035212502697901,-0.09817477042468103,0.918479518862016
1592288269.0825815,-2.7556672325976233,9.89616129032258,1.1248268251273343,-0.14,-0.6966666666666667,-0.22666666666666666,0.1001191901845164,-0.1394628081424081,0.7248164960654371
1592288269.0925815,-2.77,9.76,0.96,-0.14,-0.6966666666666667,-0.22666666666666666,0.07744898555724837,-0.14180800172453928,0.6185010536754905
1592288269.1025815,-2.8125956409083983,9.699597622313672,0.9168007925621094,-0.14,-0.6966666666666667,-0.22666666666666666,0.03704435400823584,-0.16501064249537706,0.4667856283373308
1592288269.1125815,-2.6367943148910227,9.603705989940558,0.948764670019814,-0.14,-0.6966666666666667,-0.22666666666666666,0.02658419957059321,-0.19203270812595383,0.35869736581502365
1592288269.1225815,-2.4,9.03,0.69,-0.14666666666666667,-0.6911111111111111,-0.23444444444444446,0.020725784867432664,-0.20398535632683729,0.2203478180642841
1592288269.1325815,-2.7,9.69,1.1,-0.14666666666666667,-0.6911111111111111,-0.23444444444444446,0.008726646259971648,-0.2203478180642841,0.09381144729469522
1592288269.1425815,-2.5392468022218826,9.298275493043876,0.6401783621260765,-0.14666666666666667,-0.6911111111111111,-0.23444444444444446,-0.025265326393204748,-0.2551916982617584,-0.07554515980996515
1592288269.1525815,-2.18,9.72,1.14,-0.14666666666666667,-0.6911111111111111,-0.23444444444444446,-0.04145156973486533,-0.27052603405912107,-0.1854412330243975
1592288269.1625814,-2.499024816497728,9.785681579867179,0.9054229290457882,-0.14666666666666667,-0.6911111111111111,-0.23444444444444446,-0.04759278309161835,-0.25824360734561497,-0.31031257127837575
1592288269.1725814,-2.46096644818261,9.472044735756521,1.0772124948434707,-0.18666666666666668,-0.6677777777777778,-0.21333333333333335,-0.06328038516986706,-0.25231037996993755,-0.49201785696911765
1592288269.1825814,-2.44,9.5,1.21,-0.18666666666666668,-0.6677777777777778,-0.21333333333333335,-0.07090400086226964,-0.2530727415391778,-0.593411945678072
1592288269.1925814,-2.51405716013912,9.57793059125964,1.2619333131710269,-0.18666666666666668,-0.6677777777777778,-0.21333333333333335,-0.09577702110449829,-0.25110197172610105,-0.792399076760629
1592288269.2025814,-2.85,9.17,0.87,-0.18666666666666668,-0.6677777777777778,-0.21333333333333335,-0.10799224746714915,-0.2083486794568231,-0.9075712110370513
1592288269.2125814,-3.123524420655678,9.752342314944347,1.3288151572288789,-0.18666666666666668,-0.6677777777777778,-0.21333333333333335,-0.14167905399473077,-0.1871741153537718,-1.017293952298317
1592288269.2225814,-2.85,8.89,1.26,-0.14666666666666667,-0.7088888888888889,-0.21777777777777776,-0.16253378659197193,-0.09926560120717749,-1.1290098598838318
1592288269.2325814,-3.2697526964341614,8.669362247075899,0.7471279774609408,-0.14666666666666667,-0.7088888888888889,-0.21777777777777776,-0.216382966829461,-0.07128685797375627,-1.250308821113954
1592288269.2425814,-3.83,9.0,0.94,-0.14666666666666667,-0.7088888888888889,-0.21777777777777776,-0.2454369260617026,-0.014180800172453926,-1.3264502315156905
1592288269.2525814,-4.110828223734789,8.979182276724606,0.9374120117755151,-0.14666666666666667,-0.7088888888888889,-0.21777777777777776,-0.2765188228711226,-0.02787491853435263,-1.4223146030754024
1592288269.2625813,-3.811971273743226,8.609543417524517,0.9216826986180646,-0.14666666666666667,-0.7088888888888889,-0.21777777777777776,-0.29968214849368213,0.0347518507414563,-1.448051631544913
1592288269.2725813,-4.02,8.46,1.01,-0.12555555555555556,-0.6944444444444444,-0.2111111111111111,-0.3403392041388943,0.0272707695624114,-1.4769848795002014
1592288269.2825813,-3.8866583770341134,8.51486024760772,0.9913850894739688,-0.12555555555555556,-0.6944444444444444,-0.2111111111111111,-0.34030871489660897,0.03170963760413307,-1.5300856397502243
1592288269.2925813,-4.32,8.56,1.19,-0.12555555555555556,-0.6944444444444444,-0.2111111111111111,-0.3501566811813624,0.042542400517361786,-1.607884573399776
1592288269.3025813,-4.025234155709854,8.26361648692569,1.4266021568917122,-0.12555555555555556,-0.6944444444444444,-0.2111111111111111,-0.34090403821965215,0.04874671210343263,-1.711032462150331
1592288269.3125813,-4.637122359284976,8.286852747820948,1.1477670261486188,-0.12555555555555556,-0.6944444444444444,-0.2111111111111111,-0.33752446106569667,0.06057523214227669,-1.7710199566330402
1592288269.3225813,-4.73,8.17,1.66,-0.04555555555555556,-0.7211111111111111,-0.25333333333333335,-0.36760997370130566,0.09490227807719166,-1.8216874067690816
1592288269.3325813,-4.665126758142599,7.5615514623735995,1.7996121344066,-0.04555555555555556,-0.7211111111111111,-0.25333333333333335,-0.37124209741823416,0.10349005894435877,-1.8813749961220811
1592288269.3425813,-5.43,7.64,1.78,-0.04555555555555556,-0.7211111111111111,-0.25333333333333335,-0.3894265893512348,0.15162547876700738,-1.920953007976259
1592288269.3525813,-5.0207491403624,7.580285129235405,2.2622111038133137,-0.04555555555555556,-0.7211111111111111,-0.25333333333333335,-0.35875727269998076,0.18137435558169987,-1.971598060604319
1592288269.3625813,-5.903913186261253,6.834862264807016,2.1649820345400457,-0.04555555555555556,-0.7211111111111111,-0.25333333333333335,-0.31633308801327625,0.21230865691575523,-1.991042478585725
1592288269.3725812,-6.36,6.89,2.16,-0.013333333333333334,-0.7288888888888889,-0.2611111111111111,-0.24652775684419903,0.27270769562411395,-1.93295214658372
1592288269.3825812,-6.63,6.88,2.18,-0.013333333333333334,-0.7288888888888889,-0.2611111111111111,-0.16253378659197193,0.26616271092913524,-1.864229807286443
1592288269.3925812,-7.0369040667361835,6.60491866527633,1.842563086548488,-0.013333333333333334,-0.7288888888888889,-0.2611111111111111,-0.10140199158849642,0.27114333736012297,-1.7153078599102989
1592288269.4025812,-7.47,6.78,1.99,-0.013333333333333334,-0.7288888888888889,-0.2611111111111111,-0.07526732399225547,0.2399827721492203,-1.5806138038373647
1592288269.4125812,-7.186356317231242,6.908097147056858,1.8070040756330594,-0.013333333333333334,-0.7288888888888889,-0.2611111111111111,-0.0004107287281859412,0.19606690292763285,-1.4318987012460798
1592288269.4225812,-7.64,6.84,1.71,0.06555555555555556,-0.7377777777777778,-0.24444444444444444,0.020725784867432664,0.1407171709420428,-1.215185491701052
1592288269.4325812,-7.9151209332469215,6.796097472456254,1.90349578742709,0.06555555555555556,-0.7377777777777778,-0.24444444444444444,0.022197946903382514,0.09168294870756603,-0.950414802446555
1592288269.4425812,-7.27,6.74,1.81,0.06555555555555556,-0.7377777777777778,-0.24444444444444444,0.011999138607461015,0.061086523819801536,-0.7352199474026113
1592288269.4525812,-7.617230254435254,6.9200321990024625,1.997133657427868,0.06555555555555556,-0.7377777777777778,-0.24444444444444444,0.040055094213893,-0.01994411118971723,-0.5512027149135644
1592288269.4625812,-8.120366184733886,7.105398068059852,1.9441719805543278,0.06555555555555556,-0.7377777777777778,-0.24444444444444444,0.07471843066966585,-0.005501054333145204,-0.3759602917204905
1592288269.4725811,-6.55,6.58,1.69,0.10777777777777778,-0.7233333333333334,-0.23777777777777778,0.10799224746714915,0.032724923474893676,-0.17235126363444003
1592288269.4825811,-8.091041292639138,6.982615200478755,1.7848952722920408,0.10777777777777778,-0.7233333333333334,-0.23777777777777778,0.1520870092058015,-0.011102842578515694,0.008015745767967673
1592288269.4925811,-6.6,6.57,2.16,0.10777777777777778,-0.7233333333333334,-0.23777777777777778,0.2083486794568231,-0.04690572364734761,0.11235557059713495
1592288269.5025811,-7.342614971466935,6.36861530715005,1.5479229607250755,0.10777777777777778,-0.7233333333333334,-0.23777777777777778,0.30413206245861435,-0.04996849013694008,0.23882493162076987
1592288269.512581,-7.061023833501175,6.31581696878147,1.4687254531722054,0.10777777777777778,-0.7233333333333334,-0.23777777777777778,0.33772859323359566,-0.0835650209119214,0.3194566054807251
1592288269.522581,-7.12,6.62,1.5,0.1288888888888889,-0.7377777777777778,-0.24444444444444444,0.4341506514335895,-0.16580627893946132,0.3763366199612773
1592288269.532581,-7.268944893032548,7.007256721884625,1.3113364688254392,0.1288888888888889,-0.7377777777777778,-0.24444444444444444,0.4698948597610095,-0.19396838247015583,0.4272450378821481
1592288269.542581,-7.14,6.83,1.61,0.1288888888888889,-0.7377777777777778,-0.24444444444444444,0.4112432050011639,-0.22907446432425577,0.4766930519509512
1592288269.552581,-6.669196307588075,7.150146510840108,1.3369338584010841,0.1288888888888889,-0.7377777777777778,-0.24444444444444444,0.4061075333992047,-0.21366744951837813,0.561945200543474
1592288269.562581,-6.944850909573175,6.936878716208748,1.4724254547865874,0.1288888888888889,-0.7377777777777778,-0.24444444444444444,0.3549298766057638,-0.18043598801111108,0.6611258674820053
1592288269.572581,-6.38,6.93,1.73,0.10111111111111111,-0.7444444444444445,-0.2,0.31852258848896514,-0.13744467859455345,0.7384924397501007
1592288269.582581,-6.3993762650254045,7.269084637944566,1.4877966871824528,0.10111111111111111,-0.7444444444444445,-0.2,0.3058408526852532,-0.09517222591551364,0.7945034395498284
1592288269.592581,-6.43,7.02,1.11,0.10111111111111111,-0.7444444444444445,-0.2,0.2945243112740431,-0.044724062082354694,0.8552113334772213
1592288269.602581,-6.39406429026098,7.208662476129854,1.3345981858688734,0.10111111111111111,-0.7444444444444445,-0.2,0.282764377761789,-0.02120419505784645,0.9022510675262378
1592288269.612581,-5.984385443382296,6.8779571772752,1.2758158467397218,0.10111111111111111,-0.7444444444444445,-0.2,0.27475574800956115,-0.0010128143818131305,0.9426338288783045
1592288269.622581,-6.248432618961133,7.551702687976753,1.5035406828913913,0.08666666666666667,-0.7444444444444445,-0.2088888888888889,0.23342302775694843,-0.023741815092157472,0.996432612469766
1592288269.632581,-5.893406934621355,7.58184947879445,1.2270797703245522,0.08666666666666667,-0.7444444444444445,-0.2088888888888889,0.269413966767145,0.03482163900196824,1.0593134906061965
1592288269.642581,-6.24,7.77,0.93,0.08666666666666667,-0.7444444444444445,-0.2088888888888889,0.26725354171163174,0.02617993877991494,1.0711958284115197
1592288269.652581,-5.556586836590686,7.396400804002909,1.1760287388273531,0.08666666666666667,-0.7444444444444445,-0.2088888888888889,0.2682475258660453,0.04605962186818589,1.086105590727723
1592288269.662581,-6.037494367315409,7.582419586721885,0.8321522219599596,0.08666666666666667,-0.7444444444444445,-0.2088888888888889,0.23755002499308864,0.033065961702067326,1.1052883690132016
1592288269.672581,-5.66,7.34,0.93,0.04,-0.7566666666666667,-0.2,0.23780111058422737,0.01308996938995747,1.153008137098754
1592288269.682581,-5.269897595178056,7.853292637923611,0.888936588966111,0.04,-0.7566666666666667,-0.2,0.23481489506488934,0.016076184909295514,1.192575492729983
1592288269.692581,-5.49,7.82,0.89,0.04,-0.7566666666666667,-0.2,0.2203478180642841,-0.030543261909900768,1.227184630308513
1592288269.702581,-5.211610155474694,8.40372064174661,0.6744723784320212,0.04,-0.7566666666666667,-0.2,0.22524582148271322,-0.03838006737938738,1.2408990398801145
1592288269.712581,-4.780612077141954,8.320229528928232,1.1658760670249761,0.04,-0.7566666666666667,-0.2,0.17678969993054275,-0.05288442818271231,1.2233959332454876
1592288269.722581,-4.78,8.15,0.25,0.0011111111111111111,-0.7711111111111111,-0.18666666666666668,0.13526301702956053,-0.056723200689815706,1.2173671532660448
1592288269.732581,-5.184716816729596,8.293337205925067,1.1859076386871914,0.0011111111111111111,-0.7711111111111111,-0.18666666666666668,0.11410888385601832,-0.06959962957805879,1.2008117446954465
1592288269.742581,-4.085998748631315,8.36974581573596,1.0117792898482716,0.0011111111111111111,-0.7711111111111111,-0.18666666666666668,0.09823577026900178,-0.04052155672375991,1.183623489733761
1592288269.752581,-4.173628034814476,8.327441802357058,1.3164190230291926,0.0011111111111111111,-0.7711111111111111,-0.18666666666666668,0.09538934290249158,-0.04128921479309869,1.187265302371574
1592288269.7625809,-4.669500751943403,8.50692402194404,0.9880248247230519,0.0011111111111111111,-0.7711111111111111,-0.18666666666666668,0.10820026571575254,-0.05918221991961317,1.1781628645370292
1592288269.7725809,-3.93,8.25,1.29,-0.044444444444444446,-0.7644444444444445,-0.17333333333333334,0.10253809355466686,-0.07308566242726255,1.1159198904938745
1592288269.7825809,-3.9633863910996294,8.717409475394808,1.1230680445018544,-0.044444444444444446,-0.7644444444444445,-0.17333333333333334,0.09161242261628451,-0.059428573754284605,1.0685753164275509
1592288269.7925808,-3.4028789834712834,8.569694484521731,1.0323266762852152,-0.044444444444444446,-0.7644444444444445,-0.17333333333333334,0.0852540017089114,-0.06615997621536121,0.9491009753393611
1592288269.8025808,-3.897934508816121,9.213047858942065,1.442846347607053,-0.044444444444444446,-0.7644444444444445,-0.17333333333333334,0.06052050079412327,-0.0657218677242638,0.8308448665271495
1592288269.8125808,-3.003197960695455,9.186831888099698,1.3995849492352608,-0.044444444444444446,-0.7644444444444445,-0.17333333333333334,0.06519480958155847,-0.025233726615037796,0.6595506858489462
1592288269.8225808,-2.8,8.94,1.33,-0.09777777777777778,-0.7644444444444445,-0.19,0.08508480103472357,0.031634092692397225,0.4494222823885398
1592288269.8325808,-3.8468964301454385,9.23911326575584,0.7504680475980609,-0.09777777777777778,-0.7644444444444445,-0.19,0.11567373457280289,0.03469298604620516,0.2638494189241919
1592288269.8425808,-3.2409709021177253,9.084251292312823,1.1174174587293646,-0.09777777777777778,-0.7644444444444445,-0.19,0.14046660909397066,0.06714907464069719,0.0940357251594306
1592288269.8525808,-3.537598891408415,9.292503401360545,1.0703683547493072,-0.09777777777777778,-0.7644444444444445,-0.19,0.13494975703311574,0.11301259757335971,-0.09847984025803228
1592288269.8625808,-3.666189325395656,8.987765759924553,1.0455716011906517,-0.09777777777777778,-0.7644444444444445,-0.19,0.14781260226865353,0.11877585125729882,-0.2061398845571089
1592288269.8725808,-3.4744315999843254,8.840223754849328,1.1062757161330774,-0.0903620831537286,-0.7570287498203953,-0.14762460214829037,0.21765636975560795,0.14401407115727016,-0.5126562283651763
1592288269.8825808,-3.46,8.85,1.11,-0.09,-0.7566666666666667,-0.14555555555555555,0.2203478180642841,0.14508049407202864,-0.5225079448158023
1592288269.8925807,-4.02346271881368,9.334225773980506,0.5025167562790012,-0.09,-0.7566666666666667,-0.14555555555555555,0.25204032086045053,0.14700125181725085,-0.8672839600831891
1592288269.9025807,-3.8235671336326567,8.858897367961797,0.6905513160191017,-0.09,-0.7566666666666667,-0.14555555555555555,0.2698183638408624,0.15367793180568598,-1.0090696830282633
1592288269.9125807,-3.8251982860203535,8.593009534011784,0.6916507766470273,-0.09,-0.7566666666666667,-0.14555555555555555,0.26468390196088143,0.1551819961064556,-1.1256159797466416
1592288269.9225807,-4.002571750845971,8.636075113840498,0.6731490997200986,-0.08686621826739635,-0.7660680118644776,-0.15234541597619677,0.23773580747559567,0.13508642976790813,-1.2868514836864415
1592288269.9325807,-3.988857107692308,8.101507446153846,0.5342562461538463,-0.08333333333333333,-0.7766666666666666,-0.16,0.25146174893714845,0.14718262232556914,-1.4254718625446585
1592288269.9425807,-4.938854157960718,8.5321997492687,0.46629084830756373,-0.08333333333333333,-0.7766666666666666,-0.16,0.22289442702771692,0.11542776580888305,-1.521423310755848
1592288269.9525807,-4.6590750934991805,8.352976845820901,0.38226877337479515,-0.08333333333333333,-0.7766666666666666,-0.16,0.20868128727116078,0.1155468820682197,-1.5647660224388629
1592288269.9625807,-4.74266221046467,7.976025767887073,0.3562547708960197,-0.08333333333333333,-0.7766666666666666,-0.16,0.166594217432951,0.08778897933391579,-1.5999958263395828
1592288269.9725807,-5.614290793413174,7.975127245508982,0.7277672155688624,-0.0492808133732535,-0.7873688872255489,-0.12886626746506985,0.13525746489683527,0.04593389629789671,-1.6393996626591278
1592288269.9825807,-5.374322480866082,7.956004679382956,0.78,-0.044444444444444446,-0.7888888888888889,-0.12444444444444444,0.1122332376688366,0.040485624088152955,-1.6427911584396628
1592288269.9925807,-5.6462680099952145,7.730833377638365,0.684746398000957,-0.044444444444444446,-0.7888888888888889,-0.12444444444444444,0.09454262115244014,0.0005414717210260045,-1.631456006308293
1592288270.0025806,-5.801738827102228,7.788026429187015,0.6637123979152132,-0.044444444444444446,-0.7888888888888889,-0.12444444444444444,0.09929841521643469,-0.014370476785308915,-1.6132402852844867
1592288270.0125806,-5.550317701315215,7.540317701315216,0.8223279117875919,-0.044444444444444446,-0.7888888888888889,-0.12444444444444444,0.0984518100999836,-0.008057150963333648,-1.5824087857539268
1592288270.0225806,-5.80589439745415,7.471292186584039,0.6974156268319237,0.01635406489313198,-0.7827059896342201,-0.12444444444444444,0.13342506627766057,-0.03245274105160851,-1.5606004252891095
1592288270.0325806,-6.012493953238376,7.5505657081429725,0.695681268476216,0.021111111111111112,-0.7822222222222223,-0.12444444444444444,0.13635384781205698,-0.03490658503988659,-1.559888018969932
1592288270.0425806,-6.097131003268795,7.644262006537591,0.7061885005447992,0.021111111111111112,-0.7822222222222223,-0.12444444444444444,0.14512963677134905,-0.05853370916105753,-1.5565127155240506
1592288270.0525806,-6.448387377919048,7.69,0.34793186537130555,0.021111111111111112,-0.7822222222222223,-0.12444444444444444,0.14043114628043057,-0.10707016815916925,-1.4414583460027328
1592288270.0625806,-6.476231328646006,7.5474211653942485,0.41132261082108695,0.021111111111111112,-0.7822222222222223,-0.12444444444444444,0.13485191875735564,-0.12245073400555075,-1.3940672566258931
1592288270.0725806,-6.811123388581953,7.383335635359116,0.48332872928176795,0.06909615646954505,-0.7731684400791214,-0.13168747015892504,0.105607854766858,-0.15433288527865932,-1.275784858127197
1592288270.0825806,-6.670584812550637,7.316067614347794,0.6234602636812256,0.08,-0.7711111111111111,-0.13333333333333333,0.093642323129036,-0.1734298017816178,-1.2203651904354382
1592288270.0925806,-6.6450310237849015,7.168404724323736,0.4580974799978229,0.08,-0.7711111111111111,-0.13333333333333333,0.09547782445532918,-0.21392335731686252,-1.1464831308807963
1592288270.1025805,-6.68,7.088105995303629,0.5798082810688702,0.08,-0.7711111111111111,-0.13333333333333333,0.10833658723798148,-0.2090951704684872,-1.1019875207662526
1592288270.1125805,-6.857144226161955,6.92408104593059,0.8348162091861181,0.08,-0.7711111111111111,-0.13333333333333333,0.11165645028660623,-0.21240048598577013,-1.0073796515753775
1592288270.1225805,-7.225604095563139,6.964102389078499,0.8036996587030717,0.11893970420932877,-0.7756389836935912,-0.11522184300341295,0.11260128674609321,-0.225032805971088,-0.8796332849004989
1592288270.1325805,-7.364171704412163,6.946536136425156,0.8869277271496887,0.12777777777777777,-0.7766666666666666,-0.1111111111111111,0.10456532820476877,-0.22994187312026237,-0.7721636094708593
1592288270.1425805,-7.706580891941233,6.946722594105886,1.0091871685647222,0.12777777777777777,-0.7766666666666666,-0.1111111111111111,0.11920600308403068,-0.20863298013368342,-0.6448526349587801
1592288270.1525805,-7.499164010359598,6.706899093535212,1.0720905966729755,0.12777777777777777,-0.7766666666666666,-0.1111111111111111,0.17472294316246617,-0.19325568440250265,-0.43073380519681365
1592288270.1625805,-7.533632460283384,6.629757835981108,0.9470940317732933,0.12777777777777777,-0.7766666666666666,-0.1111111111111111,0.1932619604782272,-0.17554709963239373,-0.33047926166450414
1592288270.1725805,-7.837563411224286,6.519239065308568,0.755380467345716,0.1319796729023811,-0.7724647715420633,-0.0833786032887291,0.2174241214193665,-0.14540162140843763,-0.07716729108915013
1592288270.1825805,-7.650155332590115,6.514979561501301,0.7450204384986994,0.13333333333333333,-0.7711111111111111,-0.07444444444444444,0.23015726892708166,-0.15271185056079797,0.04356902186249389
1592288270.1925805,-7.954669820144845,6.646544268954274,0.6515072556722521,0.13333333333333333,-0.7711111111111111,-0.07444444444444444,0.2565858819026352,-0.14986890858527868,0.24586621530254393
1592288270.2025805,-7.71512142201452,6.599121255111408,0.7013635984311107,0.13333333333333333,-0.7711111111111111,-0.07444444444444444,0.24778717801384256,-0.14518627270586498,0.35632479535647665
1592288270.2125804,-7.307811014975671,6.5489354209659405,0.8745574509172835,0.13333333333333333,-0.7711111111111111,-0.07444444444444444,0.24630202783659408,-0.10649429903351668,0.5153314558578279
1592288270.2225804,-7.404811806219216,6.389569947805631,1.1064246857310887,0.16053762650395748,-0.7711111111111111,-0.06915472077237864,0.24037277843538302,-0.03887112102870099,0.6422911163695898
1592288270.2325804,-7.374631487450654,6.4807247111658395,1.1184766940712034,0.17333333333333334,-0.7711111111111111,-0.06666666666666667,0.23821921431720194,-0.013595186297949384,0.6853740652074324
1592288270.2425804,-6.9389491447197615,6.316604263420544,0.8832616032538149,0.17333333333333334,-0.7711111111111111,-0.06666666666666667,0.2609643438869017,0.011949139181107802,0.7406152599511663
1592288270.2525804,-6.924857084104461,6.38349701830146,0.9218856672835698,0.17333333333333334,-0.7711111111111111,-0.06666666666666667,0.29021832237149014,0.037499635388572386,0.7913509635837307
1592288270.2625804,-7.130859657424056,6.6100418283334905,0.8010687990915113,0.17333333333333334,-0.7711111111111111,-0.06666666666666667,0.35241386577091044,0.060491940007837586,0.8843322519733293
1592288270.2725804,-7.292532732755659,6.546328968965912,0.43227659655685763,0.14902927816162156,-0.7711111111111111,-0.057552645977274754,0.38815633383148684,0.031661408224455,0.9623064572581131
1592288270.2825804,-7.270223382651581,6.740607774876704,0.21044676530316217,0.13777777777777778,-0.7711111111111111,-0.05333333333333334,0.39493825950819594,0.015689830223609817,1.0100118355226702
1592288270.2925804,-7.068248121096644,6.860310151370806,0.456054038319043,0.13777777777777778,-0.7711111111111111,-0.05333333333333334,0.3817205979016984,0.029522607099465515,1.1004258383687342
1592288270.3025804,-6.882089622039879,6.911819225373071,0.42381616427872965,0.13777777777777778,-0.7711111111111111,-0.05333333333333334,0.3562651666065457,0.03586848807376095,1.1432007702178686
1592288270.3125803,-6.853440197997007,6.985238862668354,0.24779095199723722,0.13777777777777778,-0.7711111111111111,-0.05333333333333334,0.2783605020400968,0.04804132030689713,1.1957369469975612
1592288270.3225803,-6.763534510781233,6.941436775381948,0.34013219200346734,0.10978991343711247,-0.7745242652989971,-0.04855491747029292,0.2063814254158792,0.08588286035246287,1.2393900209167819
1592288270.3325803,-6.583749954976048,7.011250225119764,0.37437560782336204,0.09222222222222222,-0.7766666666666666,-0.04555555555555556,0.1696240491603608,0.10417435937381699,1.254932626059888
1592288270.3425803,-6.292957575757576,7.2119249639249645,0.322535064935065,0.09222222222222222,-0.7766666666666666,-0.04555555555555556,0.10532149074957715,0.09146589352036098,1.2216818061394725
1592288270.3525803,-6.21884682760094,7.272350352488784,0.2,0.09222222222222222,-0.7766666666666666,-0.04555555555555556,0.08004307017690103,0.08139508513821013,1.1964454802645028
1592288270.3625803,-6.1031520640356485,7.288355991995544,0.06389123842138925,0.09222222222222222,-0.7766666666666666,-0.04555555555555556,0.04172960522509171,0.05226441608273233,1.1580081626265524
1592288270.3725803,-6.12860158138927,7.679809841207606,-0.06054499117820036,0.05569779346097715,-0.7728620386707036,-0.03109796917089605,0.0018120636033354467,0.014108448787481444,1.1029101135256845
1592288270.3825803,-5.979365026037292,7.741714261716782,-0.07401058289937847,0.03888888888888889,-0.7711111111111111,-0.024444444444444446,-0.04196986552997556,-0.018829245542917573,1.0547525576072023
1592288270.3925803,-5.68104307556601,7.70208615113202,-0.16139076742134667,0.03888888888888889,-0.7711111111111111,-0.024444444444444446,-0.12387071518789877,-0.06486169318695205,0.9934813517692341
1592288270.4025803,-5.875758198372411,7.694783659656756,-0.007068326484570175,0.03888888888888889,-0.7711111111111111,-0.024444444444444446,-0.16235558504402967,-0.07346500540182178,0.9961891928489545
1592288270.4125803,-6.042000439560439,7.630150769230769,0.35264175824175825,0.03888888888888889,-0.7711111111111111,-0.024444444444444446,-0.19688881881906484,-0.09018082681030624,1.0809885160247767
1592288270.4225802,-6.070351108843742,7.784851303904211,0.4720673408756715,0.019250767737998782,-0.7724654642939311,-0.028507503992904467,-0.1729644897259836,-0.07852066632300683,1.1845640584407744
1592288270.4325802,-5.99211474207481,7.836460761144161,0.6043350175209844,0.006666666666666667,-0.7733333333333333,-0.03111111111111111,-0.16497586611616324,-0.07650323144633811,1.2254473104977623
1592288270.4425802,-5.354680772282465,7.937446707220312,0.38234065062152867,0.006666666666666667,-0.7733333333333333,-0.03111111111111111,-0.126072226743437,-0.07132181126671591,1.253086048052347
1592288270.4525802,-5.204024997605593,8.118901925102959,0.7634740446317403,0.006666666666666667,-0.7733333333333333,-0.03111111111111111,-0.11196979407531059,-0.047125253211730396,1.2152920569149344
1592288270.4625802,-5.031503559481945,8.136132601423792,0.9588378077022043,0.006666666666666667,-0.7733333333333333,-0.03111111111111111,-0.11147459773085254,-0.04485083759571628,1.168898582256932
1592288270.4725802,-4.842843791722297,8.297198617764863,0.6764006911175685,-0.014844367653603495,-0.7691506322155031,-0.01617289283314572,-0.0976900090972047,-0.045742202224864636,0.9889668228793893
1592288270.4825802,-4.738415051311288,8.417462229190422,0.6326179446978335,-0.03333333333333333,-0.7655555555555555,-0.0033333333333333335,-0.08181522389207625,-0.03520673453042385,0.9022414003284318
1592288270.4925802,-4.768803907420769,8.37569462174613,0.5537814286507188,-0.03333333333333333,-0.7655555555555555,-0.0033333333333333335,-0.033987216364068824,0.0027047057527037933,0.7623372971280439
1592288270.5025802,-5.160209951711106,8.60825614108755,0.21014696619777454,-0.03333333333333333,-0.7655555555555555,-0.0033333333333333335,-0.00720039925163386,0.02878556548128355,0.6957804256955739
1592288270.5125802,-4.960653131255362,8.346825278810408,0.3487543608807549,-0.03333333333333333,-0.7655555555555555,-0.0033333333333333335,0.006917245906254479,0.02095555494303658,0.5437515389766134
1592288270.5225801,-4.649478346817,8.694335395541238,0.7677453600322144,-0.047923393247184295,-0.7655555555555555,-0.012892338104477067,0.024389214483313153,-0.03395871191018281,0.40167778066942966
1592288270.5325801,-3.9753116984498718,8.767655849224935,0.6904338128694101,-0.06555555555555556,-0.7655555555555555,-0.024444444444444446,0.02751613654002881,-0.04776152765703452,0.304346167697371
1592288270.5425801,-4.219381883891693,8.661609970169803,0.7832199403396054,-0.06555555555555556,-0.7655555555555555,-0.024444444444444446,0.05529001474376727,0.00221354421091317,0.14904658258709436
1592288270.55258,-4.35,8.569641585859825,0.6445255922425432,-0.06555555555555556,-0.7655555555555555,-0.024444444444444446,0.07029304457645505,0.026930412148749194,0.09100503840785026
1592288270.56258,-4.008059278098405,8.571539665460238,1.0932397534970166,-0.06555555555555556,-0.7655555555555555,-0.024444444444444446,0.08110112927166745,0.04601346824255104,-0.012290439403334569
1592288270.57258,-3.416126636407967,8.413769083611538,0.9391098690873626,-0.08326918989209398,-0.7534090634390721,-0.021407821415323575,0.1398887876871705,0.09862003921102436,-0.08049843433238363
1592288270.58258,-3.3856472505091646,8.508801629327902,0.9025482688391038,-0.10444444444444445,-0.7388888888888889,-0.017777777777777778,0.18159777629584584,0.1297592758603261,-0.13136997304425668
1592288270.59258,-4.065149253731343,8.81205223880597,0.5000373134328358,-0.10444444444444445,-0.7388888888888889,-0.017777777777777778,0.2533739410835984,0.17184655088432974,-0.2656050847455456
1592288270.60258,-3.7948411541824543,8.933261439813466,0.5184202856310113,-0.10444444444444445,-0.7388888888888889,-0.017777777777777778,0.27149414240441444,0.1813109553515874,-0.32401521238823905
1592288270.61258,-4.49168031750355,8.99347853154608,0.1431608334468201,-0.10444444444444445,-0.7388888888888889,-0.017777777777777778,0.2503411973570127,0.20949203462963642,-0.48389296804373594
1592288270.62258,-4.4523330651649236,8.899594599321416,0.46439189898212596,-0.10529146796942103,-0.741853471226307,-0.009731054290500231,0.2299550195307496,0.23910221694272643,-0.5822096870206771
1592288270.63258,-4.298372627947096,9.048762507188039,0.7559700977573318,-0.10666666666666667,-0.7466666666666667,0.0033333333333333335,0.21956999737981278,0.246696870115597,-0.6459404346895035
1592288270.64258,-4.314005167958657,8.315032091356173,0.3259306493289989,-0.10666666666666667,-0.7466666666666667,0.0033333333333333335,0.20114976002918497,0.25467048084984106,-0.8460436086037723
1592288270.65258,-4.50402627285278,8.30675940258545,0.1918821905200184,-0.10666666666666667,-0.7466666666666667,0.0033333333333333335,0.21857856656419603,0.25894108530991794,-0.9219823347236775
1592288270.66258,-5.0200206868018205,8.254209437536746,0.15585262286871504,-0.10666666666666667,-0.7466666666666667,0.0033333333333333335,0.23774061048617154,0.20961649737344365,-1.09483561819815
1592288270.67258,-5.060233931051901,8.037072231342341,-0.07822862735193838,-0.08728164330513112,-0.7402049922128214,0.016795155112177464,0.25680679484694624,0.1558035989689636,-1.2153626707759333
1592288270.68258,-5.227029352435058,7.8084352229220695,-0.04872874727265243,-0.06666666666666667,-0.7333333333333333,0.03111111111111111,0.25915765619312586,0.11639749584682244,-1.273167564373319
1592288270.69258,-5.532847881397397,7.978539240630199,-0.6073082004109992,-0.06666666666666667,-0.7333333333333333,0.03111111111111111,0.2242997712825324,0.016110435954349273,-1.350591307329231
1592288270.70258,-5.588114434330299,8.111320618407746,-0.6320286085825748,-0.06666666666666667,-0.7333333333333333,0.03111111111111111,0.1633521066935066,-0.059321430056880314,-1.3833122881395299
1592288270.71258,-5.4876651797323515,7.985647616570983,-0.49075773639255066,-0.06666666666666667,-0.7333333333333333,0.03111111111111111,0.09944821733445464,-0.10065917020808038,-1.411197686950258
1592288270.72258,-5.62631686244054,7.758376209429505,-0.26675241885901047,-0.04841583161649174,-0.7427194770734232,0.048840493731281034,0.023825455562943177,-0.1227951491090629,-1.453829037241596
1592288270.73258,-5.690207753355217,7.699563717954045,-0.1496675946316533,-0.027777777777777776,-0.7533333333333333,0.06888888888888889,-0.011019353464932827,-0.13089516142447397,-1.4770483341516119
1592288270.74258,-5.724385065885798,7.419698284877641,0.033433905040786444,-0.027777777777777776,-0.7533333333333333,0.06888888888888889,-0.07356148915742283,-0.1343417658285513,-1.5295118268865286
1592288270.75258,-5.65,7.34,0.06,-0.027777777777777776,-0.7533333333333333,0.06888888888888889,-0.0839939702522271,-0.1407171709420428,-1.5544338650574498
1592288270.76258,-6.065262577883271,7.219493069978384,0.2267833679481202,-0.027777777777777776,-0.7533333333333333,0.06888888888888889,-0.07556290663085588,-0.08565687110939947,-1.5737541413012608
1592288270.77258,-6.2178561536330905,7.20142461453236,0.24737666574339087,-0.009337122183581417,-0.7452374357553935,0.06888888888888889,-0.06295587200130986,-0.05596932459183336,-1.5611342510909376
1592288270.78258,-6.2,7.13,0.17,0.017777777777777778,-0.7333333333333333,0.06888888888888889,-0.05126904677733343,-0.04363323129985824,-1.5533430342749532
1592288270.79258,-6.525509788897989,7.028498243018309,0.15299849401569393,0.017777777777777778,-0.7333333333333333,0.06888888888888889,-0.022525025928503528,-0.021216686099123385,-1.5102001566154395
1592288270.8025799,-6.737187899446101,6.988040051129101,0.12110779718789944,0.017777777777777778,-0.7333333333333333,0.06888888888888889,-0.008503553471050345,-0.022076890570337307,-1.498755017485772
1592288270.8125799,-6.681867135339753,6.8532115892593435,0.25,0.017777777777777778,-0.7333333333333333,0.06888888888888889,0.039483541204003464,-0.047275974017354463,-1.473435385696286
1592288270.8225799,-7.1697569113441375,6.8525996186844615,0.3495948522402288,0.04168054231543268,-0.7333333333333333,0.05826543798326449,0.074176493209759,-0.045788376005982075,-1.4107896488469884
1592288270.8325799,-7.26,6.63,0.5,0.07777777777777778,-0.7333333333333333,0.042222222222222223,0.074176493209759,-0.05563236990731925,-1.36353847812057
1592288270.8425798,-7.488766188775782,6.759206949848106,0.09114533923146619,0.07777777777777778,-0.7333333333333333,0.042222222222222223,0.11855934728366772,-0.03465671078186976,-1.1856755046137972
1592288270.8525798,-7.610358816951008,6.767592975944036,0.12,0.07777777777777778,-0.7333333333333333,0.042222222222222223,0.15482111695057896,-0.03310062898746027,-1.018354243175854
1592288270.8625798,-7.45,6.69,0.12,0.07777777777777778,-0.7333333333333333,0.042222222222222223,0.17344209441693648,-0.038179077387375956,-0.9348419805994628
1592288270.8725798,-7.6442756269048555,6.694982347083497,0.1271731192854341,0.09244994987443463,-0.7265920650727071,0.0572909395106806,0.21519817773304672,-0.0555552786947719,-0.7460858254355291
1592288270.8825798,-7.67,6.74,0.05,0.11888888888888889,-0.7144444444444444,0.08444444444444445,0.23343778745424157,-0.053450708342326333,-0.6555893002803701
1592288270.8925798,-7.993460368943848,6.75,0.2657713359010744,0.11888888888888889,-0.7144444444444444,0.08444444444444445,0.26389702023433315,-0.07413425751556545,-0.45177288673030697
1592288270.9025798,-7.848987036769312,6.754620259264613,0.07765818514770373,0.11888888888888889,-0.7144444444444444,0.08444444444444445,0.2772436245501736,-0.08784638863665449,-0.29713392587263937
1592288270.9125798,-7.58,6.76,0.04,0.11888888888888889,-0.7144444444444444,0.08444444444444445,0.2825251726665821,-0.07963064712224129,-0.21380283336930533
1592288270.9225798,-7.617232025814259,6.651122315216296,0.11276797418574167,0.12256305110192375,-0.7092573919083952,0.0872540979014711,0.27082797320381735,-0.10620503172105632,-0.05335270186585117
1592288270.9325798,-7.73,6.78,0.0,0.13777777777777778,-0.6877777777777778,0.09888888888888889,0.2585268954516601,-0.11235557059713495,0.028361600344907853
1592288270.9425797,-7.727577938195978,6.508619770910664,-0.08896704848222622,0.13777777777777778,-0.6877777777777778,0.09888888888888889,0.20879938958178873,-0.12860632359163812,0.12597395190167957
1592288270.9525797,-7.675142804881236,6.436266691055423,-0.031723849591052816,0.13777777777777778,-0.6877777777777778,0.09888888888888889,0.17223180214316924,-0.1445080708633194,0.188072720834617
1592288270.9625797,-7.86,6.35,0.11,0.13777777777777778,-0.6877777777777778,0.09888888888888889,0.13526301702956053,-0.13308135546456762,0.22907446432425577
1592288270.9725797,-7.8464758241408905,6.232190609403312,0.30314365641987473,0.13473012542694965,-0.6854073815049115,0.11243401044812495,0.08203032226543794,-0.15418109586362894,0.31114667626719805
1592288270.9825797,-7.77,6.26,0.47,0.12777777777777777,-0.68,0.14333333333333334,0.05017821599483697,-0.14508049407202864,0.3490658503988659
1592288270.9925797,-7.649981459797034,6.147970335675254,0.4159406713505074,0.12777777777777777,-0.68,0.14333333333333334,0.044722039659943744,-0.10295662855044907,0.4424648299650118
1592288271.0025797,-7.62,6.1,0.32,0.12777777777777777,-0.68,0.14333333333333334,0.04145156973486533,-0.074176493209759,0.4810563750809371
1592288271.0125797,-7.508561561933036,6.152064778162625,0.22900214415305956,0.12777777777777777,-0.68,0.14333333333333334,0.056457442250166176,-0.038179077387375956,0.5160515462673735
1592288271.0225797,-7.422101319036159,6.247260791421695,0.34252657873092274,0.1294621635983929,-0.68,0.1402452926622056,0.05940968758906659,-0.03652543547492116,0.5140569055412398
1592288271.0325797,-7.31,6.18,0.35,0.13444444444444445,-0.68,0.13111111111111112,0.04799655442984406,-0.031634092692397225,0.5148721293383272
1592288271.0425797,-7.390045549193129,6.602473451327434,0.2,0.13444444444444445,-0.68,0.13111111111111112,0.051235941397521065,-0.017822420344077508,0.5389697226926863
1592288271.0525796,-7.071043056688907,6.54816541064657,0.13390294244707918,0.13444444444444445,-0.68,0.13111111111111112,0.04575211236716895,-0.014506483821814457,0.5606124605445466
1592288271.0625796,-7.3529045264724235,6.695807132914126,-0.03387174194787115,0.13444444444444445,-0.68,0.13111111111111112,0.04282389172298272,-0.004257711567162641,0.5825741153759434
1592288271.0725796,-7.34,6.76,0.022493836694686194,0.13019560862433704,-0.6772507532928718,0.13236076870526034,0.03973398187105449,0.0394592572384829,0.6609847443173694
1592288271.0825796,-7.34,6.76,0.1,0.11555555555555555,-0.6677777777777778,0.13666666666666666,0.03381575425739013,0.05890486225480862,0.7134033317526822
1592288271.0925796,-7.227507035047327,6.8379943719621386,-0.06829803018674853,0.11555555555555555,-0.6677777777777778,0.13666666666666666,0.011518436354729268,0.10558178770349447,0.8255100679142192
1592288271.1025796,-7.280386384544618,6.794241030358786,0.037994480220791174,0.11555555555555555,-0.6677777777777778,0.13666666666666666,-0.0018003223769996702,0.1048431885936681,0.902032761093539
1592288271.1125796,-7.07,6.96,0.14,0.11555555555555555,-0.6677777777777778,0.13666666666666666,0.006544984694978735,0.0916297857297023,0.9479319499894202
1592288271.1225796,-6.7263249689124125,6.853308675828205,0.1442597965755827,0.11131425210881896,-0.6663640099621989,0.13666666666666666,0.012393970448895182,0.06525243102907027,1.0388617022032183
1592288271.1325796,-7.27,7.2,-0.1,0.09555555555555556,-0.6611111111111111,0.13666666666666666,0.038179077387375956,0.05235987755982988,1.1213740444063567
1592288271.1425796,-6.521588280254777,7.07944101910828,-0.09379770700636943,0.09555555555555556,-0.6611111111111111,0.13666666666666666,0.0435325691573308,0.014180800172453926,1.2270791323811152
1592288271.1525795,-6.41,7.47,-0.31,0.09555555555555556,-0.6611111111111111,0.13666666666666666,0.04581489286485115,0.014180800172453926,1.287180323345818
1592288271.1625795,-6.460333369064209,7.275544431343124,-0.20962225318898062,0.09555555555555556,-0.6611111111111111,0.13666666666666666,-0.05980902755749187,0.007046773870668016,1.374426183053062
1592288271.1725795,-6.139581686235177,7.354574901174111,0.04425098825889432,0.08711651293750533,-0.6601064631803908,0.13847503294196314,-0.15451374432993698,-0.0417297962657953,1.3536753701249606
1592288271.1825795,-5.73,7.33,0.29,0.04888888888888889,-0.6555555555555556,0.14666666666666667,-0.22689280275926282,-0.05781403147231216,1.3089969389957472
1592288271.1925795,-5.930188850967008,7.297589432435849,0.2514463405384907,0.04888888888888889,-0.6555555555555556,0.14666666666666667,-0.274249061168174,-0.05005243469793478,1.2480155960280361
1592288271.2025795,-6.06,7.55,0.1,0.04888888888888889,-0.6555555555555556,0.14666666666666667,-0.2923426497090502,-0.04690572364734761,1.237002107350981
1592288271.2125795,-5.947445715128157,7.410054337524484,0.39222825972494263,0.04888888888888889,-0.6555555555555556,0.14666666666666667,-0.2832425143475212,-0.019617172171630837,1.2679247856668743
1592288271.2225795,-5.493461514644869,7.456583689392533,0.40312217474766243,0.04368526430945157,-0.6524333808078931,0.14666666666666667,-0.2659282522229587,0.004464509860568503,1.2869088483990812
1592288271.2325795,-5.35,7.33,0.42,0.015555555555555555,-0.6355555555555555,0.14666666666666667,-0.24107360293171679,0.01090830782496456,1.2795445078683427
1592288271.2425795,-5.597280266567938,7.909226706158213,0.4442399111440207,0.015555555555555555,-0.6355555555555555,0.14666666666666667,-0.17129828816676995,0.03465352522192573,1.2519305634533162
1592288271.2525795,-5.4,7.88,0.51,0.015555555555555555,-0.6355555555555555,0.14666666666666667,-0.14180800172453928,0.025089107997418484,1.1977321991811085
1592288271.2625794,-5.476568144499178,7.7452118226600986,0.38127093596059114,0.015555555555555555,-0.6355555555555555,0.14666666666666667,-0.0943384134953692,-0.003559081715632936,1.0932112654355983
1592288271.2725794,-5.3095169678272365,7.8045773468488315,0.5287650947553989,0.009929876107928112,-0.637339307575535,0.1450201263405318,-0.06699749016486563,0.00814829922103677,1.0549417286213514
1592288271.2825794,-5.59,8.05,0.52,-0.03,-0.65,0.13333333333333333,-0.039269908169872414,0.0272707695624114,1.0711958284115197
1592288271.2925794,-5.133131339883994,8.112226606986784,0.33498026855947244,-0.03,-0.65,0.13333333333333333,-0.013876117559105207,0.04260419798653994,1.0961450470467313
1592288271.3025794,-4.95,8.16,0.12,-0.03,-0.65,0.13333333333333333,0.004363323129985824,0.05563236990731925,1.1126473981463851
1592288271.3125794,-5.171225613020666,8.263555198629403,0.04438719348966698,-0.03,-0.65,0.13333333333333333,0.0031998870991330353,0.07519471874389913,1.1509931545707695
1592288271.3225794,-4.568711072122314,8.356730998182844,0.36297011090920484,-0.03187006983172156,-0.6485699465992718,0.1324533004713467,-0.020272063786273976,0.0577705595519119,1.1479751003271301
1592288271.3325794,-4.83,8.6,0.39,-0.04888888888888889,-0.6355555555555555,0.12444444444444444,-0.03599741582238304,0.09708393964218458,1.1617347833587257
1592288271.3425794,-4.636798686537005,8.614926496590048,0.47965496337458957,-0.04888888888888889,-0.6355555555555555,0.12444444444444444,-0.07615393053226988,0.08803492106205106,1.1371185983103034
1592288271.3525794,-4.29,8.41,0.59,-0.04888888888888889,-0.6355555555555555,0.12444444444444444,-0.0916297857297023,0.06654067773228381,1.1104657365813921
1592288271.3625793,-4.659900545396214,8.415687092289595,0.19915730937867607,-0.04888888888888889,-0.6355555555555555,0.12444444444444444,-0.08656595582515854,0.06522027204015704,1.1114415466012386
1592288271.3725793,-3.5498213760898674,8.01860790908794,0.4246791627208307,-0.05130159974166114,-0.634726186199915,0.12391666394540052,-0.10196541006545302,0.05282348865718127,1.15811950733165
1592288271.3825793,-3.41,10.06,2.0,-0.08444444444444445,-0.6233333333333333,0.11666666666666667,-0.1090830782496456,0.074176493209759,1.2882711541283145
1592288271.3925793,-5.58,9.44,-1.6,-0.08444444444444445,-0.6233333333333333,0.11666666666666667,-0.03490658503988659,0.3403392041388943,1.5544338650574498
1592288271.4025793,-3.959330914953648,9.441128577186618,-0.4767271261588069,-0.08444444444444445,-0.6233333333333333,0.11666666666666667,-0.16890597947013444,0.19818166171621523,1.7771361365035432
1592288271.4125793,-4.0,8.4,0.54,-0.08444444444444445,-0.6233333333333333,0.11666666666666667,-0.13962634015954636,0.20616701789183017,1.8064157758141308
1592288271.4225793,-3.339031115366204,9.280484442316897,-0.02814297111855752,-0.08482123291314292,-0.6232795064092335,0.11689991667109906,-0.30687574627591496,0.158917805259932,1.763292086245991
1592288271.4325793,-3.22,9.34,0.2,-0.13111111111111112,-0.6166666666666667,0.14555555555555555,-0.3501566811813624,0.11671889372712078,1.6918785436520032
1592288271.4425793,-3.0727543850651347,9.10008641911991,0.07976023181864807,-0.13111111111111112,-0.6166666666666667,0.14555555555555555,-0.4698214558030946,0.1557071988226422,1.6056746312439252
1592288271.4525793,-3.3,9.26,0.61,-0.13111111111111112,-0.6166666666666667,0.14555555555555555,-0.5028729907308661,0.16580627893946132,1.5533430342749532
1592288271.4625793,-3.215886577330273,9.164725697786334,0.2736655067742652,-0.13111111111111112,-0.6166666666666667,0.14555555555555555,-0.5023664614743459,0.14963723837059958,1.4644193681765452
1592288271.4725792,-2.920885096616569,8.861961020211742,0.4987982157399867,-0.13111111111111112,-0.6166666666666667,0.14555555555555555,-0.49897912783177184,0.08527789916169098,1.3949790285037753
1592288271.4825792,-3.86,9.92,0.35,-0.19333333333333333,-0.5966666666666667,0.11555555555555555,-0.4406956361285682,-0.05126904677733343,1.2893619849108109
1592288271.4925792,-2.3748627243928193,8.88567449841605,0.7494614572333685,-0.19333333333333333,-0.5966666666666667,0.11555555555555555,-0.37937355275753065,-0.1337297201706898,1.1645947585214402
1592288271.5025792,-2.91,9.18,0.25,-0.19333333333333333,-0.5966666666666667,0.11555555555555555,-0.30543261909900765,-0.19307704850187268,1.1071932442339028
1592288271.5125792,-2.583883801345138,9.226585477068054,0.6472044685944447,-0.19333333333333333,-0.5966666666666667,0.11555555555555555,-0.2021700683335465,-0.20662748219865668,1.0297852109437482
1592288271.5225792,-2.3527885017289205,9.019396587756964,0.7109548960747806,-0.19333333333333333,-0.5966666666666667,0.11555555555555555,-0.13784470929265252,-0.2396594233277644,0.9915377001626761
1592288271.5325792,-2.33,9.54,1.0,-0.22666666666666666,-0.5822222222222222,0.13666666666666666,-0.053450708342326333,-0.29343348049154666,0.9370236421644557
1592288271.5425792,-2.0974417157084653,8.713256564056133,0.4793028519692168,-0.22666666666666666,-0.5822222222222222,0.13666666666666666,0.032522090182041524,-0.3131952825426457,0.950418046673204
1592288271.5525792,-1.99,9.27,0.87,-0.22666666666666666,-0.5822222222222222,0.13666666666666666,0.11562806294462433,-0.31852258848896514,0.9632035809443706
1592288271.5625792,-1.9835949947463942,9.78017728531856,1.1624051962938198,-0.22666666666666666,-0.5822222222222222,0.13666666666666666,0.18601839702004222,-0.2898544635480168,0.98159857854083
1592288271.5725791,-1.7912878020823384,9.547806094182825,0.7217012131053586,-0.22666666666666666,-0.5822222222222222,0.13666666666666666,0.21835864869411248,-0.24789954245733106,0.9798504568287181
1592288271.5825791,-1.56,9.64,0.62,-0.2288888888888889,-0.5777777777777777,0.13444444444444445,0.2399827721492203,-0.17344209441693648,0.96647607329186
1592288271.5925791,-1.71,9.54,0.5,-0.2288888888888889,-0.5777777777777777,0.13444444444444445,0.22798363354175932,-0.0916297857297023,0.9533861039019024
1592288271.602579,-1.8410199955066278,10.022039991013257,0.36345090990788587,-0.2288888888888889,-0.5777777777777777,0.13444444444444445,0.20951229764493656,-0.01972489677133841,0.9380759961029054
1592288271.612579,-1.64,9.62,0.4,-0.2288888888888889,-0.5777777777777777,0.13444444444444445,0.17562375598192942,0.0370882466048795,0.9261153343394911
1592288271.622579,-1.6623276741812782,9.75396604508767,-0.13586418035068182,-0.2288888888888889,-0.5777777777777777,0.13444444444444445,0.15451547025657153,0.07199810376604827,0.8944529057514543
1592288271.632579,-1.47,9.37,0.6,-0.25555555555555554,-0.5611111111111111,0.11888888888888889,0.16144295580947549,0.042542400517361786,0.8508480103472356
1592288271.642579,-1.6178525772810528,9.951553470638808,0.2155832990692632,-0.25555555555555554,-0.5611111111111111,0.11888888888888889,0.11198309875479559,0.031790257679387895,0.83256936752268
1592288271.652579,-1.25,9.81,0.08,-0.25555555555555554,-0.5611111111111111,0.11888888888888889,0.10144726277217041,0.04690572364734761,0.8432121948697604
1592288271.662579,-1.2434566109785203,9.593791121718377,0.07156105011933175,-0.25555555555555554,-0.5611111111111111,0.11888888888888889,0.06832095522395411,0.09835721773073677,0.8454303458959644
1592288271.672579,-1.4917111217183772,9.866070262529833,0.1836759904534606,-0.25555555555555554,-0.5611111111111111,0.11888888888888889,0.03949346860174481,0.1114606207408319,0.8480510264979835
1592288271.682579,-1.49,9.87,0.13,-0.28444444444444444,-0.5522222222222222,0.14666666666666667,0.025089107997418484,0.10581058590215622,0.8235772407848243
1592288271.692579,-1.310222360441611,9.977866583735034,0.17494440988959725,-0.28444444444444444,-0.5522222222222222,0.14666666666666667,0.001556270009237283,0.05580330517727117,0.7725894251437649
1592288271.702579,-1.12,9.84,0.14,-0.28444444444444444,-0.5522222222222222,0.14666666666666667,0.019634954084936207,-0.0032724923474893677,0.7123125009701857
1592288271.712579,-0.7467423885380338,9.86179168630408,0.16081440286549156,-0.28444444444444444,-0.5522222222222222,0.14666666666666667,0.03962525845588502,-0.053859361171240835,0.6459565107910662
1592288271.722579,-0.5886011876708456,9.948769346781035,0.2003497030822886,-0.28444444444444444,-0.5522222222222222,0.14666666666666667,0.05687578744457344,-0.07369746950823251,0.6019676618699107
1592288271.732579,-0.58,10.05,0.11,-0.31555555555555553,-0.5466666666666666,0.12777777777777777,0.06654067773228381,-0.0643590161672909,0.5530512067257032
1592288271.742579,-0.6646244744915351,10.021791841836155,0.17581903571563837,-0.31555555555555553,-0.5466666666666666,0.12777777777777777,0.04807848138669331,-0.054102240419740606,0.5151011364597671
1592288271.752579,-0.77,10.08,0.01,-0.31555555555555553,-0.5466666666666666,0.12777777777777777,0.0272707695624114,-0.061086523819801536,0.47123889803846897
1592288271.762579,2.239095432300163,11.65758401305057,-0.20423980424143556,-0.31555555555555553,-0.5466666666666666,0.12777777777777777,0.0039008322321541326,-0.08551873102870686,0.4223744836206583
1592288271.772579,2.201161880646832,10.289787650342406,0.38419059676584,-0.31555555555555553,-0.5466666666666666,0.12777777777777777,0.030063163283870216,-0.1769182269243164,0.32081171983007783
1592288271.782579,-2.5,9.52,0.46,-0.30333333333333334,-0.5344444444444445,0.15555555555555556,-0.07635815477475191,-0.02945243112740431,-0.07853981633974483
1592288271.792579,-0.471962632990226,9.890417783928726,0.38591644321425483,-0.30333333333333334,-0.5344444444444445,0.15555555555555556,-0.07635815477475191,0.07358366475145738,-0.005808454542901298
1592288271.802579,-0.63,9.59,0.69,-0.30333333333333334,-0.5344444444444445,0.15555555555555556,-0.002181661564992912,0.011999138607461015,-0.015271630954950384
1592288271.812579,-0.5913621458000504,9.783189270999747,0.43885394770032793,-0.30333333333333334,-0.5344444444444445,0.15555555555555556,-0.0011279775467200382,0.0646833395211047,-0.008949526845313142
1592288271.822579,-0.5661970988773581,9.686854095135219,0.5728174067358512,-0.30333333333333334,-0.5344444444444445,0.15555555555555556,0.02573960438337732,0.04317223420071632,-0.001802662991359059
1592288271.832579,-0.53,9.68,0.59,-0.31555555555555553,-0.5188888888888888,0.15555555555555556,0.05890486225480862,0.014180800172453926,0.0
1592288271.842579,-0.53,9.731471622300353,0.4784781516825716,-0.31555555555555553,-0.5188888888888888,0.15555555555555556,0.08417093576842317,-0.010149492840656377,-0.0037431220020169697
1592288271.8525789,-0.48242571179907995,9.730485142359816,0.31727713539723984,-0.31555555555555553,-0.5188888888888888,0.15555555555555556,0.11430504239467369,-0.03078735954042882,-0.009552872932477977
1592288271.8625789,-0.48,9.83,0.19,-0.31555555555555553,-0.5188888888888888,0.15555555555555556,0.13308135546456762,-0.02617993877991494,-0.007635815477475192
1592288271.8725789,-0.449073008267843,9.836185398346432,0.15907300826784307,-0.31555555555555553,-0.5188888888888888,0.15555555555555556,0.13780441150737063,-0.02820410565540195,-0.005611648601988181
1592288271.8825788,-0.32,9.99,0.15,-0.31777777777777777,-0.54,0.14222222222222222,0.1090830782496456,-0.00545415391248228,-0.002181661564992912
1592288271.8925788,0.057990434254479195,9.81900432736107,0.26699703917400547,-0.31777777777777777,-0.54,0.14222222222222222,0.1090830782496456,-0.00545415391248228,-0.002181661564992912
1592288271.9025788,-0.47,10.06,-0.23,-0.31777777777777777,-0.54,0.14222222222222222,0.061086523819801536,0.1090830782496456,-0.00545415391248228
1592288271.9125788,-0.6521406946430074,9.86051257253385,-0.06520603818013623,-0.31777777777777777,-0.54,0.14222222222222222,0.08190110897295085,0.028663090157932378,0.011575961212821697
1592288271.9225788,-0.6872871421056587,9.859148568422635,-0.04,-0.31777777777777777,-0.54,0.14222222222222222,0.07157143486175008,-0.018613309533778672,0.01577060795750963
1592288271.9325788,-0.36,9.82,0.14,-0.3233333333333333,-0.5166666666666667,0.15555555555555556,0.04145156973486533,-0.04145156973486533,0.011999138607461015
1592288271.9425788,-0.4991339122486289,9.750433043875686,0.20183729433272396,-0.3233333333333333,-0.5166666666666667,0.15555555555555556,0.0507264980574743,-0.025431238995813458,0.011155963305405654
1592288271.9525788,-0.5489371848687316,9.846183403293509,-0.05705273093067728,-0.3233333333333333,-0.5166666666666667,0.15555555555555556,0.06709924725146979,-0.03924880195841307,0.005058934006760221
1592288271.9625788,-0.4203827339544259,9.989617266045574,-0.23813401833779896,-0.3233333333333333,-0.5166666666666667,0.15555555555555556,0.04347403505700086,-0.05761048444864189,0.004363323129985824
1592288271.9725788,-0.35531136946366476,9.890622738927329,-0.06542587193986862,-0.3233333333333333,-0.5166666666666667,0.15555555555555556,0.007895046311459639,-0.04473655236492621,0.0013805210479053177
1592288271.9825788,-0.6141011636190928,9.773709728488878,0.07682023272381858,-0.3180722006737205,-0.53034561158166,0.13451102491710423,-0.02829623511872644,-0.009254489889624212,-0.0082641678565005
1592288271.9925787,-0.7074848528219073,9.8959128858356,-0.11371213205476836,-0.31777777777777777,-0.5311111111111111,0.13333333333333333,-0.03156550269328791,-0.04884071101220534,-0.005557038911146251
1592288272.0025787,-0.5350440426518313,9.963620348126607,-0.3188135878956463,-0.31777777777777777,-0.5311111111111111,0.13333333333333333,-0.06893607353708057,-0.07013043830710947,-0.00545415391248228
1592288272.0125787,-0.5514862624348651,9.900946234012316,-0.17675746091899575,-0.31777777777777777,-0.5311111111111111,0.13333333333333333,-0.11303352890439947,-0.11646814733337071,-0.006412312594833797
1592288272.0225787,-0.48899815870232355,9.89,-0.059634020166593596,-0.31777777777777777,-0.5311111111111111,0.13333333333333333,-0.13752452300816398,-0.1418878461381498,-0.0030244849630953904
1592288272.0325787,-0.53,9.92,0.05,-0.31777777777777777,-0.5244444444444445,0.13333333333333333,-0.17562375598192942,-0.1712604328519436,-0.004363323129985824
1592288272.0425787,-0.6020228787120132,9.70393136386396,0.29007626237337747,-0.31777777777777777,-0.5244444444444445,0.13333333333333333,-0.20792260716297045,-0.17998985209006277,-0.008728032749045421
1592288272.0525787,-0.3106607671121085,9.865600071406712,0.1437738447414057,-0.31777777777777777,-0.5244444444444445,0.13333333333333333,-0.20371406739000913,-0.191371561335125,-0.012885083928540394
1592288272.0625787,-0.3763003291972651,9.84404152950114,0.23787541149658142,-0.31777777777777777,-0.5244444444444445,0.13333333333333333,-0.21230843110713626,-0.1668824695519217,-0.01073649299925861
1592288272.0725787,-0.20899179767600817,9.702694805194806,0.6284142173615859,-0.31777777777777777,-0.5244444444444445,0.13333333333333333,-0.20648297110036257,-0.0956851709832896,-0.00250861255482524
1592288272.0825787,-0.41307820895522385,9.874641194029852,0.4773683582089552,-0.32429558872305136,-0.5244444444444445,0.1463689552238806,-0.11755222332072225,-0.032389142966562236,-0.0010421178615825845
1592288272.0925786,-0.45602144339405115,9.800752824533088,0.47,-0.3244444444444444,-0.5244444444444445,0.14666666666666667,-0.10541180513073632,-0.015916772978723365,0.0020526331602383164
1592288272.1025786,-0.625972053141375,9.733300693378501,0.3323776001693749,-0.3244444444444444,-0.5244444444444445,0.14666666666666667,-0.09243989776639355,-0.019825660382220167,0.0002700373455637498
1592288272.1125786,-0.5696354370834967,9.737036456291651,0.39036456291650334,-0.3244444444444444,-0.5244444444444445,0.14666666666666667,-0.09470001897875152,-0.04068230098625258,-0.0007675583122623044
1592288272.1225786,-0.48445694900651554,9.801714501103872,0.36445694900651554,-0.3244444444444444,-0.5244444444444445,0.14666666666666667,-0.09262710498316239,-0.06524420381966405,-0.0017640315578016028
1592288272.1325786,-0.4718659170467805,9.796268165906438,0.4028863901559351,-0.3244444444444444,-0.5244444444444445,0.14666666666666667,-0.0961044252077057,-0.07924265989261249,-0.006156997465349945
1592288272.1425786,-0.4476345609065156,9.820456798866855,0.35717776203966006,-0.3244444444444444,-0.5244444444444445,0.14666666666666667,-0.09817477042468103,-0.0789562170421284,-0.007635815477475192
1592288272.1525786,-0.5361579059475068,9.805960523513123,0.23582893522353443,-0.3244444444444444,-0.5244444444444445,0.14666666666666667,-0.10691577074034264,-0.07853981633974483,-0.009384015540607514
1592288272.1625786,-0.5679817277723584,9.823945183317075,0.257890366634151,-0.3244444444444444,-0.5244444444444445,0.14666666666666667,-0.11691912116608155,-0.0968239164780954,-0.010688148477627654
1592288272.1725786,-0.5935654547055198,9.81821727264724,0.3053481820582798,-0.3244444444444444,-0.5244444444444445,0.14666666666666667,-0.12532703614119045,-0.1245825938288467,-0.01219360399477991
1592288272.1825786,-0.5874484931728206,9.825034337884787,0.3600686757695726,-0.319432998482849,-0.5144215525212535,0.1257856418266857,-0.13718882646870817,-0.16285706099693253,-0.014729961245875226
1592288272.1925786,-0.4943202489229296,9.847135950215414,0.3442960746768789,-0.31777777777777777,-0.5111111111111111,0.11888888888888889,-0.14616868785335152,-0.19166588734909265,-0.01433700985583536
1592288272.2025785,-0.5435679349002294,9.81532658096351,0.3342210968272519,-0.31777777777777777,-0.5111111111111111,0.11888888888888889,-0.15482672220090166,-0.20912708210064584,-0.015441561266433944
1592288272.2125785,-0.3179729586986374,9.798500845040667,0.4405109855286786,-0.31777777777777777,-0.5111111111111111,0.11888888888888889,-0.16869781012981233,-0.2164750922475099,-0.011725970013650572
1592288272.2225785,-0.41535716305638826,9.650367626265483,0.7891912222159381,-0.31777777777777777,-0.5111111111111111,0.11888888888888889,-0.16364065809634212,-0.1791425968003485,-0.00950924840215634
1592288272.2325785,-0.41547321237993595,9.644526787620064,0.896525506937033,-0.3424795920787383,-0.5234620182615914,0.13226903830190917,-0.08315557890076217,-0.06311875204515598,-0.006625359249112733
1592288272.2425785,-0.3172768252745136,9.774539780389135,0.7363702562126758,-0.34444444444444444,-0.5244444444444445,0.13333333333333333,-0.05176615124642871,-0.04115489570313185,-0.011403899294322995
1592288272.2525785,-0.7142269210933472,9.647222279525527,0.6348550799381124,-0.34444444444444444,-0.5244444444444445,0.13333333333333333,-0.03251677113372623,-0.017919666278937395,-0.010523619795531307
1592288272.2625785,-0.5436572365723658,9.741152111521115,0.5226937269372693,-0.34444444444444444,-0.5244444444444445,0.13333333333333333,-0.022529971573701915,-0.03087869572985663,-0.002664239020636076
1592288272.2725785,-0.4381090831918506,9.773242430673458,0.5408121109224675,-0.34444444444444444,-0.5244444444444445,0.13333333333333333,-0.02317288115116441,-0.03649853743397982,-0.0021522416982819067
1592288272.2825785,-0.49,9.77150433028829,0.5684956697117096,-0.33060966768168093,-0.5244444444444445,0.1317961359152485,-0.023834180236371134,-0.029706643402535864,-0.0046995838943928265
1592288272.2925785,-0.49,9.794465950771134,0.55,-0.3244444444444444,-0.5244444444444445,0.13111111111111112,-0.01791933839051538,-0.029823079317188007,-0.005337642444839258
1592288272.3025784,-0.460374845807215,9.770374845807215,0.5648125770963925,-0.3244444444444444,-0.5244444444444445,0.13111111111111112,-0.009858366376988085,-0.034057794952124264,-0.007352885448221083
1592288272.3125784,-0.35126503276602894,9.76,0.6383549773158261,-0.3244444444444444,-0.5244444444444445,0.13111111111111112,-0.007898160555605535,-0.021650813770028796,-0.004321872660010743
1592288272.3225784,-0.39811654490159754,9.737680987170972,0.6711595064145139,-0.3244444444444444,-0.5244444444444445,0.13111111111111112,0.0002767210468968013,0.0001977504959634578,-0.0026638356917684453
1592288272.3325784,-0.48421726168835894,9.762380207954628,0.5952395840907438,-0.33318956672079625,-0.5197355324494858,0.13111111111111112,0.013809641687273081,0.02606842070529922,-0.0008608148391212127
