time,acc_x,acc_y,acc_z,mag_x,mag_y,mag_z,gyr_x,gyr_y,gyr_z
1592287810.7430186,-0.3754055067495179,9.770811013499035,0.5654055067495178,-0.3388888888888889,-0.5255555555555556,0.06,0.03290185917284736,-0.0009138950845427774,0.0069576983127617046
1592287810.7530186,-0.3857138829168576,9.791427765833715,0.5585722341662849,-0.3433330200464448,-0.5401577007875249,0.04793735828663401,0.033660009165228814,0.004207270469140896,0.006077441849811168
1592287810.7630186,-0.41048844248761696,9.793170519170793,0.55,-0.3466666666666667,-0.5511111111111111,0.03888888888888889,0.03346990426659037,0.006544984694978735,0.006544984694978735
1592287810.7730186,-0.4478938492063492,9.796973462301587,0.4593449900793651,-0.3466666666666667,-0.5511111111111111,0.03888888888888889,0.030012320587815125,0.006544984694978735,0.008066358162808738
1592287810.7830186,-0.425563558046363,9.8,0.4406618651721822,-0.3466666666666667,-0.5511111111111111,0.03888888888888889,0.026107740489547074,0.0012859783658035846,0.010229219496878834
1592287810.7930186,-0.4148459602829162,9.795154039717083,0.46938384113166487,-0.3466666666666667,-0.5511111111111111,0.03888888888888889,0.02297465893847439,-0.002148055311968504,0.01249414461917263
1592287810.8030186,-0.42,9.79,0.5306877113866967,-0.34315044469497685,-0.5450833020167857,0.048432919954904174,0.020232635889099994,-0.0032724923474893677,0.013687651194121256
1592287810.8130186,-0.40009316400200146,9.770093164002,0.5733643880006671,-0.3388888888888889,-0.5377777777777778,0.06,0.020358787067893718,-0.0032724923474893677,0.013813802372914982
1592287810.8230186,-0.36355793675307085,9.76,0.4972843260709449,-0.3388888888888889,-0.5377777777777778,0.06,0.02649454817592636,-0.0032724923474893677,0.014180800172453926
1592287810.8330185,-0.35,9.76,0.46670648670915216,-0.3388888888888889,-0.5377777777777778,0.06,0.03164712377082826,-0.00034623548959076015,0.011254543314555318
1592287810.8430185,-0.3650602921646746,9.775060292164675,0.4800401947764497,-0.3388888888888889,-0.5377777777777778,0.06,0.032724923474893676,0.0005432231062758801,0.0076270463375858
1592287810.8530185,-0.3963396657732934,9.79,0.4954465552577645,-0.3388888888888889,-0.5377777777777778,0.04366033422670661,0.030348415421398718,-0.002376508053494959,0.006642407939229759
1592287810.8630185,-0.41362663320292314,9.79,0.5018133166014616,-0.3388888888888889,-0.5377777777777778,0.03,0.027965996031450623,-0.006539146854000586,0.007833617634203807
1592287810.8730185,-0.4185274738033729,9.795736263098314,0.4870549476067458,-0.3388888888888889,-0.5377777777777778,0.03,0.02492848030708716,-0.018239649446688513,0.008726646259971648
1592287810.8830185,-0.4038029514086269,9.775211805634507,0.5071822915482389,-0.3388888888888889,-0.5377777777777778,0.03,0.02399827721492203,-0.024366906039803505,0.008050653123562033
1592287810.8930185,-0.38599363128077907,9.769337579146146,0.5486751582922946,-0.3388888888888889,-0.5377777777777778,0.03,0.027563278783237086,-0.026252197685749955,0.008654387354136636
1592287810.9030185,-0.37,9.78444937051577,0.5611012589684581,-0.3304845223590993,-0.5377777777777778,0.04334811154731284,0.03357549682093126,-0.024603756965284978,0.009332126010334596
1592287810.9130185,-0.3641860147500683,9.766744059000272,0.5151160885004098,-0.32,-0.5377777777777778,0.06,0.0379000380462648,-0.021461447583079683,0.006824024036089889
1592287810.9230185,-0.36,9.779256204506497,0.4256363500857079,-0.32,-0.5377777777777778,0.06,0.039908179538966373,-0.020273225454030163,0.0048158825433883235
1592287810.9330184,-0.3661388618677043,9.781583414396888,0.42911089494163424,-0.32,-0.5377777777777778,0.06,0.041700030851325974,-0.01871684701899701,0.005032969079464375
1592287810.9430184,-0.39411330459397953,9.77,0.46964532183759183,-0.32,-0.5377777777777778,0.06,0.043594541914114826,-0.01587508042481373,0.004928083214105758
1592287810.9530184,-0.4351843660490918,9.795307276748487,0.46481563395090825,-0.3334972142658594,-0.5377777777777778,0.04931470537286135,0.04582830034229092,-0.015285038432390152,0.00546756138992205
1592287810.9630184,-0.45328707916287536,9.823287079162876,0.44561722778283286,-0.3466666666666667,-0.5377777777777778,0.03888888888888889,0.04594955107791638,-0.016601504879804645,0.007142592550873253
1592287810.9730184,-0.5044198354105475,9.85,0.370928263343124,-0.3466666666666667,-0.5377777777777778,0.03888888888888889,0.032851495753511525,-0.0228061886095313,0.01413017126100679
1592287810.9830184,-0.5512555526829154,9.881883329024372,0.3459416645121865,-0.3466666666666667,-0.5377777777777778,0.03888888888888889,0.019155595654486674,-0.0359655987494736,0.0233183250870966
1592287810.9930184,-0.6017029246506267,9.902074268837344,0.3679257311626567,-0.3466666666666667,-0.5377777777777778,0.03888888888888889,0.004650351810346286,-0.051414299673273836,0.03334296531411211
1592287811.0030184,-0.7072347849730367,9.878553043005393,0.38763130466307155,-0.34369893707547217,-0.5377777777777778,0.049487923143154935,-0.015285669833920292,-0.07242509362559037,0.043015916086561655
1592287811.0130184,-0.8134543620776602,9.858245083207262,0.40292486132123045,-0.3388888888888889,-0.5377777777777778,0.06666666666666667,-0.030664832057622257,-0.0895636433096031,0.04915119578761515
1592287811.0230184,-0.9540849991408443,9.921098001030987,0.37408499914084425,-0.3388888888888889,-0.5377777777777778,0.06666666666666667,-0.05790718850860875,-0.15303570510252074,0.06508409155711113
1592287811.0330184,-0.8451533251810742,9.969345546044586,0.34646223309190105,-0.3388888888888889,-0.5377777777777778,0.06666666666666667,-0.07812045546983014,-0.19093332642345942,0.10687245544033327
1592287811.0430183,-0.7758412070607192,9.96207939646964,0.40207939646964036,-0.3388888888888889,-0.5377777777777778,0.06666666666666667,-0.09449192819812467,-0.21166447586086506,0.14580427903201074
1592287811.0530183,-0.6882400271286763,9.982942228250817,0.4441155434983661,-0.3416335779024601,-0.5362093840557371,0.06666666666666667,-0.10786328341107682,-0.23613140437507413,0.18479738796114833
1592287811.0630183,-0.606080553462566,9.946080553462567,0.4843516679224604,-0.3466666666666667,-0.5333333333333333,0.06666666666666667,-0.12189015940461904,-0.26350956897250233,0.22779825432596548
1592287811.0730183,-0.5753518144425244,9.901407257770098,0.48605544332757317,-0.3466666666666667,-0.5333333333333333,0.06666666666666667,-0.13226730105677667,-0.27995974107795674,0.2596340009504821
1592287811.0830183,-0.57,9.856408692156725,0.5171826156865527,-0.3466666666666667,-0.5333333333333333,0.06666666666666667,-0.13841257779564065,-0.2919738549648225,0.2878178853772095
1592287811.0930183,-0.520760581882812,9.81106176226262,0.6419653034020439,-0.3466666666666667,-0.5333333333333333,0.06666666666666667,-0.13658548840400878,-0.30219298043445614,0.31098533406030354
1592287811.1030183,-0.46273698884758363,9.783789498141264,0.7865264869888475,-0.3466666666666667,-0.5371228314745973,0.0561402829409335,-0.12360831128302255,-0.3072009105417302,0.3371701176834259
1592287811.1130183,-0.49794397506357146,9.79,0.8313706832909523,-0.3466666666666667,-0.5433333333333333,0.03888888888888889,-0.11225025455817192,-0.30674772741052775,0.3552981529373822
1592287811.1230183,-0.48509339193219275,9.805093391932193,0.8198132161356145,-0.3466666666666667,-0.5433333333333333,0.03888888888888889,-0.08337045085188316,-0.3065030749226096,0.39990833571183587
1592287811.1330183,-0.45662429712233615,9.836265888579124,0.800843925719416,-0.3466666666666667,-0.5433333333333333,0.03888888888888889,-0.05730077968774909,-0.3020680687362304,0.4437196852321114
1592287811.1430182,-0.43542816121423444,9.811429596964414,0.8562844836427034,-0.3466666666666667,-0.5433333333333333,0.03888888888888889,-0.03193054449976217,-0.29265453938411945,0.48531006697650114
1592287811.1530182,-0.45564257975538053,9.773965811345407,0.9343574202446195,-0.3493295345939341,-0.5421229388209391,0.046635413768212376,-0.0014993628060358515,-0.27663841584478543,0.5297899816168217
1592287811.1630182,-0.38271361018774286,9.80748747600543,0.9738693290884405,-0.35888888888888887,-0.5377777777777778,0.07444444444444444,0.046587779593954104,-0.2630875578832783,0.5950289890626309
1592287811.1730182,-0.3153895325609269,9.754610467439074,0.9538953256092689,-0.35888888888888887,-0.5377777777777778,0.07444444444444444,0.09168687675347659,-0.25450350360826923,0.6387879785357422
1592287811.1830182,-0.278768775816748,9.77338481036425,0.8955383965452497,-0.35888888888888887,-0.5377777777777778,0.07444444444444444,0.14298306160191027,-0.24152659673254034,0.6847735807878
1592287811.1930182,-0.2594569655830726,9.806214137985894,0.8575717240282124,-0.35888888888888887,-0.5377777777777778,0.07444444444444444,0.18255041864810778,-0.22418137355858542,0.7357480374600653
1592287811.2030182,-0.30272757292239955,9.849546505228398,0.7681794166208036,-0.3608588026661774,-0.5352017366844004,0.07156533969302269,0.21415055444207473,-0.20810061601195376,0.7869858414862706
1592287811.2130182,-0.28082896592088114,9.88551810370055,0.6348963792598898,-0.37333333333333335,-0.5188888888888888,0.05333333333333334,0.2599709860472755,-0.18787156651402828,0.8838499292149019
1592287811.2230182,-0.23907483986053676,9.862775480418389,0.6275103381172464,-0.37333333333333335,-0.5188888888888888,0.05333333333333334,0.2700407191719437,-0.1761788122193053,0.9275163084884697
1592287811.2330182,-0.07065477397121428,9.910665923373202,0.2766592337320089,-0.37333333333333335,-0.5188888888888888,0.05333333333333334,0.27488874908356226,-0.20493212137756878,1.027346498514014
1592287811.2430182,0.14823354994495935,9.888869180781933,0.14773836156386494,-0.37333333333333335,-0.5188888888888888,0.05333333333333334,0.25523505471541114,-0.2368529814317411,1.0719899645319468
1592287811.2530181,0.27068664169787765,9.87,0.09643778610070745,-0.3821236571569489,-0.5188888888888888,0.056347158644287236,0.22536815149494957,-0.27173700905597487,1.1030468313448254
1592287811.2630181,0.4890599303301026,9.823494158629352,0.12440934619303774,-0.4122222222222222,-0.5188888888888888,0.06666666666666667,0.1596451620404036,-0.35063495202042844,1.1265232754554932
1592287811.2730181,0.7448104927916758,9.751164515109522,0.2052911287773807,-0.4122222222222222,-0.5188888888888888,0.06666666666666667,0.10560341477257991,-0.4246149451606744,1.1337598122890473
1592287811.283018,0.93,9.73,0.2,-0.4122222222222222,-0.5188888888888888,0.06666666666666667,0.07963064712224129,-0.469057236473476,1.136645675361307
1592287811.293018,0.7944159178433889,9.726576029875131,0.2727039327809546,-0.4122222222222222,-0.5188888888888888,0.06666666666666667,0.0451220008180396,-0.4957729795203448,1.1620052951352229
1592287811.303018,0.9866023355869699,9.660849416103257,0.3839864781807007,-0.4165433312845728,-0.5160928771426619,0.06463320357850168,0.04267085975394833,-0.514401469713673,1.201981813091235
1592287811.313018,1.1106869220607662,9.630196263445933,0.32842989243253445,-0.4311111111111111,-0.5066666666666667,0.057777777777777775,0.05819939384725713,-0.5014289111046701,1.2465744099337486
1592287811.323018,1.1595952300537786,9.654080953989245,0.08429996622587099,-0.4311111111111111,-0.5066666666666667,0.057777777777777775,0.11177431941246835,-0.4435265929588901,1.3710787314822628
1592287811.333018,1.1483621639752741,9.641637836024726,-0.04,-0.4311111111111111,-0.5066666666666667,0.057777777777777775,0.14009186025868448,-0.3967214450704933,1.4624492679160082
1592287811.343018,1.3090040376850605,9.654751009421265,-0.14425302826379544,-0.4311111111111111,-0.5066666666666667,0.057777777777777775,0.14494131404755936,-0.3769555893527988,1.526288375467836
1592287811.353018,1.5857739713932546,9.704226028606746,-0.34197174642415684,-0.4363691015755293,-0.5014086762022485,0.053615201993446736,0.1269209642254131,-0.37154312849234195,1.579599367808239
1592287811.363018,1.65,9.64,-0.35,-0.4577777777777778,-0.48,0.03666666666666667,0.07963064712224129,-0.36979163526629855,1.6198837120072371
1592287811.373018,2.0190362821751737,9.525481858912412,-0.30584585200152276,-0.4577777777777778,-0.48,0.03666666666666667,-0.0042979033097113595,-0.38702068601948075,1.6536644244956618
1592287811.383018,2.4249763862584808,9.320306619039627,-0.1726651163905737,-0.4577777777777778,-0.48,0.03666666666666667,-0.06701662336653297,-0.3923466204207895,1.6685851889929504
1592287811.393018,2.6097847005266446,9.230095688654824,-0.04679425153976614,-0.4577777777777778,-0.48,0.03666666666666667,-0.09416114020483159,-0.3847135733111126,1.6707926278614122
1592287811.403018,2.8174821825860703,9.143129454353483,0.06858818205814698,-0.46331238399302804,-0.4740836968043876,0.04277381835246008,-0.10656004617053307,-0.36781790573515005,1.6661939808332331
1592287811.413018,2.95,9.11,0.11,-0.49,-0.44555555555555554,0.07222222222222222,-0.11017390903214205,-0.3425208657038872,1.6580627893946132
1592287811.423018,3.2861122036781123,8.90226453704688,0.334188370362496,-0.49,-0.44555555555555554,0.07222222222222222,-0.0832244921651695,-0.31511019103473803,1.60838299621373
1592287811.433018,3.3111700887440225,8.815372225262307,0.46505341295710306,-0.49,-0.44555555555555554,0.07222222222222222,-0.04166041357171786,-0.3113451549981296,1.555228727762965
1592287811.443018,3.3985463004530057,8.797377463984002,0.49165898053299595,-0.49,-0.44555555555555554,0.07222222222222222,0.003978997041535759,-0.32566897027984004,1.4966733000084236
1592287811.453018,3.702976608518351,8.861304089261441,0.32762573629361125,-0.4995912941146856,-0.43596426144086997,0.07222222222222222,0.04230892467192374,-0.33099952160573953,1.4376090762260472
1592287811.463018,3.71,8.77,0.44,-0.5222222222222223,-0.41333333333333333,0.07222222222222222,0.04690572364734761,-0.28579766501407144,1.403899217072939
1592287811.473018,4.0035189205529145,8.834931435323861,0.3687328588309654,-0.5222222222222223,-0.41333333333333333,0.07222222222222222,0.09480982920161884,-0.2911135952672586,1.327711001557468
1592287811.483018,4.3247010279771985,8.761463496076514,0.32492236506308586,-0.5222222222222223,-0.41333333333333333,0.07222222222222222,0.1260671732994255,-0.2793445737129386,1.2232638368319602
1592287811.493018,4.697371025308241,8.775461550940948,0.25508598312783903,-0.5222222222222223,-0.41333333333333333,0.07222222222222222,0.16663254255456122,-0.254223299023344,1.0894206129490316
1592287811.503018,4.869166980421687,8.662651543674698,0.17325771837349396,-0.526936077643909,-0.4044948544176707,0.07192760625836679,0.21141469018688017,-0.21939734549711828,0.915437842365341
1592287811.513018,4.95,8.67,0.21,-0.54,-0.38,0.07111111111111111,0.24107360293171679,-0.18653206380689397,0.767944870877505
1592287811.523018,5.136348757476413,8.92334192547361,-0.05349658399859856,-0.54,-0.38,0.07111111111111111,0.28399179805234304,-0.1253696221611678,0.508537044738111
1592287811.5330179,4.89,8.93,-0.18,-0.54,-0.38,0.07111111111111111,0.29343348049154666,-0.06654067773228381,0.3894265893512348
1592287811.5430179,4.699199501635259,9.141771197187799,-0.4356571072596614,-0.54,-0.38,0.07111111111111111,0.3280595370642413,-0.0139501207814461,0.1512012519648173
1592287811.5530179,4.43225288316361,9.063873558418194,-0.4482142054033217,-0.5457875293135019,-0.3727655883581227,0.06990537583746488,0.3069640012836547,0.00441427458868189,-0.04504161512135314
1592287811.5630178,4.26,9.15,-0.55,-0.5666666666666667,-0.3466666666666667,0.06555555555555556,0.27707101875409984,-0.0032724923474893677,-0.17998707911191522
1592287811.5730178,4.132390746203431,9.38174806074511,-0.6478149240686114,-0.5666666666666667,-0.3466666666666667,0.06555555555555556,0.18392696492405883,-0.004957809817496797,-0.3057130435315668
1592287811.5830178,4.083776447105788,9.329452624163437,-0.7272401080192556,-0.5666666666666667,-0.3466666666666667,0.06555555555555556,0.1150771274398707,0.029719368959608035,-0.3773080318613504
1592287811.5930178,3.9727296172200224,9.420866890039598,-0.4653560767590618,-0.5666666666666667,-0.3466666666666667,0.06555555555555556,0.05671194793242901,0.06645174107695387,-0.4163078540201663
1592287811.6030178,3.9706507902670767,9.310568261412431,-0.2591016231689862,-0.5687442688295384,-0.3466666666666667,0.06784091793471457,0.020796775073060304,0.09654302550169093,-0.43769810210208027
1592287811.6130178,3.93,9.4,-0.69,-0.5777777777777777,-0.3466666666666667,0.07777777777777778,0.016362461737446838,0.08944812416470939,-0.4341506514335895
1592287811.6230178,3.8525295892318403,8.950355070782084,-0.15217451844975632,-0.5777777777777777,-0.3466666666666667,0.07777777777777778,-0.03656219732058439,0.1379836386168173,-0.4218497559700746
1592287811.6330178,3.950972141613465,9.05568485200232,-0.035493325594892634,-0.5777777777777777,-0.3466666666666667,0.07777777777777778,-0.051032900589364084,0.13464289587375364,-0.4213595051018667
1592287811.6430178,4.184704365626107,9.044617368027398,0.05067826634649451,-0.5777777777777777,-0.3466666666666667,0.07777777777777778,-0.06995639985873696,0.12274596675545818,-0.4462332673878667
1592287811.6530178,4.314772666128598,8.94370863599677,0.1337395749260156,-0.5756703434669536,-0.35105715481421695,0.07444100678563956,-0.0657383286982926,0.10397712738355341,-0.483248161386849
1592287811.6630177,4.5,9.07,0.42,-0.5644444444444444,-0.37444444444444447,0.056666666666666664,-0.07308566242726255,0.12326387842209952,-0.5355979142057599
1592287811.6730177,3.9221784025559105,8.85800536741214,0.3790811501597444,-0.5644444444444444,-0.37444444444444447,0.056666666666666664,-0.054163588911723196,0.1481955443382718,-0.6454197741569925
1592287811.6830177,3.848728003424332,8.98862170645867,0.21784457338533245,-0.5644444444444444,-0.37444444444444447,0.056666666666666664,-0.020845342535950835,0.17087496377965458,-0.7541879310442975
1592287811.6930177,3.6594425404623703,9.092470136096198,0.18247013609619842,-0.5644444444444444,-0.37444444444444447,0.056666666666666664,0.029778347050097145,0.19039123506866443,-0.8481926016152095
1592287811.7030177,3.2064367332210733,9.066270748135675,0.14383990858792398,-0.565825648838639,-0.37624001015689734,0.05459486007537487,0.07903393093282657,0.22401503790866312,-0.9065918381267861
1592287811.7130177,2.97,9.04,0.03,-0.5755555555555556,-0.3888888888888889,0.04,0.14398966328953217,0.24216443371421323,-0.938114472946952
1592287811.7230177,2.936131642837874,9.277048826544375,-0.10898300512543836,-0.5755555555555556,-0.3888888888888889,0.04,0.20160683320438816,0.24740760147318863,-0.9854421689013135
1592287811.7330177,2.7324863174354963,9.415690525268321,-0.21022105337977112,-0.5755555555555556,-0.3888888888888889,0.04,0.23837967191047577,0.23702367364797805,-1.0010029726154992
1592287811.7430177,2.4814081877321597,9.57644385920088,-0.1644385920088049,-0.5755555555555556,-0.3888888888888889,0.04,0.23740541349194272,0.2124465680254188,-1.012064443131459
1592287811.7530177,2.444722857237518,9.590105357320345,-0.39274392870158703,-0.573430039720667,-0.3910144047237776,0.04153916663905731,0.22452975168039294,0.1624733234206796,-1.023127318109564
1592287811.7630177,2.37,9.45,-0.29,-0.5433333333333333,-0.4211111111111111,0.06333333333333334,0.17562375598192942,0.1461713248545251,-1.0221084431991792
1592287811.7730176,2.3776073721958135,9.453517360242405,-0.43409001195340946,-0.5433333333333333,-0.4211111111111111,0.06333333333333334,0.13152875693526506,0.14208461358337598,-1.0088333179212525
1592287811.7830176,2.4474581409117824,9.387386382474837,-0.575059798697454,-0.5433333333333333,-0.4211111111111111,0.06333333333333334,0.09656070253931463,0.154055712831448,-0.9738659254802848
1592287811.7930176,2.454387261010432,9.553718624274575,-0.4708078470466764,-0.5433333333333333,-0.4211111111111111,0.06333333333333334,0.06633406186861446,0.1921123038850534,-0.9283547473686337
1592287811.8030176,2.2677217217930004,9.65078470466764,-0.35134190194752024,-0.5433333333333333,-0.4211111111111111,0.06333333333333334,0.056560277090550115,0.22387710441376252,-0.879485823478312
1592287811.8130176,1.74,9.66,-0.15,-0.5433333333333333,-0.44,0.02666666666666667,0.039269908169872414,0.26070855701665296,-0.7919431480924269
1592287811.8230176,1.7423959436960799,10.027908884516421,-0.130760405630392,-0.5433333333333333,-0.44,0.02666666666666667,0.019863059398860395,0.284271360450447,-0.6672609419996579
1592287811.8330176,1.4175322222746802,9.924502148151646,-0.15874462962088665,-0.5433333333333333,-0.44,0.02666666666666667,0.026231902722105536,0.24952168332121377,-0.5188719108747318
1592287811.8430176,1.6555659340659339,9.89918315018315,-0.14226373626373626,-0.5433333333333333,-0.44,0.02666666666666667,0.00136194019125977,0.19936490879812013,-0.4288924874474128
1592287811.8530176,1.6882096389957852,9.742869708631117,-0.23120395821880152,-0.5429423981430579,-0.44117280557082644,0.027187913587033985,-0.0302738025192456,0.16625064705921383,-0.30969859302777014
1592287811.8630176,1.82,10.11,-0.09,-0.5366666666666666,-0.46,0.035555555555555556,-0.09599310885968812,0.1908953869368798,-0.15053464798451094
1592287811.8730175,1.7741365102113937,9.910636740543584,-0.2217269795772125,-0.5366666666666666,-0.46,0.035555555555555556,-0.1287180323345818,0.19925026185195444,0.019754383221638867
1592287811.8830175,1.7921691141639033,10.064056371387968,-0.044621980104216,-0.5366666666666666,-0.46,0.035555555555555556,-0.12791533383267276,0.252661212578884,0.2373280899786863
1592287811.8930175,1.474870282270853,9.948963738238714,0.25927476477428907,-0.5366666666666666,-0.46,0.035555555555555556,-0.1235295111131242,0.31033283532456285,0.43535435938808165
1592287811.9030175,1.6877113859816049,9.940095358917432,0.08190717834866268,-0.5366666666666666,-0.46,0.035555555555555556,-0.13513819249853462,0.3616045114434589,0.6230280417855503
1592287811.9130175,1.68,9.49,0.43,-0.5288888888888889,-0.4922222222222222,0.012222222222222223,-0.11344640137963141,0.39597157404621347,0.830122225479803
1592287811.9230175,2.040671407224197,9.43,0.15984438604627196,-0.5288888888888889,-0.4922222222222222,0.012222222222222223,-0.04006778228527084,0.40807402315907093,1.095671368684832
1592287811.9330175,2.1230477601950564,9.38828656117034,-0.2408813405364058,-0.5288888888888889,-0.4922222222222222,0.012222222222222223,0.007820036911675541,0.4314028968273383,1.3584393383378313
1592287811.9430175,2.17597597718234,9.225576266420278,-0.19891736632788332,-0.5288888888888889,-0.4922222222222222,0.012222222222222223,0.053412189872964894,0.4031197518364827,1.5770357053404707
1592287811.9530175,2.6646061141686417,9.427768047242196,-0.4769310649580203,-0.5288888888888889,-0.4922222222222222,0.012222222222222223,0.0717919414136586,0.3755501245254421,1.7488863822459568
1592287811.9630175,2.46,9.23,-0.49,-0.5633333333333334,-0.4577777777777778,-0.015555555555555555,0.061086523819801536,0.31306843457648287,1.8707747919814222
1592287811.9730175,2.8832173236226164,9.34839133818869,-0.6928598432201034,-0.5633333333333334,-0.4577777777777778,-0.015555555555555555,-0.0001180161618245456,0.29236111626674577,1.9488087034794708
1592287811.9830174,3.117112145496425,9.253654206055952,-0.8325490666538701,-0.5633333333333334,-0.4577777777777778,-0.015555555555555555,-0.08298087274445627,0.23188029529519366,1.9800834275918708
1592287811.9930174,3.42,9.22,-0.74,-0.5633333333333334,-0.4577777777777778,-0.015555555555555555,-0.17016960206944715,0.22362031041177347,1.9754945471010819
1592287812.0030174,3.6033851656041054,9.091630384077126,-0.5566148343958949,-0.5633333333333334,-0.4577777777777778,-0.015555555555555555,-0.24018436636240598,0.18361187367293982,1.9344858994437772
1592287812.0130174,3.6638284309044025,8.978064416006113,-0.3653762773374081,-0.6022222222222222,-0.4266666666666667,-0.044444444444444446,-0.34618516538333804,0.1476632867542026,1.8897505179896092
1592287812.0230174,4.27,8.85,-0.28,-0.6022222222222222,-0.4266666666666667,-0.044444444444444446,-0.40578905108868163,0.1308996938995747,1.8413223608540177
1592287812.0330174,4.635792958656332,8.464954780361756,0.018410045219638238,-0.6022222222222222,-0.4266666666666667,-0.044444444444444446,-0.46879192782385726,0.11199883087902202,1.7657189087718068
1592287812.0430174,4.913396770245193,8.284047656651005,0.24296817625458997,-0.6022222222222222,-0.4266666666666667,-0.044444444444444446,-0.4685706976045034,0.14166774466909648,1.7335413711350482
1592287812.0530174,5.0955632329134914,8.159843250286256,0.49965728274173815,-0.6022222222222222,-0.4266666666666667,-0.044444444444444446,-0.4477961791709004,0.16605522283028254,1.6757340154937181
1592287812.0630174,5.2,8.13,0.81,-0.6355555555555555,-0.38,-0.057777777777777775,-0.38069994309126315,0.16689710972195776,1.5849771269673507
1592287812.0730174,5.794887162714636,8.627364677023714,0.4784235486508585,-0.6355555555555555,-0.38,-0.057777777777777775,-0.3509133948656388,0.21689595852925586,1.476468987002576
1592287812.0830173,5.365473242192159,8.204528427934052,0.3713210698351347,-0.6355555555555555,-0.38,-0.057777777777777775,-0.29108709991282483,0.2273867776179411,1.2960915725390145
1592287812.0930173,5.782001864783368,8.209687351214093,0.47231451356927473,-0.6355555555555555,-0.38,-0.057777777777777775,-0.2668178196475632,0.22867284695216497,1.0997086060268315
1592287812.1030173,5.623908506586257,7.9434248531979055,0.5804836533883511,-0.6355555555555555,-0.38,-0.057777777777777775,-0.21508188915866888,0.20598164936931662,0.9381472792369511
1592287812.1130173,6.66,8.84,0.16,-0.6622222222222223,-0.31555555555555553,-0.07222222222222222,-0.21162117180431245,0.1974403716318585,0.7254024703601433
1592287812.1230173,5.4603634204888625,7.900693802751465,0.3797522133030483,-0.6622222222222223,-0.31555555555555553,-0.07222222222222222,-0.21714199807807166,0.1985546278385874,0.5484175902391892
1592287812.1330173,5.715096774193548,8.293482437275985,0.28381505376344085,-0.6622222222222223,-0.31555555555555553,-0.07222222222222222,-0.2579465265579189,0.21637031278955543,0.37306741183549863
1592287812.1430173,6.129313159833047,8.02189725018414,0.8911527129879696,-0.6622222222222223,-0.31555555555555553,-0.07222222222222222,-0.2637562814451121,0.25901834511674254,0.2195681940996764
1592287812.1530173,6.120731647434324,8.54536950650626,0.5307291922415909,-0.6622222222222223,-0.31555555555555553,-0.07222222222222222,-0.26094798807964137,0.25152956280882066,0.07353693909519934
1592287812.1630173,5.96,8.09,1.04,-0.6888888888888889,-0.28888888888888886,-0.08666666666666667,-0.27379852640661045,0.2694352032766246,-0.09926560120717749
1592287812.1730173,5.732564112886992,8.124990136478925,0.8912919199645719,-0.6888888888888889,-0.28888888888888886,-0.08666666666666667,-0.2642564469178697,0.28661094635635787,-0.2271294663563027
1592287812.1830173,5.921445611027784,8.193416184558245,0.6785543889722163,-0.6888888888888889,-0.28888888888888886,-0.08666666666666667,-0.29540018582991945,0.32447996902984144,-0.3893643385266355
1592287812.1930172,5.619192240706264,8.118001921806497,0.9606660260645006,-0.6888888888888889,-0.28888888888888886,-0.08666666666666667,-0.274835768841255,0.316268274750662,-0.5144898046463178
1592287812.2030172,5.434469401237163,8.596602005885533,0.8011326647048226,-0.6888888888888889,-0.28888888888888886,-0.08666666666666667,-0.2739198535706957,0.3336706648912887,-0.6198200607606376
1592287812.2130172,5.22,8.45,0.94,-0.6888888888888889,-0.3055555555555556,-0.13444444444444445,-0.2868884957965679,0.29561514205653955,-0.8464846872172498
1592287812.2230172,5.192744191704173,8.495426347159713,0.785550419656976,-0.6888888888888889,-0.3055555555555556,-0.13444444444444445,-0.33941410108384434,0.23317904520562605,-1.0298287811445355
1592287812.2330172,4.816148898153663,8.122308516974389,1.1711542584871948,-0.6888888888888889,-0.3055555555555556,-0.13444444444444445,-0.4155649479226448,0.20629253814625445,-1.1659733658631968
1592287812.2430172,4.461503965650903,8.171503965650903,1.2031466793885541,-0.6888888888888889,-0.3055555555555556,-0.13444444444444445,-0.4420267415428424,0.18220306562430497,-1.2468690444092494
1592287812.2530172,4.236393941201026,7.946393941201026,1.2865207625181387,-0.6888888888888889,-0.3055555555555556,-0.13444444444444445,-0.4483930326866542,0.18311253578770667,-1.3059846050303596
1592287812.2630172,4.54,7.78,1.24,-0.6822222222222222,-0.3233333333333333,-0.14,-0.36760997370130566,0.1265363707695889,-1.3569934934255912
1592287812.2730172,4.260265041708572,8.226243862036325,1.5863385197893864,-0.6822222222222222,-0.3233333333333333,-0.14,-0.28769143708484934,0.13234862797805844,-1.262544313787961
1592287812.2830172,3.8834872380482084,8.639210209561433,1.7694605104780716,-0.6822222222222222,-0.3233333333333333,-0.14,-0.10726908937918817,0.1744783180104817,-1.0149810603774017
1592287812.2930171,4.175132226074337,8.749304603724905,1.5419471095702653,-0.6822222222222222,-0.3233333333333333,-0.14,-0.004983846921480119,0.17822871582606087,-0.9129039954034686
1592287812.3030171,3.879235064097396,8.707033580585342,1.6603059743610415,-0.6822222222222222,-0.3233333333333333,-0.14,0.02360468369243817,0.13765144656759618,-0.9055263100837476
1592287812.3130171,3.91,8.44,1.53,-0.6677777777777778,-0.3711111111111111,-0.13777777777777778,0.038179077387375956,0.05890486225480862,-0.9141161957320302
1592287812.3230171,3.9272895527234355,8.569671645425764,1.1236955109992695,-0.6677777777777778,-0.3711111111111111,-0.13777777777777778,0.057982052530010604,0.0183559131532234,-0.9141161957320302
1592287812.333017,3.5056717791411045,8.47158282208589,1.4349877300613496,-0.6677777777777778,-0.3711111111111111,-0.13777777777777778,0.1224437476712103,-0.012759039437844285,-0.8775171499259267
1592287812.343017,3.2828359702630574,9.141234273732367,0.9661875714830347,-0.6677777777777778,-0.3711111111111111,-0.13777777777777778,0.17710233489665236,-0.01632027677843064,-0.7919631878973571
1592287812.353017,3.1798419482299813,8.91629787920329,0.9433069913716635,-0.6677777777777778,-0.3711111111111111,-0.13777777777777778,0.21604483764188576,-0.06279604328133102,-0.7262094881017781
1592287812.363017,3.4795170454545454,9.237928719008265,0.6108006198347107,-0.6365791437098255,-0.39693067033976126,-0.13132288797061525,0.2405191724100347,-0.1490958895118329,-0.6363022738856154
1592287812.373017,2.5822850122850123,9.030635544635546,0.7664144144144144,-0.6355555555555555,-0.3977777777777778,-0.13111111111111112,0.23942333051449527,-0.17885497365116215,-0.5289803861368756
1592287812.383017,2.908869546529121,9.085707876638727,0.10443208682570382,-0.6355555555555555,-0.3977777777777778,-0.13111111111111112,0.21463118372737613,-0.23508959431854892,-0.4013585913446108
1592287812.393017,3.1483396287069034,9.15550188861207,0.6840729727557663,-0.6355555555555555,-0.3977777777777778,-0.13111111111111112,0.20903940160865864,-0.2827567868213161,-0.3465493915375334
1592287812.403017,3.012993521089515,9.575261800872669,0.4604865793997091,-0.6355555555555555,-0.3977777777777778,-0.13111111111111112,0.18696779034317876,-0.3109689134492305,-0.2613065451727062
1592287812.413017,2.83,8.89,0.75,-0.6355555555555555,-0.43666666666666665,-0.16444444444444445,0.1832595714594046,-0.30543261909900765,-0.1538071403320003
1592287812.423017,3.283131219531848,8.767116957415093,0.3506301115990492,-0.6355555555555555,-0.43666666666666665,-0.16444444444444445,0.17153066847829104,-0.29956816760845084,-0.040707004442691166
1592287812.433017,3.3820543204697984,8.862809878355703,0.30589135906040266,-0.6355555555555555,-0.43666666666666665,-0.16444444444444445,0.11314312273952093,-0.224325443974169,0.23560005977661355
1592287812.443017,3.5908001629562176,9.080800162956217,0.6262002444343262,-0.6355555555555555,-0.43666666666666665,-0.16444444444444445,0.09345046854429395,-0.1440471208384772,0.5434600570075145
1592287812.453017,3.4614040062748885,8.88449559551104,0.7499209605406058,-0.6355555555555555,-0.43666666666666665,-0.16444444444444445,0.06926090984712398,-0.11777879109174748,0.6710155983246692
1592287812.463017,3.81,8.76,1.32,-0.6288888888888889,-0.42444444444444446,-0.12222222222222222,0.01090830782496456,-0.1090830782496456,0.9708393964218458
1592287812.473017,3.74698470993854,8.652874006895518,1.074240368760306,-0.6288888888888889,-0.42444444444444446,-0.12222222222222222,0.004721796189936034,-0.12833000333640102,1.062262290583934
1592287812.483017,3.883937093275488,8.535072496860371,1.4426566959698595,-0.6288888888888889,-0.42444444444444446,-0.12222222222222222,0.017068593777263587,-0.06972362705744016,1.2667100287569892
1592287812.493017,4.002295250137176,8.055722022091276,1.3691056134742468,-0.6288888888888889,-0.42444444444444446,-0.12222222222222222,0.07433752717884287,-0.05109507908448831,1.4084529548040536
1592287812.503017,4.187444143119587,8.18379459364885,1.2644531537048378,-0.6288888888888889,-0.42444444444444446,-0.12222222222222222,0.12097446021992744,-0.02412185571753185,1.4761484772919584
1592287812.513017,4.4750601371351495,8.215421709318447,0.9346989396380532,-0.6586077493432584,-0.41949130103538285,-0.14104416717665622,0.23116408231615931,0.01717728441644753,1.5965293719566236
1592287812.523017,4.87683028782993,8.248791353158964,0.5785859309685895,-0.6622222222222223,-0.41888888888888887,-0.14333333333333334,0.2802477556226527,0.049741649178624676,1.658662335944362
1592287812.533017,5.109468039345014,7.953789681970692,0.18775257377190216,-0.6622222222222223,-0.41888888888888887,-0.14333333333333334,0.3570498333108622,0.10770795765179174,1.7649120278869224
1592287812.543017,5.623718135298812,8.20292709262476,0.2765189427726398,-0.6622222222222223,-0.41888888888888887,-0.14333333333333334,0.34872238285939805,0.14334067504923464,1.8085490948478493
1592287812.553017,5.563748994080724,8.17355210214775,0.23684168171819953,-0.6622222222222223,-0.41888888888888887,-0.14333333333333334,0.32368949686286014,0.1407386485201742,1.765121708318896
1592287812.563017,6.347185522851417,8.32219043502181,0.21,-0.6672830676394947,-0.37536561830034537,-0.16256454591896885,0.31595238248995067,0.09074102891697391,1.6237099573333993
1592287812.573017,6.1834160787716455,8.065395178632059,0.3445003206700117,-0.6677777777777778,-0.3711111111111111,-0.16444444444444445,0.2943333634175983,0.09840205598742778,1.5187157516276726
1592287812.5830169,6.350756958869963,8.11008059825509,-0.028212712920648142,-0.6677777777777778,-0.3711111111111111,-0.16444444444444445,0.2999503673433535,0.07047011578077314,1.2961774340058703
1592287812.5930169,6.4813574166626235,7.993458440487165,-0.023581202387306502,-0.6677777777777778,-0.3711111111111111,-0.16444444444444445,0.27278881058234467,0.08908425807638526,1.126035044877347
1592287812.6030169,6.563879662401307,8.076715067912998,-0.0017911486220770177,-0.6677777777777778,-0.3711111111111111,-0.16444444444444445,0.26341941521954093,0.09361606328939644,1.0465552027677605
1592287812.6130168,6.380612365136061,8.122513164193395,-0.006536436277939392,-0.6962571958120067,-0.3224204931816229,-0.15709491720980473,0.21936640375089395,0.13368495358544158,0.8320469752472907
1592287812.6230168,6.794255270041545,7.985938605939375,-0.028009693799046005,-0.7022222222222222,-0.31222222222222223,-0.15555555555555556,0.17953347545139875,0.1725859961854973,0.7172830907213551
1592287812.6330168,6.91637683092767,7.943673594621275,-0.15785758117446172,-0.7022222222222222,-0.31222222222222223,-0.15555555555555556,0.059911845661718185,0.24266550982163412,0.5330540296499463
1592287812.6430168,7.024370335820895,7.911131063432836,0.05876632462686565,-0.7022222222222222,-0.31222222222222223,-0.15555555555555556,-0.00942774925357244,0.2677302713959597,0.4179563424823437
1592287812.6530168,6.974170274460844,7.941418416866354,0.19472342482028152,-0.7022222222222222,-0.31222222222222223,-0.15555555555555556,-0.09506627281394925,0.30915226398549706,0.24420687767385257
1592287812.6630168,6.723285730520096,7.781504223644835,0.3412352740634115,-0.7079757229861401,-0.27866013443270155,-0.1680214738773775,-0.16939318211402804,0.33007347783211605,0.019154639792131972
1592287812.6730168,6.56058155332478,7.793267793795758,0.39884519586383876,-0.7088888888888889,-0.2733333333333333,-0.17,-0.18877625733500153,0.3425833976670018,-0.07891500811843274
1592287812.6830168,6.7322501715069745,7.896393780013721,0.47028127143837184,-0.7088888888888889,-0.2733333333333333,-0.17,-0.2281677252676871,0.35473203407698317,-0.2730813669051979
1592287812.6930168,6.481127294541092,7.994326334733053,0.3956736652669466,-0.7088888888888889,-0.2733333333333333,-0.17,-0.27592221100259967,0.36831786856663534,-0.4040933490751663
1592287812.7030168,6.243651685393258,7.932078651685393,0.5809550561797753,-0.7088888888888889,-0.2733333333333333,-0.17,-0.28853699849595865,0.3749087347235151,-0.4661892094723056
1592287812.7130167,6.304024815702454,7.725792555289264,1.04271364863635,-0.7036551419605146,-0.26199354832185584,-0.19791331695132927,-0.3050352102810299,0.36100343680369235,-0.5998971651698475
1592287812.7230167,6.118762511009688,7.649430298662823,1.0348330530867162,-0.7022222222222222,-0.2588888888888889,-0.20555555555555555,-0.3010950185781535,0.3756701030502972,-0.6301230001351246
1592287812.7330167,6.269813657757838,7.550848861853513,1.2597184222839999,-0.7022222222222222,-0.2588888888888889,-0.20555555555555555,-0.26097595782997807,0.3787445783969227,-0.6783734348847779
1592287812.7430167,6.229260956745918,7.76765205767211,1.4538260288360547,-0.7022222222222222,-0.2588888888888889,-0.20555555555555555,-0.2289227083374232,0.36419520360638097,-0.725563704586373
1592287812.7530167,5.664806401946435,7.943193560037256,1.4864838715809081,-0.7022222222222222,-0.2588888888888889,-0.20555555555555555,-0.19532908357093892,0.35083932905248955,-0.7631276241319703
1592287812.7630167,5.784251470687673,8.01,1.505852998850497,-0.6960571671136956,-0.27562260989774684,-0.2126013328224431,-0.15577696431451096,0.30147017941637244,-0.8298673491684285
1592287812.7730167,5.781694781649062,8.056416522150402,1.448111303799464,-0.6944444444444444,-0.28,-0.21444444444444444,-0.14564637436365793,0.2724395882317268,-0.8778111185081199
1592287812.7830167,5.343880592833329,8.13,1.3130389712268513,-0.6944444444444444,-0.28,-0.21444444444444444,-0.11866086163153264,0.20725332557579723,-0.981848557119425
1592287812.7930167,5.242250243404336,8.060252190639025,1.3697478093609745,-0.6944444444444444,-0.28,-0.21444444444444444,-0.08421298605014231,0.173879063960997,-1.0372425254980762
1592287812.8030167,5.386701701308397,8.135675022592432,1.338973321284036,-0.6944444444444444,-0.28,-0.21444444444444444,-0.06105125000997109,0.16868370890285334,-1.0733360443214628
1592287812.8130167,5.104657484154071,8.455052413456851,1.3816357874207703,-0.7000161167993932,-0.3030826426133594,-0.22001611679939323,-0.029698546166214763,0.16829734606648117,-1.1227224250700933
1592287812.8230166,4.708320607501982,8.613239871489965,1.2115604789919472,-0.7022222222222222,-0.31222222222222223,-0.2222222222222222,0.0009206089305109424,0.15003727247689122,-1.1757147763624736
1592287812.8330166,4.604772974752463,8.34794373116564,1.0074896806705664,-0.7022222222222222,-0.31222222222222223,-0.2222222222222222,0.01256031329779036,0.09985379183878876,-1.236975091409699
1592287812.8430166,4.420313630880579,8.344379547842328,0.9056204521576715,-0.7022222222222222,-0.31222222222222223,-0.2222222222222222,0.016739046456786446,0.10547292455833898,-1.1857734695741897
1592287812.8530166,4.0637322092285375,8.610861889221285,0.9357907261354366,-0.7022222222222222,-0.31222222222222223,-0.2222222222222222,0.04045475648173688,0.12636932463602601,-1.0274421271088714
1592287812.8630166,4.050797359374525,8.570490097654467,1.1211046210945819,-0.682753795138572,-0.33574657161496624,-0.23195643576404731,0.05994223167651283,0.11131820117543073,-0.9084808838005752
1592287812.8730166,4.011103612544661,8.61090988487495,1.1168828900357284,-0.6755555555555556,-0.34444444444444444,-0.23555555555555555,0.06971759788695978,0.10437973116951438,-0.845772464355808
1592287812.8830166,3.7953824110955097,8.65160930739032,1.1013193111155688,-0.6755555555555556,-0.34444444444444444,-0.23555555555555555,0.0738886641744486,0.08239943865793745,-0.6762459099028916
1592287812.8930166,3.929810929872604,8.920418621264435,0.9719919037980713,-0.6755555555555556,-0.34444444444444444,-0.23555555555555555,0.06981317007977318,0.04216970757612451,-0.516523480122145
1592287812.9030166,3.688667013098715,8.828738330316986,1.186856845915387,-0.6755555555555556,-0.34444444444444444,-0.23555555555555555,0.043129401059034886,0.02144652247101271,-0.3891241074697659
1592287812.9130166,3.4871243086337422,8.828301102263367,1.265359118189307,-0.6620914673744862,-0.37212062570553134,-0.24527961924188338,0.03944106586531766,-0.03648949419678816,-0.2505629278825925
1592287812.9230165,3.3971953810993947,8.811657511727677,1.2,-0.6555555555555556,-0.38555555555555554,-0.25,0.026857066488291118,-0.07496917261723929,-0.2235568488238098
1592287812.9330165,3.4799528831052275,10.376555979358313,0.5480098721112856,-0.6555555555555556,-0.38555555555555554,-0.25,-0.1317707432051401,-0.19872528561168945,-0.3066179216522117
1592287812.9430165,3.434796105545365,9.6374911810357,0.4767242839000987,-0.6555555555555556,-0.38555555555555554,-0.25,-0.10000587927242607,-0.3717516777369406,-0.41062203533446506
1592287812.9530165,3.49918841921584,9.292392364944268,0.3515455290053773,-0.6555555555555556,-0.38555555555555554,-0.25,-0.03275879707064657,-0.3697708527276199,-0.4099630006185581
1592287812.9630165,3.647244345216309,9.212357440890125,0.8382775785081621,-0.6415046076015258,-0.38938763227029094,-0.24105848766561747,-0.0661379143572079,-0.31097249198118543,-0.31500000595695204
1592287812.9730165,3.6733966811264893,8.996793362252978,1.255433450389038,-0.6311111111111111,-0.39222222222222225,-0.23444444444444446,-0.1106150333993941,-0.29503603957543734,-0.2526555774431931
1592287812.9830165,3.7889182675755695,9.22783653515114,0.5262034359292159,-0.6311111111111111,-0.39222222222222225,-0.23444444444444446,-0.08619972353198183,-0.2336039695864645,-0.15499433797354398
1592287812.9930165,4.116144918307984,9.01307245915399,0.7378538660800856,-0.6311111111111111,-0.39222222222222225,-0.23444444444444446,-0.10861486446100511,-0.16646591418464438,0.031059828322769344
1592287813.0030165,3.8247939971925153,8.867396998596258,0.7803425420760915,-0.6311111111111111,-0.39222222222222225,-0.23444444444444446,-0.11788445559779742,-0.1287254359848472,0.11647248951178399
1592287813.0130165,3.7100676698424007,8.8200676698424,0.8066892232808002,-0.6311111111111111,-0.4003979395654224,-0.22626872710124424,-0.11122783164106993,-0.10907569661493188,0.320896722941559
1592287813.0230165,3.683416177135111,8.851617713511072,0.8415951197469499,-0.6311111111111111,-0.40444444444444444,-0.2222222222222222,-0.10454082535280654,-0.11053176856584854,0.4271861922714148
1592287813.0330164,3.7378753090780643,8.737983044860474,1.242406267346218,-0.6311111111111111,-0.40444444444444444,-0.2222222222222222,-0.0966920177987484,-0.11980412229492338,0.5802774722417074
1592287813.0430164,4.293460791239845,8.219436594842811,1.8085743301206034,-0.6311111111111111,-0.40444444444444444,-0.2222222222222222,-0.09322887639160438,-0.11172345901158731,0.6489631101500641
1592287813.0530164,4.678511924624595,7.745133379134361,1.8085447050740995,-0.6311111111111111,-0.40444444444444444,-0.2222222222222222,-0.05440831409530679,-0.07125417156826527,0.7440032496298121
1592287813.0630164,4.894483058500853,7.804139880255544,1.3347118439977255,-0.6396871480973565,-0.39233709811092154,-0.22827589538898366,0.028518527902706866,-0.01171695359652923,0.8260535656738779
1592287813.0730164,5.122994976197266,8.381753943356076,1.0419691551674966,-0.65,-0.37777777777777777,-0.23555555555555555,0.07138172841225486,0.06199502698604103,0.8363886334874413
1592287813.0830164,5.228877570632328,8.484158177974246,0.7757399577167019,-0.65,-0.37777777777777777,-0.23555555555555555,0.09567307172928627,0.14722315995654023,0.8357850901445388
1592287813.0930164,5.238602671198833,8.441397328801168,0.6164246661001459,-0.65,-0.37777777777777777,-0.23555555555555555,0.10805951382045738,0.21524026251984896,0.8231020737836079
1592287813.1030164,5.282778331137743,8.390601805738521,0.6310632008482473,-0.65,-0.37777777777777777,-0.23555555555555555,0.0871253201789629,0.27329851702630986,0.8074675175614212
1592287813.1130164,5.078661549532262,8.57252818421684,0.7570256656272487,-0.6539467231683591,-0.37157578422749926,-0.2395022787239146,0.02938754121757962,0.2709011134370795,0.735953883681072
1592287813.1230164,5.033095036490464,8.737306560219347,0.6300294342970042,-0.6577777777777778,-0.3655555555555556,-0.24333333333333335,0.01730317738504307,0.25565130875238035,0.7033513355483951
1592287813.1330163,5.332262438520692,8.614253417026712,0.9686878073965381,-0.6577777777777778,-0.3655555555555556,-0.24333333333333335,-0.05397390755272402,0.22348704296800553,0.6129876763749637
1592287813.1430163,5.35,8.433762813715093,0.8403729232944503,-0.6577777777777778,-0.3655555555555556,-0.24333333333333335,-0.08325441088820158,0.19778797995650346,0.5349952388741791
1592287813.1530163,5.311946045347691,8.398053954652308,0.7888589140820506,-0.6577777777777778,-0.3655555555555556,-0.24333333333333335,-0.09641043207935102,0.16279720894935873,0.45095938844756384
1592287813.1630163,5.205241601641206,8.34469538777155,0.789485291423966,-0.6657341262572607,-0.35666316607848647,-0.24941759981764378,-0.11385317012839617,0.12900219900836762,0.35605656636643745
1592287813.1730163,5.1181347213717086,8.198728720146969,0.8355088793631353,-0.6766666666666666,-0.34444444444444444,-0.2577777777777778,-0.13311849581454116,0.11903923041179909,0.30736458528953814
1592287813.1830163,5.40278345377523,8.487338649389484,0.8371592324943932,-0.6766666666666666,-0.34444444444444444,-0.2577777777777778,-0.20838428843576828,0.10207327405851213,0.2547379369973321
1592287813.1930163,5.502763596004439,8.357142064372919,0.888645948945616,-0.6766666666666666,-0.34444444444444444,-0.2577777777777778,-0.26730015323785383,0.09516741896661089,0.2101356564101691
1592287813.2030163,5.296428296668071,8.154856849779275,1.2475709340025278,-0.6766666666666666,-0.34444444444444444,-0.2577777777777778,-0.30187961142252984,0.07897620459995625,0.16900090475535526
1592287813.2130163,5.401909273725733,8.147743831696188,1.6160747157552788,-0.665985768427566,-0.33465362105860214,-0.26044800233755294,-0.3233373800633116,0.022224422176899235,0.11297746816831458
1592287813.2230163,5.324321340800129,7.881557552072842,1.7110551549091495,-0.65,-0.32,-0.2644444444444444,-0.33961564594208427,-0.012108744665699852,0.07358451502031348
1592287813.2330163,5.376370496333298,7.955165267297269,1.7280130725900733,-0.65,-0.32,-0.2644444444444444,-0.310632469969572,-0.05984544150216687,0.019211618065987774
1592287813.2430162,5.093322980618756,7.973885638618033,1.495104129047791,-0.65,-0.32,-0.2644444444444444,-0.25690539591290684,-0.09986103434792047,0.01140031754879479
1592287813.2530162,5.237733839194513,8.096065591711659,1.7336354516270247,-0.65,-0.32,-0.2644444444444444,-0.2167334561978823,-0.12498375150702967,0.0025961151838350457
1592287813.2630162,5.352034633573943,8.024862923585678,1.8702741528286457,-0.659793170477308,-0.315103414761346,-0.2644444444444444,-0.1700452482135753,-0.13957754504080438,-0.005922439658564835
1592287813.2730162,5.39,8.24,1.44,-0.6766666666666666,-0.30666666666666664,-0.2644444444444444,-0.11344640137963141,-0.16580627893946132,-0.001090830782496456
1592287813.2830162,5.682025913492217,7.837974086507782,1.6409444274893876,-0.6766666666666666,-0.30666666666666664,-0.2644444444444444,-0.036101254027159156,-0.17165838346535106,0.019914932876071094
1592287813.2930162,5.74,7.672487174081102,1.451217935202755,-0.6766666666666666,-0.30666666666666664,-0.2644444444444444,0.018342040939472525,-0.18274240620121912,0.017466018495759895
1592287813.3030162,5.74,7.440195196545831,1.6074590267158406,-0.6766666666666666,-0.30666666666666664,-0.2644444444444444,0.11442772715598719,-0.22074095673597163,-0.005649202345462982
1592287813.3130162,5.8642216326022965,7.279688653040919,1.934458355789561,-0.6723287683853166,-0.31139891933723035,-0.2620783181091626,0.36978751994764647,-0.2777067676509256,-0.05919284411389147
1592287813.3230162,6.088045977011494,7.371706329933625,1.4702201716043386,-0.6644444444444444,-0.32,-0.2577777777777778,0.6202883773519753,-0.29652284324190975,-0.11149290127991054
1592287813.3330162,5.262793237055301,8.121271574498063,1.0952377597745686,-0.6644444444444444,-0.32,-0.2577777777777778,0.9340339435668491,-0.2337451719649838,-0.21666996239325342
1592287813.3430161,5.10345714217818,8.285925714693093,0.7817257194458307,-0.6644444444444444,-0.32,-0.2577777777777778,1.0186202784078227,-0.24243371320302223,-0.24853426231505615
1592287813.3530161,4.902864361702128,8.477135638297872,0.999363475177305,-0.6644444444444444,-0.32,-0.2577777777777778,1.018614864208521,-0.2654208686331524,-0.257169294651735
1592287813.3630161,4.530328511890169,8.738134346653592,0.938970335866634,-0.6691907057830078,-0.3181542317016698,-0.25250415406826293,0.9789539044957094,-0.31549265155204803,-0.25895183541571665
1592287813.373016,4.418241758241758,8.559663162924032,0.559053989488772,-0.6844444444444444,-0.31222222222222223,-0.23555555555555555,0.8759079322367612,-0.4401645532010174,-0.23844242318712364
1592287813.383016,4.985150532764416,8.379833853781793,0.4886708302543443,-0.6844444444444444,-0.31222222222222223,-0.23555555555555555,0.7791828123662609,-0.5487858610071843,-0.19754175537052873
1592287813.393016,5.036238095238096,8.456279047619047,0.32879619047619046,-0.6844444444444444,-0.31222222222222223,-0.23555555555555555,0.6759987442208787,-0.6012611484343328,-0.13139960606389595
1592287813.403016,5.039616438356164,8.418973848069738,0.2878206724782067,-0.6844444444444444,-0.31222222222222223,-0.23555555555555555,0.5671968231904776,-0.6247174306914084,-0.07002984194752931
1592287813.413016,5.589884963023829,8.39735414954807,0.24758422350041082,-0.6825015977357801,-0.31222222222222223,-0.23028211448918104,0.44372612000335915,-0.6288733575498118,-0.01392355412925221
1592287813.423016,6.01,8.93,-0.06,-0.6766666666666666,-0.31222222222222223,-0.21444444444444444,0.33161255787892263,-0.5945027764605685,0.042542400517361786
1592287813.433016,5.935402465945189,8.236677434986271,0.018254993808216227,-0.6766666666666666,-0.31222222222222223,-0.21444444444444444,0.043227216482682865,-0.46741009550028306,0.06491180243363757
1592287813.443016,6.14863843167147,8.41274266930278,0.0060260594078273486,-0.6766666666666666,-0.31222222222222223,-0.21444444444444444,-0.09654882687367664,-0.4009901076049988,0.02611882460920839
1592287813.453016,6.115326753992464,8.444764579221246,0.15304288534003233,-0.6766666666666666,-0.31222222222222223,-0.21444444444444444,-0.166175767772786,-0.29181524193165265,-0.025168067469454925
1592287813.463016,5.550994120791021,8.49626632053142,0.3974268916545774,-0.6766666666666666,-0.31516369312734893,-0.20722447040458797,-0.18778580708924253,-0.159912944243891,-0.09081522323044175
1592287813.473016,4.86,8.8,0.2,-0.6766666666666666,-0.3244444444444444,-0.18444444444444444,-0.17453292519943295,-0.10690141668465267,-0.15707963267948966
1592287813.483016,4.808609565589557,8.460882463085813,0.6924063770597046,-0.6766666666666666,-0.3244444444444444,-0.18444444444444444,-0.15466850681764377,-0.021383977408647423,-0.2208951884539923
1592287813.493016,4.649621772307402,8.614201611188546,0.5238233834959484,-0.6766666666666666,-0.3244444444444444,-0.18444444444444444,-0.09732682466486475,-0.024722448251774613,-0.26446233537831476
1592287813.503016,4.689318648833772,8.583973466959877,0.5298673347993799,-0.6766666666666666,-0.3244444444444444,-0.18444444444444444,-0.05590072238072334,-0.03729772984430264,-0.3233203327463975
1592287813.513016,4.819643378816488,8.663098792261927,0.6704385621147886,-0.6753686748132578,-0.3272567601268303,-0.186824096175694,-0.016535943821349514,-0.05575801228573712,-0.39301818147267686
1592287813.523016,4.57,8.8,0.3,-0.67,-0.3388888888888889,-0.19666666666666666,0.009817477042468103,-0.06981317007977318,-0.44396812847605754
1592287813.533016,4.403136410473196,8.780301196861211,0.5616420513091496,-0.67,-0.3388888888888889,-0.19666666666666666,0.0028491754161752525,-0.05836750222047095,-0.4494222823885398
1592287813.543016,4.523166654761054,9.028138914684382,0.5084444126961449,-0.67,-0.3388888888888889,-0.19666666666666666,0.002669505548059522,-0.06504382111956175,-0.45527641018533915
1592287813.553016,4.352530793468921,8.979295330850759,0.470293612145517,-0.67,-0.3388888888888889,-0.19666666666666666,-0.005505398899113452,-0.07816125962447859,-0.4537343605318945
1592287813.563016,4.133328164802304,8.731111972532949,0.5362254956252076,-0.67,-0.33553118962355866,-0.19548159633772658,-0.02271353975329092,-0.07773942272649431,-0.4248918189296377
1592287813.573016,4.38,8.69,0.38,-0.67,-0.32,-0.19,-0.02181661564992912,-0.09926560120717749,-0.3719732968312915
1592287813.583016,4.322579988754719,8.676773675332674,0.44580524244290337,-0.67,-0.32,-0.19,-0.03237298604874887,-0.04831312287482195,-0.2630658952304642
1592287813.593016,4.09740273178808,8.73594784768212,0.26924668874172186,-0.67,-0.32,-0.19,-0.0173399653153048,-0.018821797528944435,-0.19276257679657102
1592287813.603016,4.087281179644938,8.870346984721674,0.3568099403646863,-0.67,-0.32,-0.19,-0.006629721064561013,-0.006455730302151031,-0.15275415971104955
1592287813.613016,4.439913812318895,8.640430938405528,0.4004955791663571,-0.6699880294887354,-0.3200526702495645,-0.1900143646135176,0.004407980813406253,0.002160507925477972,-0.1275096813325579
1592287813.6230159,4.255911293074036,8.822846582508813,0.5579556465370181,-0.6644444444444444,-0.34444444444444444,-0.19666666666666666,0.030702550744738186,-0.0068873564444992316,-0.04838651433905587
1592287813.6330159,4.0111235553437385,8.780662933396878,0.286168712021923,-0.6644444444444444,-0.34444444444444444,-0.19666666666666666,0.04145156973486533,-0.007830691168560047,0.01724245662153203
1592287813.6430159,4.198017800573239,8.668208377331926,-0.0034434555237089553,-0.6644444444444444,-0.34444444444444444,-0.19666666666666666,0.042524381816097134,0.0004989836389787412,0.08177350128648916
1592287813.6530159,4.4482869857415315,8.662313686313686,0.08458287167378077,-0.6644444444444444,-0.34444444444444444,-0.19666666666666666,0.05014788156693756,0.03709997618118026,0.14958173879091569
1592287813.6630158,4.4196367491166075,9.127409187279152,0.23333992932862194,-0.6633746368276403,-0.34444444444444444,-0.19666666666666666,0.06516692476097025,0.06355049084949424,0.20386339913263873
1592287813.6730158,3.79,8.97,-0.35,-0.65,-0.34444444444444444,-0.19666666666666666,0.07526732399225547,0.10799224746714915,0.27052603405912107
1592287813.6830158,4.032683261700096,8.997515520534861,-0.07725465616045846,-0.65,-0.34444444444444444,-0.19666666666666666,0.07521041221432435,0.1115642103715094,0.30884061878044966
1592287813.6930158,4.71,8.84,-0.03,-0.65,-0.34444444444444444,-0.19666666666666666,0.09926560120717749,0.11671889372712078,0.3174317577064687
1592287813.7030158,4.448273017877581,8.916131654761434,-0.026789928568609653,-0.65,-0.34444444444444444,-0.19666666666666666,0.09082174698360108,0.1076779862606207,0.30343047386705907
1592287813.7130158,5.128061682242991,8.887634766355141,0.05962915887850468,-0.65,-0.3439569262720665,-0.19662234683281413,0.08329473752596668,0.0937648779954948,0.28008550413482824
1592287813.7230158,4.6,8.59,-0.19,-0.65,-0.3322222222222222,-0.19555555555555557,0.09272061651219875,0.11890055529211369,0.2476185876266955
1592287813.7330158,4.751701853390243,8.456183219227134,-0.1080916096135667,-0.65,-0.3322222222222222,-0.19555555555555557,0.07494600247240639,0.17078971541782842,0.19153802997657793
1592287813.7430158,4.904426600586147,8.723539755533848,-0.3107951106769282,-0.65,-0.3322222222222222,-0.19555555555555557,0.08963159707313327,0.18829840966092137,0.15135527273839497
1592287813.7530158,4.73,8.73,-0.44,-0.65,-0.3322222222222222,-0.19555555555555557,0.0839939702522271,0.20943951023931953,0.14289883250703572
1592287813.7630157,4.374172066234701,8.413586513078954,0.28897528197744177,-0.6501057248753433,-0.3320758339332853,-0.19549862677652455,0.07399285563022426,0.24532514666546404,0.15393488821341578
1592287813.7730157,4.94,8.9,0.15,-0.6644444444444444,-0.31222222222222223,-0.18777777777777777,0.04908738521234052,0.2301652951067522,0.1712604328519436
1592287813.7830157,4.955979237372729,8.712447594330206,0.7146675983230185,-0.6644444444444444,-0.31222222222222223,-0.18777777777777777,0.036813633385329086,0.24324764240100447,0.18053630555101605
1592287813.7930157,5.347853464307854,8.630565542892565,0.1988376806065519,-0.6644444444444444,-0.31222222222222223,-0.18777777777777777,0.04665214489265445,0.2679217412363062,0.16540307571546045
1592287813.8030157,5.237188643871083,8.30039550040175,0.3079957146683332,-0.6644444444444444,-0.31222222222222223,-0.18777777777777777,0.060781021082127094,0.30010847671180285,0.1407614819862385
1592287813.8130157,5.634113739844657,8.457667708240336,0.45777876975270065,-0.6644444444444444,-0.31222222222222223,-0.18777777777777777,0.06323184058986296,0.33115219047645705,0.1170702267447919
1592287813.8230157,5.12,8.5,0.52,-0.6766666666666666,-0.30666666666666664,-0.22555555555555556,0.07090400086226964,0.4177881896961426,0.08944812416470939
1592287813.8330157,5.024522617925099,8.437760208892435,0.01012209569401129,-0.6766666666666666,-0.30666666666666664,-0.22555555555555556,0.03466226173123721,0.4456744619978955,0.08177158813579263
1592287813.8430157,5.127870152691695,8.208703664125762,0.6969905725344921,-0.6766666666666666,-0.30666666666666664,-0.22555555555555556,0.008251935022527036,0.4554370442133203,0.07341394003896917
1592287813.8530157,5.230430476693516,8.243393635283244,0.799457282450812,-0.6766666666666666,-0.30666666666666664,-0.22555555555555556,0.004879137870791292,0.4101203968736636,0.055573168606433736
1592287813.8630157,4.906033087472411,8.259217898172077,0.6570389164513026,-0.6766666666666666,-0.30666666666666664,-0.22555555555555556,-0.0028885790104642905,0.3540202193979288,0.04003773484392257
1592287813.8730156,5.56,8.25,0.88,-0.6577777777777778,-0.3,-0.21666666666666667,-0.01090830782496456,0.29343348049154666,0.014180800172453926
1592287813.8830156,5.127646691635456,8.270259051186018,0.8905711610486892,-0.6577777777777778,-0.3,-0.21666666666666667,0.024200169429035762,0.2634526569251803,0.011846272495931393
1592287813.8930156,5.42,8.64,0.71,-0.6577777777777778,-0.3,-0.21666666666666667,0.05890486225480862,0.23343778745424157,0.01090830782496456
1592287813.9030156,4.9581781320736145,8.35877846668635,0.3751138667453991,-0.6577777777777778,-0.3,-0.21666666666666667,0.08793270566990376,0.24107360293171679,-0.027062995337783544
1592287813.9130156,5.486541875799626,8.35052278319063,0.3420911327625234,-0.6577777777777778,-0.3,-0.21666666666666667,0.09243548251374283,0.24107360293171679,-0.047775768819443294
1592287813.9230156,4.59,8.14,0.7,-0.6577777777777778,-0.28,-0.24,0.08290313946973066,0.25416357232167425,-0.014180800172453926
1592287813.9330156,5.027605197854684,8.322746751340823,0.9872532486591776,-0.6577777777777778,-0.28,-0.24,0.0995268335969874,0.22836004103646926,0.07189092082230132
1592287813.9430156,5.141769148302561,8.247813222156045,1.0621867778439549,-0.6577777777777778,-0.28,-0.24,0.08082334941557481,0.21766503702391587,0.15917270241273676
1592287813.9530156,5.09,8.27,1.04,-0.6577777777777778,-0.28,-0.24,0.06872233929727672,0.18216874067690814,0.2301652951067522
1592287813.9630156,5.359112270724619,7.991917320251226,1.04,-0.6577777777777778,-0.28,-0.24,0.06872233929727672,0.15183462596200153,0.2673490486282506
1592287813.9730155,6.0,8.05,1.42,-0.67,-0.26666666666666666,-0.2611111111111111,0.12762720155208535,0.10581058590215622,0.22689280275926282
1592287813.9830155,5.743151714963272,8.44976632540922,0.6485603562959107,-0.67,-0.26666666666666666,-0.2611111111111111,0.22367551759175405,0.06255087060856665,0.12925704369295227
1592287813.9930155,5.67,8.02,0.74,-0.67,-0.26666666666666666,-0.2611111111111111,0.2825251726665821,0.06654067773228381,0.053450708342326333
1592287814.0030155,5.67162201567341,8.315847761375371,0.3123832087965494,-0.67,-0.26666666666666666,-0.2611111111111111,0.3465652429280255,0.06887780306106608,-0.00197523802526407
1592287814.0130155,5.111057043921997,8.179953222768969,0.431290930077152,-0.67,-0.26666666666666666,-0.2611111111111111,0.3539771402222764,0.04942157266365754,-0.07331474948242872
1592287814.0230155,5.35,8.34,0.1,-0.67,-0.26666666666666666,-0.24444444444444444,0.33052172709642613,0.07963064712224129,-0.022907446432425576
1592287814.0330155,5.144274754039173,8.180356229503264,0.4790203688660228,-0.67,-0.26666666666666666,-0.24444444444444444,0.27355566008923904,0.1301780199194828,0.09652741475790523
1592287814.0430155,5.589876425173889,8.25012357482611,0.389365155245357,-0.67,-0.26666666666666666,-0.24444444444444444,0.2514567152490726,0.16586204983708208,0.1515292681021076
1592287814.0530155,5.48,8.36,0.46,-0.67,-0.26666666666666666,-0.24444444444444444,0.2694352032766246,0.1461713248545251,0.13526301702956053
1592287814.0630155,5.7906077658975805,8.28643500281373,0.20660945413618453,-0.67,-0.26666666666666666,-0.24444444444444444,0.29618419109164046,0.12477213460251246,0.052341154803011575
1592287814.0730155,5.9,7.97,-0.1,-0.6844444444444444,-0.25333333333333335,-0.23777777777777778,0.31634092692397225,0.11890055529211369,-0.09599310885968812
1592287814.0830154,6.119811161929348,8.213018883807067,-0.09956873088470497,-0.6844444444444444,-0.25333333333333335,-0.23777777777777778,0.3010310668479091,0.09873048533494803,-0.22596370350275508
1592287814.0930154,5.455693711574769,8.268612576850462,-0.10138742314953768,-0.6844444444444444,-0.25333333333333335,-0.23777777777777778,0.2658357574126601,0.14830585631963042,-0.30774991501869114
1592287814.1030154,5.48,8.22,-0.15,-0.6844444444444444,-0.25333333333333335,-0.23777777777777778,0.222529479629277,0.20398535632683729,-0.33161255787892263
1592287814.1130154,5.424814687284793,8.401323170349965,0.3545514305390346,-0.6844444444444444,-0.25333333333333335,-0.23777777777777778,0.17695111668461472,0.21946480034577917,-0.3298926196545957
1592287814.1230154,4.96,8.31,0.07,-0.65,-0.2588888888888889,-0.2222222222222222,0.1112647398146385,0.2127120025868089,-0.3141592653589793
1592287814.1330154,6.135013614984735,8.305013614984736,0.7731685782655335,-0.65,-0.2588888888888889,-0.2222222222222222,0.10004688771531094,0.2028134265646371,-0.32865555046357703
1592287814.1430154,6.27,8.44,0.32,-0.65,-0.2588888888888889,-0.2222222222222222,0.12108221685710661,0.1712604328519436,-0.3665191429188092
1592287814.1530154,4.981624556021957,8.4192527042299,-0.038830319664191155,-0.65,-0.2588888888888889,-0.2222222222222222,0.12422711687299787,0.10901573785241327,-0.44856182664920663
1592287814.1630154,5.404846625766871,8.224570552147238,0.26588957055214724,-0.65,-0.2588888888888889,-0.2222222222222222,0.09098733324430562,0.0914725187150479,-0.5085781026454566
1592287814.1730154,5.5,8.42,-0.16,-0.6644444444444444,-0.25333333333333335,-0.24333333333333335,0.07963064712224129,0.04036073895236887,-0.5705044992456464
1592287814.1830153,5.395391767865015,8.591177107129974,-0.07441144643501263,-0.6644444444444444,-0.25333333333333335,-0.24333333333333335,0.026725157436021447,0.04865963929530531,-0.5850275748457853
1592287814.1930153,5.04,7.99,-0.02,-0.6644444444444444,-0.25333333333333335,-0.24333333333333335,0.001090830782496456,0.002181661564992912,-0.6228643768054763
1592287814.2030153,5.414499293096238,8.33206276508891,0.24137517672594036,-0.6644444444444444,-0.25333333333333335,-0.24333333333333335,-0.03904489540426814,-0.008560867958292742,-0.6479034819660939
1592287814.2130153,5.214050857245265,8.407230928533025,0.29148728568868354,-0.6644444444444444,-0.25333333333333335,-0.24333333333333335,-0.030845320749411625,-0.04227023042825845,-0.6460813542650147
1592287814.2230153,5.07535629211189,8.353294766215203,0.45134894167290546,-0.6766666666666666,-0.28,-0.2644444444444444,-0.06618127449141636,-0.026327085489974696,-0.6557427575203768
1592287814.2330153,4.838805856915257,8.299294438965179,0.7475441923981488,-0.6766666666666666,-0.28,-0.2644444444444444,-0.06968588855762162,-0.06456326245901393,-0.7060857200805859
1592287814.2430153,5.3077766079632465,8.299934915773353,0.3026138973966309,-0.6766666666666666,-0.28,-0.2644444444444444,-0.03425765139434613,-0.09260644887622442,-0.7944531133897668
1592287814.2530153,5.01,8.37,0.18,-0.6766666666666666,-0.28,-0.2644444444444444,0.001090830782496456,-0.06872233929727672,-0.8813912722571364
1592287814.2630153,5.178457910797398,8.440190796165583,0.3203815923311654,-0.6766666666666666,-0.28,-0.2644444444444444,0.03784264571306533,-0.11925608482680893,-0.9748021352056656
1592287814.2730153,5.02,8.4,-0.13,-0.6844444444444444,-0.29333333333333333,-0.24888888888888888,0.03490658503988659,-0.11890055529211369,-1.0657416744990376
1592287814.2830153,5.1937062336547095,8.70170030055818,0.26312463406065806,-0.6844444444444444,-0.29333333333333333,-0.24888888888888888,0.023936452541976763,-0.07801187961808614,-1.0577633963187394
1592287814.2930152,4.37,8.6,0.0,-0.6844444444444444,-0.29333333333333333,-0.24888888888888888,0.01854412330243975,-0.0818123086872342,-1.0264717663291651
1592287814.3030152,4.230012180267965,8.385352009744214,0.27064311814859926,-0.6844444444444444,-0.29333333333333333,-0.24888888888888888,0.0053098613144565605,-0.05127170409958068,-0.9684446176126235
1592287814.3130152,4.716358597633397,8.981584700655436,0.0772748867285444,-0.6844444444444444,-0.29333333333333333,-0.24888888888888888,0.014998815294285994,-0.0906624909455139,-0.9420565644742395
1592287814.3230152,4.09,8.48,0.37,-0.67,-0.31222222222222223,-0.23444444444444446,0.004363323129985824,-0.12217304763960307,-0.9446594576419308
1592287814.3330152,4.906876947355642,8.742902925585724,0.16343341561121677,-0.67,-0.31222222222222223,-0.23444444444444446,-0.0017820183850988111,-0.12422149481129793,-0.9508047991570154
1592287814.3430152,4.269487983785349,8.532765177106457,0.14516094006370042,-0.67,-0.31222222222222223,-0.23444444444444446,0.032805517139984024,-0.13381988506899933,-0.9812198446931243
1592287814.3530152,3.32,8.57,0.08,-0.67,-0.31222222222222223,-0.23444444444444446,0.06326818538479445,-0.05563236990731925,-0.9741118887693352
1592287814.3630152,4.695681258027562,8.980290901516993,0.18458395528864513,-0.67,-0.31222222222222223,-0.23444444444444446,0.11153423829344669,-0.026672738162127906,-1.0153574248912742
1592287814.3730152,2.36,9.24,-0.53,-0.6677777777777778,-0.3388888888888889,-0.24,0.15926129424448257,-0.12544553998709243,-1.155189798663747
1592287814.3830152,3.669022121066922,8.853885561411914,0.2893160038332535,-0.6677777777777778,-0.3388888888888889,-0.24,0.08221516341919832,-0.06483591707120218,-1.2219631120456598
1592287814.3930151,3.7549740509370495,11.496694858241229,1.3463195579048535,-0.6677777777777778,-0.3388888888888889,-0.24,0.05250664960168429,-0.23914098207059895,-1.3577145634997871
1592287814.4030151,2.23,10.72,-1.41,-0.6677777777777778,-0.3388888888888889,-0.24,-0.0818123086872342,-0.34143003492139073,-1.5271630954950384
1592287814.4130151,2.6776583398202534,8.575572146344916,0.9221555445474487,-0.6677777777777778,-0.3388888888888889,-0.24,-0.0818123086872342,-0.34143003492139073,-1.5271630954950384
1592287814.423015,3.08,9.96,-1.1,-0.6411111111111111,-0.38555555555555554,-0.24,-0.20289452554434081,-0.4025165587411922,-1.6133387273122584
1592287814.433015,1.971128549179346,9.401056667066012,-0.2615850005990177,-0.6411111111111111,-0.38555555555555554,-0.24,-0.20977837740345195,-0.39268248465674777,-1.6261230236220365
1592287814.443015,3.1715465817694373,9.461430007659901,0.3409888452700115,-0.6411111111111111,-0.38555555555555554,-0.24,-0.25887428181536964,-0.43658400099916844,-1.6518054481288755
1592287814.453015,1.7746738369274415,9.22108936491121,0.3719406388594617,-0.6411111111111111,-0.38555555555555554,-0.24,-0.3019463009627744,-0.4437261960639879,-1.6603956587171496
1592287814.463015,2.44494245237283,9.522333686459698,0.4246583951304473,-0.6411111111111111,-0.38555555555555554,-0.24,-0.32577027794008245,-0.43715406448404087,-1.6645032409546163
1592287814.473015,1.44,9.08,0.69,-0.6288888888888889,-0.4222222222222222,-0.24,-0.35997415822383044,-0.4254240051736178,-1.6646077740895917
1592287814.483015,2.0363979828704077,9.542208436724565,0.7645497478588009,-0.6288888888888889,-0.4222222222222222,-0.24,-0.33883065667798085,-0.4506335647090539,-1.6304528869770654
1592287814.493015,1.729116845878136,9.619840860215053,0.19034551971326163,-0.6288888888888889,-0.4222222222222222,-0.24,-0.35439973924013096,-0.37827055737437426,-1.5262996579681332
1592287814.503015,1.66,10.39,1.0,-0.6288888888888889,-0.4222222222222222,-0.24,-0.2596177262341565,-0.358883327441334,-1.373355955163038
1592287814.513015,1.338839333852513,9.758947463008447,0.7915272868867189,-0.6288888888888889,-0.4222222222222222,-0.24,-0.21659450543897715,-0.3121724020065678,-1.2866948961327482
1592287814.523015,1.46,9.83,1.29,-0.6144444444444445,-0.4688888888888889,-0.24,-0.07853981633974483,-0.2127120025868089,-1.0450158896316046
1592287814.533015,0.8712294212408157,9.248589053475305,0.9661761816824486,-0.6144444444444445,-0.4688888888888889,-0.24,-0.06810326893373977,-0.12440275530522771,-0.9502841516386359
1592287814.543015,0.9042310359173485,9.694539176258495,0.8890769657467757,-0.6144444444444445,-0.4688888888888889,-0.24,0.03368160521593709,-0.1001802290087487,-0.8107976234172449
1592287814.553015,0.9317929065811598,9.956986274586479,1.115193368005318,-0.6144444444444445,-0.4688888888888889,-0.24,0.0930511118355,-0.07579164620624859,-0.7678925751539161
1592287814.563015,0.2870291479820628,9.259561600188814,0.6776233183856502,-0.6144444444444445,-0.4688888888888889,-0.24,0.1662713044530049,-0.050795525295929934,-0.7361783183225649
1592287814.573015,-0.35,9.22,0.23,-0.5811111111111111,-0.49333333333333335,-0.24666666666666667,0.27379852640661045,-0.032724923474893676,-0.7221299780126538
1592287814.583015,1.0849575324094771,9.607438533750559,0.6174385337505588,-0.5811111111111111,-0.49333333333333335,-0.24666666666666667,0.30510444336515874,-0.05385641742191376,-0.6923893569020331
1592287814.593015,0.2801996152666648,9.93242242605035,0.06115224845967271,-0.5811111111111111,-0.49333333333333335,-0.24666666666666667,0.312207210764012,-0.02560552600510123,-0.6441065796805918
1592287814.603015,0.522040452352965,9.875277045924364,-0.1641688622269061,-0.5811111111111111,-0.49333333333333335,-0.24666666666666667,0.3041329603895634,-0.03262738495978739,-0.6213187936984703
1592287814.613015,0.6267048906439854,9.79681956257594,0.19873860874848115,-0.5811111111111111,-0.49333333333333335,-0.24666666666666667,0.26191196670508904,-0.04179850163926198,-0.5883922850412727
1592287814.623015,0.85,9.99,0.32,-0.56,-0.5188888888888888,-0.22,0.2596177262341565,-0.08290313946973066,-0.5508695451607102
1592287814.633015,0.6722370943690975,9.673118298657956,0.15769473833700207,-0.56,-0.5188888888888888,-0.22,0.24444221975560165,-0.08796164162924894,-0.547497210387698
1592287814.643015,0.6114579578497105,9.836261264508687,0.08437387354913128,-0.56,-0.5188888888888888,-0.22,0.21855155034650872,-0.1323105677701326,-0.563278482571977
1592287814.653015,0.8323489308955686,9.833677306063423,-0.08676169817167646,-0.56,-0.5188888888888888,-0.22,0.18760734509574467,-0.1780293077199231,-0.590395681943267
1592287814.663015,0.8086325479683973,9.8368945753386,-0.031054246613995487,-0.56,-0.5188888888888888,-0.22,0.1448288319618315,-0.17280501338166676,-0.6066106634175895
1592287814.6730149,0.6180282685512367,9.99386944392784,-0.13576715640691836,-0.56,-0.5359854937697601,-0.20692612567933377,0.07223340650067381,-0.1730280777792354,-0.6387173919628589
1592287814.6830149,0.6391268199538547,9.93174636009229,0.1294772853846766,-0.56,-0.5377777777777778,-0.20555555555555555,0.03361553573441938,-0.15697952341800425,-0.6560418965514114
1592287814.6930149,0.6291462768774494,9.788292553754898,-0.1320739328460968,-0.56,-0.5377777777777778,-0.20555555555555555,0.001396785650842035,-0.13953321341336566,-0.6934358481695969
1592287814.7030149,0.776711867598936,9.88547190244132,0.2796235609859453,-0.56,-0.5377777777777778,-0.20555555555555555,-0.015295179977422526,-0.12234061293036722,-0.6965233821724478
1592287814.7130148,0.5957706917963328,9.821787931916138,0.270283621886186,-0.56,-0.5377777777777778,-0.20555555555555555,-0.03297778919047238,-0.09415712805548633,-0.6828910081911856
1592287814.7230148,0.6140318772136955,10.170088547815821,0.1919982290436836,-0.5537764003673095,-0.5466686343959071,-0.19310835629017448,-0.044943000964319746,-0.08835922519587733,-0.6481656623370344
1592287814.7330148,0.25405906302876474,10.028572599407783,-0.003141920473773263,-0.5522222222222222,-0.5488888888888889,-0.19,-0.06899025961161133,-0.04313479569246912,-0.584523509002232
1592287814.7430148,0.1759805072804133,9.991546892124628,-0.01,-0.5522222222222222,-0.5488888888888889,-0.19,-0.07524473711719908,-0.028260621215402452,-0.5320676582198671
1592287814.7530148,0.019495620658411372,9.823394744790095,0.1466052552099064,-0.5522222222222222,-0.5488888888888889,-0.19,-0.07839804018549104,0.000818919273641,-0.4698412333481607
1592287814.7630148,0.03274658546574782,9.845845219652047,0.16345068290685044,-0.5522222222222222,-0.5488888888888889,-0.19,-0.07425329832602218,0.022223814853830206,-0.44788584984401075
1592287814.7730148,-0.002350939602505611,9.887450313200835,0.1250993735983296,-0.5289551379544419,-0.5644002784007424,-0.21132816057879858,-0.07770543328586868,0.06018710089791016,-0.4291353690040503
1592287814.7830148,-0.7968235294117648,11.043613445378151,0.43354621848739494,-0.5255555555555556,-0.5666666666666667,-0.21444444444444444,-0.0824118072853457,0.07403899353129306,-0.42760566673861067
1592287814.7930148,-4.831808280033185,10.36796317606444,-0.41123584981400707,-0.5255555555555556,-0.5666666666666667,-0.21444444444444444,-0.1000219459697675,0.1376693429695927,-0.29130421920633487
1592287814.8030148,-2.8785518700355244,9.654969065580968,0.5293186444737156,-0.5255555555555556,-0.5666666666666667,-0.21444444444444444,-0.16211283293352083,-0.02379402673790565,-0.08018257188170821
1592287814.8130147,1.7231360394190458,9.786120879775885,0.9841159523951442,-0.5255555555555556,-0.5666666666666667,-0.21444444444444444,-0.14146814522456258,-0.18161241285993845,0.03411373825191724
1592287814.8230147,0.9055802160652604,10.0246729624458,0.35212096714926144,-0.5201541690143144,-0.5720680532079078,-0.22074606207589229,-0.06750448408802451,-0.005090396679030579,-0.013312672992057507
1592287814.8330147,-0.06254414217518828,9.941900845459251,0.19285126818887677,-0.5188888888888888,-0.5733333333333334,-0.2222222222222222,-0.05791770650929815,0.013281227090563695,-0.023338238953735286
1592287814.8430147,-0.4301480384900074,9.612183567727609,0.5176683937823834,-0.5188888888888888,-0.5733333333333334,-0.2222222222222222,-0.07437915681183643,-0.020072578277469943,-0.023785924516330936
1592287814.8530147,-0.4281092520864114,9.574054626043205,0.6119590304675957,-0.5188888888888888,-0.5733333333333334,-0.2222222222222222,-0.06388693119261947,-0.013731060611328028,-0.017224698503789423
1592287814.8630147,-0.33578943277433393,9.72042109558695,0.48199996113561727,-0.5188888888888888,-0.5733333333333334,-0.2222222222222222,-0.03719158311339411,-0.009140013491262594,-0.015535727274864946
1592287814.8730147,-0.3113880090066023,9.774305995496698,0.4956466816776705,-0.5169856292960519,-0.5733333333333334,-0.21460918385087374,-0.0272707695624114,-0.015266468835459119,-0.016362461737446838
1592287814.8830147,-0.26768514078235256,9.752561713594117,0.4664042839852938,-0.5166666666666667,-0.5733333333333334,-0.21333333333333335,-0.01871077073992465,-0.021118016638828365,-0.018264683697999447
