time,acc_x,acc_y,acc_z,mag_x,mag_y,mag_z,gyr_x,gyr_y,gyr_z
1592288075.4927661,-0.4311689744776279,9.673138504253728,1.3334307478731358,-0.34444444444444444,-0.5244444444444445,0.03333333333333333,-0.0008441095782113148,0.011688659735968413,0.024651113791510963
1592288075.5027661,-0.3282586871084478,9.706460562667809,1.3476403751118722,-0.3395443402467022,-0.5362046945190259,0.020593062419203514,0.01096955802221513,0.007893210623786664,0.03111930239977428
1592288075.5127661,-0.3751720389450799,9.70080466017582,1.36839067964836,-0.3388888888888889,-0.5377777777777778,0.01888888888888889,0.020023586396045873,0.011648039371767619,0.028624924771677898
1592288075.522766,-0.5392698718831795,9.638061716489876,1.37,-0.3388888888888889,-0.5377777777777778,0.01888888888888889,0.029412608816154612,0.010068733285522805,0.017744371074247693
1592288075.532766,-0.4433691287280603,9.671653882597122,1.303353787844606,-0.3388888888888889,-0.5377777777777778,0.01888888888888889,0.048718196848874115,-0.01744492536599192,0.014544968243549504
1592288075.542766,-0.2818968180413963,9.723941921532283,1.227225826382453,-0.3388888888888889,-0.5377777777777778,0.01888888888888889,0.06263127769899948,-0.025646486469537468,0.01965888024667771
1592288075.552766,-0.3360397295012679,9.704653423499577,1.2625545224006762,-0.3388888888888889,-0.5186314454775993,0.025942800788954636,0.06575441280562723,-0.03221731371516054,0.014992975788026943
1592288075.562766,-0.41683793237465994,9.7,1.2943047026816945,-0.3388888888888889,-0.5166666666666667,0.02666666666666667,0.05948457543474863,-0.03802738704381699,0.008215528657415204
1592288075.572766,-0.46807438770853405,9.716148775417068,1.1969585720805234,-0.3388888888888889,-0.5166666666666667,0.02666666666666667,0.06267860243714322,-0.043213127867321316,0.009647997527353801
1592288075.582766,-0.41263039847291816,9.744586972083034,1.1454130279169648,-0.3388888888888889,-0.5166666666666667,0.02666666666666667,0.0643590161672909,-0.0418452162334212,0.018060368090712736
1592288075.592766,-0.4243906072644722,9.731707044551646,1.14,-0.3388888888888889,-0.5166666666666667,0.02666666666666667,0.06568931742768429,-0.04012126847447193,0.024291008496313098
1592288075.602766,-0.44,9.750950717889019,1.1477376794722545,-0.3388888888888889,-0.5278433147932566,0.031825119648169704,0.06147637836022809,-0.03504965869315931,0.03402316872515236
1592288075.612766,-0.4659625200699753,9.751345826643341,1.132691653286683,-0.3388888888888889,-0.5311111111111111,0.03333333333333333,0.05621959755950359,-0.02909563491013828,0.04449363064743638
1592288075.622766,-0.49495443304634545,9.766636288697564,1.0884092782560908,-0.3388888888888889,-0.5311111111111111,0.03333333333333333,0.049280788371089145,-0.02201001880867775,0.05398121198286129
1592288075.632766,-0.5,9.762069771706244,1.1117209131750254,-0.3388888888888889,-0.5311111111111111,0.03333333333333333,0.04626644700283332,-0.025916107148464897,0.06601301446938372
1592288075.642766,-0.5239149863760219,9.77195749318801,1.1558724795640327,-0.3388888888888889,-0.5311111111111111,0.03333333333333333,0.04124963228701026,-0.041618731378482765,0.07198323971002021
1592288075.652766,-0.6057763837638377,9.801925461254612,1.1873084870848707,-0.3535058630586306,-0.5205544075440754,0.028461008610086103,0.03259845150741752,-0.06721369214864326,0.07975711908971744
1592288075.662766,-0.6970387926864661,9.801620150914193,1.19,-0.35888888888888887,-0.5166666666666667,0.02666666666666667,0.023230464041521216,-0.09959455470013841,0.09369560522335096
1592288075.672766,-0.6863959458856097,9.83147207215252,1.1034518015805688,-0.35888888888888887,-0.5166666666666667,0.02666666666666667,0.010659136494730517,-0.13733392495793262,0.1054340527602408
1592288075.682766,-0.7185264034253093,9.87852640342531,1.1416422454804946,-0.35888888888888887,-0.5166666666666667,0.02666666666666667,-0.003290889089277901,-0.17895143855478438,0.12312153071342266
1592288075.692766,-0.73,9.85567845693335,1.2229228289555252,-0.35888888888888887,-0.5166666666666667,0.02666666666666667,-0.015904733614948683,-0.20618525668916413,0.14697068265335655
1592288075.702766,-0.7440276134122288,9.822986193293886,1.340138067061144,-0.34875783475783473,-0.5267977207977208,0.03134253780407627,-0.029793235064184267,-0.22767295116504827,0.18745593508500832
1592288075.712766,-0.693023679848449,9.754884205541085,1.4758131659957376,-0.34444444444444444,-0.5311111111111111,0.03333333333333333,-0.026509771085425175,-0.23747127827871714,0.23315848001282236
1592288075.722766,-0.6034607266358287,9.79357749135492,1.377537162617326,-0.34444444444444444,-0.5311111111111111,0.03333333333333333,-4.168936075378202e-05,-0.2330475436848354,0.2811494727503803
1592288075.732766,-0.572501547545355,9.79500309509071,1.3999876196371601,-0.34444444444444444,-0.5311111111111111,0.03333333333333333,0.028902626649868715,-0.22389453740649704,0.32451574297427566
1592288075.742766,-0.5811889804417077,9.784405509779145,1.4088110195582921,-0.34444444444444444,-0.5311111111111111,0.03333333333333333,0.051254021185590054,-0.21472574248696946,0.36356746830924114
1592288075.752766,-0.59,9.812601191153599,1.3608785706156823,-0.34444444444444444,-0.5216929892222939,0.0521695771109678,0.07962688149873659,-0.21299574852495914,0.4153152509459901
1592288075.762766,-0.5436645143045671,9.876335485695433,1.2009935429137013,-0.34444444444444444,-0.5166666666666667,0.06222222222222222,0.09762372530393837,-0.22500249897550234,0.4662590809690517
1592288075.7727659,-0.46508333542824104,9.85754166771412,1.0788541692853013,-0.34444444444444444,-0.5166666666666667,0.06222222222222222,0.10212675938997075,-0.256308871946508,0.509444108856442
1592288075.7827659,-0.3592519760479042,9.825250538922155,1.0682498203592814,-0.34444444444444444,-0.5166666666666667,0.06222222222222222,0.08993927235750863,-0.2862880293763683,0.5494507596960128
1592288075.7927659,-0.2570379498846652,9.846547856036908,1.096547856036907,-0.34444444444444444,-0.5166666666666667,0.06222222222222222,0.08328457004574435,-0.29559570171270516,0.5704413181281845
1592288075.8027658,-0.11292548500881834,9.808298059964725,1.1805673133450911,-0.3554826409301718,-0.5277048631523941,0.06222222222222222,0.07360013567550346,-0.32018007732565523,0.6355442425590984
1592288075.8127658,-0.12,9.735163067880322,1.210380423690763,-0.35888888888888887,-0.5311111111111111,0.06222222222222222,0.0717517668159303,-0.3188427269977267,0.6642032969677176
1592288075.8227658,-0.08235349015947957,9.70764650984052,1.1345897724465428,-0.35888888888888887,-0.5311111111111111,0.06222222222222222,0.08870351710206707,-0.3130812199720011,0.7140446376103173
1592288075.8327658,0.03993230358504958,9.782818459191457,1.092147692601068,-0.35888888888888887,-0.5311111111111111,0.06222222222222222,0.10946369373863737,-0.3167289269462933,0.7486831477482313
1592288075.8427658,0.09793719355591876,9.796895867382675,1.0962082652346488,-0.35888888888888887,-0.5311111111111111,0.06222222222222222,0.1175097014739458,-0.3174317577064687,0.7664425908470228
1592288075.8527658,0.27018087751664394,9.775309216331113,1.0879638244966714,-0.35317580635098883,-0.506626471662968,0.030392190939636188,0.12733762872183974,-0.3174317577064687,0.8202092887129663
1592288075.8627658,0.3450980533007686,9.734901946699232,1.083509805330077,-0.3511111111111111,-0.49777777777777776,0.01888888888888889,0.12762720155208535,-0.3143688747507743,0.8461446106713095
1592288075.8727658,0.4457251885550102,9.698580150844009,1.0399847360229857,-0.3511111111111111,-0.49777777777777776,0.01888888888888889,0.13308302050616666,-0.30091108436923797,0.8971375380114383
1592288075.8827658,0.4557712701855869,9.714228729814414,1.0707447577729574,-0.3511111111111111,-0.49777777777777776,0.01888888888888889,0.14356610860392077,-0.2996419350825014,0.9203188662118219
1592288075.8927658,0.4606621300288051,9.704006804956792,1.1240068049567924,-0.3511111111111111,-0.49777777777777776,0.01888888888888889,0.16303937686417702,-0.3004155398051582,0.9618849340321294
1592288075.9027658,0.6278400061714109,9.70372521792795,1.0139234745043586,-0.37856154696700867,-0.5023528504204274,0.043289276316353376,0.18289570874988406,-0.3011334179358708,1.0131886736925957
1592288075.9127657,0.7396280167677343,9.7008550730536,0.9456135281429328,-0.39111111111111113,-0.5044444444444445,0.05444444444444444,0.19436654713474855,-0.3021601267515183,1.0408633542007477
1592288075.9227657,0.9210542032905116,9.66599166103223,0.7989457967094884,-0.39111111111111113,-0.5044444444444445,0.05444444444444444,0.2103139941458645,-0.3006320540157494,1.1002292103911293
1592288075.9327657,1.0198914420984673,9.532730685540757,0.924701465770785,-0.39111111111111113,-0.5044444444444445,0.05444444444444444,0.21080452894619855,-0.3048783223352088,1.1395966124641437
1592288075.9427657,1.2888285143669371,9.529586354558377,0.9177928714082657,-0.39111111111111113,-0.5044444444444445,0.05444444444444444,0.21114722693780308,-0.30158836255360744,1.1615994182044969
1592288075.9527657,1.4245141676735393,9.50451416767354,0.8075784386327318,-0.42810166599541816,-0.494426169163278,0.06446271972561095,0.228265726625201,-0.2970402329478557,1.1730654017485471
1592288075.9627657,1.4149762624082864,9.48,0.7680189900733707,-0.4444444444444444,-0.49,0.06888888888888889,0.24052041943174554,-0.2823297929623369,1.1737339219661866
1592288075.9727657,1.5796518709458118,9.596004305583095,0.5421103022406027,-0.4444444444444444,-0.49,0.06888888888888889,0.2624029398393303,-0.23828838932654303,1.1729895627459974
1592288075.9827657,1.6619405968870484,9.613432338521585,0.4792541291827312,-0.4444444444444444,-0.49,0.06888888888888889,0.25847793293902765,-0.2254599612973288,1.1710475259523077
1592288075.9927657,1.6615811075901614,9.59158110759016,0.4963141693073789,-0.4444444444444444,-0.49,0.06888888888888889,0.24836671285778744,-0.22115194158000034,1.1690838915694206
1592288076.0027657,1.6904234465331751,9.56,0.52,-0.4518295323540547,-0.47858668232151136,0.0675461456325961,0.20605154076354798,-0.2225756704805899,1.1566661518227976
1592288076.0127656,1.7743019786432161,9.567817996231156,0.49394001256281406,-0.45666666666666667,-0.4711111111111111,0.06666666666666667,0.1881519509448773,-0.23058831750269676,1.148506061937703
1592288076.0227656,1.984930736175506,9.583466866448038,0.3416023973764559,-0.45666666666666667,-0.4711111111111111,0.06666666666666667,0.15302219981670903,-0.25746465225639004,1.1167350530539144
1592288076.0327656,2.1869389030428303,9.501530548478586,0.257198480988319,-0.45666666666666667,-0.4711111111111111,0.06666666666666667,0.11084173678995943,-0.28172578242098484,1.055209753894991
1592288076.0427656,2.2715099100194553,9.41705252918288,0.2615099100194552,-0.45666666666666667,-0.4711111111111111,0.06666666666666667,0.08968385847990781,-0.2912281426990883,1.0187738422045711
1592288076.0527656,2.473224496360931,9.260704089428605,0.41078571715790746,-0.4599036283458657,-0.4478049870208783,0.06666666666666667,0.036470479073387276,-0.3006229453299658,0.8685617617994426
1592288076.0627656,2.621748882440593,9.428561289310643,0.3786883381695553,-0.4622222222222222,-0.4311111111111111,0.06666666666666667,0.025089107997418484,-0.3015600885499317,0.781910302334177
1592288076.0727656,2.787751816218339,9.436907520125663,0.15129196936972317,-0.4622222222222222,-0.4311111111111111,0.06666666666666667,0.006042298685452096,-0.3231555672158807,0.5117761232592016
1592288076.0827656,3.1150321581146425,9.119395333552415,0.012786254166471056,-0.4622222222222222,-0.4311111111111111,0.06666666666666667,-0.03685969499780557,-0.3247071038220363,0.22748663749724832
1592288076.0927656,3.4666045432295727,9.191449264852517,0.05103518918036948,-0.4622222222222222,-0.4311111111111111,0.06666666666666667,-0.05456412344929588,-0.3432526017720383,-0.031089794651703057
1592288076.1027656,3.330050789856967,9.165877805579415,-0.0524173731187213,-0.4792423016436162,-0.4311111111111111,0.06666666666666667,-0.07940027598002904,-0.36464557984162377,-0.3403947702287223
1592288076.1127656,3.126730303740142,9.09215897556024,-0.1663172483797923,-0.49333333333333335,-0.4311111111111111,0.06666666666666667,-0.11512600141206984,-0.3475767007162098,-0.5309820484607899
1592288076.1227655,3.1635950215414073,9.293870538801128,0.408705388011276,-0.49333333333333335,-0.4311111111111111,0.06666666666666667,-0.1684251779267665,-0.29260408705312385,-0.8202431894000374
1592288076.1327655,3.076983923440431,8.942260454513073,0.05368810999501317,-0.49333333333333335,-0.4311111111111111,0.06666666666666667,-0.19694265790729992,-0.26991993924662905,-1.0068978413654457
1592288076.1427655,3.079621442682471,9.090646590848417,0.2534383398294979,-0.49333333333333335,-0.4311111111111111,0.06666666666666667,-0.2067330803818234,-0.22245894750916365,-1.0764848055340421
1592288076.1527655,2.6760599444223896,9.27392417626042,1.101437078205637,-0.4909523179392175,-0.43825415729345857,0.051785320453442724,-0.1548187245749188,-0.13117099421129924,-1.1499320289354098
1592288076.1627655,2.2594665324609964,9.212625914598739,1.3332306143780728,-0.4888888888888889,-0.4444444444444444,0.03888888888888889,-0.1112647398146385,-0.08508480103472357,-1.2020955223110943
1592288076.1727655,2.2007400017103276,9.424630711781306,0.9192599982896725,-0.4888888888888889,-0.4444444444444444,0.03888888888888889,-0.03674517953087125,-0.084458586242423,-1.2434256986029317
1592288076.1827655,2.0407755946225437,9.402304221114976,0.615965732819404,-0.4888888888888889,-0.4444444444444444,0.03888888888888889,0.045541569865598666,0.005997518291635959,-1.3322387003995875
1592288076.1927655,1.9789199211045363,9.463968441814595,0.5933009861932939,-0.4888888888888889,-0.4444444444444444,0.03888888888888889,0.002590712350729059,0.10722311494618891,-1.4088820976627425
1592288076.2027655,2.064513359669041,9.632032411583562,0.6425667983452051,-0.4840118752613698,-0.46639100576828035,0.045594782626727635,-0.1027400138006041,0.17964879229423847,-1.4689722661179818
1592288076.2127655,1.9171139409660811,9.699871870455528,0.6375859764964823,-0.48,-0.48444444444444446,0.051111111111111114,-0.1669015256937613,0.22098701926446646,-1.4864309004290213
1592288076.2227654,1.285340856629905,9.821973326493973,0.7623295716850474,-0.48,-0.48444444444444446,0.051111111111111114,-0.23816509387430893,0.306376961295273,-1.4605514116451352
1592288076.2327654,0.7520086964741468,9.828547121656111,1.105940069949901,-0.48,-0.48444444444444446,0.051111111111111114,-0.2870259967747756,0.35318675523131426,-1.4091063126098788
1592288076.2427654,0.2507268909259783,9.893927835884181,1.3897092436296088,-0.48,-0.48444444444444446,0.051111111111111114,-0.3261504748164646,0.3513386971885799,-1.3440660716101365
1592288076.2527654,0.02218424479166667,10.440341796875,1.3253580729166667,-0.45774739583333335,-0.49927951388888886,0.04740234375,-0.34533174346242945,0.30249142399112416,-1.2330332871504723
1592288076.2627654,-0.06262720833672555,10.605370837743223,1.215157534804201,-0.44,-0.5111111111111111,0.044444444444444446,-0.36121409792791054,0.2805618903977024,-1.1709558247148593
1592288076.2727654,-0.7108629441624366,10.242145140063922,1.4191370558375636,-0.44,-0.5111111111111111,0.044444444444444446,-0.3472334433596469,0.19157277254969907,-0.9497485657200752
1592288076.2827654,-0.7273094978424771,10.332662999668074,1.5839944995021102,-0.44,-0.5111111111111111,0.044444444444444446,-0.22926876968887466,0.12483050260176007,-0.693721256095227
1592288076.2927654,-0.7969764434926664,10.220929330477999,1.61,-0.44,-0.5111111111111111,0.044444444444444446,-0.09507933037236675,0.1200816532143957,-0.4334562820389695
1592288076.3027654,-0.5623533018578699,9.971362437917714,1.4124771598503894,-0.4306725325484906,-0.5242793004544185,0.030178905989194788,0.049933248937329276,0.1303610339138714,-0.14946264538677578
1592288076.3127654,-0.36866005064118273,9.910918075635056,1.2461786326880666,-0.4211111111111111,-0.5377777777777778,0.015555555555555555,0.127545988429628,0.12937036571480298,0.014321530975439565
1592288076.3227654,-0.3810891340824732,9.986930391010322,1.2322026745309402,-0.4211111111111111,-0.5377777777777778,0.015555555555555555,0.24727842058601565,0.12308566927458536,0.27502175222026665
1592288076.3327653,-0.3004816709292413,9.732356019702568,0.8994240788102681,-0.4211111111111111,-0.5377777777777778,0.015555555555555555,0.31483546781690797,0.10491393374502743,0.3996998191524313
1592288076.3427653,-0.12304458369201818,9.991632399751758,0.8469353966887551,-0.4211111111111111,-0.5377777777777778,0.015555555555555555,0.3612386885928012,0.07610088109757646,0.4893782536975468
1592288076.3527653,-0.15853966583344298,10.131849756610972,0.7315576897776608,-0.4112084667222149,-0.5432792468827201,0.022707465391980586,0.3774699301427501,0.05348256789155857,0.5880412436929705
1592288076.3627653,-0.2981502423263328,9.956589660743134,0.5623634894991922,-0.4011111111111111,-0.5488888888888889,0.03,0.37300667836740764,0.048713260212140196,0.6382235914274543
1592288076.3727653,0.04453377582699926,10.307467883524248,0.28,-0.4011111111111111,-0.5488888888888889,0.03,0.3375584673234777,-0.023157528235307086,0.7538919142977218
1592288076.3827653,0.08897972748421404,10.105131272848121,0.2746792954469924,-0.4011111111111111,-0.5488888888888889,0.03,0.2610217766231923,-0.05995436545033114,0.8258161809352722
1592288076.3927653,0.3862954127327497,10.193483411843197,0.12168246972484487,-0.4011111111111111,-0.5488888888888889,0.03,0.17628463231492722,-0.08311165502779434,0.8844681723799334
1592288076.4027653,0.6681714589360571,10.105771388085257,0.1528000826592667,-0.40641904968084336,-0.5488888888888889,0.03289523921985397,0.06872855439856448,-0.08845702482619332,0.9380895481366064
1592288076.4127653,0.9683013363448145,10.114706380575946,0.2638556371165067,-0.41333333333333333,-0.5488888888888889,0.03666666666666667,-0.023934219393702588,-0.08348776974512283,0.9927844356845082
1592288076.4227653,0.8984263395495048,9.735846273842444,0.3248124512515068,-0.41333333333333333,-0.5488888888888889,0.03666666666666667,-0.10683654797471481,-0.07196389267341258,1.0419150570101752
1592288076.4327652,0.7058315799427882,9.238669472091539,0.51,-0.41333333333333333,-0.5488888888888889,0.03666666666666667,-0.1621516515406697,-0.07855681100831063,1.0916653264561802
1592288076.4427652,0.9787185318172751,9.470159784560144,0.6386475164572113,-0.41333333333333333,-0.5488888888888889,0.03666666666666667,-0.1888825615187329,-0.09958003377863318,1.1374375667205054
1592288076.4527652,1.3977637528259232,9.901046847525746,0.7055193418739011,-0.42447793686678387,-0.5414591531999219,0.02180719528873259,-0.2145190935213892,-0.12131060355823968,1.183421655633746
1592288076.4627652,1.52,10.0,0.56,-0.44,-0.5311111111111111,0.0011111111111111111,-0.20943951023931953,-0.14289883250703572,1.207549676223577
1592288076.4727652,1.2852898550724638,9.432391304347826,1.2211594202898552,-0.44,-0.5311111111111111,0.0011111111111111111,-0.21366055109332757,-0.1251293571515862,1.2625259667472206
1592288076.4827652,1.449812385385809,9.504504161376781,1.0992763436309776,-0.44,-0.5311111111111111,0.0011111111111111111,-0.207260772328561,-0.11231463943785382,1.3090729540058406
1592288076.4927652,1.6924321880650994,9.494962025316456,0.9049837251356239,-0.44,-0.5311111111111111,0.0011111111111111111,-0.20471336587619235,-0.10753546618649797,1.3646233911953856
1592288076.5027652,2.0299255606215687,9.587886852144784,0.9579612915232157,-0.456011910300549,-0.5253290323914684,-0.002002315891773415,-0.20093200454503227,-0.10645339146143325,1.4364309842270833
1592288076.5127652,1.8951197318007662,9.347400223499362,0.8915197956577267,-0.48,-0.5166666666666667,-0.006666666666666667,-0.20049910363683282,-0.08129310179419251,1.491082700606905
1592288076.5227652,2.4779923455987194,8.925453635840608,1.3468436851189434,-0.48,-0.5166666666666667,-0.006666666666666667,-0.10237593012718664,-0.007113552646923066,1.6440494189362795
1592288076.5327652,2.926105202918594,8.94718417664171,1.4499210739663313,-0.48,-0.5166666666666667,-0.006666666666666667,-0.015805575690109125,0.07274117859676554,1.708835216587555
1592288076.5427651,3.2501413950186357,8.93413023329192,1.2314074424658346,-0.48,-0.5166666666666667,-0.006666666666666667,0.059319885195247286,0.15545647630304227,1.7129985497606364
1592288076.5527651,3.4804202071163037,8.806771109930962,1.0336490971853425,-0.49662366495544935,-0.5049084646250074,-0.011937584823272555,0.11120724382145594,0.23739139732298437,1.6578525017822678
1592288076.5627651,3.69,9.01,1.04,-0.5255555555555556,-0.48444444444444446,-0.021111111111111112,0.13199052468207118,0.28034351110158917,1.6024304194872938
1592288076.572765,3.293759075570099,8.977743123018714,0.7772931792616832,-0.5255555555555556,-0.48444444444444446,-0.021111111111111112,0.18659776575299178,0.35063243466201965,1.5489797111449675
1592288076.582765,3.325098359474455,8.798952513631015,0.7040972305622943,-0.5255555555555556,-0.48444444444444446,-0.021111111111111112,0.2509737706750606,0.36049558649953634,1.5550777573179126
1592288076.592765,3.48,9.05,0.64,-0.5255555555555556,-0.48444444444444446,-0.021111111111111112,0.2923426497090502,0.3523383427463553,1.562069680534925
1592288076.602765,3.739685540307189,8.806306461874033,0.6121021539580115,-0.5390023932866794,-0.4699890938834863,-0.025481333373726357,0.3177896509287546,0.27430859860291545,1.5613088848042262
1592288076.612765,4.218017426081988,8.92153049564348,0.572434652192544,-0.57,-0.43666666666666665,-0.035555555555555556,0.3182968187698054,0.18837031856648448,1.5271838962248574
1592288076.622765,4.10999120408891,8.825508142160942,0.4855169380720314,-0.57,-0.43666666666666665,-0.035555555555555556,0.30919413764158366,0.1425585783599506,1.430338787323063
1592288076.632765,4.253012890643581,8.7669457261095,0.47554392807877083,-0.57,-0.43666666666666665,-0.035555555555555556,0.3166010908179663,0.08161373524839986,1.27847412075841
1592288076.642765,4.63,8.9,0.47,-0.57,-0.43666666666666665,-0.035555555555555556,0.32506757318394386,0.044724062082354694,1.1726430911836903
1592288076.652765,5.065905259446812,8.726715489888145,0.07276721899939105,-0.5760517291112464,-0.42691665865410294,-0.039590041629719845,0.3429797690996453,-0.008682455044655615,0.8780575974517332
1592288076.662765,5.31,8.65,0.01,-0.59,-0.40444444444444444,-0.04888888888888889,0.3490658503988659,-0.02617993877991494,0.7144941625351786
1592288076.672765,5.314929078923744,8.95917639213071,0.5753122835817067,-0.59,-0.40444444444444444,-0.04888888888888889,0.335177910046362,0.005932936490010157,0.3710667660042752
1592288076.682765,5.14825320627642,9.229625516467244,0.3055303193140837,-0.59,-0.40444444444444444,-0.04888888888888889,0.337824152840587,0.016954393294111407,0.10129519620396253
1592288076.692765,4.793635728124313,9.07014400703058,0.4401655781253121,-0.59,-0.40444444444444444,-0.04888888888888889,0.3242877360417565,0.019100922620902603,-0.13667349105830714
1592288076.702765,4.799847128889455,9.20098251536673,0.3487445460046498,-0.5979475991804409,-0.39914604499081713,-0.04690198909377864,0.31658505151101646,-0.036951297818465886,-0.38535741776223426
1592288076.712765,4.14,8.85,0.44,-0.6166666666666667,-0.38666666666666666,-0.042222222222222223,0.2683443724941282,-0.04690572364734761,-0.5530512067257032
1592288076.722765,4.58187522191225,8.948806999746386,0.49306822216586355,-0.6166666666666667,-0.38666666666666666,-0.042222222222222223,0.19901622511987688,-0.16122755615255138,-0.8722678546280914
1592288076.732765,4.354276237007233,8.82720960866025,0.4135333141734924,-0.6166666666666667,-0.38666666666666666,-0.042222222222222223,0.13609931017940233,-0.21110485986403182,-1.0672917337026369
1592288076.742765,4.310996765423769,9.067554223800924,0.4714490107753061,-0.6166666666666667,-0.38666666666666666,-0.042222222222222223,0.09506436687721018,-0.24365444713040915,-1.1913689366383944
1592288076.752765,4.060362752430815,9.247399027673897,0.6571640488656195,-0.6179696806005707,-0.38849088617413224,-0.04065860550153744,0.052697107719464786,-0.24600212652884876,-1.2770512483554453
1592288076.762765,4.29,9.5,0.55,-0.6222222222222222,-0.39444444444444443,-0.035555555555555556,0.03599741582238304,-0.2585268954516601,-1.332995216210669
1592288076.772765,3.7816620723204153,9.011662072320416,0.3625068915193773,-0.6222222222222222,-0.39444444444444443,-0.035555555555555556,-0.0385832525678534,-0.1953123052877342,-1.3678542200148671
1592288076.782765,3.81,9.04,0.32,-0.6222222222222222,-0.39444444444444443,-0.035555555555555556,-0.06872233929727672,-0.14508049407202864,-1.3809917706405133
1592288076.792765,3.580853435591029,9.117814241762161,0.2578316315155839,-0.6222222222222222,-0.39444444444444443,-0.035555555555555556,-0.085701934889823,-0.029069300344253445,-1.3606440580820092
1592288076.802765,3.149074001693701,8.934940069050876,0.4054898703667513,-0.6133094478101319,-0.4043475271245449,-0.04025951982860328,-0.10046916751416295,0.10440499810376061,-1.3054462140947523
1592288076.812765,3.39,9.58,0.32,-0.5822222222222222,-0.4388888888888889,-0.056666666666666664,-0.08944812416470939,0.1679879405044542,-1.2588187230009102
1592288076.8227649,2.6291756916148405,9.651468475230539,0.5697252305382801,-0.5822222222222222,-0.4388888888888889,-0.056666666666666664,-0.08355370786049253,0.26150898890088187,-1.1224953449957198
1592288076.8327649,2.300733962535333,9.664260527954774,0.4864293585014133,-0.5822222222222222,-0.4388888888888889,-0.056666666666666664,-0.08219940127603079,0.2954586222369843,-1.0122981780882965
1592288076.8427649,2.14,9.87,0.48,-0.5822222222222222,-0.4388888888888889,-0.056666666666666664,-0.10253809355466686,0.3010692959690219,-0.9533861039019024
1592288076.8527648,2.0844979034011493,9.826638608479577,0.19374623388724957,-0.5775399216579524,-0.44610743559213817,-0.055300995668754634,-0.12323108065233848,0.28190137128324483,-0.8267893893017925
1592288076.8627648,1.73,9.67,0.54,-0.5555555555555556,-0.48,-0.04888888888888889,-0.1538071403320003,0.32506757318394386,-0.7035858547102141
1592288076.8727648,1.4942985919883618,10.049158829947524,0.356167714449005,-0.5555555555555556,-0.48,-0.04888888888888889,-0.16335960335987113,0.3294308963139297,-0.5260453094894723
1592288076.8827648,1.1934757766932507,10.0067806213546,0.2086325437447923,-0.5555555555555556,-0.48,-0.04888888888888889,-0.1977542597801274,0.3240233568819755,-0.3481645678578036
1592288076.8927648,1.118030490150426,9.901656914947463,0.41808130706780317,-0.5555555555555556,-0.48,-0.04888888888888889,-0.20180923802761896,0.29506099215686954,-0.1620073530211751
1592288076.9027648,0.992252971768202,9.755212976721149,0.27592000990589405,-0.5542409608717187,-0.48241009025370096,-0.05042258268669859,-0.1744251387996766,0.23816951585407126,0.029438518847736513
1592288076.9127648,0.92,9.98,0.87,-0.5488888888888889,-0.4922222222222222,-0.056666666666666664,-0.14289883250703572,0.19525871006686563,0.2203478180642841
1592288076.9227648,1.2304178202230067,10.058410251200122,0.5076939879606818,-0.5488888888888889,-0.4922222222222222,-0.056666666666666664,-0.09267503939611822,0.11188503189659046,0.4764521443373827
1592288076.9327648,1.0996894706669216,9.732815784444869,0.5280584750621059,-0.5488888888888889,-0.4922222222222222,-0.056666666666666664,-0.1111206992889926,0.041659083979844344,0.6460684508326836
1592288076.9427648,1.439660493272737,9.945014280838528,0.7653252258887352,-0.5488888888888889,-0.4922222222222222,-0.056666666666666664,-0.11229592359607657,-0.04769324433477746,0.7977056871897507
1592288076.9527647,1.9444622680486447,9.590899603010651,0.614638128940703,-0.5488888888888889,-0.4922222222222222,-0.056666666666666664,-0.15256758394568218,-0.08714303406500334,0.9201644094773268
1592288076.9627647,2.091735675449603,9.450828105395232,0.6510190994005298,-0.5633333333333334,-0.5188888888888888,-0.09222222222222222,-0.1312783595413447,-0.06943450443800318,1.1110962376861224
1592288076.9727647,2.261701156718239,9.179495827029138,0.5513238811069354,-0.5633333333333334,-0.5188888888888888,-0.09222222222222222,-0.12309888820320371,-0.07933271705933678,1.2200208391229803
1592288076.9827647,2.8,9.15,0.19,-0.5633333333333334,-0.5188888888888888,-0.09222222222222222,-0.11344640137963141,-0.09381144729469522,1.2795445078683427
1592288076.9927647,3.2540339601682136,9.259518368642388,0.5982266127112592,-0.5633333333333334,-0.5188888888888888,-0.09222222222222222,-0.14105152619974207,-0.0767629643891085,1.3460320418967107
1592288077.0027647,2.937872331984448,8.843516226295327,0.4484658414663175,-0.5633333333333334,-0.5188888888888888,-0.09222222222222222,-0.128345463810956,-0.049535687841709745,1.4131926573802942
1592288077.0127647,3.3481381152231973,8.847974055703931,0.47168637924456314,-0.5633333333333334,-0.48,-0.09222222222222222,-0.10764098414001179,-0.027438077450455498,1.4643011103558434
1592288077.0227647,3.26,8.57,0.77,-0.5633333333333334,-0.48,-0.09222222222222222,-0.10690141668465267,0.004363323129985824,1.48352986419518
1592288077.0327647,3.5121026537588396,8.997637971975054,0.5121026537588393,-0.5633333333333334,-0.48,-0.09222222222222222,-0.06831177271306545,-0.024034398193524646,1.4821693357986097
1592288077.0427647,3.7205509524821188,9.058361305856526,0.7780822887897458,-0.5633333333333334,-0.48,-0.09222222222222222,-0.06884176599437604,-0.0694693355204012,1.490104512442349
1592288077.0527647,3.490356030026202,8.664802244883507,0.7706566461298775,-0.5633333333333334,-0.48,-0.09222222222222222,-0.07775189754689954,-0.08080950295088565,1.507114763588076
1592288077.0627646,4.21,9.17,0.51,-0.5877777777777777,-0.4533333333333333,-0.09888888888888889,-0.07090400086226964,-0.18871372537188688,1.4988014951501305
1592288077.0727646,3.605322865554465,8.553368007850835,0.923576054955839,-0.5877777777777777,-0.4533333333333333,-0.09888888888888889,-0.10847075714308232,-0.19616134845332392,1.5021397156723455
1592288077.0827646,4.510060698388518,8.553078003380067,1.1687389017162173,-0.5877777777777777,-0.4533333333333333,-0.09888888888888889,-0.1001582383888838,-0.2319276420563697,1.4581967077693814
1592288077.0927646,5.176625380423243,8.417589001344753,1.270479864109279,-0.5877777777777777,-0.4533333333333333,-0.09888888888888889,-0.0805766797496969,-0.19960852230528536,1.4584145836706708
1592288077.1027646,4.998510864180056,8.202367294217566,0.9439365843301012,-0.5877777777777777,-0.4533333333333333,-0.09888888888888889,-0.044146780288284226,-0.14132068316702512,1.4762247567406948
1592288077.1127646,5.48,7.8,1.1,-0.6344444444444445,-0.39444444444444443,-0.10666666666666667,0.025089107997418484,-0.06544984694978735,1.4486232791552935
1592288077.1227646,5.340452008928572,8.009419642857143,0.6197739955357143,-0.6344444444444445,-0.39444444444444443,-0.10666666666666667,0.12679857800148642,-0.03509483248379676,1.3791759513189803
1592288077.1327646,5.731050163083589,8.389498369164107,0.3998628669380758,-0.6344444444444445,-0.39444444444444443,-0.10666666666666667,0.20083253515154378,-0.045705453993402916,1.2249777775462478
1592288077.1427646,5.658553040390591,8.680105459387482,0.34160514869063474,-0.6344444444444445,-0.39444444444444443,-0.10666666666666667,0.263788699051994,-0.12230787877866636,1.0546499831555738
1592288077.1527646,5.4723879272081675,8.59074620505992,0.3937313803817133,-0.6344444444444445,-0.39444444444444443,-0.10666666666666667,0.2727239830397923,-0.16211050745158592,0.901937856818658
1592288077.1627645,5.73,8.55,0.62,-0.6677777777777778,-0.36,-0.10666666666666667,0.2683443724941282,-0.22143864884678055,0.6763150851478027
1592288077.1727645,5.612455402172974,8.617667367935674,0.20122770108648666,-0.6677777777777778,-0.36,-0.10666666666666667,0.2075049745506114,-0.23749309133275326,0.4694041746709927
1592288077.1827645,5.819135084919368,8.442789118887115,0.2744217622257688,-0.6677777777777778,-0.36,-0.10666666666666667,0.12647276214293512,-0.20234857748281215,0.301666120538307
1592288077.1927645,5.854510142425551,8.480785498489427,0.1874492878722486,-0.6677777777777778,-0.36,-0.10666666666666667,0.05775047421912398,-0.14565862967880708,0.2008418616635965
1592288077.2027645,5.82433966335779,8.375188821752266,0.33830168321104875,-0.6677777777777778,-0.36,-0.10666666666666667,0.0034475101909908906,-0.08888734910394068,0.14160226454199676
1592288077.2127645,5.65,8.34,0.27,-0.6611111111111111,-0.32666666666666666,-0.11333333333333333,-0.0643590161672909,-0.0272707695624114,0.03381575425739013
1592288077.2227645,5.785125058819271,8.368955369746987,0.4437322184819199,-0.6611111111111111,-0.32666666666666666,-0.11333333333333333,-0.10542004739744443,-0.01147806524312157,-0.08094456379611592
1592288077.2327645,5.738653214676629,8.051105506115261,0.45808642269071526,-0.6611111111111111,-0.32666666666666666,-0.11333333333333333,-0.1330372820179232,-0.00688900675730225,-0.21552600649994771
1592288077.2427645,6.1852638133092235,8.2367080056635,0.5406832022653998,-0.6611111111111111,-0.32666666666666666,-0.11333333333333333,-0.14842751222569495,-0.011767075853695073,-0.32792340951992066
1592288077.2527645,5.8489814230395245,8.093609116187032,0.48344364647481275,-0.6611111111111111,-0.32666666666666666,-0.11333333333333333,-0.1421836452824154,0.003062108136593869,-0.38567917874525653
1592288077.2627645,5.8671544715447155,8.214959349593496,0.34739837398373985,-0.6555555555555556,-0.3333333333333333,-0.11333333333333333,-0.1391563073833487,0.06286910095217378,-0.5007622775094502
1592288077.2727644,5.928850772262707,8.011691874054723,0.786416655208763,-0.6555555555555556,-0.3333333333333333,-0.11333333333333333,-0.12271106383951302,0.1271039837348519,-0.5901768742408307
1592288077.2827644,5.817946145448874,8.45652804491345,0.4007090502677133,-0.6555555555555556,-0.3333333333333333,-0.11333333333333333,-0.11780972450961724,0.14621668871718546,-0.6920188068945929
1592288077.2927644,5.609185903492041,8.274476728640439,0.4221511969910337,-0.6555555555555556,-0.3333333333333333,-0.11333333333333333,-0.11925571357019883,0.20916681712725463,-0.7608798559066374
1592288077.3027644,5.265262125884597,8.237093709335282,0.504393839462379,-0.6555555555555556,-0.3333333333333333,-0.11333333333333333,-0.1290425651383727,0.24423636857987768,-0.8016584041073619
1592288077.3127644,5.32,8.51,0.68,-0.6466666666666666,-0.3466666666666667,-0.13666666666666666,-0.16035212502697901,0.29779680362153244,-0.8573929950422143
1592288077.3227644,5.109636407416326,8.63271209567381,0.5309924552532306,-0.6466666666666666,-0.3466666666666667,-0.13666666666666666,-0.18712375129610748,0.295884544602309,-0.9147607656189182
1592288077.3327644,4.6837295042898,8.470229027645377,0.8004580552907531,-0.6466666666666666,-0.3466666666666667,-0.13666666666666666,-0.20449211429736164,0.337930329489082,-0.9343602056695003
1592288077.3427644,4.83,8.41,0.68,-0.6466666666666666,-0.3466666666666667,-0.13666666666666666,-0.19416787928436915,0.3567016658763411,-0.938114472946952
1592288077.3527644,4.752022785658439,8.479313079414721,0.6713358650731599,-0.6466666666666666,-0.3466666666666667,-0.13666666666666666,-0.21212497893997903,0.4143534068759307,-0.9362242519305721
1592288077.3627644,4.29,8.28,0.87,-0.6466666666666666,-0.3711111111111111,-0.1511111111111111,-0.18216874067690814,0.47123889803846897,-0.8835729338221293
1592288077.3727643,4.3851144573731835,8.635343372119554,0.8291603924252794,-0.6466666666666666,-0.3711111111111111,-0.1511111111111111,-0.12278088984382783,0.5204678946391829,-0.8329783455026023
1592288077.3827643,4.31,8.41,0.97,-0.6466666666666666,-0.3711111111111111,-0.1511111111111111,-0.0818123086872342,0.6065019150680295,-0.7930339788749234
1592288077.3927643,4.181838941337852,8.602241587993221,1.0890066973291375,-0.6466666666666666,-0.3711111111111111,-0.1511111111111111,-0.014907052475074622,0.6324651488220019,-0.7660721592073368
1592288077.4027643,4.17,8.958691032724182,1.1802162972241483,-0.6466666666666666,-0.3711111111111111,-0.1511111111111111,0.03113556104079976,0.6290300216616049,-0.7441365685764111
1592288077.4127643,3.65,8.94,1.12,-0.62,-0.39444444444444443,-0.15555555555555556,0.04363323129985824,0.643590161672909,-0.7275841319251362
1592288077.4227643,3.6891702969505613,8.969377722712922,1.2375108908516845,-0.62,-0.39444444444444443,-0.15555555555555556,0.055383476859988116,0.6222260788363092,-0.7030154366630464
1592288077.4327643,3.2251272465851906,8.789561466570813,0.9963048166786485,-0.62,-0.39444444444444443,-0.15555555555555556,0.0541334382339449,0.5871616656617864,-0.6912642505256412
1592288077.4427643,3.54,9.16,0.95,-0.62,-0.39444444444444443,-0.15555555555555556,0.07635815477475191,0.5225079448158023,-0.6872233929727672
1592288077.4527643,3.3556750328375164,9.17602825801413,1.0381554190777096,-0.62,-0.39444444444444443,-0.15555555555555556,0.0737355371900108,0.5338726210163472,-0.6557519819558738
1592288077.4627643,3.48,9.46,0.91,-0.6,-0.4211111111111111,-0.20555555555555555,0.08072147790473774,0.5083271446433485,-0.5901394533305827
1592288077.4727643,2.8914966205342774,9.202529771483746,0.6709205020920502,-0.6,-0.4211111111111111,-0.20555555555555555,0.05664806783257263,0.5013057333723002,-0.5018702830659773
1592288077.4827642,2.92,9.87,0.57,-0.6,-0.4211111111111111,-0.20555555555555555,-0.008726646259971648,0.4428772976935611,-0.421060682043632
1592288077.4927642,2.3157222762645913,9.631951199740596,1.128499108300908,-0.6,-0.4211111111111111,-0.20555555555555555,-0.08463046506192308,0.3430038519015197,-0.3431593943258397
1592288077.5027642,2.5398174798174797,9.365159705159705,0.9264154089154089,-0.6,-0.4211111111111111,-0.20555555555555555,-0.19273838938389515,0.2517627108188157,-0.19194381353925638
1592288077.5127642,2.561052319373591,9.134771621781942,1.4217736386285442,-0.5933333333333334,-0.4266666666666667,-0.19111111111111112,-0.2452160163279594,0.12923348837998258,0.15151288856879028
1592288077.5227642,2.99,8.51,1.17,-0.5933333333333334,-0.4266666666666667,-0.19111111111111112,-0.24216443371421323,0.13635384781205698,0.5115996369908379
1592288077.5327642,3.6475415389578965,8.637855299241814,1.57183094047427,-0.5933333333333334,-0.4266666666666667,-0.19111111111111112,-0.20729730968464682,0.11045255567580768,0.7865518150525616
1592288077.5427642,2.859903897019926,8.823365367660024,1.480796155880797,-0.5933333333333334,-0.4266666666666667,-0.19111111111111112,-0.12198088753526275,0.08643617321995171,1.1197306811917105
1592288077.5527642,3.4146076529712572,8.638464115676248,1.5029843061188504,-0.5933333333333334,-0.4266666666666667,-0.19111111111111112,-0.0558246069526423,0.09369722840584908,1.28673495046735
1592288077.5627642,3.76,8.21,1.8,-0.5822222222222222,-0.4388888888888889,-0.20555555555555555,0.07963064712224129,0.14508049407202864,1.5446163880149815
1592288077.5727642,3.794952222523115,8.358546945723239,1.6427149986459826,-0.5822222222222222,-0.4388888888888889,-0.20555555555555555,0.14921234956914692,0.15937810416385856,1.663763138780231
1592288077.5827641,3.9549784426288084,8.208427860222482,1.3950215573711917,-0.5822222222222222,-0.4388888888888889,-0.20555555555555555,0.24342205525426297,0.12895139388522617,1.8009189303274689
1592288077.5927641,4.145782180304547,8.147761736656305,1.2049639074766847,-0.5822222222222222,-0.4388888888888889,-0.20555555555555555,0.29071034061885054,0.09612765940828522,1.9231300714874766
1592288077.6027641,4.374145634648823,8.059362980135939,1.0060667053058643,-0.5822222222222222,-0.4388888888888889,-0.20555555555555555,0.3124066596868857,0.0583599928824462,2.0091117803867276
1592288077.6127641,4.73,7.94,0.72,-0.6144444444444445,-0.38,-0.21333333333333335,0.32070425005395803,-0.02181661564992912,2.1358466721280607
1592288077.622764,5.330047831374139,8.00279570328334,0.42695338467774624,-0.6144444444444445,-0.38,-0.21333333333333335,0.3031988258156295,-0.07737730997158049,2.162485361186387
1592288077.632764,5.664880232392019,7.94235296918901,0.6391285299299967,-0.6144444444444445,-0.38,-0.21333333333333335,0.2992108473726795,-0.194008662352689,2.1145196030896014
1592288077.642764,6.22,8.21,0.54,-0.6144444444444445,-0.38,-0.21333333333333335,0.3359758810089084,-0.2999784651865254,1.9220438387587555
1592288077.652764,6.388725721707303,8.204557234783636,0.43114469567270797,-0.6144444444444445,-0.38,-0.21333333333333335,0.38466039489618264,-0.3712240952654633,1.7676783069210567
1592288077.662764,6.464911591355599,8.237193376368229,0.36789503227617176,-0.6526709701562354,-0.3366077275703995,-0.21953222939470485,0.49338156891808055,-0.5039071828114929,1.3564546603699656
1592288077.672764,6.56,7.96,0.36,-0.6555555555555556,-0.3333333333333333,-0.22,0.605411084285533,-0.605411084285533,1.0024734891142428
1592288077.682764,6.661203195610071,8.131266946417043,0.2665816655907037,-0.6555555555555556,-0.3333333333333333,-0.22,0.7013703027440542,-0.6648548479324046,0.748563698679749
1592288077.692764,6.419534156553077,7.909534156553077,0.01783162859716997,-0.6555555555555556,-0.3333333333333333,-0.22,0.794003580543482,-0.7186482975160063,0.4255374876488969
1592288077.702764,6.660017543542349,8.157371000705359,-0.21795717205331788,-0.6555555555555556,-0.3333333333333333,-0.22,0.8147556393141284,-0.7191461787045428,0.27391684063863064
1592288077.712764,6.44589065699199,7.86741082653831,0.013919321814720387,-0.6610055437815056,-0.28319344165459326,-0.19166006122506,0.7871522932742405,-0.6888946104627726,0.09197695196171202
1592288077.722764,6.3482690879075525,7.867644242674371,-0.18639455220800663,-0.6611111111111111,-0.2822222222222222,-0.19111111111111112,0.6989339543901415,-0.5949221813128069,0.01857023481105914
1592288077.732764,6.090773367072592,7.688528915599135,-0.42191997469555587,-0.6611111111111111,-0.2822222222222222,-0.19111111111111112,0.5500536216772661,-0.4775826980904742,-0.0803704614517693
1592288077.742764,5.994558709038149,7.604052185811687,-0.3825326161323047,-0.6611111111111111,-0.2822222222222222,-0.19111111111111112,0.39002348767310757,-0.407143588739516,-0.1854805818876442
1592288077.752764,7.611939862512901,9.159289824905105,0.037666917385296206,-0.6611111111111111,-0.2822222222222222,-0.19111111111111112,0.24814695431490255,-0.3929766311496887,-0.2767007938127369
1592288077.762764,6.44,7.95,0.36,-0.6555555555555556,-0.2611111111111111,-0.17,-0.02181661564992912,-0.26398104936414235,-0.2530727415391778
1592288077.772764,6.629211666861895,8.132904611299832,0.15817422201397835,-0.6555555555555556,-0.2611111111111111,-0.17,-0.23440646358896172,-0.13463835870867916,-0.2296809783355302
1592288077.782764,6.301618525324451,7.624400482370507,0.7115631101412657,-0.6555555555555556,-0.2611111111111111,-0.17,-0.5145526914392035,-0.04771294719613827,-0.26482194246304164
1592288077.792764,6.4485440517670485,7.738705823792932,0.7070980587356894,-0.6555555555555556,-0.2611111111111111,-0.17,-0.615947727764744,-0.012281484056389916,-0.306575303709144
1592288077.802764,6.3760969692068175,7.621950504458239,0.7619515153965911,-0.6555555555555556,-0.2611111111111111,-0.17,-0.6792683718114919,0.02184328045140182,-0.3738358629887517
1592288077.812764,6.12578247206704,7.474983938547486,0.9833868715083799,-0.6667625310366232,-0.26620519087523276,-0.1689811840471757,-0.6732203098544728,0.07846322204143477,-0.4509836862966559
1592288077.822764,6.076541446137928,7.458847148712643,1.0278821282183932,-0.6677777777777778,-0.26666666666666666,-0.1688888888888889,-0.6287629111039834,0.11879246628545143,-0.4699580216049013
1592288077.832764,5.702085600185207,7.628417640930664,1.0856835281861328,-0.6677777777777778,-0.26666666666666666,-0.1688888888888889,-0.47578246899135257,0.1949449020795755,-0.4791101405322614
1592288077.842764,5.3678091323982695,7.576952283099568,1.1539167522878784,-0.6677777777777778,-0.26666666666666666,-0.1688888888888889,-0.34090133998955735,0.19473666161539202,-0.48385488215257405
1592288077.852764,5.662265883796337,7.690849706423626,1.0794335290509158,-0.6677777777777778,-0.26666666666666666,-0.1688888888888889,-0.2452083592050775,0.20442105771501204,-0.45503407191230394
1592288077.862764,5.603664382172838,7.928712032118091,1.171682549981751,-0.6562816821444503,-0.28443335991817276,-0.18143008412524614,-0.08394053241674083,0.18994505165562867,-0.39862864655323527
1592288077.8727639,5.560826523464861,7.881653046929722,1.0516367032453888,-0.6555555555555556,-0.28555555555555556,-0.18222222222222223,-0.017166767973992206,0.19571485714401973,-0.38196931050194777
1592288077.8827639,5.462310370554588,8.219815966177567,0.8046207411091768,-0.6555555555555556,-0.28555555555555556,-0.18222222222222223,0.11266022191987646,0.15080674529235572,-0.4068134174240973
1592288077.8927639,5.361131774707758,8.167433581296493,0.6022635494155154,-0.6555555555555556,-0.28555555555555556,-0.18222222222222223,0.1691900568928164,0.12738840118949846,-0.42784446710119767
1592288077.9027638,5.5024864698883045,8.188175258127663,0.38182474187233717,-0.6555555555555556,-0.28555555555555556,-0.18222222222222223,0.2152644201714159,0.1080176204934491,-0.46060182200289573
1592288077.9127638,5.340857477091051,8.360554494053423,0.33700838370052644,-0.6328777106215204,-0.2808310045276316,-0.19450605489482464,0.24528290390286384,0.10810407410498042,-0.48286036121142867
1592288077.9227638,5.114965079874769,8.460421449787269,0.31634663241550937,-0.6288888888888889,-0.28,-0.19666666666666666,0.2528377098445305,0.08070107463169274,-0.512194834616962
1592288077.9327638,4.994663154258076,8.740805838659526,0.3812549663154258,-0.6288888888888889,-0.28,-0.19666666666666666,0.2339075475407442,0.01922426731857742,-0.5966253647054176
1592288077.9427638,4.918566418237615,8.364392810170976,0.5828671635247699,-0.6288888888888889,-0.28,-0.19666666666666666,0.19643275196560686,-0.059447169184817815,-0.6583687428528686
1592288077.9527638,4.8111044283487665,8.48318987805996,0.15012340698633903,-0.6288888888888889,-0.28,-0.19666666666666666,0.1766443383421626,-0.13651436705712042,-0.7046967078932475
1592288077.9627638,4.669182327728322,8.000603363006924,0.2977612924497197,-0.6157707806718687,-0.29816353445433563,-0.19061215518188812,0.19087344803884737,-0.2327819582646991,-0.7541318169876434
1592288077.9727638,4.735790882724771,8.293690786048932,-0.045270320517587614,-0.6144444444444445,-0.3,-0.19,0.18687642140871574,-0.26024965690982,-0.7584144801843531
1592288077.9827638,4.838188022211843,8.982129326898127,-0.5193772380507551,-0.6144444444444445,-0.3,-0.19,0.21318269190857272,-0.2718009343983816,-0.733828910297027
1592288077.9927638,4.023814168133594,8.709059422427329,0.04542414006375195,-0.6144444444444445,-0.3,-0.19,0.25328297777781394,-0.25966178709977045,-0.6918901081173339
1592288078.0027637,4.328229708755592,8.614184241760249,-0.24659819227608873,-0.6144444444444445,-0.3,-0.19,0.24201733638327674,-0.23772362803617825,-0.6639212635867187
1592288078.0127637,4.274112223016441,8.793192280200143,-0.12386383130807715,-0.6359102533555714,-0.3196769915018664,-0.17300623461202447,0.25078671421275733,-0.2312832212214086,-0.5803139451536902
1592288078.0227637,4.337727978269306,8.84,-0.16670974000776098,-0.6411111111111111,-0.3244444444444444,-0.1688888888888889,0.21619254434430876,-0.22994314997883056,-0.515994453256337
1592288078.0327637,4.329576515371804,8.591124798435063,0.1153551508102249,-0.6411111111111111,-0.3244444444444444,-0.1688888888888889,0.16858700496575013,-0.27965254683580953,-0.44362985530178745
1592288078.0427637,4.3492910234419675,8.784670287783495,0.10320278254240517,-0.6411111111111111,-0.3244444444444444,-0.1688888888888889,0.1208047795254425,-0.3084730994104257,-0.3814733165448341
1592288078.0527637,4.409198143520172,8.526361835058907,0.03080185647982863,-0.6411111111111111,-0.3244444444444444,-0.1688888888888889,0.11730226037140518,-0.29252337088884933,-0.2980122242025171
1592288078.0627637,4.313128356814821,8.686826496458316,0.12687164318517943,-0.6314195272566877,-0.3403033998425919,-0.1688888888888889,0.12367713236608724,-0.21806553888605398,-0.1717653889244513
1592288078.0727637,3.7860612966235703,8.558579201934704,-0.001807506278485721,-0.6288888888888889,-0.34444444444444444,-0.1688888888888889,0.13921825519933795,-0.17393454602170316,-0.08179074775882936
1592288078.0827637,3.9284112149532713,8.514561637739208,0.07332888295505118,-0.6288888888888889,-0.34444444444444444,-0.1688888888888889,0.1489268012770662,-0.16314643832651157,-0.03184623913296285
1592288078.0927637,3.9739655647728127,8.371651587679507,0.3137204581338814,-0.6288888888888889,-0.34444444444444444,-0.1688888888888889,0.1867577425645569,-0.18080766949229202,0.05701222259484446
1592288078.1027637,4.208943644083173,8.721708095946584,0.3065852596436477,-0.6288888888888889,-0.34444444444444444,-0.1688888888888889,0.19052289654738558,-0.18632808474450677,0.12337926731533816
1592288078.1127636,4.3400138153350225,8.69006907667511,0.26250172691687773,-0.6238900401668074,-0.3402787371760432,-0.1355632307416788,0.2527847752734324,-0.14863417109854282,0.3043078803829084
1592288078.1227636,4.655149505395683,8.517141411870503,-0.03143435251798565,-0.6222222222222222,-0.3388888888888889,-0.12444444444444444,0.2748893571891069,-0.13635384781205698,0.3534291735288517
1592288078.1327636,5.09233587097801,8.52233587097801,-0.37742539589909546,-0.6222222222222222,-0.3388888888888889,-0.12444444444444444,0.3148976356050799,-0.07266720053765105,0.4301797484492897
1592288078.1427636,4.988667122351333,8.461157171002373,-0.37454907321780384,-0.6222222222222222,-0.3388888888888889,-0.12444444444444444,0.3430876187645369,0.04480072856974175,0.5452953038097464
1592288078.1527636,4.999912075834593,8.30952799638883,-0.3028759837497301,-0.6222222222222222,-0.3388888888888889,-0.12444444444444444,0.36766146130815713,0.23856383364838457,0.7397700388827727
1592288078.1627636,5.107570319101847,8.285780049092592,-0.15335036819443887,-0.626962205858025,-0.3388888888888889,-0.14972435716872562,0.35318924430841286,0.31398351040130695,0.8441970196026118
1592288078.1727636,5.03940989066686,8.287647527333284,-0.18265150966620808,-0.6288888888888889,-0.3388888888888889,-0.16,0.3418788938987947,0.3390243782728296,0.8918198388488171
1592288078.1827636,5.066953765269831,8.190982165867739,-0.2679359311375702,-0.6288888888888889,-0.3388888888888889,-0.16,0.32400080691229266,0.3636138873764265,0.9644473731795644
1592288078.1927636,5.276160705815387,8.282867849350156,-0.23670714353476902,-0.6288888888888889,-0.3388888888888889,-0.16,0.31054744712819554,0.35710059886813733,0.9922637020920344
1592288078.2027636,5.328274091401838,8.21194575987524,-0.2934518171963256,-0.6288888888888889,-0.3388888888888889,-0.16,0.29383399739093763,0.3495171320787816,0.9958657486117092
1592288078.2127635,5.548805099234372,8.162935033078124,-0.1968891697019252,-0.624635810269498,-0.31407926360910826,-0.15503807494404387,0.27417427232544556,0.3270977687635281,0.9788317813162561
1592288078.2227635,5.715837286527514,8.258803763440861,-0.18464104996837444,-0.6222222222222222,-0.3,-0.15222222222222223,0.26035365753294226,0.3168158798903865,0.9553433551493705
1592288078.2327635,5.888996210502323,8.209693421090122,-0.36318773684360484,-0.6222222222222222,-0.3,-0.15222222222222223,0.21476492890089433,0.3251628658636354,0.8720117810079537
1592288078.2427635,6.055723625417431,8.093836367057053,-0.28767273411410565,-0.6222222222222222,-0.3,-0.15222222222222223,0.18268321815545963,0.33356097939230794,0.8016301266590342
1592288078.2527635,6.07376769861019,8.076720962326274,-0.18458213350429764,-0.6222222222222222,-0.3,-0.15222222222222223,0.16415998702818127,0.34456038156442703,0.7581783752121927
1592288078.2627635,6.037306225346908,8.072163278168365,-0.07975539787236355,-0.6222222222222222,-0.3,-0.15222222222222223,0.14974216671678117,0.3564923707876547,0.7233767399777786
1592288078.2727635,6.241562438901767,8.063845487808285,0.080781219450884,-0.6386342547334642,-0.2835879674887579,-0.14264853659066434,0.10865982262217189,0.3708834105437887,0.6457652117729464
1592288078.2827635,6.13961104140527,7.8761731493099125,0.079297365119197,-0.6488888888888888,-0.2733333333333333,-0.13666666666666666,0.056416618387081445,0.397160264804806,0.5867691010069973
1592288078.2927635,6.334572843058435,7.953690178987009,0.011577455253247583,-0.6488888888888888,-0.2733333333333333,-0.13666666666666666,0.019882817720615384,0.3981050937542207,0.546705943809418
1592288078.3027635,6.39428631969579,8.02000011453704,0.007142758968250335,-0.6488888888888888,-0.2733333333333333,-0.13666666666666666,-0.005298253118694875,0.3859983086564353,0.5056781180364254
1592288078.3127635,6.216537316168049,7.986371924680442,0.03596692170247859,-0.6488888888888888,-0.2733333333333333,-0.13666666666666666,-0.025211699645811023,0.37289735699385895,0.4663752630486961
1592288078.3227634,6.042322796154473,7.876477649231437,0.038309706153929715,-0.6488888888888888,-0.24930328487196662,-0.15290318589731983,-0.05275957037709788,0.3410148781513645,0.3522372345648154
1592288078.3327634,6.232285190482906,7.895884320164393,-0.13103310030823784,-0.6488888888888888,-0.23222222222222222,-0.16444444444444445,-0.05900898531316162,0.30180672808090314,0.24020633565125177
1592288078.3427634,6.398132854150799,7.9181328541508,-0.2046022943640518,-0.6488888888888888,-0.23222222222222222,-0.16444444444444445,-0.05222074574901023,0.2831240184117521,0.18483021097408206
1592288078.3527634,6.283332658987052,7.803332658987053,-0.05985422220106623,-0.6488888888888888,-0.23222222222222222,-0.16444444444444445,-0.04949840690724466,0.28203508287504586,0.14726193495771722
1592288078.3627634,6.375317672712855,7.702723758548915,0.06970165526811378,-0.6571724981002413,-0.22048710917280648,-0.1782504597966983,-0.024954713839162656,0.26991342158874493,0.06960947048672894
1592288078.3727634,6.543348757369953,7.561513545786998,0.16770654526457202,-0.6622222222222223,-0.21333333333333335,-0.18666666666666668,-0.0013685249237827771,0.26258248364934966,0.03367564531070184
1592288078.3827634,6.561708622724902,7.509320558926071,0.2589708183490268,-0.6622222222222223,-0.21333333333333335,-0.18666666666666668,0.05078401682196804,0.2719981330636162,0.03394284366472301
1592288078.3927634,6.788908260590348,7.673424826962871,0.19657517303712865,-0.6622222222222223,-0.21333333333333335,-0.18666666666666668,0.08959783026596296,0.2598565814106107,-0.020382810005652563
1592288078.4027634,6.776051571171044,7.446412109858259,0.09557085292142378,-0.6622222222222223,-0.21333333333333335,-0.18666666666666668,0.10523567400853587,0.2465539759574187,-0.08703049058073949
1592288078.4127634,6.541120209629872,7.416079266295447,-0.10303963314772355,-0.656225206536376,-0.2106074171124941,-0.18230520071332387,0.1230194865926768,0.2512633844862587,-0.1415228779235461
1592288078.4227633,6.473864863678272,7.574783773104447,-0.06275672827852657,-0.65,-0.20777777777777778,-0.17777777777777778,0.13033069181295925,0.27677030634758026,-0.18384921489770184
1592288078.4327633,6.3391224071702945,7.670877592829705,-0.20682612035851475,-0.65,-0.20777777777777778,-0.17777777777777778,0.12585653597436183,0.27329179989202695,-0.2496609692356954
1592288078.4427633,6.176187612463301,7.9820958424093185,-0.3435528932664078,-0.65,-0.20777777777777778,-0.17777777777777778,0.08676567633035842,0.24819339418733669,-0.3024605985131331
1592288078.4527633,6.043277410123412,7.960644428545877,-0.04128885709175456,-0.65,-0.20777777777777778,-0.17777777777777778,0.02866108617054406,0.21471646999750682,-0.34678331966654147
1592288078.4627633,6.269182970345761,7.7255239735859895,0.23212255444813584,-0.6541375570230006,-0.20364022075477717,-0.18132425522606402,-0.02135354610401885,0.1272028777285672,-0.4329261344865346
1592288078.4727633,6.435803895181488,7.632692235804269,0.2793708646405742,-0.6577777777777778,-0.2,-0.18444444444444444,-0.030814063271590385,0.06198280659798822,-0.485373946196495
1592288078.4827633,6.300861971830986,7.497284507042253,0.3625671361502347,-0.6577777777777778,-0.2,-0.18444444444444444,-0.007354760109665778,-0.010613117748424203,-0.5504186684372784
1592288078.4927633,6.5127941141625,7.46,0.3053529369950003,-0.6577777777777778,-0.2,-0.18444444444444444,0.007077566934946024,-0.05598849308626947,-0.6112726939820894
1592288078.5027633,6.554736386116275,7.829438117069473,0.18422648593036478,-0.6577777777777778,-0.2,-0.18444444444444444,-0.0064290163663881525,-0.055174167030755575,-0.634518445646065
1592288078.5127633,6.486638206278027,8.065765739910313,0.07336179372197309,-0.6511548380667663,-0.1969432585949178,-0.18750118584952666,-0.03914112165488781,-0.0440428749458196,-0.6719181468198917
1592288078.5227633,6.333695433514384,7.853369543351438,0.15419835043250854,-0.6433333333333333,-0.19333333333333333,-0.19111111111111112,-0.060640404531767875,-0.049521654799659066,-0.7119271662580426
1592288078.5327632,5.7485081158938565,7.9232042546119335,0.2013810869203922,-0.6433333333333333,-0.19333333333333333,-0.19111111111111112,-0.033219124025514475,-0.08706758585575793,-0.770409770151077
1592288078.5427632,5.798197208127762,8.067529169686908,0.04874856782098347,-0.6433333333333333,-0.19333333333333333,-0.19111111111111112,-0.015074976868083227,-0.07762018429019939,-0.8189097032198106
1592288078.5527632,5.718181768933512,8.119272815919679,-0.1256363537867023,-0.6433333333333333,-0.19333333333333333,-0.19111111111111112,-0.00729864637595488,-0.06832566281387333,-0.8633430241058138
1592288078.5627632,5.497460722545658,8.080148337187973,-0.060098891458649016,-0.6461857670733977,-0.20997253015037526,-0.1882586773710468,-0.006854339050394431,-0.04490840456804813,-0.8912033556072434
1592288078.5727632,5.276172671915604,7.968289570647325,0.034318349299926304,-0.65,-0.23222222222222222,-0.18444444444444444,-0.006260504759303827,-0.025104804317486212,-0.899271284680592
1592288078.5827632,5.426039246986294,8.114841470798702,0.115334672758298,-0.65,-0.23222222222222222,-0.18444444444444444,0.027802734956671727,-0.05240599183521698,-0.9250936749700752
1592288078.5927632,5.118688911679825,8.205244353280703,0.10483316240131658,-0.65,-0.23222222222222222,-0.18444444444444444,0.04397257601558083,-0.023846804015892897,-0.86652332700403
1592288078.6027632,4.9205239469338125,8.476845066332734,-0.09268270993266906,-0.65,-0.23222222222222222,-0.18444444444444444,0.06049683258882166,-0.02374267901828655,-0.8305605691611525
1592288078.6127632,4.873175168191365,8.76742498131207,-0.2970248816431139,-0.6529263913113983,-0.2376569489433904,-0.18904305936235596,0.056269131164648815,-0.05979117925339418,-0.8487536369892357
1592288078.6227632,5.21,8.73,-0.06,-0.6577777777777778,-0.24666666666666667,-0.19666666666666666,0.03381575425739013,-0.09381144729469522,-0.892299580082101
1592288078.6327631,4.9782878669784365,8.79248636009353,-0.3714341387373344,-0.6577777777777778,-0.24666666666666667,-0.19666666666666666,-0.01827885502173913,-0.17864288311259574,-1.0440392715810767
1592288078.6427631,5.01144053679938,8.498879008985758,-0.43463857541702833,-0.6577777777777778,-0.24666666666666667,-0.19666666666666666,-0.08465738004374514,-0.21818358501823354,-1.1209203398780012
1592288078.6527631,4.957799408324266,8.318266798150162,-0.21184031556039173,-0.6577777777777778,-0.24666666666666667,-0.19666666666666666,-0.11584474167204384,-0.1901709978471296,-1.1271394085427626
1592288078.662763,4.6984891047519035,8.418827119978998,-0.3304174323969546,-0.6536690878329103,-0.25385687407018465,-0.19543405968320643,-0.09854126837529795,-0.14372289802991145,-1.1111076628609842
1592288078.672763,4.52968536892323,8.579987414756928,-0.1549433664061814,-0.6355555555555555,-0.28555555555555556,-0.19,-0.08016302056147002,-0.06486118719131662,-1.1366621494059632
1592288078.682763,4.28,8.580544502617801,-0.11730004027386226,-0.6355555555555555,-0.28555555555555556,-0.19,-0.06689336357690248,-0.0285967242413203,-1.1502665186608774
1592288078.692763,4.143368114906753,8.807353624001836,-0.2,-0.6355555555555555,-0.28555555555555556,-0.19,-0.02796052237370243,0.006230066687612613,-1.1482962223321236
1592288078.702763,3.920193377725075,9.019758277843655,-0.27980662227492475,-0.6355555555555555,-0.28555555555555556,-0.19,-0.0331338332791213,0.02877578370851451,-1.115542622045921
1592288078.712763,3.763909382518043,9.107661660712983,-0.31797586935918937,-0.6340973487886078,-0.29430479615724203,-0.19,-0.07057838982203257,0.04039501379870961,-1.0584314700617994
1592288078.722763,3.69,8.98,-0.15,-0.6311111111111111,-0.31222222222222223,-0.19,-0.11235557059713495,0.03599741582238304,-1.016654289286697
1592288078.732763,3.598293374946801,9.032458504752446,-0.2958533125265995,-0.6311111111111111,-0.31222222222222223,-0.19,-0.17716490845219218,0.002824182406094524,-0.8689518706937664
1592288078.742763,3.535068581687612,9.271878635547576,-0.025538240574506293,-0.6311111111111111,-0.31222222222222223,-0.19,-0.20033395205870622,-0.025191571671637904,-0.7763331833385824
1592288078.752763,3.280469841382115,9.29665982918074,0.17905006100687876,-0.6311111111111111,-0.31222222222222223,-0.19,-0.20933588796980052,-0.05272647123671173,-0.7537139377418195
1592288078.762763,3.251169163884792,9.169603291669903,0.18037574722459435,-0.6290164669754763,-0.3194038592586842,-0.19389005339475024,-0.20536767376047513,-0.11227816827315378,-0.8042861935244916
1592288078.772763,3.39,9.06,0.1,-0.6233333333333333,-0.3388888888888889,-0.20444444444444446,-0.1854412330243975,-0.1712604328519436,-0.8792096106921435
1592288078.782763,3.5603626404494384,9.24609775280899,0.12121797752808988,-0.6233333333333333,-0.3388888888888889,-0.20444444444444446,-0.1539799879849234,-0.17185894964055323,-0.9595054194611947
1592288078.792763,3.4001266032859956,9.323905972166244,0.21913203252803531,-0.6233333333333333,-0.3388888888888889,-0.20444444444444446,-0.15840125541776975,-0.1415989079367187,-0.9663892806200077
1592288078.802763,3.65,9.38,0.52,-0.6233333333333333,-0.3388888888888889,-0.20444444444444446,-0.17453292519943295,-0.12435470920459597,-0.9708393964218458
1592288078.812763,3.5026343242607263,8.962741783669307,0.46021491881716214,-0.6163142642995965,-0.34562719516127627,-0.20444444444444446,-0.21164461581046226,-0.03829060754072007,-0.9492163649467851
1592288078.822763,3.54,9.03,0.52,-0.5955555555555555,-0.3655555555555556,-0.20444444444444446,-0.2181661564992912,0.006544984694978735,-0.9272061651219876
1592288078.832763,3.157737588284171,8.984560656418779,0.5331530432073119,-0.5955555555555555,-0.3655555555555556,-0.20444444444444446,-0.18583635894400244,0.055235941063534966,-0.9263634280979011
1592288078.842763,3.158576820711348,9.289278974110815,0.30821001693684974,-0.5955555555555555,-0.3655555555555556,-0.20444444444444446,-0.16755947336380464,0.05376257034392271,-0.9353870528791655
1592288078.852763,3.03,9.45,0.41,-0.5955555555555555,-0.3655555555555556,-0.20444444444444446,-0.16580627893946132,0.04908738521234052,-0.9435686268594343
1592288078.862763,2.8094678090373604,9.038534827202701,0.6149342999546896,-0.593792524245628,-0.37160023433245004,-0.20948167675852317,-0.14454224544396402,0.017918435670266783,-0.9476409659243608
1592288078.872763,2.901928646854729,9.172504902700256,0.7089063207120229,-0.5877777777777777,-0.39222222222222225,-0.22666666666666666,-0.1347165320350409,-0.007061109412025067,-0.9384462967926157
1592288078.882763,2.4906432793825344,9.214099228167996,0.5818562688763262,-0.5877777777777777,-0.39222222222222225,-0.22666666666666666,-0.11062106545915472,-0.04557227952888508,-0.9114793525774492
1592288078.892763,2.31,9.15,-0.03,-0.5877777777777777,-0.39222222222222225,-0.22666666666666666,-0.10362892433716332,-0.074176493209759,-0.9108437033845408
1592288078.902763,2.957385070595945,9.315325178227456,0.8686925352979724,-0.5877777777777777,-0.39222222222222225,-0.22666666666666666,-0.09794040979486138,-0.13690427794457552,-0.9074285887626515
1592288078.9127629,2.476375071036181,9.680681947338512,0.5508524341731389,-0.5866761381574793,-0.39751009239965485,-0.22071781271705498,-0.06765940435786362,-0.1566377211978744,-0.8705945478045053
1592288078.9227629,2.3,9.36,0.15,-0.5822222222222222,-0.41888888888888887,-0.19666666666666666,-0.0545415391248228,-0.15926129424448257,-0.818123086872342
1592288078.9327629,2.338893116839115,8.278742213766321,0.7080377387995517,-0.5822222222222222,-0.41888888888888887,-0.19666666666666666,-0.038262775316007656,-0.17021625570425847,-0.8458789007147756
1592288078.9427629,3.1770380824801454,9.989755525787007,1.2351258252798776,-0.5822222222222222,-0.41888888888888887,-0.19666666666666666,-0.0253243708989348,-0.25793678115288105,-1.0500838272391466
1592288078.9527628,2.53,8.48,1.78,-0.5822222222222222,-0.41888888888888887,-0.19666666666666666,-0.05999569303730508,-0.28579766501407144,-1.2228213071785272
1592288078.9627628,2.784205537540534,9.552554252930905,0.1576016462958344,-0.5841329231451456,-0.42127726504254315,-0.19666666666666666,0.11422799564820739,-0.3917271566413339,-1.3565415428319951
1592288078.9727628,2.63,8.97,1.04,-0.5955555555555555,-0.43555555555555553,-0.19666666666666666,0.11890055529211369,-0.32070425005395803,-1.3864459245529954
1592288078.9827628,1.950785137956328,9.402220560853127,0.5140125825198895,-0.5955555555555555,-0.43555555555555553,-0.19666666666666666,0.1465112900876752,-0.2583850252855677,-1.3784554336602894
1592288078.9927628,1.998770113035854,9.469225337093295,0.5522384416692339,-0.5955555555555555,-0.43555555555555553,-0.19666666666666666,0.1604138540705251,-0.2819375059680993,-1.388357896372881
1592288079.0027628,2.039246324847616,9.758544281104339,0.2674829688060237,-0.5955555555555555,-0.43555555555555553,-0.19666666666666666,0.16368250298071058,-0.2877439511882769,-1.3722464288942011
1592288079.0127628,1.550463088768116,9.337351675724639,0.44130246074879226,-0.5938189412238325,-0.43873934849704777,-0.19579835950080515,0.13350285023929584,-0.24405720791504637,-1.3350900510048178
1592288079.0227628,1.42,9.52,0.45,-0.5822222222222222,-0.46,-0.19,0.15817046346198613,-0.26398104936414235,-1.2980886311707824
1592288079.0327628,1.5174306557639892,9.695560098337877,0.33341216396771955,-0.5822222222222222,-0.46,-0.19,0.24606361012436334,-0.2106021069719658,-1.1914170579129908
1592288079.0427628,1.42,9.78,0.21,-0.5822222222222222,-0.46,-0.19,0.28361600344907856,-0.15817046346198613,-1.1311915214488248
1592288079.0527627,1.1896497900623224,9.784448042778333,-0.10782832181657284,-0.5822222222222222,-0.46,-0.19,0.34836472086972725,-0.09044345000211709,-1.0230082640914981
1592288079.0627627,1.0358119796297793,10.373526796540295,-0.17321639317759274,-0.5784235532921976,-0.4636987039581818,-0.18950017514078624,0.3894153027664672,-0.05310329315494973,-0.9517628637535736
1592288079.0727627,0.69,9.6,0.3,-0.54,-0.5011111111111111,-0.18444444444444444,0.4003348971761993,-0.00545415391248228,-0.8912087492996045
1592288079.0827627,0.7181263936619533,9.98066449801936,-0.463594795246465,-0.54,-0.5011111111111111,-0.18444444444444444,0.38814800598435895,-0.010718781020156614,-0.8013833457457079
1592288079.0927627,0.94,10.05,-0.63,-0.54,-0.5011111111111111,-0.18444444444444444,0.3457933580513765,-0.025089107997418484,-0.7733990247899873
1592288079.1027627,0.4797195833060342,9.96077878966564,-0.302648015899015,-0.54,-0.5011111111111111,-0.18444444444444444,0.2385521302705757,-0.05735186551148246,-0.7307444894696551
1592288079.1127627,0.5365077212341646,10.001785593194217,-0.12628301944949605,-0.5388021726994695,-0.503267200252066,-0.18588183720508106,0.1823231038406859,-0.08775705569984303,-0.7020044308275911
1592288079.1227627,0.16,9.79,-0.04,-0.5344444444444445,-0.5111111111111111,-0.19111111111111112,0.13526301702956053,-0.10144726277217041,-0.6883142237552637
1592288079.1327627,0.1731687104685685,9.944653930553763,0.028118239318445842,-0.5344444444444445,-0.5111111111111111,-0.19111111111111112,0.09594985299078623,-0.13402098783551836,-0.6522735520639787
1592288079.1427627,0.32655686104904014,10.050807804127922,-0.13113722098080205,-0.5344444444444445,-0.5111111111111111,-0.19111111111111112,0.07267414042731116,-0.13860737698572875,-0.6226128401751003
1592288079.1527627,0.3508925501897318,9.90475270002919,-0.045150650277300294,-0.5344444444444445,-0.5111111111111111,-0.19111111111111112,0.0695539505051826,-0.13849209973899576,-0.5992977194636273
1592288079.1627626,0.43931388447442676,9.918355982226835,-0.1743818311549314,-0.5344444444444445,-0.5111111111111111,-0.19111111111111112,0.06881200655697371,-0.1258790526194448,-0.575555513120943
1592288079.1727626,0.34797124383958045,9.801980829226386,-0.13405751232083918,-0.5077777777777778,-0.5366666666666666,-0.17,0.05803010642181332,-0.06852194840026161,-0.5232825052002902
1592288079.1827626,0.3464436858472258,9.786443685847226,-0.07818349739297155,-0.5077777777777778,-0.5366666666666666,-0.17,0.0577326954727475,-0.036952686605605065,-0.5075157995564399
1592288079.1927626,0.21032883119362383,9.705938051830287,-0.1865957142175345,-0.5077777777777778,-0.5366666666666666,-0.17,0.045622892486583265,-0.01650594141274681,-0.511228287018445
1592288079.2027626,0.18794329011092017,9.82021266208405,-0.1846096313076082,-0.5077777777777778,-0.5366666666666666,-0.17,0.023232322628798277,0.00019342179942719593,-0.5242254366660906
1592288079.2127626,0.22167961056816915,9.703359221136338,0.1586563115454647,-0.5075538297020219,-0.5370772381388857,-0.17055987018938973,-0.037198176859501414,0.0139975830814174,-0.5401444544267822
1592288079.2227626,0.27,9.8,0.12,-0.5011111111111111,-0.5488888888888889,-0.18666666666666668,-0.04036073895236887,0.008726646259971648,-0.5454153912482279
1592288079.2327626,0.022374435255885228,9.671598457026606,0.29214589553224657,-0.5011111111111111,-0.5488888888888889,-0.18666666666666668,-0.021014653712922958,0.034089694033543505,-0.5545504830113711
1592288079.2427626,0.03,10.03,0.01,-0.5011111111111111,-0.5488888888888889,-0.18666666666666668,0.01308996938995747,0.017453292519943295,-0.5628686837681712
1592288079.2527626,-0.30455737202634975,10.531466307749547,0.06863151905105813,-0.5011111111111111,-0.5488888888888889,-0.18666666666666668,0.009144710923335356,0.009745452083047803,-0.5374458068089843
1592288079.2627625,-0.7957123287671233,12.448026151930263,0.5836251556662516,-0.5007647709976477,-0.5520059499100595,-0.18216424519164245,0.000197721569604431,0.008897402709983859,-0.41809601317723066
1592288079.2727625,-0.61,10.0,-0.48,-0.4988888888888889,-0.5688888888888889,-0.15777777777777777,-0.05781403147231216,0.08072147790473774,-0.053450708342326333
1592288079.2827625,0.030629600626468273,10.07080005220569,0.1096590968415557,-0.4988888888888889,-0.5688888888888889,-0.15777777777777777,-0.03275641548338862,-0.00793214217947051,0.006311642009973294
1592288079.2927625,-0.56,9.2,0.67,-0.4988888888888889,-0.5688888888888889,-0.15777777777777777,-0.02945243112740431,-0.00545415391248228,0.002181661564992912
1592288079.3027625,0.09596647272565148,9.998088009095165,0.06596647272565148,-0.4988888888888889,-0.5688888888888889,-0.15777777777777777,0.028801589916197693,-0.02531138856949544,0.0002199947856449194
1592288079.3127625,0.1222215269086358,9.849788724000238,0.10661332618153645,-0.49549082517167625,-0.569688433292939,-0.16417413301017805,0.023975230578507763,-0.020985571493981076,-0.0030762546267094908
1592288079.3227625,-0.05,9.94,0.0,-0.48,-0.5733333333333334,-0.19333333333333333,0.03381575425739013,-0.0370882466048795,-0.002181661564992912
1592288079.3327625,-0.24469611560930615,9.802234805780467,-0.059052475146048986,-0.48,-0.5733333333333334,-0.19333333333333333,0.028708738766518135,-0.0010784769030800514,-0.005094661611455596
