time,acc_x,acc_y,acc_z,mag_x,mag_y,mag_z,gyr_x,gyr_y,gyr_z
1592288113.8927295,-0.26,9.851058407335211,0.3792943951098597,-0.5011111111111111,-0.5733333333333334,-0.14888888888888888,0.027001376125355622,-0.014925267964450102,-0.021585706989595596
1592288113.9027295,-0.258685854884676,9.878357318605845,0.362956826509479,-0.5011111111111111,-0.5733333333333334,-0.14888888888888888,0.019025712358539518,-0.0046657234430277405,-0.014984928966057824
1592288113.9127295,-0.22898801621439824,9.841235020267998,0.42977696351760397,-0.5011111111111111,-0.5733333333333334,-0.14888888888888888,0.005257702805599677,0.013151700684306173,-0.008505865647027308
1592288113.9227295,-0.30180010746910263,9.759254555224464,0.5637272238776807,-0.4955555555555556,-0.5811111111111111,-0.15555555555555556,-0.02105104651055505,0.049053654769991815,-0.0001963612639098941
1592288113.9327295,-0.20984215638659545,9.744631551061858,0.61,-0.4955555555555556,-0.5811111111111111,-0.15555555555555556,-0.025089107997418484,0.06364137194129467,0.00905388586223542
1592288113.9427295,-0.30538207079060536,9.69313359482066,0.6070313312225321,-0.4955555555555556,-0.5811111111111111,-0.15555555555555556,-0.024765276468868665,0.07900757299209457,-0.009997383447218004
1592288113.9527295,-0.031420353351855806,9.87971592932963,0.43068176960889076,-0.4955555555555556,-0.5811111111111111,-0.15555555555555556,-0.005478943755013901,0.10716171003123469,-0.020756772170597192
1592288113.9627295,-0.2181723302700007,9.842365533946,0.5203227185296004,-0.4955555555555556,-0.5811111111111111,-0.15555555555555556,-0.008738380636843983,0.14138579729045056,-0.02483106827288479
1592288113.9727294,-0.1978313773489812,9.692710778313772,0.8151205990352077,-0.4888888888888889,-0.5811111111111111,-0.15555555555555556,-0.018274733887509744,0.1599644555948815,-0.034466294351811484
1592288113.9827294,-0.16055982509606467,9.74615807605671,0.7120855969259308,-0.4888888888888889,-0.5811111111111111,-0.15555555555555556,0.006736570252445152,0.13295083735186136,-0.04685303942577348
1592288113.9927294,-0.16982244600503513,9.848046906055385,0.41568172783887636,-0.4888888888888889,-0.5811111111111111,-0.15555555555555556,0.027954869482055722,0.1127429333236608,-0.06402975784974393
1592288114.0027294,-0.30649626733025237,9.879249200142198,0.3515015997156061,-0.4888888888888889,-0.5811111111111111,-0.15555555555555556,0.02304394569848983,0.10597438502143333,-0.08137551103582857
1592288114.0127294,-0.46356482392288023,9.82881172535904,0.41581349596694867,-0.4888888888888889,-0.5811111111111111,-0.15555555555555556,0.010144533133855986,0.09384535468474724,-0.0905868115800008
1592288114.0227294,-0.26813890487149983,9.831329353663214,0.4902658707326429,-0.4888888888888889,-0.5733333333333334,-0.17,-0.017511296515809644,0.06590263377775397,-0.09619612284522035
1592288114.0327294,-0.19411764705882353,9.88032679738562,0.49901960784313726,-0.4888888888888889,-0.5733333333333334,-0.17,-0.019884490538448468,0.042364160193424455,-0.10434188563291263
1592288114.0427294,-0.02,9.89,0.47,-0.4888888888888889,-0.5733333333333334,-0.17,-0.0272707695624114,0.0370882466048795,-0.12544553998709243
1592288114.0527294,-0.055503478579274984,9.898875869644819,0.6563932625411938,-0.4888888888888889,-0.5733333333333334,-0.17,-0.03404821984340732,0.034183625055881246,-0.15352354829407555
1592288114.0627294,0.024011695906432748,10.006923976608187,0.5807134502923977,-0.4888888888888889,-0.5733333333333334,-0.17,-0.026575444677662194,0.032982640221167696,-0.17457502744016087
1592288114.0727293,0.31,10.14,0.55,-0.47555555555555556,-0.5733333333333334,-0.15555555555555556,-0.019634954084936207,0.038179077387375956,-0.22143864884678055
1592288114.0827293,0.5451142160968553,10.124831340896977,0.7016865910302292,-0.47555555555555556,-0.5733333333333334,-0.15555555555555556,-0.028735496238261073,0.06217141579159606,-0.264459393571589
1592288114.0927293,0.5065588685916323,10.141120094284032,0.44971997642899236,-0.47555555555555556,-0.5733333333333334,-0.15555555555555556,-0.019634954084936207,0.06737423443558971,-0.35927633506680146
1592288114.1027293,0.04089642662797025,10.1821770360965,0.4376949029566479,-0.47555555555555556,-0.5733333333333334,-0.15555555555555556,-0.019844493319230376,0.13440966404593083,-0.4871531159785881
1592288114.1127293,0.09415254852167604,10.31151333212407,0.3007505895156902,-0.47555555555555556,-0.5733333333333334,-0.15555555555555556,-0.032293082701667024,0.14851806534602568,-0.5253287900847272
1592288114.1227293,0.24,10.23,0.39,-0.4633333333333333,-0.5811111111111111,-0.16333333333333333,-0.10035643198967394,0.1974403716318585,-0.5868669609830933
1592288114.1327293,0.17938678969806693,10.189591193132046,0.3798977982830112,-0.4633333333333333,-0.5811111111111111,-0.16333333333333333,-0.1212940379370459,0.22388787388117046,-0.6309461313986132
1592288114.1427293,-0.1525254660772631,9.989000336344416,0.4205787526427061,-0.4633333333333333,-0.5811111111111111,-0.16333333333333333,-0.17899955543456486,0.2738903549445181,-0.7584717508521905
1592288114.1527293,-0.63,9.8,0.53,-0.4633333333333333,-0.5811111111111111,-0.16333333333333333,-0.19853120241435498,0.2912518189265538,-0.8235772407848243
1592288114.1627293,-0.7021819583654587,9.772237708320977,0.48558033331356387,-0.4633333333333333,-0.5811111111111111,-0.16333333333333333,-0.18823465521327312,0.28034959247834945,-0.845381693681233
1592288114.1727293,-0.89,9.78,0.28,-0.4633333333333333,-0.6077777777777778,-0.17777777777777778,-0.15271630954950383,0.2530727415391778,-0.8966629032120867
1592288114.1827292,-0.980107813715683,9.7718083805713,0.2554251417139046,-0.4633333333333333,-0.6077777777777778,-0.17777777777777778,-0.15897127899142804,0.22090432726642464,-0.9270441833585759
1592288114.1927292,-0.7261259929798632,9.936280647119368,0.04459449473489746,-0.4633333333333333,-0.6077777777777778,-0.17777777777777778,-0.1880932147839919,0.14445010897677318,-0.986032434359029
1592288114.2027292,-0.7790506283662477,10.008892399760622,0.14825948533812086,-0.4633333333333333,-0.6077777777777778,-0.17777777777777778,-0.21447942263095146,0.07633744792111889,-1.034438969800911
1592288114.2127292,-0.866270611057226,9.999216173617846,0.31175739573229877,-0.4633333333333333,-0.6077777777777778,-0.17777777777777778,-0.23371499178500207,0.062327661244430295,-1.0593132386191744
1592288114.2227292,-0.8,9.94,0.63,-0.43,-0.6077777777777778,-0.14888888888888888,-0.2716168648416175,-0.0272707695624114,-1.1540989678812505
1592288114.2327292,-0.5856244195905843,9.870643194573423,0.7750187749828401,-0.43,-0.6077777777777778,-0.14888888888888888,-0.2805580920993815,-0.05890895832065318,-1.2022440377307488
1592288114.2427292,-0.7146328837249432,9.848861695090736,0.9165850852722096,-0.43,-0.6077777777777778,-0.14888888888888888,-0.2775676979680564,-0.05275908441920314,-1.3076130637123937
1592288114.2527292,-0.7108220361350385,9.85958898193248,1.0063008373923268,-0.43,-0.6077777777777778,-0.14888888888888888,-0.26661106208934743,-0.027211146448403025,-1.4001330673271564
1592288114.2627292,-0.8491882702932426,9.762052698682533,1.01,-0.43,-0.6077777777777778,-0.14888888888888888,-0.270661402775011,0.00024987581460500854,-1.4455121166472895
1592288114.2727292,-1.27,9.58,1.01,-0.3711111111111111,-0.6344444444444445,-0.2,-0.28034351110158917,0.08617563181722002,-1.545707218797478
1592288114.2827291,-1.491554304873668,9.48600726459905,1.0771376681435358,-0.3711111111111111,-0.6344444444444445,-0.2,-0.2964553948183093,0.12352590770598024,-1.5845222113877582
1592288114.2927291,-1.7126451505109854,9.374290328868591,1.00674194536493,-0.3711111111111111,-0.6344444444444445,-0.2,-0.3176534413981136,0.1715032278296522,-1.6547199159682608
1592288114.3027291,-2.2274646488531564,9.182050130054387,0.9248200520217545,-0.3711111111111111,-0.6344444444444445,-0.2,-0.3174974809704508,0.19906978237979658,-1.6929164450241025
1592288114.3127291,-2.4242044595044323,9.151233776056637,0.9293831119716819,-0.3711111111111111,-0.6344444444444445,-0.2,-0.32306122076234556,0.2119717900911016,-1.7033393458989496
1592288114.322729,-2.7275236224849,9.057677770778524,0.9580805573053692,-0.3168694391950034,-0.6696010836493291,-0.20502237702926923,-0.34520915909264005,0.21978043407592296,-1.7313410155691542
1592288114.332729,-2.8396485571497663,8.96695953570853,1.0208963404804128,-0.3111111111111111,-0.6733333333333333,-0.20555555555555555,-0.3511113999171633,0.2011403683534006,-1.7496350704224168
1592288114.342729,-3.0199873372990163,8.909089757936274,1.0518204841274517,-0.3111111111111111,-0.6733333333333333,-0.20555555555555555,-0.34559615532525173,0.17760821482079753,-1.7885625526963291
1592288114.352729,-3.1039122990583086,8.863804813088557,1.0869561495291544,-0.3111111111111111,-0.6733333333333333,-0.20555555555555555,-0.3346243008916442,0.16260506983629563,-1.812308420251376
1592288114.362729,-3.0877184394006822,8.842174751520545,1.0989126242397271,-0.3111111111111111,-0.6733333333333333,-0.20555555555555555,-0.3289331370071564,0.15074857444860532,-1.8189126737283654
1592288114.372729,-3.1725750242013553,8.716806227815425,1.3351500484027106,-0.26212012835681764,-0.6931381987020903,-0.20555555555555555,-0.32390924746677696,0.1210713050293372,-1.8249598991165707
1592288114.382729,-3.3839989531536245,8.676000174474396,1.400999738288406,-0.2588888888888889,-0.6944444444444444,-0.20555555555555555,-0.3211951381802346,0.08383053119884337,-1.822178294895358
1592288114.392729,-3.5167867795243852,8.663950826279725,1.4341966948810962,-0.2588888888888889,-0.6944444444444444,-0.20555555555555555,-0.31278590017066576,0.05699324835874329,-1.821027544278807
1592288114.402729,-3.7559800700832238,8.545612954445904,1.3444119579500657,-0.2588888888888889,-0.6944444444444444,-0.20555555555555555,-0.28265889858215426,-0.0024382433127811687,-1.830194799864218
1592288114.412729,-3.9385254493650845,8.463947729431215,1.3366052270568787,-0.2588888888888889,-0.6944444444444444,-0.20555555555555555,-0.25979868082173446,-0.03682686775615581,-1.8214176248129192
1592288114.422729,-4.104001780877824,8.354398397209957,1.4072014247022595,-0.19822093603268243,-0.7009779162904974,-0.23075608981890286,-0.24155339363874365,-0.08059119985447039,-1.80065585903437
1592288114.432729,-4.1849796412013704,8.312151582342269,1.3828687764563596,-0.18666666666666668,-0.7022222222222222,-0.23555555555555555,-0.2394764736288058,-0.10997166227670156,-1.7885757561866984
1592288114.442729,-4.726099991284897,8.188444644569039,1.190182145658426,-0.18666666666666668,-0.7022222222222222,-0.23555555555555555,-0.24433947227616915,-0.1628664895052982,-1.7362897718301427
1592288114.452729,-4.793597167814302,7.976379230638215,1.327217937176087,-0.18666666666666668,-0.7022222222222222,-0.23555555555555555,-0.26271753931765107,-0.20638930329545088,-1.6817943241251903
1592288114.462729,-4.950944386149003,8.054396358583137,1.2978018207084314,-0.18666666666666668,-0.7022222222222222,-0.23555555555555555,-0.2660208698259973,-0.2239580376359734,-1.641352453457649
1592288114.472729,-4.839084606900898,7.91245155191429,1.4641815030723175,-0.14811827109920697,-0.7031859321114088,-0.2172450676610122,-0.2776608613955884,-0.2674202513160151,-1.545885787126297
1592288114.482729,-4.752232811157921,7.826837498466195,1.6564640680600433,-0.14222222222222222,-0.7033333333333334,-0.21444444444444444,-0.27101315788763336,-0.2645544170432238,-1.5045247762776326
1592288114.492729,-5.301816458096321,8.139089874857794,1.5323384257002004,-0.14222222222222222,-0.7033333333333334,-0.21444444444444444,-0.2603544019226879,-0.2739401470778415,-1.4496008547671602
1592288114.502729,-4.831767093200917,7.562091291061879,1.769853896103896,-0.14222222222222222,-0.7033333333333334,-0.21444444444444444,-0.24938832307161754,-0.26963145281770784,-1.4284508784104746
1592288114.512729,-4.864375503193602,7.520387168339505,1.871190667883277,-0.14222222222222222,-0.7033333333333334,-0.21444444444444444,-0.23784652527356004,-0.26136432795617426,-1.4124537481007555
1592288114.522729,-5.722236087205967,7.810315547905909,1.759197504302926,-0.07269012558169186,-0.7189780550774527,-0.2274817125645439,-0.22296079743760278,-0.2599959262784751,-1.3904841654026698
1592288114.532729,-5.682597450581932,7.708398300387955,1.7502826528727138,-0.05333333333333334,-0.7233333333333334,-0.2311111111111111,-0.2192467097333104,-0.24364137788656062,-1.3693787454229032
1592288114.542729,-5.8884740698985345,7.371088500563698,1.78,-0.05333333333333334,-0.7233333333333334,-0.2311111111111111,-0.23746894215767464,-0.2154866112338544,-1.2973540113647801
1592288114.552729,-6.108385460089088,6.929807531978752,2.338601986612992,-0.05333333333333334,-0.7233333333333334,-0.2311111111111111,-0.2267035618981847,-0.2045268351547938,-1.2229738067822162
1592288114.562729,-6.263588496763223,7.029204081023836,2.3131532472181617,-0.05333333333333334,-0.7233333333333334,-0.2311111111111111,-0.22255404862306552,-0.21391256402765618,-1.1919848769705592
1592288114.5727289,-6.352527863026975,7.165659828783718,2.3268308835406235,-0.029031389651644864,-0.7207295536531524,-0.2311111111111111,-0.17092689341223016,-0.263124911943346,-1.076320495397291
1592288114.5827289,-6.33509667131752,7.11754833565876,2.4319354195734504,-0.022222222222222223,-0.72,-0.2311111111111111,-0.1503798400281351,-0.26861180758730546,-1.0088919313504987
1592288114.5927289,-6.3568995440099485,6.924395744092856,2.151993920132652,-0.022222222222222223,-0.72,-0.2311111111111111,-0.13088857004828988,-0.2770821426053846,-0.8812371963657633
1592288114.6027288,-6.92192270832335,7.303038717715272,2.2936022329771433,-0.022222222222222223,-0.72,-0.2311111111111111,-0.10478122509906539,-0.2539827690404123,-0.7727963471857808
1592288114.6127288,-6.44531818422399,7.010158430514634,2.2485476614738626,-0.022222222222222223,-0.72,-0.2311111111111111,-0.10121855415695212,-0.21116346589756924,-0.7099194128781996
1592288114.6227288,-6.229502961328533,6.924724964193087,2.2686679828126812,0.02129076934326035,-0.7142530011139928,-0.26066710538200494,-0.11382229947995981,-0.15832154899366158,-0.6277662535606687
1592288114.6327288,-6.587480397673982,6.891312699305947,2.330035265428625,0.03666666666666667,-0.7122222222222222,-0.27111111111111114,-0.11968191834333129,-0.13758787187566224,-0.5848131052531683
1592288114.6427288,-6.724673287156805,6.78973657125372,2.161844001223956,0.03666666666666667,-0.7122222222222222,-0.27111111111111114,-0.13271525700867678,-0.09488100704382413,-0.5108823692494083
1592288114.6527288,-6.788900838323353,6.8705319760479036,2.113510658682635,0.03666666666666667,-0.7122222222222222,-0.27111111111111114,-0.14404769287439267,-0.07568121262520221,-0.4399064755787592
1592288114.6627288,-7.005847673112175,6.8542809413990895,2.1831952575246882,0.03666666666666667,-0.7122222222222222,-0.27111111111111114,-0.13388285258998361,-0.07038819290577784,-0.39615960383339205
1592288114.6727288,-7.285251152731872,6.909220222793487,2.079982453992737,0.03666666666666667,-0.7145907971871982,-0.24110916155474854,-0.08516986153275885,-0.058617499316391146,-0.218704872986848
1592288114.6827288,-7.246758499880563,6.9369173501074926,2.197902699259495,0.03666666666666667,-0.7155555555555555,-0.2288888888888889,-0.06851549054271702,-0.07396504106070353,-0.1221822544285946
1592288114.6927288,-7.259572597589296,6.836776512219396,2.1649690368240626,0.03666666666666667,-0.7155555555555555,-0.2288888888888889,-0.025336815728465318,-0.09577067250417297,0.08165392531695688
1592288114.7027287,-6.906727904431012,7.069954071676741,1.9545538051496834,0.03666666666666667,-0.7155555555555555,-0.2288888888888889,-0.016924101231285623,-0.10841908413738352,0.22598163119921316
1592288114.7127287,-6.834296516338104,7.06425870915474,2.1400630119722748,0.03666666666666667,-0.7155555555555555,-0.2288888888888889,-0.017453292519943295,-0.11656404269246447,0.3327267586970869
1592288114.7227287,-6.677843418411242,6.915427301405219,2.329033553197591,0.05762913042092853,-0.7112184940891565,-0.23828585539942007,-0.04371034336979956,-0.11748125524617552,0.43943056022251265
1592288114.7327287,-6.44679648687012,7.077205464868701,2.4536027324343506,0.06888888888888889,-0.7088888888888889,-0.24333333333333335,-0.05189430029806707,-0.11833336586555127,0.4997031750565696
1592288114.7427287,-6.2657645296874245,7.046704913280835,2.4051758539059858,0.06888888888888889,-0.7088888888888889,-0.24333333333333335,-0.036164210325818055,-0.10631958581097994,0.5816696653359323
1592288114.7527287,-6.444283927454659,7.206591138692452,2.2603304950209266,0.06888888888888889,-0.7088888888888889,-0.24333333333333335,-0.025388854253714236,-0.062321560259213385,0.6567395345576366
1592288114.7627287,-6.549075050709939,7.26488032454361,2.266283975659229,0.06888888888888889,-0.7088888888888889,-0.24333333333333335,-0.016818265269281058,-0.029906464548435287,0.7024985641493241
1592288114.7727287,-6.076767440043747,7.040028122802906,2.3200070307007263,0.06074217292051836,-0.7007421729205183,-0.23370539627980452,-0.011997221281267267,0.03635808618305145,0.7963018696395477
1592288114.7827287,-6.056923108569548,7.105324803554532,2.222888879746575,0.056666666666666664,-0.6966666666666667,-0.2288888888888889,-0.014218093148973224,0.04569462189364572,0.8281605969639967
1592288114.7927287,-6.38504527848999,7.300911025039551,2.0264464568217773,0.056666666666666664,-0.6966666666666667,-0.2288888888888889,-0.001370366956233683,0.05391040327412412,0.9140615679071252
1592288114.8027287,-6.4203995305276775,7.67739083570864,1.789088600924573,0.056666666666666664,-0.6966666666666667,-0.2288888888888889,-0.018587705322253494,0.038618947473445756,0.9935738995754062
1592288114.8127286,-6.2598692037491395,7.571702292905936,1.9301307962508605,0.056666666666666664,-0.6966666666666667,-0.2288888888888889,-0.00574695859554273,0.009449714206507392,1.1007214077595426
1592288114.8227286,-6.036882636060718,7.33,1.9219437245464643,0.03098070673413139,-0.7088674976346209,-0.24108971985684313,0.0019122857294041895,-0.01738261670101072,1.2689285960028478
1592288114.8327286,-5.823696498054474,7.382080520924323,1.8941920114349242,0.012222222222222223,-0.7177777777777777,-0.25,0.0021934854673045746,-0.031866109705890176,1.3635773280853083
1592288114.8427286,-5.592479902132122,7.901166841430735,2.110584877082605,0.012222222222222223,-0.7177777777777777,-0.25,0.05073551448968108,-0.05585535285126543,1.5269319786619997
1592288114.8527286,-5.138475338423346,7.63912876481334,2.3908712351866597,0.012222222222222223,-0.7177777777777777,-0.25,0.08813804400811145,-0.015272984976953112,1.6172635516940412
1592288114.8627286,-4.911271621264216,7.556218637044874,2.216079167768668,0.012222222222222223,-0.7177777777777777,-0.25,0.11193152852252154,0.01874063248175327,1.6620945453578977
1592288114.8727286,-4.8127008966333955,7.705237692437828,2.0144425647098627,-0.0027864245568525736,-0.7138624786180191,-0.25,0.14376433688360626,0.0639950983356071,1.644903985648054
1592288114.8827286,-4.735509745127437,7.974507746126937,2.1335957021489254,-0.013333333333333334,-0.7111111111111111,-0.25,0.15817046346198613,0.08290313946973066,1.6187928812247405
1592288114.8927286,-4.543390903857225,8.215290731145654,1.8447956246401842,-0.013333333333333334,-0.7111111111111111,-0.25,0.15542988457032547,0.09386545503637321,1.5968682500914553
1592288114.9027286,-4.191348271752086,8.252041239570918,1.6105056019070323,-0.013333333333333334,-0.7111111111111111,-0.25,0.0802557100626382,0.07583928856655324,1.5795597414631268
1592288114.9127285,-4.094897588611273,8.259522080185938,1.5145562173155143,-0.013333333333333334,-0.7111111111111111,-0.25,0.028813921156737626,0.06491560290806934,1.5718499197456257
1592288114.9227285,-3.890151633403947,8.092363697179172,1.5801817370944364,-0.030811436924715996,-0.7147272704748454,-0.24638384063626567,0.015271630954950384,0.06890744850130835,1.56347454020363
1592288114.9327285,-3.7531488228150587,8.057659341089826,1.6477874407490107,-0.04555555555555556,-0.7177777777777777,-0.24333333333333335,0.015717244752101362,0.06986423533558402,1.5532548772684782
1592288114.9427285,-3.524886129565697,8.371541965244132,1.6396942179929792,-0.04555555555555556,-0.7177777777777777,-0.24333333333333335,0.01917363985137994,0.04312365581870828,1.4324907624834307
1592288114.9527285,-3.4555565466410028,8.694758462044035,1.9135073470729074,-0.04555555555555556,-0.7177777777777777,-0.24333333333333335,0.05186764407401439,0.04517865599138343,1.3140341385759875
1592288114.9627285,-3.298143381684662,8.71950794343258,2.076509979278002,-0.04555555555555556,-0.7177777777777777,-0.24333333333333335,0.10158633804589037,0.06407348951465795,1.2175233799671625
1592288114.9727285,-3.1966986137258258,8.961402019510526,2.0553085743624853,-0.07459756213512846,-0.7177777777777777,-0.24333333333333335,0.15868352544323833,0.08435932295483631,1.0797643107421862
1592288114.9827285,-3.0631207350251994,9.502310334061818,2.0193448106685694,-0.10777777777777778,-0.7177777777777777,-0.24333333333333335,0.19698523038167992,0.11138510533606469,0.8883763646751633
1592288114.9927285,-2.9164447184545828,9.734806052198932,2.0316386662556516,-0.10777777777777778,-0.7177777777777777,-0.24333333333333335,0.2017885349937255,0.14913179498759047,0.6914591050417305
1592288115.0027285,-2.5915765209900115,9.504734685324454,2.053985424573331,-0.10777777777777778,-0.7177777777777777,-0.24333333333333335,0.19625930075599063,0.18707350436712258,0.47568339407541094
1592288115.0127285,-2.359330793743819,9.178030475074173,1.997361268817992,-0.10777777777777778,-0.7177777777777777,-0.24333333333333335,0.19111438417210425,0.22455890994701483,0.30000339754828054
1592288115.0227284,-2.556215954394724,9.116846752859646,1.6555859011140504,-0.12899896916179193,-0.713533539500975,-0.2332532674259266,0.1964772833565116,0.2733857510637499,0.10931905438598356
1592288115.0327284,-2.7688971342859396,9.217581116286413,1.4669416594300149,-0.15222222222222223,-0.7088888888888889,-0.2222222222222222,0.20655522861003447,0.29707093224980574,3.4360265431129106e-05
1592288115.0427284,-2.9327638938638305,9.546776788912462,2.0655922629708208,-0.15222222222222223,-0.7088888888888889,-0.2222222222222222,0.23037361484205882,0.3063080969882027,-0.24103140398374812
1592288115.0527284,-2.8345027238441123,9.219057829305768,1.897382315965917,-0.15222222222222223,-0.7088888888888889,-0.2222222222222222,0.23563659086349076,0.2693210005008904,-0.4297986800138
1592288115.0627284,-2.8942789934354485,9.257131291028445,1.5885776805251641,-0.15222222222222223,-0.7088888888888889,-0.2222222222222222,0.23468412726404575,0.23842469820332413,-0.5650484357825603
1592288115.0727284,-3.0624929799592264,9.45563757356618,1.470141554794784,-0.14723639052369292,-0.7088888888888889,-0.2249417667850564,0.2260584726719774,0.22150972886930428,-0.6815868814582259
1592288115.0827284,-2.9695102336241908,9.140730628493305,1.6124407897382282,-0.14,-0.7088888888888889,-0.2288888888888889,0.196988011751691,0.20999828193654188,-0.7619573419875344
1592288115.0927284,-3.442849530084294,9.268340277104933,1.5680844879372153,-0.14,-0.7088888888888889,-0.2288888888888889,0.1879525429965803,0.21692672499204035,-0.9208837644428927
1592288115.1027284,-3.5315239809695256,9.346658351549442,1.5652092066349492,-0.14,-0.7088888888888889,-0.2288888888888889,0.17012940249348424,0.21772396116369927,-1.02634028313828
1592288115.1127284,-3.373894138152463,9.049231263186863,1.5294517934134482,-0.14,-0.7088888888888889,-0.2288888888888889,0.13980574034547974,0.19269213063305785,-1.1170945774543115
1592288115.1227283,-3.5404940696532448,8.441085971141497,1.4769377502455239,-0.12658432172445921,-0.7169382958542134,-0.23157202454399706,0.06918551179958247,0.15389865408768227,-1.1878232083829585
1592288115.1327283,-3.6639621678898004,8.234610494093639,1.2249527098622504,-0.10666666666666667,-0.7288888888888889,-0.23555555555555555,0.022205112543738442,0.12242648032404947,-1.2187551253091395
1592288115.1427283,-3.7678987475060963,8.639486810019951,1.277905675016626,-0.10666666666666667,-0.7288888888888889,-0.23555555555555555,-0.027154274831871016,0.07549804643081663,-1.233040470384501
1592288115.1527283,-3.8730138283765863,8.721689713960977,1.060228262928585,-0.10666666666666667,-0.7288888888888889,-0.23555555555555555,-0.058974601862517004,0.04932646291935859,-1.2394676866078
1592288115.1627283,-4.210859489480254,8.831123975613727,1.206760316225555,-0.10666666666666667,-0.7288888888888889,-0.23555555555555555,-0.12044935068863397,0.02471047366082715,-1.2607894291764121
1592288115.1727283,-4.404692676393882,8.699437513216324,1.3716874603510256,-0.09315566676848132,-0.7310798618453513,-0.23117360964263056,-0.23009428768956497,-0.008214754673697585,-1.2982937338078664
1592288115.1827283,-4.21,8.78,1.13,-0.06555555555555556,-0.7355555555555555,-0.2222222222222222,-0.2923426497090502,-0.02945243112740431,-1.3209960776032081
1592288115.1927283,-4.628673389776635,8.124080677319618,1.5048782038315949,-0.06555555555555556,-0.7355555555555555,-0.2222222222222222,-0.4134761504591011,-0.041709848910516954,-1.3466328862298824
1592288115.2027283,-4.671468373146052,7.769790232407707,1.8369927921267846,-0.06555555555555556,-0.7355555555555555,-0.2222222222222222,-0.4378655897462475,-0.07732688891766062,-1.4052111826361127
1592288115.2127283,-4.877332549077273,7.889702963017425,1.9414443790897729,-0.06555555555555556,-0.7355555555555555,-0.2222222222222222,-0.42140819838658894,-0.09500329280923742,-1.4555519915084483
1592288115.2227283,-5.058774425452182,8.027062445030783,2.0265951588849376,-0.05146134203493387,-0.7401361749497576,-0.2197557348561134,-0.3938684576367955,-0.10062381087827485,-1.4957708951856359
1592288115.2327282,-4.97,7.87,2.17,-0.021111111111111112,-0.75,-0.21444444444444444,-0.3752457891787809,-0.11999138607461016,-1.5315264186250241
1592288115.2427282,-5.426161137440758,7.350710900473934,1.8201895734597155,-0.021111111111111112,-0.75,-0.21444444444444444,-0.3050293735964734,-0.10631722768739155,-1.5772172359506342
1592288115.2527282,-5.488847429714151,7.5302505587577935,1.9697494412422067,-0.021111111111111112,-0.75,-0.21444444444444444,-0.2704495052414901,-0.09762115551725806,-1.5773194461134092
1592288115.2627282,-5.555295122038894,7.437959308386355,1.9910203458068225,-0.021111111111111112,-0.75,-0.21444444444444444,-0.25810860445010425,-0.08212984517943939,-1.560337953827898
1592288115.2727282,-6.096226357301478,7.161931235163489,2.2133295045562447,-0.0032852609098876044,-0.7442594719690975,-0.2165593758242506,-0.262593600149251,-0.058311625390018836,-1.5350095760489708
1592288115.2827282,-6.23703412735594,7.073248765721287,2.481009766117698,0.044444444444444446,-0.7288888888888889,-0.2222222222222222,-0.25942510412762176,-0.056723200689815706,-1.5217743937881438
1592288115.2927282,-6.534071890145396,7.152112277867528,2.2749483037156706,0.044444444444444446,-0.7288888888888889,-0.2222222222222222,-0.19977940183800966,-0.04397052534148961,-1.4336212719640296
1592288115.3027282,-6.91051148822576,7.1465616359996185,2.2109552864906092,0.044444444444444446,-0.7288888888888889,-0.2222222222222222,-0.168474233262482,-0.007170218241014457,-1.2966848196236829
1592288115.3127282,-6.993313314221432,7.265325325688573,2.1689518089777553,0.044444444444444446,-0.7288888888888889,-0.2222222222222222,-0.14307494406313134,0.02634684693371965,-1.1581994497587131
1592288115.3227282,-6.588614318706697,6.955591480626123,2.1682858609186555,0.05257149374162461,-0.7323719100162518,-0.2300590197587888,-0.1242567387725011,0.05421655720578806,-1.02035393271812
1592288115.3327281,-7.32,6.83,2.22,0.07555555555555556,-0.7422222222222222,-0.25222222222222224,-0.11780972450961724,0.06872233929727672,-0.9228428419920017
1592288115.3427281,-7.152471118934976,6.427898008581803,2.3791913301793377,0.07555555555555556,-0.7422222222222222,-0.25222222222222224,-0.06111418764369475,0.05823726997538992,-0.7724013268809882
1592288115.3527281,-7.453997795773636,6.06,2.228557429680387,0.07555555555555556,-0.7422222222222222,-0.25222222222222224,-0.0025956169237537838,0.07191457045992143,-0.6656443985187377
1592288115.362728,-7.82,6.06,2.46,0.07555555555555556,-0.7422222222222222,-0.25222222222222224,0.01090830782496456,0.08072147790473774,-0.631591023065448
1592288115.372728,-7.171854496764115,5.812825634159042,2.740198616380272,0.08662252969327283,-0.7408388504550075,-0.2487637928041856,0.11002703677771085,0.03990803160017459,-0.587507478187708
1592288115.382728,-7.79,5.9,2.55,0.1288888888888889,-0.7355555555555555,-0.23555555555555555,0.1636246173744684,0.038179077387375956,-0.5399612373357456
1592288115.392728,-7.9848588050899245,6.036808437159631,2.1339367213027653,0.1288888888888889,-0.7355555555555555,-0.23555555555555555,0.24221862316678788,0.057612863996497524,-0.3810981921002117
1592288115.402728,-8.069624175929937,6.126991001395505,2.047168567441413,0.1288888888888889,-0.7355555555555555,-0.23555555555555555,0.24724936075002546,0.01524270800797211,-0.24049687621946575
1592288115.412728,-7.949174521103751,6.3421457424462755,1.7032186136694134,0.1288888888888889,-0.7355555555555555,-0.23555555555555555,0.24025584703891945,-0.01838808050832597,-0.1285080169073634
1592288115.422728,-8.205314974589292,6.3500354568017965,1.8541259898357167,0.1332012239162694,-0.7355555555555555,-0.23268066553730185,0.25102077809109674,-0.022518352081689928,-0.009569684019898876
1592288115.432728,-7.97,5.95,1.76,0.14888888888888888,-0.7355555555555555,-0.2222222222222222,0.23561944901923448,-0.06872233929727672,0.09053895494720585
1592288115.442728,-8.351279623318852,6.161822012954918,1.7261822012954917,0.14888888888888888,-0.7355555555555555,-0.2222222222222222,0.19997932490056397,-0.079450852011867,0.3485833320818198
1592288115.452728,-8.343963397197598,6.0133638356686685,1.832627013630731,0.14888888888888888,-0.7355555555555555,-0.2222222222222222,0.19242354821896449,-0.11405971425452946,0.5331701372597576
1592288115.462728,-8.372126924115582,5.965377621748132,2.0257643352236925,0.14888888888888888,-0.7355555555555555,-0.2222222222222222,0.1940624195435823,-0.14126159457967657,0.7033689847069535
1592288115.472728,-8.116610467673363,6.131720055710306,2.1550590089429704,0.14888888888888888,-0.7344425711446676,-0.2222222222222222,0.20471196381258316,-0.1608984599721049,0.8705344594493194
1592288115.482728,-7.95,6.29,2.33,0.14888888888888888,-0.7288888888888889,-0.2222222222222222,0.20289452554434081,-0.1636246173744684,1.0231992739816758
1592288115.492728,-7.455984251968504,6.460472440944883,2.025984251968504,0.14888888888888888,-0.7288888888888889,-0.2222222222222222,0.217710927905021,-0.18707318458876226,1.2186297684237377
1592288115.502728,-7.175963130352046,6.654093482397717,1.7746175071360608,0.14888888888888888,-0.7288888888888889,-0.2222222222222222,0.21116229115758434,-0.18405683279677343,1.3588043140404547
1592288115.512728,-7.102405357872484,6.735997939279814,1.8123234620099127,0.14888888888888888,-0.7288888888888889,-0.2222222222222222,0.182500344243199,-0.20700439828608921,1.4343285919936453
1592288115.522728,-6.6019323346903285,6.900167977550295,1.5931939449033634,0.1457329310655266,-0.7325303786850762,-0.21882349841244744,0.1803995520614486,-0.23638942439351235,1.4768932619588866
1592288115.532728,-6.21,6.82,2.19,0.12,-0.7622222222222222,-0.19111111111111112,0.15707963267948966,-0.2159844949342983,1.5206181108000596
1592288115.542728,-6.026326152810501,7.3319056434421634,1.741355884662852,0.12,-0.7622222222222222,-0.19111111111111112,0.13906268918133616,-0.14095502908473123,1.5750332246810455
1592288115.552728,-6.131684144548107,7.28782888551385,2.2067500783491236,0.12,-0.7622222222222222,-0.19111111111111112,0.10464081116919922,-0.08943521227940754,1.6038499379569342
1592288115.562728,-6.23,7.38,2.09,0.12,-0.7622222222222222,-0.19111111111111112,0.10799224746714915,-0.08072147790473774,1.5991579271398042
1592288115.572728,-4.641095570216777,7.434915739868049,1.9143117813383599,0.11300249240758194,-0.761209425070688,-0.19111111111111112,0.1387944300408236,-0.0041105300359234025,1.552921712451516
1592288115.582728,-5.76,7.6,1.63,0.035555555555555556,-0.75,-0.19111111111111112,0.16580627893946132,0.03490658503988659,1.487893187325166
1592288115.592728,-5.164419467598817,7.853015057811239,1.4725469212153803,0.035555555555555556,-0.75,-0.19111111111111112,0.16334679136823535,-0.0023328350485365187,1.3607521226214025
1592288115.602728,-5.15,7.99,1.66,0.035555555555555556,-0.75,-0.19111111111111112,0.14289883250703572,-0.019634954084936207,1.2915436464758039
1592288115.6127279,-5.1259988231235925,8.09,1.2602382160176937,0.035555555555555556,-0.75,-0.19111111111111112,0.11172101045056533,0.001150260619377388,1.2319844141287986
1592288115.6227279,-5.397167213892955,8.083120376597176,2.2169330274140595,0.034476398943347794,-0.7504946134472619,-0.191560759699531,0.08770790406911554,0.01692356275666443,1.2005946213151375
1592288115.6327279,-5.33,7.92,1.67,0.008888888888888889,-0.7622222222222222,-0.20222222222222222,0.09817477042468103,0.004363323129985824,1.165007275706215
1592288115.6427279,-4.234974399817954,8.468407099783821,1.7817885993855955,0.008888888888888889,-0.7622222222222222,-0.20222222222222222,0.08586621764714793,0.02826404738153976,1.0707395883436557
1592288115.6527278,-4.220662846227317,8.347665711556829,1.4983285577841452,0.008888888888888889,-0.7622222222222222,-0.20222222222222222,0.06969056882635363,0.05843646660147448,0.97175417836817
1592288115.6627278,-4.43,8.4,1.76,0.008888888888888889,-0.7622222222222222,-0.20222222222222222,0.06326818538479445,0.07199483164476608,0.9053895494720584
1592288115.6727278,-4.314485032407928,9.067311453298865,1.6196553145254955,0.00857484212322922,-0.7622681802854895,-0.20212264641847646,0.06968533228097774,0.07312326177984944,0.7840897059274244
1592288115.6827278,-3.52,8.68,1.57,-0.03666666666666667,-0.7688888888888888,-0.18777777777777777,0.05126904677733343,0.07853981633974483,0.5955936072430649
1592288115.6927278,-3.814534242129179,8.648938656280428,1.6834079844206427,-0.03666666666666667,-0.7688888888888888,-0.18777777777777777,0.03694096143593483,0.09478650343717987,0.3632891366777462
1592288115.7027278,-3.61355046068138,8.72677523034069,1.78032569102207,-0.03666666666666667,-0.7688888888888888,-0.18777777777777777,0.028343836655285025,0.11445729555882515,0.16191369358448038
1592288115.7127278,-3.56,8.7,1.7,-0.03666666666666667,-0.7688888888888888,-0.18777777777777777,0.032724923474893676,0.1341721862470641,0.04581489286485115
1592288115.7227278,-3.9553290495477667,9.114613393428145,1.931412126564546,-0.03666666666666667,-0.7688888888888888,-0.18777777777777777,0.06743425075108492,0.16467432233826246,-0.11931736114611935
1592288115.7327278,-3.34,8.84,1.4,-0.06888888888888889,-0.7766666666666666,-0.18777777777777777,0.074176493209759,0.17453292519943295,-0.2683443724941282
1592288115.7427278,-3.4986197247444464,8.853459539717893,1.428299354691337,-0.06888888888888889,-0.7766666666666666,-0.18777777777777777,0.06599367384323684,0.2234411527776886,-0.4016652485091326
1592288115.7527277,-3.8047846651138473,8.921220468698008,1.3396368303465325,-0.06888888888888889,-0.7766666666666666,-0.18777777777777777,0.05664396936236149,0.21771609870698821,-0.5513665817374854
1592288115.7627277,-3.4794771662554087,8.654607874691557,1.364955476880163,-0.06888888888888889,-0.7766666666666666,-0.18777777777777777,0.037259031469370776,0.1946611190803097,-0.7072942424610441
1592288115.7727277,-3.8094653649465364,8.902099023709903,1.6799442119944212,-0.06888888888888889,-0.7766666666666666,-0.18777777777777777,0.023351436367374738,0.19629730673936804,-0.8390073490152419
1592288115.7827277,-3.65,8.4,1.69,-0.06222222222222222,-0.75,-0.17222222222222222,0.016362461737446838,0.1908953869368798,-1.0275625971116615
1592288115.7927277,-4.10126772218238,8.6141496110774,1.4751574998620842,-0.06222222222222222,-0.75,-0.17222222222222222,0.04845865458865635,0.21258316335774038,-1.1693551333145424
1592288115.8027277,-4.178195731838758,8.533069148044358,1.1475042513951763,-0.06222222222222222,-0.75,-0.17222222222222222,0.04301331460381998,0.23980986328192225,-1.28983475401836
1592288115.8127277,-4.758088338776321,8.487849087923786,1.3120036807823467,-0.06222222222222222,-0.75,-0.17222222222222222,0.037086239049535785,0.26179537268846204,-1.3720766700431293
1592288115.8227277,-4.939715461090161,8.177569420637642,1.3195714775454235,-0.06222222222222222,-0.75,-0.17222222222222222,0.03295864621711524,0.2535401870236209,-1.4331650439629533
1592288115.8327277,-4.79,7.87,1.5,-0.022222222222222223,-0.7744444444444445,-0.16444444444444445,-0.01090830782496456,0.20398535632683729,-1.473712387152712
1592288115.8427277,-5.353922816789337,7.76641251527466,1.5125814885333486,-0.022222222222222223,-0.7744444444444445,-0.16444444444444445,0.013037859737924831,0.1785515062471731,-1.4744274146564507
1592288115.8527277,-5.23,7.97,1.07,-0.022222222222222223,-0.7744444444444445,-0.16444444444444445,0.02945243112740431,0.12544553998709243,-1.471530725587719
1592288115.8627276,-5.430438049781074,7.716237229300619,1.579484438483689,-0.022222222222222223,-0.7744444444444445,-0.16444444444444445,0.015741143009039376,0.06851147517950529,-1.4616598279142514
1592288115.8727276,-5.173991952980159,8.030590509250128,1.3147658869472605,-0.022222222222222223,-0.7744444444444445,-0.16444444444444445,0.029276915417499258,0.04775662415320014,-1.4517335948147143
1592288115.8827276,-5.48,7.34,2.07,0.017777777777777778,-0.7555555555555555,-0.15777777777777777,-0.04036073895236887,0.0643590161672909,-1.4606224177627545
1592288115.8927276,-5.9213831610518985,7.5583934979379785,1.7613831610518986,0.017777777777777778,-0.7555555555555555,-0.15777777777777777,-0.00022022851666329574,0.10422026083574604,-1.4476486533123496
1592288115.9027276,-6.027755427917729,7.108187754712934,1.7094847350985487,0.017777777777777778,-0.7555555555555555,-0.15777777777777777,0.020885357768192052,0.07259693467206936,-1.457961075586502
1592288115.9127276,-6.348242134679527,7.220896060578744,1.5521887676913368,0.017777777777777778,-0.7555555555555555,-0.15777777777777777,0.05094522943605867,0.03641897820988528,-1.467550909178344
1592288115.9227276,-6.3406800685116735,6.880603083025331,1.7336783557198232,0.017777777777777778,-0.7555555555555555,-0.15777777777777777,0.05424480325812656,-0.004000801110446352,-1.4692006960893782
1592288115.9327276,-6.84,7.39,1.46,0.07555555555555556,-0.7622222222222222,-0.14333333333333334,0.11017390903214205,-0.0370882466048795,-1.4071717094204281
1592288115.9427276,-6.408571958139667,6.822381305426445,1.7608089765890103,0.07555555555555556,-0.7622222222222222,-0.14333333333333334,0.1327801631161427,-0.0773139264663818,-1.3213283441183248
1592288115.9527276,-6.772121183160511,7.035933005208582,1.5261881779519282,0.07555555555555556,-0.7622222222222222,-0.14333333333333334,0.17709820453781824,-0.0771532253498663,-1.207146928383898
1592288115.9627275,-6.977158243874603,7.076249509611612,1.6518174685259817,0.07555555555555556,-0.7622222222222222,-0.14333333333333334,0.17790874671552,-0.08736979176831416,-1.1177625810325151
1592288115.9727275,-6.550832233674525,6.82942918791683,1.2928060915153892,0.07555555555555556,-0.7622222222222222,-0.14333333333333334,0.19341039789235814,-0.10287144294515228,-1.0410702015260527
1592288115.9827275,-7.98,7.23,1.5,0.11555555555555555,-0.7622222222222222,-0.10777777777777778,0.18435040224190105,-0.08290313946973066,-0.9108437033845408
1592288115.9927275,-7.993962553191489,6.86797219858156,1.568755744680851,0.11555555555555555,-0.7622222222222222,-0.10777777777777778,0.21388329181000013,-0.12298741084165064,-0.7952356931589818
1592288116.0027275,-7.121138907490672,6.623156749258586,1.5243968238783125,0.11555555555555555,-0.7622222222222222,-0.10777777777777778,0.25850351976092256,-0.14287177827567993,-0.6752857199092543
1592288116.0127275,-7.895176619828259,6.757304839968774,1.4815612802498048,0.11555555555555555,-0.7622222222222222,-0.10777777777777778,0.22630481005409983,-0.15431806809897755,-0.5793619643026212
1592288116.0227275,-7.820141978922717,6.743662177985948,1.5907025761124123,0.11555555555555555,-0.7622222222222222,-0.10777777777777778,0.22332844292488768,-0.19003447364952308,-0.5027205107254089
1592288116.0327275,-7.798415777645752,6.428613643995558,1.6867326221166017,0.14222222222222222,-0.7822222222222223,-0.11555555555555555,0.2421320579084351,-0.23240091634804197,-0.3455775193461891
1592288116.0427275,-7.84,6.57,1.72,0.14222222222222222,-0.7822222222222223,-0.11555555555555555,0.22580197197676635,-0.2596177262341565,-0.23671027980173093
1592288116.0527275,-7.7020525837652976,6.547321648052156,1.5947309357131407,0.14222222222222222,-0.7822222222222223,-0.11555555555555555,0.2618041677983032,-0.28667415363939164,-0.07398739177982161
1592288116.0627275,-7.87,6.51,1.8,0.14222222222222222,-0.7822222222222223,-0.11555555555555555,0.27707101875409984,-0.29888763440402893,0.06544984694978735
1592288116.0727274,-7.108708156063455,6.464139045545991,1.4881455097127403,0.14222222222222222,-0.7822222222222223,-0.11555555555555555,0.2840747344707339,-0.2918839186873949,0.19351779148252518
1592288116.0827274,-7.71,6.33,1.86,0.16666666666666666,-0.75,-0.08666666666666667,0.2945243112740431,-0.284706834231575,0.30543261909900765
1592288116.0927274,-7.497768754107596,6.344501455262417,1.653864895314994,0.16666666666666666,-0.75,-0.08666666666666667,0.3052848842944117,-0.2923252902294114,0.36406362148034
1592288116.1027274,-7.6020651743002885,6.70907603668367,1.4124547400692442,0.16666666666666666,-0.75,-0.08666666666666667,0.28568897690322725,-0.27418288446861966,0.41521032104697686
1592288116.1127274,-7.309084968626354,6.331549498421325,1.5985206426601655,0.16666666666666666,-0.75,-0.08666666666666667,0.27930641314109933,-0.25548481118879934,0.5031496548188612
1592288116.1227274,-7.652728907717517,6.482417569241837,1.2381135845889453,0.16666666666666666,-0.75,-0.08666666666666667,0.24913496492084009,-0.21891335880060636,0.5890925679311146
1592288116.1327274,-7.044979714605485,6.434547892184294,1.8883400951315052,0.14,-0.75,-0.07222222222222222,0.21072318468421314,-0.19553841222399845,0.6765785855886407
1592288116.1427274,-7.403602186987425,6.569670420995079,1.678511098961181,0.14,-0.75,-0.07222222222222222,0.2298789475532846,-0.17329828844740366,0.7429462738038435
1592288116.1527274,-7.204577197273248,6.472072644013114,1.062968725607535,0.14,-0.75,-0.07222222222222222,0.2174262397979413,-0.13932605942689266,0.7954146544755845
1592288116.1627274,-7.298308262480925,6.061411498900053,1.388028023861902,0.14,-0.75,-0.07222222222222222,0.1745946258763112,-0.16044439499506463,0.8326729669171383
1592288116.1727273,-7.1154305646391975,6.410541649325168,1.3714027786035636,0.14,-0.75,-0.07222222222222222,0.20270438628255244,-0.1704188261069567,0.8725706913647066
1592288116.1827273,-7.04,6.77,1.16,0.11333333333333333,-0.75,-0.07222222222222222,0.21707532571679475,-0.1810779098944117,0.9697485656393494
1592288116.1927273,-7.098943586333879,7.0584513093289685,0.9754222074468085,0.11333333333333333,-0.75,-0.07222222222222222,0.2856440158745975,-0.1887521376567554,1.08427834966781
1592288116.2027273,-6.9703285891680205,7.228586302416659,0.9255086445696818,0.11333333333333333,-0.75,-0.07222222222222222,0.2763824897818258,-0.18925544179544204,1.1799938256581173
1592288116.2127273,-6.161378627572551,6.70912498249965,1.5743014860297206,0.11333333333333333,-0.75,-0.07222222222222222,0.22826596801157442,-0.1826684384357093,1.2362850463031938
1592288116.2227273,-6.958311566231325,6.994343086861737,1.3226384527690553,0.11333333333333333,-0.75,-0.07222222222222222,0.1989836444385437,-0.1661971314258795,1.2399453367498225
1592288116.2327273,-6.27,6.73,1.56,0.09333333333333334,-0.75,-0.042222222222222223,0.12544553998709243,-0.2159844949342983,1.1835513990086546
1592288116.2427273,-6.433611312545323,6.92087986463621,1.3600306180001613,0.09333333333333334,-0.75,-0.042222222222222223,0.09173411383693164,-0.1703749183781984,1.1488484603246656
1592288116.2527273,-6.488336544637122,6.87547991151074,1.816630985513452,0.09333333333333334,-0.75,-0.042222222222222223,0.07247162737321759,-0.12679917279069128,1.1372317643473497
1592288116.2627273,-6.081394899767085,7.076581530069874,1.657092349650628,0.09333333333333334,-0.75,-0.042222222222222223,0.06324032449864504,-0.09920987943487869,1.1001853518927456
1592288116.2727273,-6.24838870861784,7.026483387414648,1.9075830629267614,0.09333333333333334,-0.75,-0.042222222222222223,0.046845745652379055,-0.0664207217423467,1.077415103495154
1592288116.2827272,-6.09,7.23,1.68,0.035555555555555556,-0.75,-0.042222222222222223,0.06326818538479445,-0.07744898555724837,1.0122909661567112
1592288116.2927272,-6.268793068380589,7.201769515518855,1.5388475775942725,0.035555555555555556,-0.75,-0.042222222222222223,0.08379797303600912,-0.08052845370493057,0.9476221350553848
1592288116.3027272,-6.206362127843779,7.303243951709874,1.2553227357991439,0.035555555555555556,-0.75,-0.042222222222222223,0.11976462590713627,-0.08198237881283962,0.8755677280255658
1592288116.3127272,-6.14,7.18,1.17,0.035555555555555556,-0.75,-0.042222222222222223,0.11562806294462433,-0.08508480103472357,0.8290313946973066
1592288116.3227272,-6.226374273007185,7.666836811495039,1.2092610331850837,0.035555555555555556,-0.75,-0.042222222222222223,0.0736574622647381,-0.09793294409999487,0.8084743657928724
1592288116.3327272,-5.22,7.56,2.05,-0.0044444444444444444,-0.7355555555555555,-0.013333333333333334,0.001090830782496456,-0.12217304763960307,0.7941248096574199
1592288116.3427272,-5.824027573602447,7.840128729786642,1.74360920179586,-0.0044444444444444444,-0.7355555555555555,-0.013333333333333334,-0.00272883223641481,-0.0381404612235552,0.8571492494694559
1592288116.3527272,-5.032049641637404,8.27353215642888,1.3519255375438934,-0.0044444444444444444,-0.7355555555555555,-0.013333333333333334,-0.026696678476197836,0.037180386623834896,0.9052671333762594
1592288116.3627272,-5.32,7.88,0.92,-0.0044444444444444444,-0.7355555555555555,-0.013333333333333334,0.01308996938995747,0.06544984694978735,0.9544769346843989
1592288116.3727272,-5.213620258667536,8.156587327464406,1.2462312067528891,-0.0044444444444444444,-0.7355555555555555,-0.013333333333333334,-0.013986566455250359,0.10026253589362599,1.00244108389591
1592288116.3827271,-4.73,8.33,2.03,-0.03666666666666667,-0.7288888888888889,0.006666666666666667,-0.06544984694978735,0.11235557059713495,1.0461067204141012
1592288116.3927271,-4.4920585632692465,8.321187354195157,1.1663607111254124,-0.03666666666666667,-0.7288888888888889,0.006666666666666667,-0.12120585780091944,0.14023357602270098,1.0461067204141012
1592288116.4027271,-5.190769564902628,8.290380800694997,1.7372431767175849,-0.03666666666666667,-0.7288888888888889,0.006666666666666667,-0.12391855062849173,0.11812126634969171,1.0306689338111112
1592288116.412727,-4.2,8.31,1.08,-0.03666666666666667,-0.7288888888888889,0.006666666666666667,-0.10144726277217041,0.1341721862470641,1.0221084431991792
1592288116.422727,-4.141130662673156,8.08188131785848,1.2418906776488208,-0.03666666666666667,-0.7288888888888889,0.006666666666666667,-0.08378772931431594,0.11731535885547573,1.0261219735305098
1592288116.432727,-5.31,8.63,1.31,-0.06333333333333334,-0.7177777777777777,-0.006666666666666667,-0.020725784867432664,0.11671889372712078,1.0657416744990376
1592288116.442727,-4.0708513988131285,8.15269831657987,1.2824633644180696,-0.06333333333333334,-0.7177777777777777,-0.006666666666666667,0.018323367793471414,0.09469116658507233,1.0837643603425315
1592288116.452727,-4.289834706604222,8.37986475994891,0.990145257832653,-0.06333333333333334,-0.7177777777777777,-0.006666666666666667,0.04253201919808636,0.08399834133402728,1.0799252065976164
1592288116.462727,-4.407528398754902,8.771761329183006,0.9273181873307192,-0.06333333333333334,-0.7177777777777777,-0.006666666666666667,0.06390966638058924,0.040404747891243084,1.075649021498846
1592288116.472727,-4.213744119790632,8.77495262704565,0.5625356125356125,-0.06333333333333334,-0.7177777777777777,-0.006666666666666667,0.03279213825179169,-0.01482960345440388,1.066535242510156
1592288116.482727,-4.04,8.53,1.46,-0.1111111111111111,-0.7244444444444444,-0.006666666666666667,-0.062177354602297986,-0.08290313946973066,1.048288381979094
1592288116.492727,-3.8990057998436924,8.405593352803258,1.6756381884743532,-0.1111111111111111,-0.7244444444444444,-0.006666666666666667,-0.055844379921193454,-0.08923611415083518,1.084476808728263
1592288116.502727,-3.638330183378454,9.094315267916432,1.2277016396792153,-0.1111111111111111,-0.7244444444444444,-0.006666666666666667,-0.10403108356343231,-0.027360813110683044,1.1361463125645184
1592288116.512727,-3.5716381013832317,8.799009557607775,1.2610666612896722,-0.1111111111111111,-0.7244444444444444,-0.006666666666666667,-0.10501479895795487,-0.04657535549085495,1.143307014753213
1592288116.522727,-3.1308685496777544,8.817170292832735,1.0666239889268567,-0.1111111111111111,-0.7244444444444444,-0.006666666666666667,-0.14462097588392653,-0.042072407635989434,1.11461513061549
1592288116.532727,-3.58,8.69,1.64,-0.13111111111111112,-0.6844444444444444,-0.006666666666666667,-0.20071286397934787,-0.10799224746714915,1.0417433972841155
1592288116.542727,-3.198779324055666,8.668421471172962,1.0214155069582505,-0.13111111111111112,-0.6844444444444444,-0.006666666666666667,-0.2109128908230732,-0.08759219377969853,1.0362510751374943
1592288116.552727,-3.9219802195413545,8.77373655037496,1.5951119443538744,-0.13111111111111112,-0.6844444444444444,-0.006666666666666667,-0.21696145298920125,-0.13132536805722644,0.9927518050586521
1592288116.562727,-3.7875886967160026,9.173624391297047,1.7360059490968407,-0.13111111111111112,-0.6844444444444444,-0.006666666666666667,-0.21288627593368986,-0.16349553472879816,0.9307803910975376
1592288116.572727,-3.4420157332078265,9.033078733275062,1.5770432999394877,-0.13111111111111112,-0.6844444444444444,-0.006666666666666667,-0.20415327517821397,-0.1706407209782998,0.923688450376779
1592288116.582727,-3.386707624255084,8.679938563617375,1.581138416170056,-0.1578666557446431,-0.6844444444444444,0.02008887796686531,-0.1793359448806235,-0.21797482382840422,0.9236920105639138
1592288116.592727,-3.615486706791147,9.175294298848396,1.6930588597696792,-0.16,-0.6844444444444444,0.022222222222222223,-0.16962943379086765,-0.23063663057234204,0.9443736321646348
1592288116.602727,-3.81731074604802,9.453503969862426,1.653172313487995,-0.16,-0.6844444444444444,0.022222222222222223,-0.15477606834924174,-0.257818288487851,0.9028421796113004
1592288116.612727,-2.8473650982727814,9.04887075640262,1.7155089934484813,-0.16,-0.6844444444444444,0.022222222222222223,-0.13645275673303808,-0.2922848012439677,0.826434476787501
1592288116.622727,-3.198047337278106,9.213540433925049,1.9290236686390532,-0.16,-0.6844444444444444,0.022222222222222223,-0.14961916771241576,-0.31056942086076367,0.7538372230652185
1592288116.632727,-3.025317351455826,9.44110605399339,1.7238350271213916,-0.21175430028195164,-0.6717699219264155,0.022222222222222223,-0.09988667899916936,-0.31213930029535086,0.6853933150308255
1592288116.642727,-2.3580266343825667,9.109525020177562,1.5796053268765133,-0.21444444444444444,-0.6711111111111111,0.022222222222222223,-0.11920993215810986,-0.2693060467989876,0.6480906530320417
1592288116.652727,-3.255941101815639,9.434738532466524,1.6209477064933047,-0.21444444444444444,-0.6711111111111111,0.022222222222222223,-0.13159554386569933,-0.23223894439270437,0.6060930336392361
1592288116.6627269,-2.0351917827898287,8.918459991380548,1.8785504956184456,-0.21444444444444444,-0.6711111111111111,0.022222222222222223,-0.12295297362789281,-0.22313608873128013,0.5821418035941239
1592288116.6727269,-2.496969263759828,9.011619728377413,1.7006833452466048,-0.21444444444444444,-0.6711111111111111,0.022222222222222223,-0.1124463302133484,-0.2082254834141966,0.591765173260179
1592288116.6827269,-2.949808523023192,9.385670169418828,2.371071658343801,-0.21444444444444444,-0.6603874132396542,0.033920801718356944,-0.07300211483508581,-0.21918590499036367,0.5456704119185882
1592288116.6927269,-1.775999571917808,8.986883561643836,1.7230229737442921,-0.21444444444444444,-0.6588888888888889,0.035555555555555556,-0.08053375788138005,-0.2195766249832512,0.45903678521006397
1592288116.7027268,-2.360058873002523,9.4302787456446,2.068289478953903,-0.21444444444444444,-0.6588888888888889,0.035555555555555556,-0.07935340685848533,-0.20450357630929442,0.49231444425976706
1592288116.7127268,-3.1484408602150538,10.108051075268817,2.212653609831029,-0.21444444444444444,-0.6588888888888889,0.035555555555555556,-0.004064014914128028,-0.02308401523996098,0.6565967688026066
1592288116.7227268,-2.638933281692725,9.117441343742993,2.3587243410726297,-0.21444444444444444,-0.6588888888888889,0.035555555555555556,0.004665020992817059,-0.004015240999623194,0.6227248237551278
1592288116.7327268,-2.599080665355035,9.084469683419783,2.928628152387766,-0.25049663149108686,-0.6403756036487211,0.022888570917546057,-0.046470640004892386,-0.04685636213993004,0.5314845202892202
1592288116.7427268,-2.7059808265528074,8.979533553532587,2.510984048980907,-0.25555555555555554,-0.6377777777777778,0.021111111111111112,0.011616473446550618,-0.04004987019436668,0.5073485341870623
1592288116.7527268,-2.8299147820386756,9.09957391019338,1.7489156560690484,-0.25555555555555554,-0.6377777777777778,0.021111111111111112,0.11572775484340705,-0.07210381938109223,0.40539701701689945
1592288116.7627268,-2.616221922947429,9.244675340291472,1.6886068491174064,-0.25555555555555554,-0.6377777777777778,0.021111111111111112,0.19022699009432226,-0.10888732577744635,0.33466867842385245
1592288116.7727268,-2.5302107123436652,9.225147498640565,1.3315171288743883,-0.25555555555555554,-0.6377777777777778,0.021111111111111112,0.22135130527270627,-0.10964458324664435,0.30171814454009493
1592288116.7827268,-2.7547118301314457,9.455850158191723,1.7764121465148897,-0.2378322116761074,-0.6377777777777778,0.04572686649923351,0.22186460618811746,-0.1135438535311451,0.21713819462943607
1592288116.7927268,-3.0127927675099224,9.57794451349076,1.3054291785270418,-0.23555555555555555,-0.6377777777777778,0.04888888888888889,0.18855856089222134,-0.10622307501495366,0.20560220694062376
1592288116.8027267,-2.9133721630323812,8.98601293159865,1.6616051935813199,-0.23555555555555555,-0.6377777777777778,0.04888888888888889,0.15967291503267364,-0.13738042977225515,0.1568402844001544
1592288116.8127267,-2.715998179684319,9.222710593758233,1.540467054681325,-0.23555555555555555,-0.6377777777777778,0.04888888888888889,0.18219471097217776,-0.16725672254297477,0.11122578437173408
1592288116.8227267,-2.4671489121220684,9.314761231986436,1.3785744560610342,-0.23555555555555555,-0.6377777777777778,0.04888888888888889,0.1923842985206179,-0.20277246592584164,0.10201872371332565
1592288116.8327267,-2.4168482080112437,9.438949402670415,1.4383303520091995,-0.23196164029614486,-0.620706680295577,0.06056911348197364,0.16807592196889565,-0.2502648261680835,0.11228804264541714
1592288116.8427267,-2.310720157035947,9.381002739950109,1.3489334641966222,-0.2311111111111111,-0.6166666666666667,0.06333333333333334,0.16035212502697901,-0.25089107997418486,0.11562806294462433
1592288116.8527267,-2.3646468067636572,9.504646806763658,1.0954938034023556,-0.2311111111111111,-0.6166666666666667,0.06333333333333334,0.11393831503786597,-0.18783835697010676,0.2067042183949594
1592288116.8627267,-2.3856118744215844,9.20043686670938,1.1738112526992714,-0.2311111111111111,-0.6166666666666667,0.06333333333333334,0.052878566419127575,-0.12978595466112064,0.27696043691924005
1592288116.8727267,-2.6009427582953295,9.106609529800282,1.1330476490014154,-0.2311111111111111,-0.6166666666666667,0.06333333333333334,0.019541464105936275,-0.10976667011444326,0.3412939169427917
1592288116.8827267,-2.124195804195804,10.293040252430496,2.100153505031554,-0.23746129209543843,-0.6166666666666667,0.06333333333333334,0.008726646259971648,-0.06030054144888967,0.49930904581288715
1592288116.8927267,-1.7868254995147925,8.849366990967678,1.73809599641693,-0.24,-0.6166666666666667,0.06333333333333334,0.12213830521253109,0.09078122909099055,0.8679546928720937
1592288116.9027267,-1.6632744867894698,8.221032649052626,2.6442829424868854,-0.24,-0.6166666666666667,0.06333333333333334,0.39342190374428904,0.26436857688313065,1.1831174392597936
1592288116.9127266,-1.8810590573537762,8.672118114707551,2.2603662691652473,-0.24,-0.6166666666666667,0.06333333333333334,0.4453643423225919,0.29735111779075096,1.290437639455845
1592288116.9227266,-1.9249876505431576,9.734818692487595,1.2781355598784727,-0.24,-0.6166666666666667,0.06333333333333334,0.5374521429466391,0.3045346048350146,1.3861580468920076
1592288116.9327266,-2.2769403686068737,9.743491076345027,1.7840524082531661,-0.26543106705967456,-0.6014080264308619,0.07435346239252566,0.5038790580291788,0.33393060420796294,1.3615119277250507
1592288116.9427266,-2.152022525952944,9.773840634895187,1.652022525952944,-0.2733333333333333,-0.5966666666666667,0.07777777777777778,0.4659273666764899,0.3271478424452529,1.3262106763488581
1592288116.9527266,-1.737798801889531,9.743396405668593,0.9842501253529676,-0.2733333333333333,-0.5966666666666667,0.07777777777777778,0.43293145883072637,0.32199794375372826,1.2468402247668966
1592288116.9627266,-1.8138205447033813,9.74081946171433,0.7549059403954916,-0.2733333333333333,-0.5966666666666667,0.07777777777777778,0.40855539725302875,0.31762987578368757,1.2012221488704218
1592288116.9727266,-1.820481001107997,9.8490664581025,0.7925316648200048,-0.2733333333333333,-0.5966666666666667,0.07777777777777778,0.32753471015804736,0.2605866979303466,1.11044571111894
1592288116.9827266,-1.4218509386198508,10.108519249104118,0.7214807508958806,-0.2882407864023408,-0.5859001727834946,0.09351342268395232,0.21452478209805692,0.17785071193092775,1.0050993440603058
1592288116.9927266,-1.0811881188118813,10.222778101339545,0.5838089691322074,-0.29333333333333333,-0.5822222222222222,0.09888888888888889,0.13872546767871935,0.1434960258300099,0.9392828117990261
1592288117.0027266,-0.7214880485645631,9.950208169975971,0.7265278866826863,-0.29333333333333333,-0.5822222222222222,0.09888888888888889,0.014744577720923635,0.09217085545639397,0.8150583310864161
1592288117.0127265,-0.6524008480026678,10.103194063981324,0.7699206784021343,-0.29333333333333333,-0.5822222222222222,0.09888888888888889,-0.018570081234640365,0.054472317972287826,0.7342612188496522
1592288117.0227265,-0.7488786271450858,10.201834633385335,0.8310078003120125,-0.29333333333333333,-0.5822222222222222,0.09888888888888889,-0.02233299894578048,0.04065105990633751,0.7011843252246306
1592288117.0327265,-1.3503347774714456,11.21004726270185,1.4855691217014573,-0.31002231849809636,-0.5627517395299987,0.11696862281738217,-0.013758044170100042,-0.0012609642956388778,0.604120905144203
1592288117.0427265,-0.8295284641851737,11.340678761338754,1.283658116984673,-0.32,-0.5511111111111111,0.12777777777777777,0.0004054362456369764,-0.0370399661683067,0.4683590467679135
1592288117.0527265,-0.20734942426926478,9.317393157661648,0.8609200620017715,-0.32,-0.5511111111111111,0.12777777777777777,-0.005390234272132827,-0.02552579659372181,0.04521570284938828
1592288117.0627265,-0.32972341589186654,9.057722478318619,1.04,-0.32,-0.5511111111111111,0.12777777777777777,0.012190389820518448,-0.030083372629304557,-0.032271852419361896
1592288117.0727265,-0.07700192625206385,9.717001926252063,0.9794984865162356,-0.32,-0.5511111111111111,0.12777777777777777,0.09157567944226559,-0.08753909525194609,0.010417448981520055
1592288117.0827265,-0.24531945012425682,9.765957406650099,0.7965953631759414,-0.3309220170499229,-0.5534515433360946,0.1090543199779099,0.09968334866529545,-0.08661661034393876,0.013971926443394947
1592288117.0927265,-0.24506463728009487,9.77497845423997,0.8148922711998419,-0.33555555555555555,-0.5544444444444444,0.10111111111111111,0.08278735055290903,-0.08073087901604765,0.015680104928929683
1592288117.1027265,-0.3584106756431835,9.848847212203788,0.9818690390318185,-0.33555555555555555,-0.5544444444444444,0.10111111111111111,0.039874847000869754,-0.05687275970709475,0.014840060517131728
1592288117.1127264,-0.4521199602780536,9.815460178748758,1.0181799404170804,-0.33555555555555555,-0.5544444444444444,0.10111111111111111,0.024362638527732863,-0.05027748484578829,0.016163924035544206
1592288117.1227264,-0.36853148131225444,9.695573425934386,0.9652517591154163,-0.33555555555555555,-0.5544444444444444,0.10111111111111111,0.008851748392113935,-0.03583722528345663,0.024981550068668264
1592288117.1327264,-0.5464593108162694,9.714024174253488,1.0372538296616227,-0.33555555555555555,-0.5419785117746774,0.11123968140529679,-0.010834824273510305,-0.0055276374639365335,0.027596700296167915
1592288117.1427264,-0.6297994967123954,9.72,1.0735745596233461,-0.33555555555555555,-0.5366666666666666,0.11555555555555555,-0.024988295362799423,0.004507878796227034,0.028506156011149066
1592288117.1527264,-0.600729794307085,9.699270205692915,1.03,-0.33555555555555555,-0.5366666666666666,0.11555555555555555,-0.042860833355385375,0.01257503742697556,0.03280453168439958
1592288117.1627264,-0.6241805309734513,9.73963185840708,0.966187610619469,-0.33555555555555555,-0.5366666666666666,0.11555555555555555,-0.04767915163224686,0.01836534289454741,0.036909466196987165
1592288117.1727264,-0.5864362850971923,9.742061999745902,0.998939143692034,-0.33555555555555555,-0.5366666666666666,0.11555555555555555,-0.04939422034795824,0.02047355363580472,0.04041534285635866
1592288117.1827264,-0.43820288832024473,9.739043501279449,1.17,-0.33192270360892967,-0.5402995186132925,0.11131722828449203,-0.048100892254623565,0.03301265459808637,0.04690572364734761
1592288117.1927264,-0.4839269797361084,9.710261476651517,1.2164923488989878,-0.3288888888888889,-0.5433333333333333,0.10777777777777778,-0.04236534916661871,0.061103742800078055,0.04310207724762902
1592288117.2027264,-0.5573884816252216,9.66,1.1568791624742465,-0.3288888888888889,-0.5433333333333333,0.10777777777777778,-0.03009861417466582,0.08781532750616018,0.03916569099866366
1592288117.2127264,-0.6565005211788116,9.649071354117313,1.1182502605894058,-0.3288888888888889,-0.5433333333333333,0.10777777777777778,-0.011784807362553747,0.10771181309655188,0.035198751552416314
1592288117.2227263,-0.7608914798206278,9.662717488789237,1.1454565022421523,-0.3288888888888889,-0.5433333333333333,0.10777777777777778,0.003566576413156125,0.12405358120921266,0.031238067310554563
1592288117.2327263,-0.8051393292174204,9.68027865843484,1.125417987652261,-0.33212933607727535,-0.5363123644251627,0.11155829949756196,0.015741054046566994,0.1368232709036736,0.02945243112740431
1592288117.2427263,-0.7687059350609541,9.67,1.0849647480487634,-0.33555555555555555,-0.5288888888888889,0.11555555555555555,0.019226853889338837,0.14167453192024362,0.03286608406189975
1592288117.2527263,-0.8124394862864606,9.675676316935133,1.0245894645189377,-0.33555555555555555,-0.5288888888888889,0.11555555555555555,0.020254144209341084,0.14413721275584548,0.03490658503988659
1592288117.2627263,-0.7749030470914127,9.701274238227146,1.048504155124654,-0.33555555555555555,-0.5288888888888889,0.11555555555555555,0.020725784867432664,0.13985901043725335,0.032005760798344766
1592288117.2727263,-0.7404703682393555,9.703811852704257,1.1404703682393555,-0.33555555555555555,-0.5288888888888889,0.11555555555555555,0.022491637805610903,0.12555082586958022,0.027686578189226072
1592288117.2827263,-0.7854177841964102,9.698227769754487,1.1817722302455127,-0.33353024780505697,-0.5317243197395869,0.11798592485615386,0.02866812221941996,0.10649272085196987,0.02310076676297322
1592288117.2927263,-0.9303111966634585,9.669174572620195,1.1804127136899032,-0.33,-0.5366666666666666,0.12222222222222222,0.03822409746710638,0.09220324805568542,0.018307949114048292
1592288117.3027263,-0.9272416218546502,9.680741270165408,1.0928795407619176,-0.33,-0.5366666666666666,0.12222222222222222,0.05081576529092134,0.07236725309972092,0.01806829406926991
1592288117.3127263,-0.8073153654325724,9.741789756378285,0.9773153654325724,-0.33,-0.5366666666666666,0.12222222222222222,0.05831063882979533,0.04632855426199928,0.015573006177373271
1592288117.3227262,-0.7635327451402338,9.768233627429883,0.9458831862850584,-0.33,-0.5366666666666666,0.12222222222222222,0.054221433771462706,0.027272314925581492,0.01264089467735129
1592288117.3327262,-0.7325964343598055,9.757789303079416,0.9770178282009724,-0.3328791644156312,-0.5337875022510354,0.1279805510534846,0.04383796096697832,0.012324443087168225,0.009576327417293846
1592288117.3427262,-0.7145301975540922,9.717265098777046,1.045469802445908,-0.3377777777777778,-0.5288888888888889,0.13777777777777778,0.034309922151669524,0.004409993858102417,0.005379571051455146
1592288117.3527262,-0.5887904318144878,9.684655415289592,1.106033754131224,-0.3377777777777778,-0.5288888888888889,0.13777777777777778,0.028211246901191596,-0.008801822981829776,0.0048711501603049875
1592288117.3627262,-0.5145818198644241,9.69,1.1311151470282026,-0.3377777777777778,-0.5288888888888889,0.13777777777777778,0.040073816361012364,-0.003711469527017474,0.006575395612613056
1592288117.3727262,-0.4840842393370334,9.686021059834259,1.19387364099445,-0.3377777777777778,-0.5288888888888889,0.13777777777777778,0.05516387579264408,0.007378595704654332,0.008503885560375702
1592288117.3827262,-0.42593096581480255,9.6913563447284,1.1997164140576022,-0.34240443674119964,-0.5263652567270224,0.13188930273342264,0.07014001302360118,0.028041475280663773,0.01105626208310602
1592288117.3927262,-0.3702915986137115,9.710388798151616,1.14873640600725,-0.35,-0.5222222222222223,0.12222222222222222,0.07968366124623626,0.04394071321902905,0.013100572214756464
1592288117.4027262,-0.4044029793046571,9.75,0.9715672276487719,-0.35,-0.5222222222222223,0.12222222222222222,0.08556509157074504,0.08631400632074951,0.016101962316539847
1592288117.4127262,-0.41,9.754752796315444,0.91,-0.35,-0.5222222222222223,0.12222222222222222,0.08462028286007367,0.11279922364684472,0.019062572954821867
1592288117.4227262,-0.39946575955599317,9.745954346074658,0.9661826157013697,-0.35,-0.5222222222222223,0.12222222222222222,0.08175403209507648,0.13266494343441115,0.01848584671028203
1592288117.4327261,-0.39873959094229366,9.722082176771366,1.065835646457268,-0.34444752860969075,-0.5252298108919731,0.12546116386656928,0.08190194963904636,0.14557957505129573,0.015453940730724808
1592288117.4427261,-0.43341955282770717,9.740451556334941,1.0395484436650593,-0.3233333333333333,-0.5366666666666666,0.13777777777777778,0.0928191308222357,0.1544756986107947,0.013709270513733407
1592288117.4527261,-0.4145495144835498,9.748614331953947,1.018221821608555,-0.3233333333333333,-0.5366666666666666,0.13777777777777778,0.095129007481035,0.1568529032756463,0.014818172147263694
1592288117.462726,-0.5733011237563524,9.762111516713192,0.8278884832868084,-0.3233333333333333,-0.5366666666666666,0.13777777777777778,0.09817477042468103,0.1412970578665007,0.008726646259971648
1592288117.472726,-0.5680265685306526,9.810370882326541,0.7761721568979445,-0.3233333333333333,-0.5366666666666666,0.13777777777777778,0.09364961935130502,0.10843576647608483,0.009480838105534318
1592288117.482726,-0.5957890502279606,9.827894716677521,0.7563158499674342,-0.3273099796091252,-0.538070188881652,0.13590641482446394,0.08026213454124904,0.062464303154178016,0.010449006254157463
1592288117.492726,-0.4924132215288612,9.773190083853354,0.7852011017940718,-0.3422222222222222,-0.5433333333333333,0.1288888888888889,0.05196501511053015,0.0015235574828266867,0.0047551809020619324
1592288117.502726,-0.5696973183467564,9.754621647933446,0.7112107266129746,-0.3422222222222222,-0.5433333333333333,0.1288888888888889,0.03931943433957068,-0.031369953120673144,0.0016279918121283065
1592288117.512726,-0.4633495191849948,9.843325240407502,0.5847676854232124,-0.3422222222222222,-0.5433333333333333,0.1288888888888889,0.032543559745108426,-0.06882370565390973,0.0031684775870713727
1592288117.522726,-0.333365418517735,9.883282913757846,0.633475424864255,-0.3422222222222222,-0.5433333333333333,0.1288888888888889,0.01270485943208648,-0.09381294727355838,-5.999915452699345e-06
1592288117.532726,-0.38,9.79422052509594,0.8636692123560925,-0.33801436224780573,-0.5422813683397292,0.1288888888888889,-0.022158798063405722,-0.09409970779442023,-0.008898773629541456
1592288117.542726,-0.36375961459502365,9.720826923603319,1.0170673090082938,-0.31555555555555553,-0.5366666666666666,0.1288888888888889,-0.042042086812177144,-0.07277414578330269,-0.0074554087332208575
1592288117.552726,-0.35285954988566615,9.729523408352389,1.0361872668191119,-0.31555555555555553,-0.5366666666666666,0.1288888888888889,-0.04212649584544594,-0.06202047136904691,-0.005246201576524356
1592288117.562726,-0.41,9.72,1.0033864731740905,-0.31555555555555553,-0.5366666666666666,0.1288888888888889,-0.029083024209164685,-0.02709692761418133,0.00048674590024536005
1592288117.572726,-0.42941288700026015,9.716117422599948,1.0655303096002082,-0.31555555555555553,-0.5366666666666666,0.1288888888888889,-0.01849247178849967,-0.00831551534498339,0.003028708553673275
1592288117.582726,-0.47770437435744373,9.71,1.0988521871787218,-0.3204734373215121,-0.5349454080485818,0.12692173618250624,-0.006196387692354258,0.006535976740054131,0.005570352913357106
1592288117.592726,-0.5235247401061884,9.71,1.125881185026547,-0.3377777777777778,-0.5288888888888889,0.12,0.012835086919608392,0.015528679220588853,0.016556872283142735
1592288117.602726,-0.42891254752851715,9.721847908745248,1.0094195183776933,-0.3377777777777778,-0.5288888888888889,0.12,0.026124636839103967,0.015730084044273354,0.02876475149341985
1592288117.612726,-0.32,9.74842485549133,0.8484248554913295,-0.3377777777777778,-0.5288888888888889,0.12,0.03456294181649897,0.014468483146161445,0.030886905133288376
1592288117.622726,-0.32607659665133787,9.766076596651338,0.8721531933026757,-0.3377777777777778,-0.5288888888888889,0.12,0.035099685000851234,0.020671011879508087,0.027367319542893717
1592288117.632726,-0.3379572624028691,9.777957262402868,0.9081709503885236,-0.336983379823338,-0.5296832868433287,0.12079439795443979,0.030320433804749445,0.03143457433050606,0.024420623681964515
1592288117.642726,-0.328589448441247,9.76,0.9499369304556355,-0.33,-0.5366666666666666,0.12777777777777777,0.02976704555956462,0.04020687164631026,0.017138678087782987
1592288117.652726,-0.3315621150493899,9.75156211504939,0.8720295177222545,-0.33,-0.5366666666666666,0.12777777777777777,0.03117387746023277,0.039610708806207505,0.0120501243297992
1592288117.662726,-0.33587906976744186,9.743969767441861,0.8398488372093023,-0.33,-0.5366666666666666,0.12777777777777777,0.030110227457407407,0.039253418867346304,0.0054706432150083886
1592288117.672726,-0.36863762226697355,9.741362377733026,0.8959128668009206,-0.33,-0.5366666666666666,0.12777777777777777,0.03008057674449708,0.04285647332590817,0.0006112975222609869
1592288117.682726,-0.39463899131675984,9.722783394790056,0.9572166052099441,-0.33113397565520797,-0.5372851988422346,0.12581909255514584,0.03173529978295833,0.043228402937613805,-0.0031712852569282597
1592288117.692726,-0.44,9.75,0.93,-0.3422222222222222,-0.5433333333333333,0.10666666666666667,0.032724923474893676,0.039269908169872414,-0.002181661564992912
1592288117.702726,-0.4383057803800012,9.764677687848,0.8655619654440044,-0.3422222222222222,-0.5433333333333333,0.10666666666666667,0.032284984488737886,0.03151959960441176,-0.005199025617706904
1592288117.7127259,-0.41086104978277904,9.78,0.727240699855186,-0.3422222222222222,-0.5433333333333333,0.10666666666666667,0.02411141824686959,0.023603358300479306,-0.0035734853011003716
1592288117.7227259,-0.43,9.788087367178276,0.7507831562377016,-0.3422222222222222,-0.5433333333333333,0.10666666666666667,0.014721278706559805,0.022613381463511734,-0.00188759659607907
1592288117.7327259,-0.43,9.80959645490538,0.7828248156623443,-0.34145997037682774,-0.5430643032702529,0.10720472679282748,0.0038791037775144574,0.02186063559106288,-0.001090830782496456
1592288117.7427258,-0.4339978881219738,9.788006335634078,0.85,-0.3233333333333333,-0.5366666666666666,0.12,-0.011124631020215995,0.022035242546740375,-0.00021862689681125533
1592288117.7527258,-0.44,9.77,0.85,-0.3233333333333333,-0.5366666666666666,0.12,-0.016362461737446838,0.020725784867432664,0.001090830782496456
1592288117.7627258,-0.44704101683953934,9.753119418948835,0.78,-0.3233333333333333,-0.5366666666666666,0.12,-0.02399827721492203,0.012069141926089995,0.0021641607353356674
1592288117.7727258,-0.3842884210526316,9.78,0.8088045614035088,-0.3233333333333333,-0.5366666666666666,0.12,-0.02628343374257706,0.0007016912538774572,0.002935100300201429
1592288117.7827258,-0.34013789473684214,9.78,0.8897471929824562,-0.3233333333333333,-0.5366666666666666,0.12,-0.03270486749840146,-0.006522421721424993,-0.001078295797188821
1592288117.7927258,-0.41,9.75,0.96,-0.33,-0.5433333333333333,0.12,-0.04036073895236887,-0.009817477042468103,-0.00545415391248228
1592288117.8027258,-0.4116459146048202,9.767215304868273,0.9321530486827339,-0.33,-0.5433333333333333,0.12,-0.04363323129985824,-0.013214191075283177,-0.006544984694978735
1592288117.8127258,-0.4108049578720145,9.746130028085323,0.9016099157440289,-0.33,-0.5433333333333333,0.12,-0.04438972091570275,-0.013714748081991046,-0.006923229502900991
1592288117.8227258,-0.4574220094664372,9.72247400315548,0.9874220094664372,-0.33,-0.5433333333333333,0.12,-0.044735405345655184,-0.008456774380172656,-0.007365943597676199
1592288117.8327258,-0.47998171256454386,9.729993904188182,1.0099817125645438,-0.33,-0.5433333333333333,0.12,-0.041454229534535786,-0.007636480427392807,-0.0065456496448963505
1592288117.8427258,-0.466181822726591,9.742363645453182,1.003818177273409,-0.31555555555555553,-0.5222222222222223,0.12,-0.03064243082346222,-0.014914628319465054,-0.0003570026354853292
1592288117.8527257,-0.46,9.73,1.01,-0.31555555555555553,-0.5222222222222223,0.12,-0.0272707695624114,-0.019634954084936207,0.004363323129985824
1592288117.8627257,-0.333123629489603,9.73,0.9138901071203529,-0.31555555555555553,-0.5222222222222223,0.12,-0.02399827721492203,-0.02399827721492203,0.005128403109432046
1592288117.8727257,-0.27486532131593916,9.72756733934203,0.9772979819739087,-0.31555555555555553,-0.5222222222222223,0.12,-0.02214074242456513,-0.02214074242456513,0.0030365125654451815
1592288117.8827257,-0.2893216950729832,9.72033915246351,0.9989825426094749,-0.31555555555555553,-0.5222222222222223,0.12,-0.01662143230045494,-0.01662143230045494,-0.0009058518089192398
