time,acc_x,acc_y,acc_z,mag_x,mag_y,mag_z,gyr_x,gyr_y,gyr_z
1592287702.9931214,-0.3214100893301424,9.784294955334929,0.6541655806459257,-0.4488888888888889,-0.5666666666666667,-0.2288888888888889,-0.052975145098785544,0.03254993770616869,-0.005607970797221194
1592287703.0031214,-0.2869293367692934,9.74769700257697,0.8445958225959582,-0.4488888888888889,-0.5666666666666667,-0.2288888888888889,-0.04850120976676192,0.04380070999859498,-0.004195844431249083
1592287703.0131214,-0.22509508196721312,9.661888524590164,1.043016393442623,-0.45534571948998176,-0.5611322404371585,-0.2288888888888889,-0.023340202251055316,0.053059439858375156,-0.008520640184326415
1592287703.0231214,-0.4458916698199903,9.719018055030002,0.9634874858100437,-0.45666666666666667,-0.56,-0.2288888888888889,0.015553581729938587,0.08379943807473342,-0.015934007417450123
1592287703.0331213,-0.5,9.71,0.72,-0.45666666666666667,-0.56,-0.2288888888888889,0.038179077387375956,0.07199483164476608,-0.011999138607461015
1592287703.0431213,-0.023445952991720365,9.828088802686187,0.6452220067154686,-0.45666666666666667,-0.56,-0.2288888888888889,0.04970913760103742,0.02353288429082497,-0.010807753651600478
1592287703.0531213,-0.6357652922897244,9.793099126154871,0.5577478153871822,-0.45666666666666667,-0.56,-0.2288888888888889,0.04112137894929829,0.034983229159810475,-0.028937466360827536
1592287703.0631213,-0.73,9.8,0.61,-0.43666666666666665,-0.56,-0.23555555555555555,0.028361600344907853,-0.009817477042468103,-0.022907446432425576
1592287703.0731213,-0.11071510698561374,9.880042065116802,0.4697476092991951,-0.43666666666666665,-0.56,-0.23555555555555555,0.012977548875482178,-0.019508767793178224,-0.013099146574812596
1592287703.0831213,-0.3844857081246855,9.886287706351679,0.3972312336775523,-0.43666666666666665,-0.56,-0.23555555555555555,-0.04651005344545926,0.04169032046438841,-0.019613862476975056
1592287703.0931213,-0.02,9.81,0.66,-0.43666666666666665,-0.56,-0.23555555555555555,-0.08072147790473774,0.04908738521234052,-0.031634092692397225
1592287703.1031213,0.06378990731204943,9.868652935118435,0.7773058702368693,-0.43666666666666665,-0.56,-0.23555555555555555,-0.094431569428514,0.10301374520586046,-0.04534418421617348
1592287703.1131213,0.06,9.97,0.92,-0.4444444444444444,-0.56,-0.2222222222222222,-0.10799224746714915,0.1407171709420428,-0.08835729338221293
1592287703.1231213,0.08899129899129898,9.992604912604913,0.9278991812325146,-0.4444444444444444,-0.56,-0.2222222222222222,-0.11003641076534089,0.16131461289458715,-0.1421013089619673
1592287703.1331213,0.7057905819295559,10.263421468223584,0.8744738227411945,-0.4444444444444444,-0.56,-0.2222222222222222,-0.10810704153734006,0.19386907016305363,-0.20829676372112282
1592287703.1431212,0.35,10.13,0.83,-0.4444444444444444,-0.56,-0.2222222222222222,-0.11780972450961724,0.2792526803190927,-0.2868884957965679
1592287703.1531212,0.46155332045560515,10.169840471591288,0.7423509624991673,-0.4444444444444444,-0.56,-0.2222222222222222,-0.1273707513258267,0.2827294173431689,-0.36337671032624347
1592287703.1631212,0.07,10.06,0.84,-0.4222222222222222,-0.56,-0.24333333333333335,-0.15926129424448257,0.34470252726888007,-0.46142142099600086
1592287703.1731212,0.0021005041209890413,10.06,0.7721005041209891,-0.4222222222222222,-0.56,-0.24333333333333335,-0.17407466628864585,0.37961976137297926,-0.5291396931978902
1592287703.1831212,-0.1,9.98,0.64,-0.4222222222222222,-0.56,-0.24333333333333335,-0.1854412330243975,0.394880743263717,-0.5879577917655897
1592287703.1931212,-0.11969607116382505,10.009544106745738,0.7877205337286879,-0.4222222222222222,-0.56,-0.24333333333333335,-0.1854412330243975,0.39595499729970407,-0.6459675097088908
1592287703.2031212,-0.0166789653788067,9.978208912424249,0.8376866313636276,-0.4222222222222222,-0.56,-0.24333333333333335,-0.17937246106048013,0.3751643558842111,-0.692811927461487
1592287703.2131212,-0.15,10.0,0.87,-0.43666666666666665,-0.56,-0.24333333333333335,-0.18216874067690814,0.3763366199612773,-0.7973973020049092
1592287703.2231212,-0.16871297162457127,10.0,0.72029622700343,-0.43666666666666665,-0.56,-0.24333333333333335,-0.18523064349891788,0.3722540828652643,-0.8749655068291564
1592287703.2331212,-0.40300217375725583,9.966997826242745,0.5927592384683371,-0.43666666666666665,-0.56,-0.24333333333333335,-0.19831445897865269,0.4205983238417684,-0.93978077605182
1592287703.2431211,-0.44,9.93,0.75,-0.43666666666666665,-0.56,-0.24333333333333335,-0.222529479629277,0.44178646691106466,-0.9872018581592926
1592287703.2531211,-0.5030703279573117,9.848008573655495,0.8256843935487739,-0.43666666666666665,-0.56,-0.24333333333333335,-0.23628929066887347,0.4658661362303585,-1.0229773668622433
1592287703.2631211,-0.6996503278985976,9.809148500479536,0.7819868322144172,-0.39555555555555555,-0.6,-0.25,-0.2580243311983592,0.514338603688753,-1.1088961210289427
1592287703.273121,-1.03,9.78,0.85,-0.39555555555555555,-0.6,-0.25,-0.2781618495365963,0.533416252640767,-1.1671889372712079
1592287703.283121,-1.03,9.667808752025932,0.8406507293354943,-0.39555555555555555,-0.6,-0.25,-0.29243971066522373,0.5211780859590862,-1.2192011456683507
1592287703.293121,-1.46319031511483,9.554895495816272,0.8682948192985579,-0.39555555555555555,-0.6,-0.25,-0.2846720332922438,0.5261752491591641,-1.2677769741729712
1592287703.303121,-1.5378618479615453,9.435421043261528,1.0624408047000178,-0.39555555555555555,-0.6,-0.25,-0.28385749322618986,0.5098844478380857,-1.2987294966830203
1592287703.313121,-1.55,9.51,1.1,-0.3566666666666667,-0.6077777777777778,-0.28555555555555556,-0.26289021858164585,0.47342055960346185,-1.351539339513109
1592287703.323121,-1.5262655232393512,9.438796569718054,1.2819643218316412,-0.3566666666666667,-0.6077777777777778,-0.28555555555555556,-0.25426011929599174,0.45874939081784977,-1.3826076969414638
1592287703.333121,-1.7041830065359476,9.319084967320261,1.2606535947712418,-0.3566666666666667,-0.6077777777777778,-0.28555555555555556,-0.2088406227508901,0.43494203847187124,-1.448345224249951
1592287703.343121,-2.0218862815884475,9.249547292418773,1.3102263537906138,-0.3566666666666667,-0.6077777777777778,-0.28555555555555556,-0.16328716867500226,0.41202950890853235,-1.510047251674561
1592287703.353121,-2.211159747292419,9.20412166064982,1.3329391696750903,-0.3566666666666667,-0.6077777777777778,-0.28555555555555556,-0.1294268557522549,0.3814726411489799,-1.5439075645973086
1592287703.363121,-2.54,9.02,1.49,-0.29777777777777775,-0.6266666666666667,-0.28555555555555556,-0.07526732399225547,0.3239767424014474,-1.5806138038373647
1592287703.373121,-2.547791944709247,8.965456387035271,1.4588322211630123,-0.29777777777777775,-0.6266666666666667,-0.28555555555555556,-0.037868674157085024,0.297627693653941,-1.5925133742394644
1592287703.383121,-2.65,8.93,1.35,-0.29777777777777775,-0.6266666666666667,-0.28555555555555556,0.028361600344907853,0.2716168648416175,-1.6209745427897337
1592287703.393121,-2.6950906632734215,8.94503022109114,1.319939557817719,-0.29777777777777775,-0.6266666666666667,-0.28555555555555556,0.05869314183770327,0.25850052257446277,-1.6316315708817968
1592287703.403121,-2.9389957697628257,8.95,1.1382531726778806,-0.29777777777777775,-0.6266666666666667,-0.28555555555555556,0.09057945733516838,0.25338296096317814,-1.6289104520942184
1592287703.413121,-3.18,8.91,1.03,-0.24444444444444444,-0.6522222222222223,-0.3,0.10035643198967394,0.24216443371421323,-1.6035212502697902
1592287703.423121,-3.2115586754382743,8.91788966885957,0.9984413245617259,-0.24444444444444444,-0.6522222222222223,-0.3,0.08830762087166447,0.2215093289404827,-1.584587404227204
1592287703.433121,-3.3965232703039496,8.91019315164978,0.9311589098986834,-0.24444444444444444,-0.6522222222222223,-0.3,0.07010814415115205,0.20314736046266557,-1.535662763610123
1592287703.443121,-3.3902557194176595,8.763835791264889,1.0371870864057477,-0.24444444444444444,-0.6522222222222223,-0.3,0.06024674498852342,0.18907635596809116,-1.478463296546265
1592287703.453121,-3.5186915593505037,8.72425234462486,1.04,-0.24444444444444444,-0.6522222222222223,-0.3,0.054536443033366216,0.17779522536400916,-1.4301913080378683
1592287703.463121,-3.85,8.92,0.97,-0.20555555555555555,-0.6855555555555556,-0.28555555555555556,0.04581489286485115,0.15271630954950383,-1.3755376167280309
1592287703.473121,-3.7900949144598077,8.786877587688462,0.9566877587688462,-0.20555555555555555,-0.6855555555555556,-0.28555555555555556,0.03564991110157838,0.12294743438563357,-1.362468354460966
1592287703.483121,-4.130889977779044,8.900689989174406,0.7883300096860578,-0.20555555555555555,-0.6855555555555556,-0.28555555555555556,0.014982561729869703,0.12147818762317607,-1.2822486817909478
1592287703.493121,-4.026087348041423,8.77655560558307,0.8943809095002251,-0.20555555555555555,-0.6855555555555556,-0.28555555555555556,-0.01701175408074279,0.09098049338640635,-1.2462213710242096
1592287703.503121,-4.140378264413026,8.578810991814606,0.8787567768682896,-0.20555555555555555,-0.6855555555555556,-0.28555555555555556,-0.03708233267164815,0.06241323550128047,-1.2268721388496315
1592287703.513121,-4.457310417213329,8.643202009221428,0.8222659969261911,-0.16312533060105877,-0.6929808449225925,-0.28555555555555556,-0.05409661166879911,0.033565342002938425,-1.170603278101828
1592287703.5231209,-4.335690680502894,8.698839752544403,0.7345304330472959,-0.16111111111111112,-0.6933333333333334,-0.28555555555555556,-0.05720533439906998,0.0074188683695454415,-1.1356482759441764
1592287703.5331209,-4.25,8.538634690526077,0.7529010702757801,-0.16111111111111112,-0.6933333333333334,-0.28555555555555556,-0.08077361342659216,-0.03755363644095903,-1.0661213866469512
1592287703.5431209,-4.277800143266476,8.631200573065904,0.7785334288443171,-0.16111111111111112,-0.6933333333333334,-0.28555555555555556,-0.09604408201731338,-0.05754504843766936,-1.0118471063820091
1592287703.5531209,-4.60400496708456,8.778859271607669,0.7535506149318727,-0.16111111111111112,-0.6933333333333334,-0.28555555555555556,-0.12593574305259997,-0.07116687870423516,-0.9971082167478196
1592287703.5631208,-4.291851687782405,8.459674847169309,1.0912926375476213,-0.09063573629445872,-0.6933333333333334,-0.2931452113050412,-0.16626389245546386,-0.12215574820573517,-0.9968874149379078
1592287703.5731208,-4.672560979965001,8.4780400699975,0.8868954680189993,-0.08888888888888889,-0.6933333333333334,-0.29333333333333333,-0.17484972231108115,-0.12632257557176235,-0.9872315043228396
1592287703.5831208,-4.892409513960703,8.657662874870734,0.8951809720785936,-0.08888888888888889,-0.6933333333333334,-0.29333333333333333,-0.20974182942205896,-0.18795679935838625,-0.9690559388550135
1592287703.5931208,-5.323385917383904,8.752389537532066,0.9380973843830164,-0.08888888888888889,-0.6933333333333334,-0.29333333333333333,-0.2345310765353536,-0.24274132317337482,-0.8876151090053133
1592287703.6031208,-5.357201714406447,8.363253146599861,0.9442660951978509,-0.08888888888888889,-0.6933333333333334,-0.29333333333333333,-0.26928539554186387,-0.24622251123783268,-0.8308122958782318
1592287703.6131208,-4.633398514184534,8.351118595788906,1.53294622579776,-0.06533550602837335,-0.688426378570726,-0.29333333333333333,-0.2706753887337945,-0.3233513170769436,-0.8168275599866596
1592287703.6231208,-4.889366661554976,8.376329167305627,1.3791684557583193,-0.06222222222222222,-0.6877777777777778,-0.29333333333333333,-0.24941956246369174,-0.2759486975721547,-0.8133692075133371
1592287703.6331208,-5.300541625963313,8.498226419190274,0.9697047650059698,-0.06222222222222222,-0.6877777777777778,-0.29333333333333333,-0.23332495105613899,-0.19637108987817076,-0.723516456734355
1592287703.6431208,-5.019446020357083,8.023113632571333,1.2494269504898572,-0.06222222222222222,-0.6877777777777778,-0.29333333333333333,-0.24976899418941054,-0.18109353739555065,-0.6821849409915803
1592287703.6531208,-5.122016172996548,7.993813374522987,1.6348964201344722,-0.06222222222222222,-0.6877777777777778,-0.29333333333333333,-0.23058880227862277,-0.19252786684043233,-0.7212829636689126
1592287703.6631207,-5.582399394856279,8.000874432677762,1.5444841149773072,-0.019636241385106744,-0.7050149604975626,-0.29434728525802656,-0.19645713868146308,-0.16169973836583926,-0.7387785971747375
1592287703.6731207,-5.527104491614871,8.010321723153902,1.5354825847308549,-0.015555555555555555,-0.7066666666666667,-0.29444444444444445,-0.18290862593968504,-0.16942971680667024,-0.7170998583952009
1592287703.6831207,-5.72499461298554,8.170879500992344,1.2566231925148852,-0.015555555555555555,-0.7066666666666667,-0.29444444444444445,-0.1641220634279323,-0.17724401237641266,-0.6312072683631735
1592287703.6931207,-5.460518264350561,7.949595396382872,1.8044249052827221,-0.015555555555555555,-0.7066666666666667,-0.29444444444444445,-0.16535946641650007,-0.1880173060625384,-0.5544523109861861
1592287703.7031207,-5.435494482285232,7.935494482285232,1.453846560008448,-0.015555555555555555,-0.7066666666666667,-0.29444444444444445,-0.1512059417576772,-0.16338489839686923,-0.4900947366476763
1592287703.7131207,-5.464155693389499,7.857987992968258,1.4264910942319813,-0.00690485403975072,-0.6940838280982232,-0.3030951459602493,-0.14367090581187805,-0.13368359362751345,-0.419091947579206
1592287703.7231207,-5.677986375895099,8.004876778573422,1.735689575002325,-0.0033333333333333335,-0.6888888888888889,-0.30666666666666664,-0.1339061992376987,-0.08309190198982089,-0.33865461974624694
1592287703.7331207,-5.74,8.051713229783166,1.6922719871811438,-0.0033333333333333335,-0.6888888888888889,-0.30666666666666664,-0.10649314099157865,-0.04540661717177712,-0.2762239918794686
1592287703.7431207,-5.689502133034629,7.519772396863605,1.9729872017922256,-0.0033333333333333335,-0.6888888888888889,-0.30666666666666664,-0.11062803406154331,-0.056886127273240134,-0.2690896959695063
1592287703.7531207,-5.742944470202218,7.445177788080887,2.0677666821213307,-0.0033333333333333335,-0.6888888888888889,-0.30666666666666664,-0.07184512884327365,-0.06617525194891104,-0.2618824090513284
1592287703.7631207,-5.688897976754197,7.513142846893385,2.014081647295164,0.01606802346901357,-0.704072559429856,-0.29654421963935523,-0.028121176168998174,-0.06981317007977318,-0.2375606864083177
1592287703.7731206,-5.798508417260899,7.768807615967066,2.1189561126222154,0.022222222222222223,-0.7088888888888889,-0.29333333333333333,0.013090209961327575,-0.06251920651921208,-0.20781124301601656
1592287703.7831206,-5.732727145535439,7.4557788846293755,1.9496102079077706,0.022222222222222223,-0.7088888888888889,-0.29333333333333333,0.07750920911081655,-0.04607697063015083,-0.17116480163383457
1592287703.7931206,-5.4882392716074175,7.600507911003994,2.1629345473209702,0.022222222222222223,-0.7088888888888889,-0.29333333333333333,0.12969559549013496,-0.033719721420877924,-0.17459694709044107
1592287703.8031206,-5.727074103585657,7.727506861443117,1.8859066843736165,0.022222222222222223,-0.7088888888888889,-0.29333333333333333,0.15719200901401933,-0.0071391035801280645,-0.18151543975514847
1592287703.8131206,-5.783751548597815,7.656875774298907,1.8717892405300898,0.02567126761855898,-0.6978519436206113,-0.3105785603150171,0.17340568834396883,0.011321920127521687,-0.20034003958306273
1592287703.8231206,-5.70334432838556,7.808402052409749,1.6081876488913323,0.027777777777777776,-0.6911111111111111,-0.3211111111111111,0.18398919072935366,0.018182911789892363,-0.2039835572656237
1592287703.8331206,-5.71,7.709715276657525,1.3469821745442814,0.027777777777777776,-0.6911111111111111,-0.3211111111111111,0.16809818497698753,0.015044147248857095,-0.1937129118721826
1592287703.8431206,-5.5962723891424195,7.4514360705900975,1.49118283257274,0.027777777777777776,-0.6911111111111111,-0.3211111111111111,0.10865456122168554,-0.024918645005635287,-0.16919971253517227
1592287703.8531206,-5.72542196906882,7.768567720537871,1.6531713472006921,0.027777777777777776,-0.6911111111111111,-0.3211111111111111,0.06634818280887922,-0.04501978462045532,-0.15569307935889257
1592287703.8631206,-5.621911882998172,7.763771480804388,1.6126138939670933,0.04575636806825107,-0.7012729230144221,-0.30156916514320536,0.004374729989356722,-0.05203645720095369,-0.15481569016735633
1592287703.8731205,-5.550086632777261,7.66,1.7768490012171547,0.05333333333333334,-0.7055555555555556,-0.29333333333333333,-0.02229263867701553,-0.04271898592576906,-0.16321474553752835
1592287703.8831205,-5.6740834122135215,7.652762814445114,1.7949869489143218,0.05333333333333334,-0.7055555555555556,-0.29333333333333333,-0.031260688953237865,0.02216348625930742,-0.18103526289453953
1592287703.8931205,-5.987433634650703,7.588348081188733,1.7978908579197177,0.05333333333333334,-0.7055555555555556,-0.29333333333333333,-0.023567897678965333,0.07675877042549918,-0.18603169751288362
1592287703.9031205,-5.972589822216708,7.713250261446018,1.9044901359519293,0.05333333333333334,-0.7055555555555556,-0.29333333333333333,0.0006850827992522547,0.09664217028687538,-0.18215673355288647
1592287703.9131205,-6.030902249835989,7.792441631613476,1.8979936711303207,0.057926394731087356,-0.7001969839248425,-0.29792639473108734,0.05052096072648078,0.10813815181987298,-0.15559857300208554
1592287703.9231205,-6.108038888662897,7.668158890290038,1.7870211121506732,0.06,-0.6977777777777778,-0.3,0.07017241695831083,0.11017390903214205,-0.13917728156137427
1592287703.9331205,-5.933427570474173,7.519862310575199,1.490413068274401,0.06,-0.6977777777777778,-0.3,0.09174914256047408,0.08220121821177424,-0.11706274449276187
1592287703.9431205,-5.894712258432575,7.8976980674606,1.3256713969906582,0.06,-0.6977777777777778,-0.3,0.07594875290580241,0.054646164911206434,-0.09365905925341228
1592287703.9531205,-5.826698977323255,7.775650333481547,1.339980613606047,0.06,-0.6977777777777778,-0.3,0.04751996468912329,0.04424112815904831,-0.09574741244297785
1592287703.9631205,-6.010426813495436,7.811644802483278,1.24226525257751,0.07669512089969575,-0.706820968265113,-0.31878201101215775,-0.01043272962859735,0.04855593726006849,-0.12097728974699101
1592287703.9731205,-5.999952451708767,7.4407578008915305,0.9926775631500743,0.08666666666666667,-0.7122222222222222,-0.33,-0.07696564864886732,0.039166498060030995,-0.16214607972247244
1592287703.9831204,-6.148132246420119,7.314592766130382,0.8654072338696183,0.08666666666666667,-0.7122222222222222,-0.33,-0.09115484367616286,0.023638230823156865,-0.17813941292504415
1592287703.9931204,-6.301802325581395,7.217936046511628,1.14875,0.08666666666666667,-0.7122222222222222,-0.33,-0.11403621104691147,0.00788632603508339,-0.16823845106206242
1592287704.0031204,-6.33,7.568866093805943,1.6850363408521303,0.08666666666666667,-0.7122222222222222,-0.33,-0.11209250970434925,-0.03318144767885362,-0.16127275027599466
1592287704.0131204,-6.1979516363507425,7.73202177073361,1.6036662766372372,0.08666666666666667,-0.7205151146253157,-0.3127763003935752,-0.10379063633594421,-0.08001580093325783,-0.15425112311937317
1592287704.0231204,-6.200427226161451,7.379060102444807,1.1594873286062586,0.08666666666666667,-0.7266666666666667,-0.3,-0.0981468085378011,-0.11280928027124688,-0.1351977726268407
1592287704.0331204,-6.072333115347854,7.338333417173902,1.298166909804316,0.08666666666666667,-0.7266666666666667,-0.3,-0.0971384839249856,-0.1314632998640106,-0.10302893722635209
1592287704.0431204,-5.99,7.407986756680974,1.4912980178159307,0.08666666666666667,-0.7266666666666667,-0.3,-0.09472167679844691,-0.11868816762363678,-0.07505493632377853
1592287704.0531204,-6.009342526328039,7.473520684238086,1.6563838948042124,0.08666666666666667,-0.7266666666666667,-0.3,-0.09483055882518601,-0.10433570804542425,-0.06386739021504691
1592287704.0631204,-5.825527369826435,7.48901929845855,1.8381575433911883,0.0901089668379388,-0.7266666666666667,-0.30413076020552654,-0.08289016442219033,-0.08101646163861347,-0.07839881199657713
1592287704.0731204,-5.88519587628866,7.449422680412371,1.8491340206185567,0.09222222222222222,-0.7266666666666667,-0.30666666666666664,-0.06931311225714422,-0.05372660231343197,-0.09359478056195193
1592287704.0831203,-6.029040245181063,7.256574723768046,2.05849423340592,0.09222222222222222,-0.7266666666666667,-0.30666666666666664,-0.055114330125272316,-0.007566020137465471,-0.10502359945488696
1592287704.0931203,-6.166089493703782,7.035216055945377,1.7315169986060908,0.09222222222222222,-0.7266666666666667,-0.30666666666666664,-0.016338391145369634,0.02461506680826641,-0.09551873264088187
1592287704.1031203,-6.254717271766581,6.934717271766582,1.560484676971575,0.09222222222222222,-0.7266666666666667,-0.30666666666666664,0.011537434138238293,0.050292767782871874,-0.087789848800958
1592287704.1131203,-6.334914061641075,6.97835049657346,1.572989702055924,0.09570446651437599,-0.7278274147640513,-0.311309659056205,0.05087544103524158,0.05125405569940488,-0.08166611569527504
1592287704.1231203,-6.385704633204633,7.089816602316602,1.5529247104247104,0.09888888888888889,-0.7288888888888889,-0.31555555555555553,0.0786335267061948,0.04216545320063038,-0.07617073404185194
1592287704.1331203,-6.1559468779389555,7.442945367494087,1.5654977343326968,0.09888888888888889,-0.7288888888888889,-0.31555555555555553,0.10224742503130221,0.062019771848828974,-0.06889217054253245
1592287704.1431203,-6.446569457659372,7.464373929590866,1.5076586584205518,0.09888888888888889,-0.7288888888888889,-0.31555555555555553,0.07920311099466767,0.07576221969907171,-0.09452806395861021
1592287704.1531203,-6.530372908109271,7.339288443256623,1.4341019892019875,0.09888888888888889,-0.7288888888888889,-0.31555555555555553,0.05842046381025579,0.0745425948899314,-0.11207082484588976
1592287704.1631203,-6.42348124463854,7.143800982609374,1.1930016376822896,0.11525756669872712,-0.7249378287278935,-0.29692912908229135,0.0495194470967903,0.08042892802865528,-0.11389590226512712
1592287704.1731203,-6.292330337775024,7.043317322590641,1.0966826774093585,0.13111111111111112,-0.7211111111111111,-0.2788888888888889,0.040487839161299354,0.08709000965008426,-0.11175894328659694
1592287704.1831203,-6.58971383760284,6.88889524805327,1.4010189032275817,0.13111111111111112,-0.7211111111111111,-0.2788888888888889,0.03490346349237043,0.0386642379070984,-0.12229980047768696
1592287704.1931202,-6.354064702565549,6.982960952917959,1.4573216802932054,0.13111111111111112,-0.7211111111111111,-0.2788888888888889,0.03794857903060091,0.010431165462674384,-0.12444720070666415
1592287704.2031202,-6.171762070771844,7.2317741731543865,1.4372661259731578,0.13111111111111112,-0.7211111111111111,-0.2788888888888889,0.05939529375308966,-0.03192571126108182,-0.13189111821727292
1592287704.2131202,-6.195787401574804,7.209653543307087,1.5670629921259842,0.11313648293963255,-0.7211111111111111,-0.2788888888888889,0.060966274757164124,-0.02680179821812552,-0.13913160115898104
1592287704.2231202,-6.008787258687259,6.922866409266409,1.6496822393822392,0.09222222222222222,-0.7211111111111111,-0.2788888888888889,0.026576091457141265,0.0171752780799719,-0.15648186583408533
1592287704.2331202,-6.734194675276557,7.245430582755517,1.2967416503466893,0.09222222222222222,-0.7211111111111111,-0.2788888888888889,-0.005078284098580204,0.003787278101828981,-0.2248622974420112
1592287704.2431202,-6.772024754954568,7.303239607927309,1.4337075194963154,0.09222222222222222,-0.7211111111111111,-0.2788888888888889,-0.0061881643231125405,-0.05454497309165615,-0.25249505466416605
1592287704.2531202,-6.718769953219298,7.108964575224083,1.7918762275470486,0.09222222222222222,-0.7211111111111111,-0.2788888888888889,-0.01572342024236223,-0.06426729881281502,-0.23882145397962506
1592287704.2631202,-6.626834482758621,6.963248275862069,1.886455172413793,0.09789501915708812,-0.7303938697318008,-0.2788888888888889,-0.025636780279940846,-0.041492946074891054,-0.16765166370460874
1592287704.2731202,-6.622126167375268,6.78882735564519,1.778369853555725,0.10444444444444445,-0.7411111111111112,-0.2788888888888889,-0.011110031646764933,-0.013695140855358588,-0.08771771510263954
1592287704.2831202,-7.017469255663431,6.722440129449838,1.632168284789644,0.10444444444444445,-0.7411111111111112,-0.2788888888888889,0.051574761812169,0.09966663155310498,0.07082210029866473
1592287704.2931201,-6.671688570758038,7.291613471016193,0.7524203238676366,0.10444444444444445,-0.7411111111111112,-0.2788888888888889,0.1645251095775736,0.11817606547412145,0.16532942127727962
1592287704.3031201,-6.210133439409828,7.706692221458793,0.16697898962137925,0.10444444444444445,-0.7411111111111112,-0.2788888888888889,0.27038635186186144,0.019161391594650523,0.18722242758386104
1592287704.3131201,-5.878558537978298,7.739197030268418,0.3979200456881782,0.10701135858874294,-0.7364051018465639,-0.2814558030331874,0.3346342401333034,-0.10834858967593725,0.17024523134243116
1592287704.32312,-5.961892258940697,7.659735551531614,0.7566327146521804,0.1111111111111111,-0.7288888888888889,-0.28555555555555556,0.334787398896743,-0.14606256275409737,0.14958698154079164
1592287704.33312,-5.655129678354722,7.354904150781292,1.1051747838694088,0.1111111111111111,-0.7288888888888889,-0.28555555555555556,0.31796794763198943,-0.18433195131044605,0.05614272852880299
1592287704.34312,-6.422353860729512,7.231301042160114,1.2931705352913312,0.1111111111111111,-0.7288888888888889,-0.28555555555555556,0.2802461321053971,-0.18125520219259952,0.01966159185226813
1592287704.35312,-6.790311035364295,7.339216020451641,1.5329186195142737,0.1111111111111111,-0.7288888888888889,-0.28555555555555556,0.22775961119955082,-0.19198621771937624,0.02867114158953616
1592287704.36312,-6.716164287111285,7.550184627420301,1.7109947193428516,0.1088478605732664,-0.7288888888888889,-0.2783885955190473,0.16246103609386295,-0.20013333479147907,0.06317981806421748
1592287704.37312,-7.02,7.57,1.46,0.10444444444444445,-0.7288888888888889,-0.2644444444444444,0.11562806294462433,-0.2159844949342983,0.09272061651219875
1592287704.38312,-6.314824342701723,7.107895512239347,1.618751133272892,0.10444444444444445,-0.7288888888888889,-0.2644444444444444,0.0038184022223198694,-0.21253843884943074,0.10134181414825047
1592287704.39312,-6.86,7.34,1.5,0.10444444444444445,-0.7288888888888889,-0.2644444444444444,-0.04799655442984406,-0.21489366415180183,0.11017390903214205
1592287704.40312,-6.508831331055513,7.483908666740144,1.695228333149638,0.10444444444444445,-0.7288888888888889,-0.2644444444444444,-0.0738109192210771,-0.2669711255859749,0.10945963308385466
1592287704.41312,-6.794632882882883,7.3835157657657655,1.73,0.10342217217217217,-0.7311378878878879,-0.26710235235235236,-0.11700683374448247,-0.27841514830613545,0.10276510428507828
1592287704.42312,-6.15,7.0,1.73,0.09888888888888889,-0.7411111111111112,-0.2788888888888889,-0.11344640137963141,-0.29888763440402893,0.11344640137963141
1592287704.43312,-6.67839519813659,6.947295666975244,2.018900468838654,0.09888888888888889,-0.7411111111111112,-0.2788888888888889,-0.10251701768891969,-0.3249605976922689,0.17476795204852996
1592287704.44312,-6.461847054308194,7.018945979658415,2.027481289579735,0.09888888888888889,-0.7411111111111112,-0.2788888888888889,-0.06151288144717625,-0.32279432872366365,0.2189954788659301
1592287704.45312,-6.57,7.25,1.88,0.09888888888888889,-0.7411111111111112,-0.2788888888888889,-0.0545415391248228,-0.3174317577064687,0.23561944901923448
1592287704.46312,-6.16131820024321,6.963092014592623,2.3175670855289825,0.0911861460163041,-0.7446415349277125,-0.27054425077692207,0.004215992438162631,-0.30877877679240867,0.27345770258530994
1592287704.47312,-6.46,7.34,2.09,0.07222222222222222,-0.7533333333333333,-0.25,0.04145156973486533,-0.2901609881440573,0.3021601267515183
1592287704.48312,-6.29701905117669,7.363776615614493,1.985427717594322,0.07222222222222222,-0.7533333333333333,-0.25,0.10646092804965879,-0.24638269305691152,0.3916017311954507
1592287704.49312,-6.289026657812352,7.313244473958828,1.7550811118489706,0.07222222222222222,-0.7533333333333333,-0.25,0.1366426732284262,-0.20282374210299486,0.4837625998976589
1592287704.50312,-6.4749477926032055,7.179823766454732,1.8822976627563355,0.07222222222222222,-0.7533333333333333,-0.25,0.1539189292410617,-0.20485260929121088,0.5420852266079128
1592287704.51312,-6.5411775683198385,7.270654731781376,2.0659820976720646,0.07035903058929374,-0.7533333333333333,-0.2441775261470985,0.15393096977526888,-0.20437123219574668,0.5942170958280069
1592287704.52312,-6.263825688309682,7.247330981018364,1.9349323924073454,0.06333333333333334,-0.7533333333333333,-0.2222222222222222,0.14902922452533843,-0.2372188209713801,0.6529782963500614
1592287704.53312,-6.08376769063284,7.117757845411085,1.880253230463388,0.06333333333333334,-0.7533333333333333,-0.2222222222222222,0.13665434647036764,-0.27475258383071083,0.6602800740101851
1592287704.54312,-5.536541790866818,7.0478962680338615,1.9254899248837487,0.06333333333333334,-0.7533333333333333,-0.2222222222222222,0.1158166789933636,-0.27210883771843536,0.6575194737803772
1592287704.55312,-5.735759698593042,7.502730911873786,1.987513392594337,0.06333333333333334,-0.7533333333333333,-0.2222222222222222,0.1191254384027455,-0.2467259904714179,0.6600187012860955
1592287704.56312,-5.710524038616771,7.69299602854283,1.8377653288560265,0.06333333333333334,-0.7533333333333333,-0.21142459433376742,0.13473054536995052,-0.22838127906610092,0.651001266924937
1592287704.5731199,-5.26,7.36,1.89,0.06333333333333334,-0.7533333333333333,-0.19111111111111112,0.14398966328953217,-0.2127120025868089,0.6403176693254197
1592287704.5831199,-6.186311931661615,7.815342518600166,1.9944678974924221,0.06333333333333334,-0.7533333333333333,-0.19111111111111112,0.14936392113643507,-0.15151973220616907,0.6511305707876495
1592287704.5931199,-6.011373541503291,7.74414343765595,1.8934490625222784,0.06333333333333334,-0.7533333333333333,-0.19111111111111112,0.18318465639176326,-0.11002159036866094,0.6747739344500587
1592287704.6031199,-5.774242188590456,7.613547885386134,1.9398729835895594,0.06333333333333334,-0.7533333333333333,-0.19111111111111112,0.1832872821414827,-0.06275740834614389,0.7068167810345862
1592287704.6131198,-5.773379887501715,7.257725339552751,1.9409334613801619,0.047939909452599815,-0.755257511318425,-0.19111111111111112,0.17581453538672107,-0.04814285655262751,0.7263692376608603
1592287704.6231198,-6.130386644503867,7.500320878803209,1.7775565512755656,0.01,-0.76,-0.19111111111111112,0.18350860914401154,-0.035713375690177025,0.7488604958331813
1592287704.6331198,-5.924035134544925,7.500351345449252,1.5264040472666391,0.01,-0.76,-0.19111111111111112,0.1882639790137916,-0.022682573253377948,0.7958183990211842
1592287704.6431198,-6.089236811226323,7.432781436337077,1.5173998419502381,0.01,-0.76,-0.19111111111111112,0.20372288194520635,-0.040733291662442495,0.8442268276256629
1592287704.6531198,-6.36,7.68,1.9,0.01,-0.76,-0.19111111111111112,0.2127120025868089,-0.05999569303730508,0.8628471489546967
1592287704.6631198,-6.044948849539476,7.781319036128199,1.8342228868572206,0.002918653963074995,-0.7621551922721076,-0.19357418799351983,0.24776358437041107,-0.07556958900159148,0.9351565171307036
1592287704.6731198,-5.51,8.15,1.48,-0.015555555555555555,-0.7677777777777778,-0.2,0.222529479629277,-0.07635815477475191,0.9872018581592926
1592287704.6831198,-5.29427839127471,7.848381731424676,1.652446625766871,-0.015555555555555555,-0.7677777777777778,-0.2,0.2191666275294434,-0.16660693534938695,0.9843303929812756
1592287704.6931198,-4.862744205000359,8.044149627250281,1.4397379965002277,-0.015555555555555555,-0.7677777777777778,-0.2,0.17788025412911915,-0.15091610013723183,1.0034395922597448
1592287704.7031198,-4.5,7.76,1.21,-0.015555555555555555,-0.7677777777777778,-0.2,0.1679879405044542,-0.15817046346198613,1.0199267816341864
1592287704.7131197,-5.056279098335483,8.005398624163135,1.2044518149990786,-0.026795856110394527,-0.7629605061114182,-0.1892949518525343,0.1309558735943799,-0.11702873630151148,1.0766662968805734
1592287704.7231197,-4.95,8.18,1.25,-0.06222222222222222,-0.7477777777777778,-0.15555555555555556,0.10362892433716332,-0.15926129424448257,1.05265170510908
1592287704.7331197,-4.353185859165211,8.100303725525979,1.670666892614125,-0.06222222222222222,-0.7477777777777778,-0.15555555555555556,0.07861040168276322,-0.12938859309325645,1.004620938685823
1592287704.7431197,-5.0038770059795326,8.356679350523505,1.3231478811656543,-0.06222222222222222,-0.7477777777777778,-0.15555555555555556,0.05730838367062695,-0.08397512415305657,0.9637699178260113
1592287704.7531197,-4.5309530543549705,8.129315434102814,1.457212540084052,-0.06222222222222222,-0.7477777777777778,-0.15555555555555556,0.031823462324126646,-0.0761687851430225,0.9115104078956983
1592287704.7631197,-4.465005235602094,8.184869109947645,1.4399581151832461,-0.06790459569517161,-0.7482943571844095,-0.15271436881908088,0.03404534272574802,-0.06608606972031147,0.8620384492751078
1592287704.7731197,-5.34,8.3,1.77,-0.08666666666666667,-0.75,-0.14333333333333334,0.02399827721492203,-0.05017821599483697,0.8377580409572781
1592287704.7831197,-4.145205490534491,8.456040127285476,1.2269448789169948,-0.08666666666666667,-0.75,-0.14333333333333334,0.022730563699694027,-0.07921919547036765,0.8594054222214756
1592287704.7931197,-4.36449629452546,8.493237867559168,1.1910074109490796,-0.08666666666666667,-0.75,-0.14333333333333334,0.0024340938378727994,-0.053969967786291664,0.9509284879658749
1592287704.8031197,-4.093389820523898,9.121679495738915,1.7244376153634686,-0.08666666666666667,-0.75,-0.14333333333333334,-0.004603676038331123,-0.06465315449162899,0.9729639096436014
1592287704.8131196,-3.8291013372592317,8.8945337995338,2.0009661391240336,-0.09636036478141742,-0.75,-0.1447469976417345,-0.0023836077864120182,-0.07516929509418423,0.929191768890838
1592287704.8231196,-3.69,9.05,1.24,-0.14,-0.75,-0.1511111111111111,0.04581489286485115,-0.05999569303730508,0.8988445647770796
1592287704.8331196,-3.786137938650984,8.653625721306497,1.534610839614567,-0.14,-0.75,-0.1511111111111111,0.13718030595564143,-0.038770166178819,0.8348412680490903
1592287704.8431196,-3.4827063275374814,9.0663011927001,1.219671887723332,-0.14,-0.75,-0.1511111111111111,0.1843993085796132,-0.031695225614537414,0.7407483490777954
1592287704.8531196,-2.78,8.41,0.57,-0.14,-0.75,-0.1511111111111111,0.19307704850187268,-0.042542400517361786,0.6894050545377601
1592287704.8631196,-4.123222623815571,9.708010159226335,1.4641232783041906,-0.14293836084790468,-0.75,-0.14898896160984665,0.20078532318928222,0.006772485302640153,0.6220062679560631
1592287704.8731196,-4.2,9.29,1.43,-0.16,-0.75,-0.13666666666666666,0.15053464798451094,-0.01090830782496456,0.5726861608106394
1592287704.8831196,-3.542543499944586,9.257918652332927,1.210462152277513,-0.16,-0.75,-0.13666666666666666,0.17090101359932672,-0.06423292323742902,0.5282079980756855
1592287704.8931196,-3.6335897929243126,8.638653887779888,0.7696154308665433,-0.16,-0.75,-0.13666666666666666,0.15456932354691857,-0.08881879568613787,0.5276893844738761
1592287704.9031196,-3.41,8.45,0.56,-0.16,-0.75,-0.13666666666666666,0.1538071403320003,-0.10253809355466686,0.5574145298556891
1592287704.9131196,-3.3629453752354515,9.404194507782295,1.1463378606126697,-0.16092263970126566,-0.7463094411949374,-0.13266856129451549,0.1491271767210836,-0.14170580730702573,0.5515415410447623
1592287704.9231195,-3.07,8.87,0.75,-0.16666666666666666,-0.7233333333333334,-0.10777777777777778,0.11999138607461016,-0.16144295580947549,0.5421428989007386
1592287704.9331195,-3.1291499892979453,8.893546660958904,1.425319991438356,-0.16666666666666666,-0.7233333333333334,-0.10777777777777778,0.1723203563731316,-0.11016591225254006,0.6248605948026187
1592287704.9431195,-3.112553740943545,9.134731115946535,1.1395430525334163,-0.16666666666666666,-0.7233333333333334,-0.10777777777777778,0.16958606589704542,-0.14378146618028356,0.564666216189102
1592287704.9531195,-3.36,9.87,0.68,-0.16666666666666666,-0.7233333333333334,-0.10777777777777778,0.17344209441693648,-0.1538071403320003,0.48214720586343357
1592287704.9631195,-2.851589342276877,9.060403080554002,1.7009278926774736,-0.16870553243759875,-0.7207579239384718,-0.10713392542906237,0.06872233929727672,-0.14188266140544797,0.42053393157261093
1592287704.9731195,-2.96,8.69,0.4,-0.18777777777777777,-0.6966666666666667,-0.10111111111111111,0.06872233929727672,-0.12217304763960307,0.41560652813114973
1592287704.9831195,-3.0866128990023305,8.933488962790332,1.3623938830553302,-0.18777777777777777,-0.6966666666666667,-0.10111111111111111,0.04649643002137176,-0.08554502428140671,0.40314716627700553
1592287704.9931195,-3.178938101722449,9.029822977137533,1.5798229771375332,-0.18777777777777777,-0.6966666666666667,-0.10111111111111111,0.08124274903262604,-0.08145513515932153,0.4054994502265998
1592287705.0031195,-3.0011324938623583,9.015854914073019,1.5525536548665557,-0.18777777777777777,-0.6966666666666667,-0.10111111111111111,0.11672414184385767,-0.08373640218554355,0.4030054542908749
1592287705.0131195,-2.9792442287429357,8.67580382515406,1.116221143714678,-0.19067243526293942,-0.6972269229541173,-0.09915021410503386,0.10798301760165657,-0.10544389901949322,0.39935419784535375
1592287705.0231194,-3.08,9.72,1.62,-0.2222222222222222,-0.7033333333333334,-0.07777777777777778,0.09599310885968812,-0.10144726277217041,0.42433317439112134
1592287705.0331194,-3.1367118077862006,9.210797892843377,0.9264168058589233,-0.2222222222222222,-0.7033333333333334,-0.07777777777777778,0.05738571605777931,-0.11056740980368734,0.4535366331682717
1592287705.0431194,-2.9424098726343817,8.709392674677988,1.41,-0.2222222222222222,-0.7033333333333334,-0.07777777777777778,0.0813134794706576,-0.1170873444497975,0.4892448666424274
1592287705.0531194,-2.991168005756086,8.805241635687732,1.3153135867610024,-0.2222222222222222,-0.7033333333333334,-0.07777777777777778,0.11562492348680205,-0.12547896213182536,0.519233882739402
1592287705.0631194,-3.143182870727716,9.725918984840531,0.946591435363858,-0.22313117279186004,-0.7025001286444986,-0.07777777777777778,0.16746840746389136,-0.10273605901638268,0.5482417035282094
1592287705.0731194,-3.05,8.85,0.9,-0.23555555555555555,-0.6911111111111111,-0.07777777777777778,0.07090400086226964,-0.13526301702956053,0.5421428989007386
1592287705.0831194,-2.988839051544185,9.020105443451266,0.8466225980838196,-0.23555555555555555,-0.6911111111111111,-0.07777777777777778,0.022409528276180334,-0.15171183206826053,0.5401080204319935
1592287705.0931194,-2.9672253534581583,9.617225353458158,1.3533521207489492,-0.23555555555555555,-0.6911111111111111,-0.07777777777777778,-0.036610174487722635,-0.10114459578633157,0.5682314227681635
1592287705.1031194,-2.92,9.57,1.07,-0.23555555555555555,-0.6911111111111111,-0.07777777777777778,-0.08726646259971647,-0.09599310885968812,0.5759586531581287
1592287705.1131194,-2.800580191886379,8.8037228979376,1.2590813628465665,-0.23555555555555555,-0.6911111111111111,-0.07777777777777778,-0.171939884374319,-0.07970975851841841,0.5672741996427849
1592287705.1231194,-2.36,8.61,1.44,-0.24333333333333335,-0.6788888888888889,-0.056666666666666664,-0.1778054175469223,-0.0370882466048795,0.5465062220307244
1592287705.1331193,-3.2414658500180145,9.515047094549384,1.4513088681867312,-0.24333333333333335,-0.6788888888888889,-0.056666666666666664,-0.20137879346162646,-0.007078413243257022,0.528121998160502
1592287705.1431193,-2.6821745168937525,9.248654486243145,1.3940291180766744,-0.24333333333333335,-0.6788888888888889,-0.056666666666666664,-0.23194790919050187,-0.030295741196916488,0.4758092807602473
1592287705.1531193,-2.382281050955414,8.597123208598726,1.6244552149681528,-0.24333333333333335,-0.6788888888888889,-0.056666666666666664,-0.19929656437858667,-0.006468339936574825,0.48056649999903644
1592287705.1631193,-2.5492515923566876,8.78913933121019,1.181983280254777,-0.24333333333333335,-0.6788888888888889,-0.056666666666666664,-0.1355487521628737,0.0390658116460773,0.5006015266954034
1592287705.1731193,-2.39,9.35,2.21,-0.2788888888888889,-0.6466666666666666,-0.06333333333333334,-0.09599310885968812,0.04908738521234052,0.5355979142057599
1592287705.1831193,-2.224844192634561,9.218611898016997,1.0695750708215297,-0.2788888888888889,-0.6466666666666666,-0.06333333333333334,-0.04812325148956745,0.058215753856800945,0.5637061204312209
1592287705.1931193,-2.1644004322094252,9.775728002750423,1.272141401242602,-0.2788888888888889,-0.6466666666666666,-0.06333333333333334,-0.03839747927754794,0.06550824460961502,0.590997872142132
1592287705.2031193,-2.1384178034451855,9.415581997411133,1.6482684456835608,-0.2788888888888889,-0.6466666666666666,-0.06333333333333334,-0.04688943124294907,0.08104059179889034,0.6085272781668258
1592287705.2131193,-1.8377211988449667,9.156648810116499,1.0552279199442398,-0.2788888888888889,-0.6466666666666666,-0.06333333333333334,-0.014999656417524203,0.09561877457622742,0.6076161417432423
1592287705.2231193,-2.29,9.45,1.25,-0.28888888888888886,-0.6588888888888889,-0.06333333333333334,0.007635815477475192,0.13199052468207118,0.5857761302005968
1592287705.2331192,-2.039484735559696,9.522013998375614,1.2001170512636758,-0.28888888888888886,-0.6588888888888889,-0.06333333333333334,0.031866554146953885,0.1253203584124158,0.5716643049715586
1592287705.2431192,-2.1565788172854283,9.687224809428415,1.3620654577620523,-0.28888888888888886,-0.6588888888888889,-0.06333333333333334,0.07041862274032888,0.13954892031994778,0.5733055195274279
1592287705.2531192,-1.8325496860878954,9.466402607269965,1.5025496860878953,-0.28888888888888886,-0.6588888888888889,-0.06333333333333334,0.1169629533195576,0.1407109767575699,0.5872593756557585
1592287705.2631192,-1.7151421601951453,9.105793777742232,1.3851421601951452,-0.28888888888888886,-0.6588888888888889,-0.06333333333333334,0.18465801765671153,0.1553477474250626,0.6265956968246452
1592287705.2731192,-2.33,9.73,1.08,-0.29777777777777775,-0.64,-0.056666666666666664,0.2781618495365963,0.16035212502697901,0.6664976081053345
1592287705.2831192,-2.0953259497536543,9.397545095484345,0.9333287185960341,-0.29777777777777775,-0.64,-0.056666666666666664,0.24296326883059413,0.09848795287703588,0.6483650059234547
1592287705.2931192,-1.66,9.81,1.03,-0.29777777777777775,-0.64,-0.056666666666666664,0.23343778745424157,0.05235987755982988,0.6272276999354622
1592287705.3031192,-1.7994169127866575,9.861749261640027,1.6116035441278667,-0.29777777777777775,-0.64,-0.056666666666666664,0.1924060103769644,0.06565338278376949,0.57881135284803
1592287705.3131192,-1.7538742182070883,9.998377345378735,0.9557887421820709,-0.29777777777777775,-0.64,-0.056666666666666664,0.22519439666601526,0.08155078219664262,0.5460229665589791
1592287705.3231192,-1.94,9.99,1.56,-0.31777777777777777,-0.6055555555555555,-0.021111111111111112,0.18871372537188688,0.09053895494720585,0.49305551368839806
1592287705.3331192,-1.2568152917183188,9.088988283280681,1.2926668532810814,-0.31777777777777777,-0.6055555555555555,-0.021111111111111112,0.1595522028096231,0.08945889855601089,0.4574136527789646
1592287705.3431191,-1.77,9.69,1.1,-0.31777777777777777,-0.6055555555555555,-0.021111111111111112,0.15053464798451094,0.11890055529211369,0.4516039439535327
1592287705.3531191,-1.928269572235674,9.521838579499596,1.001081517352704,-0.31777777777777777,-0.6055555555555555,-0.021111111111111112,0.019971623730801136,0.08329245776837467,0.42031197946297416
1592287705.3631191,-1.4946003830750478,9.828408061988506,1.8163742817342852,-0.31777777777777777,-0.6055555555555555,-0.021111111111111112,0.01953359685416663,0.07993471881455001,0.3932540653645098
1592287705.373119,-2.16,9.84,1.92,-0.31444444444444447,-0.5988888888888889,-0.013333333333333334,0.04145156973486533,0.10362892433716332,0.34470252726888007
1592287705.383119,-1.7197684984000317,9.480627345632678,1.1922703749061747,-0.31444444444444447,-0.5988888888888889,-0.013333333333333334,0.07281275003657199,0.10950914564373332,0.2927605723941784
1592287705.393119,-1.7608615392001536,9.452476595131788,1.3950108022468672,-0.31444444444444447,-0.5988888888888889,-0.013333333333333334,0.08553662985876641,0.11607832064554677,0.22053106339089387
1592287705.403119,-1.33,9.81,1.23,-0.31444444444444447,-0.5988888888888889,-0.013333333333333334,0.1265363707695889,0.1810779098944117,0.19853120241435498
1592287705.413119,-1.4873803967327888,9.904428238039673,1.1355717619603267,-0.31444444444444447,-0.5988888888888889,-0.013333333333333334,0.12739474767617703,0.2411642933555824,0.18651392572212083
1592287705.423119,-1.76,9.83,1.24,-0.3333333333333333,-0.5866666666666667,-0.006666666666666667,0.07853981633974483,0.27270769562411395,0.1341721862470641
1592287705.433119,-1.5978888474449833,9.911055576277509,1.1139135480127649,-0.3333333333333333,-0.5866666666666667,-0.006666666666666667,0.05299686233853497,0.2501120055461207,0.08505112086012205
1592287705.443119,-1.5650139654801978,9.545013965480198,1.3423796223352193,-0.3333333333333333,-0.5866666666666667,-0.006666666666666667,0.025503211726398856,0.21846588822615348,0.044659167950005366
1592287705.453119,-1.1920859811575784,9.159758921906837,1.3815408824063427,-0.3333333333333333,-0.5866666666666667,-0.006666666666666667,0.07023853004658458,0.18798536052210038,0.04492187680332668
1592287705.463119,-1.5559321350037323,9.320528152676067,1.406925497790958,-0.3333333333333333,-0.5866666666666667,-0.006666666666666667,0.13115723374600205,0.17598622191463933,0.06615112203191156
1592287705.473119,-1.55,9.47,1.34,-0.3333333333333333,-0.5788888888888889,0.027777777777777776,0.21489366415180183,0.15926129424448257,0.09381144729469522
1592287705.483119,-1.4371233832291819,9.554657462578113,1.177739863391949,-0.3333333333333333,-0.5788888888888889,0.027777777777777776,0.23951952179133465,0.14233101711730373,0.0853463087311058
1592287705.493119,-1.5724607255408385,9.881927351136175,0.7268848186147904,-0.3333333333333333,-0.5788888888888889,0.027777777777777776,0.24582367821198797,0.12918741808938916,0.0671621227599729
1592287705.503119,-0.9749777403441222,9.482808326314524,0.8762555649139694,-0.3333333333333333,-0.5788888888888889,0.027777777777777776,0.23002914360492216,0.1405794006723568,0.056484935561613096
1592287705.513119,-1.3787125496330166,9.558508603056191,0.7753218625917458,-0.3333333333333333,-0.5788888888888889,0.027777777777777776,0.22635909062210827,0.16626977155205377,0.05006234284168886
1592287705.523119,-1.416971077910981,9.339710779109812,0.7047305869863546,-0.3343568409817342,-0.5824711656582918,0.01498393217276726,0.20369579372664165,0.1676575363592057,0.06717425832607891
1592287705.533119,-1.3902651225114853,9.070662806278714,0.6381441424196018,-0.33555555555555555,-0.5866666666666667,0.0,0.1775885146994265,0.16466483749254915,0.0891092232535318
1592287705.543119,-1.43,9.17,0.36,-0.33555555555555555,-0.5866666666666667,0.0,0.14508049407202864,0.15707963267948966,0.20180369476184434
1592287705.553119,-1.6320567375886523,9.452879432624114,0.18219007092198583,-0.33555555555555555,-0.5866666666666667,0.0,0.09659035805407626,0.15884291035286974,0.31906166004162007
1592287705.563119,-0.8809437563716027,8.70480120599527,0.48706483309112203,-0.33555555555555555,-0.5866666666666667,0.0,0.0348997470879932,0.14957645927230653,0.5106459438179405
1592287705.573119,-1.01,9.44,0.51,-0.33555555555555555,-0.5722222222222222,0.006666666666666667,0.06763150851478027,0.25089107997418486,0.7810348402674625
1592287705.583119,-1.1346834428594326,9.531434524763585,0.6679323609552813,-0.33555555555555555,-0.5722222222222222,0.006666666666666667,0.07125840284914578,0.29622725915375386,0.9052559712194815
1592287705.593119,-1.4578449636880328,11.029296652983895,0.48158035996210924,-0.33555555555555555,-0.5722222222222222,0.006666666666666667,0.047085950109911956,0.27077678392008014,0.9911263690326
1592287705.603119,-1.4134891041162227,11.21829176755448,0.5265108958837773,-0.33555555555555555,-0.5722222222222222,0.006666666666666667,-0.03257991957668773,0.24854064338013257,0.9357561126426154
1592287705.613119,-0.740358296102977,10.200093333923121,1.0387534834343344,-0.33555555555555555,-0.5722222222222222,0.006666666666666667,-0.11530298987072338,0.16143359494019588,0.7089681615383802
1592287705.6231189,-0.49,10.17,0.89,-0.3477777777777778,-0.56,-0.006666666666666667,-0.03381575425739013,0.14726215563702155,0.47342055960346185
1592287705.6331189,-0.42696481764753236,10.193638193382174,0.8112060220594155,-0.3477777777777778,-0.56,-0.006666666666666667,0.003143131286172461,0.16101429909509135,0.35480832227760983
1592287705.6431189,-0.21584451679504488,10.41357103152545,0.353150162788851,-0.3477777777777778,-0.56,-0.006666666666666667,0.044858586040523285,0.13400578539475122,0.16298387447776977
1592287705.6531188,-0.2002921460492536,10.060809403822384,0.3205842920985072,-0.3477777777777778,-0.56,-0.006666666666666667,-0.0007794611895465334,0.13837616842529465,-0.016558364242005214
1592287705.6631188,-0.3864166634729621,9.934293105430575,0.4999885026635496,-0.3477777777777778,-0.56,-0.006666666666666667,-0.02602258289652412,0.13923671294562437,-0.08702854752735271
1592287705.6731188,-0.5280188211986132,9.69891530460624,0.6380188211986132,-0.3678432667437125,-0.5526074514336029,0.01234274393263992,-0.058969155896768544,0.10955906731323123,-0.15540475629229847
1592287705.6831188,-0.6984563837291324,9.59017399482718,0.7273477545262168,-0.3688888888888889,-0.5522222222222222,0.013333333333333334,-0.06680152299581518,0.08961650657917186,-0.14823205373342652
1592287705.6931188,-0.7809651032778203,9.48241275819455,0.6562731713058318,-0.3688888888888889,-0.5522222222222222,0.013333333333333334,-0.06882761573365018,0.03182115094580713,-0.09306558942016885
1592287705.7031188,-0.9479921275655702,9.587514961641965,0.5895228340763948,-0.3688888888888889,-0.5522222222222222,0.013333333333333334,-0.05699427632347863,0.0015982815646338189,-0.03629666369338962
1592287705.7131188,-1.000172425212496,9.610172425212495,0.5823706810906281,-0.3688888888888889,-0.5522222222222222,0.013333333333333334,-0.054522730451875896,-0.015252822282003486,0.04956225001793198
1592287705.7231188,-0.8920034787090124,9.786193390452876,0.5018031308381112,-0.34820073439412486,-0.5402448696199904,0.013333333333333334,-0.08449472784779948,-0.013155533077393481,0.1435725292610004
1592287705.7331188,-1.0274249734238285,9.927424973423829,0.5534430452203778,-0.3477777777777778,-0.54,0.013333333333333334,-0.12422728653939062,0.004399226261063984,0.2000465375466675
1592287705.7431188,-0.8548591828639429,10.19410501785006,0.6686062078540262,-0.3477777777777778,-0.54,0.013333333333333334,-0.16079991301033325,0.02937432920108912,0.26010040046576094
1592287705.7531188,-0.5481173552923047,9.965396320909178,0.7345579312337475,-0.3477777777777778,-0.54,0.013333333333333334,-0.17255163799733286,0.03361787505303378,0.19068004162276808
1592287705.7631187,-0.7015049164975808,9.8003808334634,0.8610032776650538,-0.3477777777777778,-0.54,0.013333333333333334,-0.17344209441693648,0.029246727716851443,0.11980086950747834
1592287705.7731187,-0.4868135488121536,9.822739603922024,0.8076425221873426,-0.35525834635938114,-0.5453432632725739,0.0005095014791561721,-0.15245914861279392,-0.027409940005227285,0.04270913448651909
1592287705.7831187,-0.39335809692443896,9.7828357519535,0.8766419030755611,-0.35555555555555557,-0.5455555555555556,0.0,-0.15419788944712834,-0.05067481923840237,0.03482516847699885
1592287705.7931187,-0.30517867082266503,9.758705332294333,0.8864733385283313,-0.35555555555555557,-0.5455555555555556,0.0,-0.16073682411625306,-0.05975222028667551,0.01330915558192075
1592287705.8031187,-0.3721208751359845,9.723939562432008,0.9250755469599904,-0.35555555555555557,-0.5455555555555556,0.0,-0.1624263516927119,-0.04907090342244422,0.0020577448758365997
1592287705.8131187,-0.38445995739535954,9.769059531348955,0.8764805112556855,-0.35555555555555557,-0.5455555555555556,0.0,-0.15669571601339483,-0.04751004854829597,0.0030368543086888205
1592287705.8231187,-0.41590504451038574,9.81272997032641,0.7927299703264096,-0.34596109462578306,-0.5580283547642598,0.0,-0.15980509119243333,-0.03183477966128381,0.003570285914224305
1592287705.8331187,-0.46373707935027586,9.75376661226393,0.8274889251573794,-0.34444444444444444,-0.56,0.0,-0.1791637210207047,-0.030815566912883487,0.00463562813296854
1592287705.8431187,-0.38105562518075775,9.782253928468139,0.8344365178829654,-0.34444444444444444,-0.56,0.0,-0.19999083138004,-0.042669224186858624,0.0037564413748728334
1592287705.8531187,-0.35,9.721251262808485,0.971747726944725,-0.34444444444444444,-0.56,0.0,-0.21234369567157577,-0.05440504752597384,-0.00016356951695970824
1592287705.8631186,-0.39499242865463013,9.725709959231217,1.0742748980780432,-0.34444444444444444,-0.56,0.0,-0.21629592489910887,-0.053217548821548125,-0.001090830782496456
1592287705.8731186,-0.45193515566709624,9.692097266499356,1.2457244115851591,-0.3542024086760572,-0.5484678604535486,0.0053225259445160425,-0.21184994808997204,-0.05126904677733343,-0.0028326233247706924
1592287705.8831186,-0.3701285732118337,9.715948570715266,1.235064286605917,-0.3566666666666667,-0.5455555555555556,0.006666666666666667,-0.19680550838877883,-0.06793491497459285,0.004570269157103303
1592287705.8931186,-0.329105248295615,9.72,1.149673645568599,-0.3566666666666667,-0.5455555555555556,0.006666666666666667,-0.18649646406091633,-0.07048718900330775,0.008824248530155081
1592287705.9031186,-0.3483129601661318,9.72,1.1076625920332264,-0.3566666666666667,-0.5455555555555556,0.006666666666666667,-0.1810779098944117,-0.060873691346003136,0.010072448698609017
1592287705.9131186,-0.28692446705851393,9.714378805158349,1.2224238968330556,-0.3566666666666667,-0.5455555555555556,0.006666666666666667,-0.17801202371056912,-0.05290861357816405,0.010430654279236617
1592287705.9231186,-0.23,9.638255115449596,1.4216031537450722,-0.3681812777673487,-0.550869991448178,-0.02079125211188286,-0.16692803058701444,-0.027348071725053113,0.010038735285473064
1592287705.9331186,-0.30484336151168573,9.591214091726275,1.5075718165474505,-0.3711111111111111,-0.5522222222222222,-0.027777777777777776,-0.15341124841200923,-0.0017202605477857867,0.007305432654700187
1592287705.9431186,-0.44988266765547197,9.586342303210087,1.4928019387646996,-0.3711111111111111,-0.5522222222222222,-0.027777777777777776,-0.11388379112473718,0.021111978719260988,0.0027801508027144417
1592287705.9531186,-0.49612335344084696,9.58477532931183,1.506123353440847,-0.3711111111111111,-0.5522222222222222,-0.027777777777777776,-0.08809395235494769,0.01549844533284482,0.00047189208047427613
1592287705.9631186,-0.4848734690723641,9.591708843642545,1.5709809527489087,-0.3711111111111111,-0.5522222222222222,-0.027777777777777776,-0.04599788507045327,-0.007238812580936277,0.0021022609856851298
1592287705.9731185,-0.4040851702722992,9.6,1.5790319388521123,-0.36645154196713603,-0.5397967045049554,-0.017682044632498464,-0.0001520522673342621,-0.03074284679544454,0.005888163566611423
1592287705.9831185,-0.29241570805236017,9.629194763982547,1.4678183260610869,-0.36444444444444446,-0.5344444444444445,-0.013333333333333334,0.03906870376135958,-0.038385906865374096,0.005748821013981719
1592287705.9931185,-0.28848369995442225,9.64,1.3587907501139445,-0.36444444444444446,-0.5344444444444445,-0.013333333333333334,0.07472087499782379,-0.033832501245679,0.00545415391248228
1592287706.0031185,-0.3,9.654205869095913,1.3371029345479564,-0.36444444444444446,-0.5344444444444445,-0.013333333333333334,0.09903138040646638,-0.017687513320654408,0.0008052941219013413
1592287706.0131185,-0.31062656372864395,9.681253127457287,1.3028070269497463,-0.36444444444444446,-0.5344444444444445,-0.013333333333333334,0.1174707162297614,-0.004464479769673687,-0.002829598206601224
1592287706.0231185,-0.375636749783686,9.712363722174153,1.239090694564619,-0.36856568516916194,-0.5502425338891949,-0.005777725338017951,0.13815874244824142,0.0028559980016828867,-0.0063863324400557486
1592287706.0331185,-0.4328077830188679,9.727602594339624,1.1895896226415095,-0.3711111111111111,-0.56,-0.0011111111111111111,0.14979486404227776,0.004931121133988106,-0.007635815477475192
1592287706.0431185,-0.3757803974402155,9.737135511395532,1.0872383518580893,-0.3711111111111111,-0.56,-0.0011111111111111111,0.15629566005446746,-0.0038862086624378627,-0.00685745192956518
1592287706.0531185,-0.35685632399924827,9.760568971997744,1.0294310280022552,-0.3711111111111111,-0.56,-0.0011111111111111111,0.15817046346198613,-0.011375360114049797,-0.006544984694978735
1592287706.0631185,-0.3802693256214183,9.764932668594644,1.009865337189291,-0.3711111111111111,-0.56,-0.0011111111111111111,0.15706494324557174,-0.011431689065335931,-0.007650504911393095
1592287706.0731184,-0.4345253306205494,9.742737334689725,1.0287711088504579,-0.3743079009833842,-0.5401799027919069,0.002085678761161976,0.1515949843317042,-0.006051347700791835,-0.00998202270719707
1592287706.0831184,-0.4078093277489884,9.759823241286291,0.9307070348548308,-0.37666666666666665,-0.5255555555555556,0.0044444444444444444,0.14753968367879533,-0.008152308791825399,-0.01090830782496456
1592287706.0931184,-0.39697956991653427,9.790938709749604,0.8341634406677259,-0.37666666666666665,-0.5255555555555556,0.0044444444444444444,0.14040997889483392,-0.012862888927884824,-0.01243101376767292
1592287706.1031184,-0.4067904034375746,9.793209596562425,0.8303712103127238,-0.37666666666666665,-0.5255555555555556,0.0044444444444444444,0.1292967793897497,-0.016402954501036765,-0.010867815061374634
1592287706.1131184,-0.41,9.79,0.8552124555160142,-0.37666666666666665,-0.5255555555555556,0.0044444444444444444,0.11548901113455663,-0.018559573503558385,-0.009817477042468103
1592287706.1231184,-0.36901870503597123,9.801708941418294,0.87,-0.36105474477560806,-0.5223030718282516,0.0044444444444444444,0.09814710166444258,-0.02282807251731689,-0.007901605983039692
1592287706.1331184,-0.35884138854782904,9.816280462849276,0.8542988428768091,-0.35,-0.52,0.0044444444444444444,0.08621224041809852,-0.02063600856461307,-0.006887530805194537
1592287706.1431184,-0.4379353381031793,9.79838721824735,0.7757421055462907,-0.35,-0.52,0.0044444444444444444,0.060959889098803774,-0.006080520461106045,-0.006256447659229902
1592287706.1531184,-0.46,9.806710442402627,0.7700328318019699,-0.35,-0.52,0.0044444444444444444,0.03924483841170889,-0.0032724923474893677,-0.00545415391248228
1592287706.1631184,-0.44030242006712594,9.815075605016782,0.8341683448154037,-0.35,-0.52,0.0044444444444444444,0.02250223391652524,-0.007032669490495478,-0.0033054812593359306
1592287706.1731184,-0.42,9.786739681645303,0.9272165093675165,-0.35982102330531684,-0.5349899829396941,0.001859964627255795,0.004970586582926519,-0.012938153526722299,-0.0036281379096936286
1592287706.1831183,-0.43273566719817225,9.76,0.9763678335990861,-0.3711111111111111,-0.5522222222222222,-0.0011111111111111111,-0.009225683365374665,-0.020133991190339224,-0.003766493131899398
