time,acc_x,acc_y,acc_z,mag_x,mag_y,mag_z,gyr_x,gyr_y,gyr_z
1592224564.143474,-9.629769990018854,-0.45046001996229346,1.4881599201508262,0.49777777777777776,-0.3688888888888889,0.1288888888888889,0.0027336458939687166,0.035231572043779066,0.11349658177317466
1592224564.153474,-9.620466895863368,-0.4690662082732616,1.4137351669069536,0.49777777777777776,-0.3688888888888889,0.1288888888888889,0.02505946914395152,-0.03986437888798128,0.11552620206862765
1592224564.163474,-9.59171199318327,-0.43228265757769413,1.4382880068167294,0.49777777777777776,-0.3688888888888889,0.1288888888888889,-0.17850767100743314,0.05511054025584738,-0.013973137222239279
1592224564.173474,-9.576366160266248,-0.48453535893500715,1.5149861185356348,0.49777777777777776,-0.3688888888888889,0.1288888888888889,0.024751688008516376,0.016469887624202317,-0.13112737432914717
1592224564.183474,-9.44234821876568,-0.284154540893126,1.4812644254892122,0.4901404917210236,-0.3743440932151419,0.13652617494564306,-0.05129039268828042,-0.019359099235775036,0.20772143807361138
1592224564.193474,-9.509466172603394,-0.6769495577336839,1.8074833851302894,0.49,-0.37444444444444447,0.13666666666666666,0.03855449216014236,0.08428619711688538,-0.017846414060611104
1592224564.203474,-9.577793108262174,-0.32166499918564884,1.4322955396821704,0.49,-0.37444444444444447,0.13666666666666666,-0.08961578809707568,0.03014991410127027,0.0986863408486555
1592224564.213474,-9.525602215868478,-0.4369281629735525,1.5015966761972837,0.49,-0.37444444444444447,0.13666666666666666,0.0189322298228026,0.07385466304144206,-0.012183542810506348
1592224564.223474,-9.610027324408582,-0.45,1.440748211993398,0.49,-0.37444444444444447,0.13666666666666666,0.05018417725603602,0.0694747784876824,-0.06176926826518213
1592224564.233474,-9.65,-0.48382961569470573,1.4522870196183821,0.4965779808295261,-0.38102242527397057,0.13666666666666666,0.06259510087078965,0.13833205961541256,0.14379706027311182
1592224564.243474,-9.614784801772498,-0.47239240088624895,1.442392400886249,0.49777777777777776,-0.38222222222222224,0.13666666666666666,-0.04429051688237223,0.18811860989336748,0.0009244010541435699
1592224564.253474,-9.574311504767437,-0.22018053337205362,1.145569914331349,0.49777777777777776,-0.38222222222222224,0.13666666666666666,0.009222828811343883,0.15025392840314827,0.13074890677819578
1592224564.263474,-9.623356263491235,-0.6346355290936262,1.5635282396754988,0.49777777777777776,-0.38222222222222224,0.13666666666666666,0.08147621264069753,0.13343996314098241,-0.05717560682405601
1592224564.273474,-9.582889719423681,-0.5015588776947243,1.4921292384357057,0.49777777777777776,-0.38222222222222224,0.13666666666666666,0.05861451762989325,0.10923238652542117,-0.0036167226659177265
1592224564.283474,-9.55,-0.48,1.64,0.49777777777777776,-0.38222222222222224,0.13666666666666666,0.08726646259971647,0.15598880189699318,0.028361600344907853
1592224564.293474,-9.62,-0.76,1.89,0.49777777777777776,-0.38222222222222224,0.13666666666666666,0.10035643198967394,0.1407171709420428,0.015271630954950384
1592224564.303474,-9.493526449377544,-0.40429313887434026,1.4631517666492084,0.49777777777777776,-0.38222222222222224,0.13666666666666666,0.04517193511343408,0.18038102807184023,0.15409513090924132
1592224564.313474,-9.512371359338623,-0.5107568774647219,1.5594854373544924,0.49777777777777776,-0.38222222222222224,0.13666666666666666,0.03244753827282587,0.14328847786375204,0.15852268876715292
1592224564.323474,-9.576639126985663,-0.5046005456339608,1.4979614186482983,0.49777777777777776,-0.38222222222222224,0.13666666666666666,0.058982997339010426,0.20277132876246995,0.09897410373340355
1592224564.333474,-9.68,-0.48,1.36,0.49777777777777776,-0.38222222222222224,0.13666666666666666,0.017453292519943295,0.17344209441693648,-0.17344209441693648
1592224564.343474,-9.545088078656288,-0.608166325276526,1.2588160589922164,0.49777777777777776,-0.38222222222222224,0.13666666666666666,-0.04435645970559042,0.17344209441693648,-0.02112520500401413
1592224564.353474,-9.724610659139964,-1.0463240909845593,1.285264818196912,0.49777777777777776,-0.38222222222222224,0.13666666666666666,0.03666010050329864,0.014371057143566762,0.13753985235782787
1592224564.363474,-9.677436681039897,-1.097805919537824,1.2552426005777202,0.49777777777777776,-0.38222222222222224,0.13666666666666666,0.07093162897058841,0.09004996026311106,0.13683252191354014
1592224564.373474,-9.676467365366626,-1.1827852547582232,1.365719985491476,0.49777777777777776,-0.38222222222222224,0.13666666666666666,0.12981919188916308,0.07349329491427872,-0.05349202343066556
1592224564.3834739,-9.69,-1.0991599186399048,1.4485907817477068,0.5153357383172789,-0.36982836772375094,0.13666666666666666,0.10209467797926669,0.05189871196517275,0.0685597005595096
1592224564.3934739,-9.70845579378463,-1.1638231751385208,1.5299751064000642,0.5166666666666667,-0.3688888888888889,0.13666666666666666,0.006909032934925369,-0.002667993573699269,0.009924781925513007
1592224564.4034739,-9.592527082922986,-1.0643166661976984,1.4252114578350543,0.5166666666666667,-0.3688888888888889,0.13666666666666666,0.14151404617137323,0.08011220383871014,-0.09668169598297593
1592224564.4134738,-9.567102368526696,-0.9339213167402649,1.3197165796868726,0.5166666666666667,-0.3688888888888889,0.13666666666666666,0.1448760782513665,0.040980905373152285,-0.03500625307926683
1592224564.4234738,-9.617170028597203,-0.9271700285972017,1.3716356063950252,0.5166666666666667,-0.3688888888888889,0.13666666666666666,0.16268481922473643,0.08584660092499281,0.04930024198768246
1592224564.4334738,-9.757537867859202,-0.9682721436814772,1.2893735574148875,0.5166666666666667,-0.39002881163044173,0.13666666666666666,0.010870501694627749,-0.05194062685119369,0.011388890226831858
1592224564.4434738,-9.700897090134847,-1.1897303051809793,1.2248431511710434,0.5166666666666667,-0.39444444444444443,0.13666666666666666,0.04119701674601874,-0.24093130719160116,-0.009851696148633004
1592224564.4534738,-9.615915370171674,-1.3023162553648069,1.1294521190987126,0.5166666666666667,-0.39444444444444443,0.13666666666666666,0.18935752913508105,-0.1360890404466709,-0.12135382728464211
1592224564.4634738,-9.495720548720126,-1.2397850374770187,1.0779140149908075,0.5166666666666667,-0.39444444444444443,0.13666666666666666,0.13263104644828885,-0.153708562921448,-0.0059539830364093715
1592224564.4734738,-9.601865575644965,-0.8663605016794111,1.1958716858429215,0.5166666666666667,-0.39444444444444443,0.13666666666666666,0.04849687258621241,-0.10652440458061148,-0.04879056979003256
1592224564.4834738,-9.598735291825761,-0.7973186316527702,1.4092916699135043,0.5166666666666667,-0.38852913928500304,0.12568109994198984,0.1683208083720032,-0.04772063790837726,0.05893053286155013
1592224564.4934738,-9.579378798993922,-0.85,1.496893994969608,0.5166666666666667,-0.38666666666666666,0.12222222222222222,0.05658913321966555,-0.09055884643286445,0.1090830782496456
1592224564.5034738,-9.665416181021664,-0.8302885736103854,1.4342952453679514,0.5166666666666667,-0.38666666666666666,0.12222222222222222,0.15117386316110343,-0.088077625781974,0.07611360455149863
1592224564.5134737,-9.67534052596089,-0.82,1.4693189480782198,0.5166666666666667,-0.38666666666666666,0.12222222222222222,0.055881723673513656,-0.028373369254226767,0.12223262774303005
1592224564.5234737,-9.64114787651373,-0.8163934845642162,1.440328330206379,0.5166666666666667,-0.38666666666666666,0.12222222222222222,0.061050429470184554,-0.10146419362688763,0.0875352166616841
1592224564.5334737,-9.543012601151414,-0.896143564555739,1.4796372639800315,0.5166666666666667,-0.3770951594938068,0.12222222222222222,0.1326211152535864,-0.11497248414028005,0.0668159874539099
1592224564.5434737,-9.555558401446381,-0.9404467211571057,1.4435481562394064,0.5166666666666667,-0.37444444444444447,0.12222222222222222,0.09894606408730575,-0.03281679501919523,0.1414509106728734
1592224564.5534737,-9.58755792714748,-0.8012835299029328,1.2137256027554535,0.5166666666666667,-0.37444444444444447,0.12222222222222222,0.0924153182402789,-0.14820899015272307,-0.05154109981509308
1592224564.5634737,-9.567085794655416,-1.0937130801687762,1.2516568213783403,0.5166666666666667,-0.37444444444444447,0.12222222222222222,0.1950215195760443,-0.14296551995853013,-0.1011627160082787
1592224564.5734737,-9.577113474034691,-1.045978733687772,1.3085224567244866,0.5166666666666667,-0.37444444444444447,0.12222222222222222,0.06369859714405884,-0.15655871377458555,-0.03562607291221469
1592224564.5834737,-9.554342764046728,-0.7445823730429946,1.4084459190971945,0.5253828798996882,-0.38870733882575254,0.11746792409511951,0.010177937536278825,-0.19243380250281653,0.00032162299952808067
1592224564.5934737,-9.390144573113716,-0.7865542209115539,1.481626507468412,0.5288888888888889,-0.39444444444444443,0.11555555555555555,0.14334173977648781,-0.10026837360312271,-0.13749593919379324
1592224564.6034737,-9.530221110643854,-0.7790507071556628,1.4977373232110842,0.5288888888888889,-0.39444444444444443,0.11555555555555555,0.1714675364231849,0.0340640226210034,-0.04064582626517112
1592224564.6134737,-9.467517730496454,-0.8299905437352246,1.5,0.5288888888888889,-0.39444444444444443,0.11555555555555555,0.03847306015145299,0.0038279650438244467,-0.04035506560078142
1592224564.6234736,-9.606525134555175,-0.7396717909030147,1.4669015372709044,0.5288888888888889,-0.39444444444444443,0.11555555555555555,0.016321402570553704,0.006616588812196112,0.003000849504090755
1592224564.6334736,-9.566610533858832,-0.833389466141168,1.498946614116804,0.5259779449818862,-0.38498387674668577,0.11555555555555555,0.11706869435425599,-0.02097396743528836,0.0908637418982107
1592224564.6434736,-9.910561359587886,-0.6095917384815368,1.5219897934620383,0.5244444444444445,-0.38,0.11555555555555555,0.047634764758638135,-0.0860086802473603,0.07325261399712227
1592224564.6534736,-9.733065919282511,-0.6659161434977579,1.5577544843049327,0.5244444444444445,-0.38,0.11555555555555555,0.0245770045237882,-0.07951960739684814,0.05008938421452247
1592224564.6634736,-9.574137019911296,-0.7465905444937246,1.4382740398225913,0.5244444444444445,-0.38,0.11555555555555555,-0.008944462428298768,0.010441382428210397,-0.049978928612095345
1592224564.6734736,-9.633663975920099,-0.7958559896800422,1.5692799484002111,0.5244444444444445,-0.38,0.11555555555555555,0.04728269487783292,0.04405909088685635,-0.036845659722889695
1592224564.6834736,-9.480472919937206,-1.008574372056515,1.6760315279958136,0.5461731786731787,-0.39396847200418633,0.110123371998372,0.09838261906867712,0.01991158614562032,0.16248444662035388
1592224564.6934736,-9.71208202484181,-0.7679179751581908,1.393929692992735,0.5555555555555556,-0.4,0.10777777777777778,0.04514633400326579,-0.02306098591402092,0.1592421209825451
1592224564.7034736,-9.609175054361227,-0.8851695846129705,1.3673785558967921,0.5555555555555556,-0.4,0.10777777777777778,0.09408141012369296,-0.04993725460743263,0.15356617894459593
1592224564.7134736,-9.66936326918508,-0.8585093846519364,1.4666497980517939,0.5555555555555556,-0.4,0.10777777777777778,0.03789964432734087,-0.030879504213823527,0.10486418847558404
1592224564.7234735,-9.68985575316891,-0.6780974746978481,1.5401442468310897,0.5555555555555556,-0.4,0.10777777777777778,0.03346064741034181,-0.005872200312982691,0.08947959394143543
1592224564.7334735,-9.464790226651663,-0.6450699244494454,1.5960279697797783,0.5382035757023701,-0.4,0.0940407937273393,0.034009512176480086,-0.001315098998348082,0.07044020928218554
1592224564.7434735,-9.749717722328855,-0.4334438899552143,1.5861397312859886,0.5288888888888889,-0.4,0.08666666666666667,0.06866614371531472,0.011253186225142712,-0.014418675261325384
1592224564.7534735,-9.655560710553814,-0.45186917450365727,1.6362850574712644,0.5288888888888889,-0.4,0.08666666666666667,0.05392985319888874,0.017504266347104468,-0.06733077205328197
1592224564.7634735,-9.704315831543187,-0.5753514512664235,1.6824414247889294,0.5288888888888889,-0.4,0.08666666666666667,-0.050791614170776433,-0.1411450129000475,-0.12426729887462024
1592224564.7734735,-9.491811870100783,-0.8061410974244121,1.6412054440520287,0.5288888888888889,-0.4,0.08666666666666667,0.04273762060812884,-0.11992685143929113,-0.08664949344493383
1592224564.7834735,-9.735603343200417,-0.8345213303151663,1.6323813337976667,0.5332408149051018,-0.40373022229961114,0.09039688896627779,0.08665523267492568,-0.03911370074596068,0.0010917045107916787
1592224564.7934735,-9.751758599156997,-0.8038437321121923,1.5814005828172972,0.5366666666666666,-0.4066666666666667,0.09333333333333334,-0.029015463059357392,0.06132822426585814,0.09300137048265343
1592224564.8034735,-9.529090503608792,-0.8699274187008352,1.5156362014435163,0.5366666666666666,-0.4066666666666667,0.09333333333333334,0.02942496352883444,-0.0167793411521346,0.07327196440017128
1592224564.8134735,-9.565428127428127,-0.7445718725718726,1.4526904946904946,0.5366666666666666,-0.4066666666666667,0.09333333333333334,0.06421634081241892,-0.039620804785220926,0.044308467137767205
1592224564.8234735,-9.582931085918855,-0.6976508427804295,1.5029525283412888,0.5366666666666666,-0.4066666666666667,0.09333333333333334,0.1233460690394934,-0.0577622479256938,0.04504379395699752
1592224564.8334734,-9.468007910576096,-0.5118524505588994,1.6424901117798796,0.5465360848380625,-0.4066666666666667,0.06828019489825166,0.08751194173333211,0.016605914908474156,-0.025628051563731866
1592224564.8434734,-9.362193458821608,-0.48780654117839206,1.7442452329427136,0.5511111111111111,-0.4066666666666667,0.056666666666666664,0.05349529294945871,0.07573040706953348,0.019214674012107955
1592224564.8534734,-9.517565684864087,-0.5268062391156205,1.6948166376416547,0.5511111111111111,-0.4066666666666667,0.056666666666666664,0.13691075765957061,0.15436405017951393,0.10341189248389308
1592224564.8634734,-9.278397514459567,-0.6890653421918338,1.6897922982648519,0.5511111111111111,-0.4066666666666667,0.056666666666666664,0.18786566887887463,0.13369796604040954,0.04103399138978014
1592224564.8734734,-9.484962322200918,-0.8210115039907254,1.6279769920185492,0.5511111111111111,-0.4066666666666667,0.056666666666666664,0.16255455551978776,0.1582933503381611,0.013464685595796536
1592224564.8834734,-9.352720163209792,-1.008911934716083,1.4688742233624927,0.5599395519286713,-0.4211132061863106,0.04623305479136829,0.1087760702970435,0.12137482696283763,-0.08243249509824027
1592224564.8934734,-9.444729594891239,-0.9748273797645182,1.4571921772101377,0.5633333333333334,-0.4266666666666667,0.042222222222222223,0.09936125298243771,0.04279269731115832,-0.0909225634095717
1592224564.9034734,-9.857859233487961,-0.6480122045504749,1.4122017892644136,0.5633333333333334,-0.4266666666666667,0.042222222222222223,0.09539932053281229,-0.05811758218542237,0.0026153312581225757
1592224564.9134734,-9.709202336921953,-0.6238651087186977,1.2876070107658601,0.5633333333333334,-0.4266666666666667,0.042222222222222223,0.12717233110328868,-0.024145420776856934,-0.010265974525257111
1592224564.9234734,-9.868211864746701,-0.5545946813204444,1.3876090008423247,0.5633333333333334,-0.4266666666666667,0.042222222222222223,0.1220188585706721,0.07049568860595193,0.07337583890431988
1592224564.9334733,-9.729465360044657,-0.48045990200334926,1.558160391986603,0.5633333333333334,-0.4310089106659224,0.03281402689050149,0.1530837875247646,0.2009589994619952,0.04479993919719495
1592224564.9434733,-9.692089147595885,-0.44694761183318715,1.5769476118331873,0.5633333333333334,-0.43333333333333335,0.027777777777777776,0.16056227152012242,0.16450460581450638,0.02506744968748773
1592224564.9534733,-9.64191556925376,-0.423462220976931,1.5182688895115346,0.5633333333333334,-0.43333333333333335,0.027777777777777776,0.12224637587867114,-0.0004620264872159732,0.0830497959478668
1592224564.9634733,-9.564415509813308,-0.5038094782192437,1.4519913834370513,0.5633333333333334,-0.43333333333333335,0.027777777777777776,0.04026162948251831,0.03373544321174727,-0.02523542239916836
1592224564.9734733,-9.644846456380105,-0.43368504687748294,1.4293858255204195,0.5633333333333334,-0.43333333333333335,0.027777777777777776,0.0005213644185688392,0.008420873893799107,0.013306839827388117
1592224564.9834733,-9.693442657574753,-0.2955191141417494,1.5079235434330025,0.5703056117095281,-0.43011535869816653,0.024559803142610977,-0.004585879861459773,-0.026108386231227517,0.1220617692738661
1592224564.9934733,-9.611417777777778,-0.27387703703703703,1.6373525925925927,0.5777777777777777,-0.4266666666666667,0.021111111111111112,0.03357625629892201,0.0003558532419343993,0.08103078903328563
1592224565.0034733,-9.719343136523102,-0.15247667388221245,1.5951220422482646,0.5777777777777777,-0.4266666666666667,0.021111111111111112,0.12474350647162745,0.05052198606005307,0.18576855554030672
1592224565.0134733,-9.845918844471193,0.020155089002569376,1.543520288882202,0.5777777777777777,-0.4266666666666667,0.021111111111111112,0.08164962211211732,0.07429885533035754,0.2537183873137764
1592224565.0234733,-9.641946455151603,-0.12169952898476848,1.6217700793181493,0.5777777777777777,-0.4266666666666667,0.021111111111111112,-0.0003707797064660817,0.044640986965159085,0.25287580791463965
1592224565.0334733,-9.547917910447762,-0.22552686567164176,1.6079432835820895,0.5803827529021558,-0.42536417910447766,0.012644941956882256,-0.09654845569537401,-0.016544809569744755,0.21700515436347292
1592224565.0434732,-9.569416058394161,-0.34233576642335767,1.3538442822384429,0.5822222222222222,-0.42444444444444446,0.006666666666666667,-0.09795448099658566,0.006539676515988482,0.1156041761391682
1592224565.0534732,-9.595790789986921,-0.5181231214005461,1.2796246242801093,0.5822222222222222,-0.42444444444444446,0.006666666666666667,-0.08852981699425773,0.05195040616957126,0.15061053534730212
1592224565.0634732,-9.537436418644228,-0.57,1.2772979105606506,0.5822222222222222,-0.42444444444444446,0.006666666666666667,-0.12914381420898255,0.0009169496536991575,0.23790192244863984
1592224565.0734732,-9.49,-0.6559331306990881,1.329079027355623,0.5822222222222222,-0.42444444444444446,0.006666666666666667,-0.10901908726453258,-0.10228113493568972,0.25561712920631385
1592224565.0834732,-9.43632545358024,-0.5451210067763794,1.4277107079286762,0.5749330862886745,-0.42444444444444446,-0.0012851179881127111,-0.04945544649969255,-0.06992513837699911,0.18082181690428556
1592224565.0934732,-9.390824488478147,-0.4222938778804633,1.4542653052988417,0.57,-0.42444444444444446,-0.006666666666666667,-0.03998139802445523,-0.004222627574036889,0.12096511730177989
1592224565.1034732,-9.457655963302752,-0.3686228338430173,1.3743114169215087,0.57,-0.42444444444444446,-0.006666666666666667,-0.1243565439352699,0.010522013621254808,-0.027850210867976028
1592224565.1134732,-9.48769265424195,-0.3215383885806421,1.3238462085645184,0.57,-0.42444444444444446,-0.006666666666666667,-0.22857074332342303,-0.0016782250792312806,-0.00620951556117641
1592224565.1234732,-9.559723664212541,-0.32668969464895486,1.3765515267552257,0.57,-0.42444444444444446,-0.006666666666666667,-0.21031242462622857,0.0014594649697163569,0.04483186836559808
1592224565.1334732,-9.563560852965825,-0.27583667008101315,1.4386479188006331,0.5733214348532348,-0.4296638420709563,-0.01900342469296748,-0.1433836574744308,-0.009634943946635518,-0.007879700821434035
1592224565.1434731,-9.44114237378684,-0.2613649719526311,1.4256824859763155,0.5777777777777777,-0.43666666666666665,-0.035555555555555556,-0.16902807111168017,-0.0059494033257090125,-0.01635925655395272
1592224565.1534731,-9.635082531620842,-0.2799873028275626,1.3749174683791572,0.5777777777777777,-0.43666666666666665,-0.035555555555555556,-0.1516337890469346,0.02729708544884756,0.058913172534735825
1592224565.1634731,-9.403685461633545,-0.36706855567176955,1.3202177427022916,0.5777777777777777,-0.43666666666666665,-0.035555555555555556,-0.09408195092507943,0.06471529683077624,0.06544984694978735
1592224565.1734731,-9.464823355563764,-0.4558455017401956,1.3590814878186308,0.5777777777777777,-0.43666666666666665,-0.035555555555555556,-0.03091218163984464,0.12649320923972596,0.04097783217662533
1592224565.183473,-9.726906673128767,-0.43560688213733983,1.3820086026716747,0.5793770130958511,-0.43666666666666665,-0.04355173214592231,-0.03071666874801125,0.18069009052343174,-0.0287810413515722
1592224565.193473,-9.516773837195922,-0.4243672182458401,1.35,0.5822222222222222,-0.43666666666666665,-0.057777777777777775,-0.09916262111765595,0.11708439521989117,0.019642862112288523
1592224565.203473,-9.644673512696052,-0.42587628363050956,1.2605497963265604,0.5822222222222222,-0.43666666666666665,-0.057777777777777775,-0.12337257036898583,0.0922820438413231,0.1093904489645613
1592224565.213473,-9.603623240448147,-0.3082124389543235,1.1793881068658432,0.5822222222222222,-0.43666666666666665,-0.057777777777777775,-0.11376439061736146,0.0036710952648509043,0.02870583407503493
1592224565.223473,-9.671763414270183,-0.13035707433541538,1.304464388496877,0.5822222222222222,-0.43666666666666665,-0.057777777777777775,-0.11686251160242614,-0.018383320580979842,-0.012038089375132071
1592224565.233473,-9.668530599775975,0.03867350056006245,1.4662245001866874,0.5822222222222222,-0.4337528333125903,-0.05311564441125556,-0.13249589616811352,0.09971528519120448,0.0807771654067531
1592224565.243473,-9.619007361671812,0.10037837409958046,1.4795036808359059,0.5822222222222222,-0.4311111111111111,-0.04888888888888889,-0.1844769016558453,0.08344989325068272,0.14329870881145595
1592224565.253473,-9.731438978994948,-0.005021802712044669,1.3951090135602233,0.5822222222222222,-0.4311111111111111,-0.04888888888888889,-0.06651689466284358,0.09129128304258409,-0.028532838444877515
1592224565.263473,-9.866472353193315,-0.09294042006000856,1.3702357479639948,0.5822222222222222,-0.4311111111111111,-0.04888888888888889,-0.08883187256962566,0.16869349714859788,-0.02661664514547503
1592224565.273473,-9.71851597963722,-0.16425798981860953,1.312968040725562,0.5822222222222222,-0.4311111111111111,-0.04888888888888889,-0.06110147906512419,0.18100070795106368,0.013976578880091966
1592224565.283473,-9.676012362810647,-0.1126381354863126,1.3169938185946766,0.5867211919880015,-0.4356100808768905,-0.05188820206607516,-0.04756146748313558,0.1602985949179351,0.008539290878317942
1592224565.293473,-9.57,-0.09665935588133442,1.3844989033822002,0.5955555555555555,-0.4444444444444444,-0.057777777777777775,-0.13746409520619618,0.1120858534626426,-0.02181661564992912
1592224565.303473,-9.689515931948492,-0.24137089952063162,1.390806466773193,0.5955555555555555,-0.4444444444444444,-0.057777777777777775,-0.1555928771797632,0.12747755708107741,0.0293291884729668
1592224565.313473,-9.785313178002076,-0.24531317800207528,1.3844686821997925,0.5955555555555555,-0.4444444444444444,-0.057777777777777775,-0.11993461163028958,0.2240187090611585,-0.030953905523262493
1592224565.323473,-9.618801536640733,-0.19358704720513767,1.3971740944102753,0.5955555555555555,-0.4444444444444444,-0.057777777777777775,-0.09403849823733548,0.23027126491191624,-0.06025351691717491
1592224565.333473,-9.457253005834382,-0.17994068916610256,1.3469564516648938,0.5955555555555555,-0.4444444444444444,-0.06541942000021489,-0.1864350166818677,0.14810934890889949,0.1450546148386883
1592224565.343473,-9.57998108210367,-0.08502837684449491,1.1600189178963298,0.5955555555555555,-0.4444444444444444,-0.08444444444444445,-0.10144932639453608,-0.024481439998139023,0.10418637752554466
1592224565.353473,-9.61,-0.04,1.13,0.5955555555555555,-0.4444444444444444,-0.08444444444444445,-0.09817477042468103,-0.12326387842209952,0.08508480103472357
1592224565.363473,-9.493405008239012,0.057855425592263435,1.1068100164780248,0.5955555555555555,-0.4444444444444444,-0.08444444444444445,-0.027653926121605367,-0.046519325742194154,-0.019453792312581788
1592224565.373473,-9.56,0.13,1.24,0.5955555555555555,-0.4444444444444444,-0.08444444444444445,-0.04581489286485115,0.08726646259971647,-0.07635815477475191
1592224565.383473,-9.518210943695479,-0.039552735923869944,1.0737700237906425,0.597184950215878,-0.43955626046347696,-0.08851793109525069,-0.11447269927047504,-0.018380282422023553,-0.012602079967809968
1592224565.393473,-9.681253001577973,-0.05440963249251035,1.1902650536281931,0.6022222222222222,-0.42444444444444446,-0.10111111111111111,-0.04063674580803106,0.08158362513283657,-0.09300712579792546
1592224565.403473,-9.67647125549066,0.021830139498962203,1.0726794420041512,0.6022222222222222,-0.42444444444444446,-0.10111111111111111,-0.09960966809660274,0.059579885213326,-0.15431122241416614
1592224565.413473,-9.692772490021492,0.00020878108688977826,1.011937365673933,0.6022222222222222,-0.42444444444444446,-0.10111111111111111,-0.043680119942642856,0.06856794169496451,-0.08555670173246308
1592224565.423473,-9.570990197049213,-0.04696900683235964,1.0528042380433706,0.6022222222222222,-0.42444444444444446,-0.10111111111111111,-0.16096391486281028,0.06226063319753561,0.10633909714274986
1592224565.4334729,-9.81811776061776,-0.029529440154440152,1.1190588803088803,0.6016928088803088,-0.42735621782496785,-0.10614053785928786,-0.2042645789987806,0.09896084509269021,0.07811627707115487
1592224565.4434729,-9.749163884187897,-0.07145016694872616,1.1723665553675158,0.6,-0.43666666666666665,-0.12222222222222222,-0.27940313543616807,0.012284581726276458,0.0473967796122806
1592224565.4534729,-9.406975038156663,-0.12302496184333611,1.16733888040963,0.6,-0.43666666666666665,-0.12222222222222222,-0.131297658357174,-0.0874444456243432,0.04121343553716017
1592224565.4634728,-9.479161581321305,-0.20348392387660097,1.1995699365638341,0.6,-0.43666666666666665,-0.12222222222222222,-0.0059867689666339916,0.08043526605080985,0.01527636694812073
1592224565.4734728,-9.647968180946904,-0.23679681809469044,1.2780477285796434,0.6,-0.43666666666666665,-0.12222222222222222,-0.0512004229201712,0.061427259461579606,0.0017888621193349052
1592224565.4834728,-9.584363832149949,-0.23218191607497393,1.3669085035501565,0.6016970458360908,-0.4339998803528096,-0.11907056566948211,-0.05636882843237986,0.02840058349566369,-0.06878081402341049
1592224565.4934728,-9.552039056674124,-0.1833188851603281,1.2807592281879194,0.6077777777777778,-0.42444444444444446,-0.10777777777777778,-0.17104039577016483,-0.032838500841042874,-0.05872737855506518
1592224565.5034728,-9.633258714279306,-0.11,1.1703088690502894,0.6077777777777778,-0.42444444444444446,-0.10777777777777778,-0.12482980366657019,-0.06662856665989422,-0.10431008799410824
1592224565.5134728,-9.828554895510377,-0.08140652734717062,1.1193160248976404,0.6077777777777778,-0.42444444444444446,-0.10777777777777778,-0.19155846169648597,-0.06495168893073423,-0.06742451063974048
1592224565.5234728,-9.781217716558807,-0.0007257218626927076,1.2368388450196917,0.6077777777777778,-0.42444444444444446,-0.10777777777777778,-0.16832065803339474,-0.02794296173076209,-0.07328695091933635
1592224565.5334728,-9.700476914935837,0.03510715703135336,1.3705252017462628,0.6048130264144287,-0.4230760976613603,-0.11667203186782496,-0.2793356579219417,-0.06312726776882568,0.04401319656646933
1592224565.5434728,-9.535577851504405,-0.1532820043473287,1.3885207642146207,0.5933333333333334,-0.4177777777777778,-0.1511111111111111,-0.04910248537532897,0.12505223689887418,-0.030543261909900768
1592224565.5534728,-9.844380721347493,-0.15607561332845113,1.2963037806664226,0.5933333333333334,-0.4177777777777778,-0.1511111111111111,-0.083914334812,0.0748086588062703,0.045660589837878185
1592224565.5634727,-10.022045476122663,-0.00949587012247223,1.2831652900408241,0.5933333333333334,-0.4177777777777778,-0.1511111111111111,-0.2109490986662691,-0.02869155257817793,0.16518603916386354
1592224565.5734727,-9.587553437659333,-0.061951406047770316,1.2504951562928972,0.5933333333333334,-0.4177777777777778,-0.1511111111111111,-0.11491532437063524,0.004728666090613683,0.07182859942115588
1592224565.5834727,-9.427113476575334,-0.30169459228595835,1.1932216308561665,0.59672251790525,-0.4177777777777778,-0.15224083930175,-0.09502814041072631,0.13839136976842908,-0.09562756335796449
1592224565.5934727,-9.688910118154539,-0.26702996061515377,1.1365617966991748,0.6133333333333333,-0.4177777777777778,-0.15777777777777777,-0.18567982668532895,0.10749994665615328,-0.0700031499626306
1592224565.6034727,-9.922443610721874,-0.16034669800659948,1.1144193825430548,0.6133333333333333,-0.4177777777777778,-0.15777777777777777,-0.19378786604743473,0.08784331154987811,-0.14574984397359664
1592224565.6134727,-9.833501853035145,-0.1458088178913738,1.164416357827476,0.6133333333333333,-0.4177777777777778,-0.15777777777777777,-0.18009135277649124,-0.019467530727776045,-0.044851393051905136
1592224565.6234727,-9.718117760038414,-0.25988236000240084,1.2528235600104036,0.6133333333333333,-0.4177777777777778,-0.15777777777777777,-0.17033646864734298,0.13586614608354033,0.0039013519397034235
1592224565.6334727,-9.898031692537023,-0.2581587219287728,1.3481904792767103,0.6133333333333333,-0.4180811288621004,-0.15838447994642296,-0.26794959631282217,0.025577381940145843,0.0721818271676089
1592224565.6434727,-9.52,-0.2,1.37,0.6133333333333333,-0.41888888888888887,-0.16,-0.27270769562411395,0.006544984694978735,0.04363323129985824
1592224565.6534727,-9.675766612331,-0.22423338766899992,1.2709837951864993,0.6133333333333333,-0.41888888888888887,-0.16,-0.07821044380795067,-0.06822059269993896,-0.01583561212085515
1592224565.6634727,-9.652127371273712,-0.21291327913279132,1.1208672086720868,0.6133333333333333,-0.41888888888888887,-0.16,-0.1368785699364286,-0.045557705119384506,0.07555111736656349
1592224565.6734726,-9.588802848946484,-0.20799881293896527,1.093204273419725,0.6133333333333333,-0.41888888888888887,-0.16,-0.10367439630192185,-0.007329813109980538,0.04921797413438792
1592224565.6834726,-9.649593305851226,-0.17108595336245616,1.2050230726635083,0.611885395516725,-0.41816491998058475,-0.16205124524019499,-0.16111227696462468,0.01943736558904809,0.04886509815446639
1592224565.6934726,-9.457301376872268,-0.1438096567122523,1.075396548516141,0.6,-0.4122222222222222,-0.17888888888888888,-0.1586552433157386,0.0795787390428621,0.1773031066653834
1592224565.7034726,-9.485359745531369,-0.13635910461224393,1.2641405749281933,0.6,-0.4122222222222222,-0.17888888888888888,-0.1707320944635927,0.01846926414341591,0.23804673977222468
1592224565.7134726,-9.387312492571022,-0.28259479377154406,1.2637489599429454,0.6,-0.4122222222222222,-0.17888888888888888,-0.12262335731600985,-0.03108731586964819,0.0857556626142596
1592224565.7234726,-9.73039837337149,-0.1949664884403946,1.1721854055275247,0.6,-0.4122222222222222,-0.17888888888888888,-0.030297970794866923,0.08352449981605216,0.013191503153581662
1592224565.7334726,-9.414177470469605,-0.3184682608278114,1.179443003937386,0.6,-0.41214486165797026,-0.17881152832463693,0.07084041358819151,0.05408584778670126,-0.10983690695519101
1592224565.7434726,-9.658337401747792,-0.18280915881462675,1.1264045794073134,0.6,-0.4066666666666667,-0.17333333333333334,-0.002010125854871295,-0.013776112230443938,-0.03304834364489324
1592224565.7534726,-9.548315026875438,-0.09712953323843719,1.0771295332384372,0.6,-0.4066666666666667,-0.17333333333333334,0.01226975474647419,-0.09841305723990185,-0.07458840819261592
1592224565.7634726,-9.628481227185816,-0.031143316530505817,1.0475938640709195,0.6,-0.4066666666666667,-0.17333333333333334,-0.009638768888026438,-0.055703094726000144,-0.021124157103487775
1592224565.7734725,-9.623739651360106,0.1382272329922353,1.1019668843523422,0.6,-0.4066666666666667,-0.17333333333333334,0.021490269504376366,0.013355903916610203,-0.09013694002366227
1592224565.7834725,-9.654729928878067,0.23618248221951688,1.2442737233292753,0.6,-0.4066666666666667,-0.17757501975609236,-0.0071158763353600385,0.021146195398394164,-0.010855747771883403
1592224565.7934725,-9.59,0.22,1.22,0.6,-0.4066666666666667,-0.19555555555555557,-0.1112647398146385,-0.074176493209759,-0.32506757318394386
1592224565.8034725,-9.603635763984935,0.13136753409792115,1.1995463540225972,0.6,-0.4066666666666667,-0.19555555555555557,-0.03838061543628157,-0.038478146575461725,-0.03799336899980327
1592224565.8134725,-9.473020191989407,0.0840443561734525,1.0649314796425025,0.6,-0.4066666666666667,-0.19555555555555557,0.026820355024812562,-0.0023268168031801255,0.012836633780225745
1592224565.8234725,-9.407305943112618,-0.12934556386340862,1.180243582825869,0.6,-0.4066666666666667,-0.19555555555555557,0.006295925820566151,0.02878000580036938,-0.21341436206620404
1592224565.8334725,-9.768573594187975,-0.10203663978033292,1.0122425776557404,0.5992745139166968,-0.4071200954687311,-0.19483006947225243,-0.09880046462158577,-0.02529211384623472,-0.17067884051737675
1592224565.8434725,-9.684596418969166,-0.26399262055946454,1.1022181225330359,0.5939426297758201,-0.4104525230567791,-0.18949818533137566,-0.007195576865810377,0.07743622456559913,-0.27864174394382635
1592224565.8534725,-9.720189986953686,-0.41415198956294846,1.20613299086758,0.5911111111111111,-0.4122222222222222,-0.18666666666666668,0.022207354367110053,0.02964628840809992,-0.32722851038720147
1592224565.8634725,-9.660904340407379,-0.2322608510184494,1.1936347801357932,0.5911111111111111,-0.4122222222222222,-0.18666666666666668,-0.06882668772554795,0.0014873237884694486,-0.23375459409079896
1592224565.8734725,-9.495084267461003,-0.11215489535157169,1.3227608371874267,0.5911111111111111,-0.4122222222222222,-0.18666666666666668,-0.021956250882963282,0.09343674944340577,-0.14954668381887917
1592224565.8834724,-9.746943640388217,0.003451047164992324,1.2932848629320621,0.5911111111111111,-0.4122222222222222,-0.18666666666666668,-0.0822499411561118,0.10617570682029542,-0.20768641719936193
1592224565.8934724,-9.71231779819565,0.11589406726811624,1.2979470336340582,0.5983566383495706,-0.4018714690244229,-0.18666666666666668,-0.20824999539318395,-0.04552600615281929,-0.16775914404257025
1592224565.9034724,-9.608887361816553,0.11312936958470274,1.1677747236331042,0.5988888888888889,-0.4011111111111111,-0.18666666666666668,-0.0736818876538831,0.05608297720934482,-0.1429337051971245
1592224565.9134724,-9.523453671411065,-0.007339051748515411,0.9947487981902159,0.5988888888888889,-0.4011111111111111,-0.18666666666666668,-0.14442120413166035,-0.012415256260092098,-0.2504989196759059
1592224565.9234724,-9.66162950778638,-0.24190109241744293,1.0856197815165114,0.5988888888888889,-0.4011111111111111,-0.18666666666666668,-0.14415070081382236,-0.02519850117578152,-0.2345863670691739
1592224565.9334724,-9.886601348089611,-0.5043682394378788,1.0331263521124243,0.5988888888888889,-0.4011111111111111,-0.18666666666666668,-0.19650402531465241,0.050059402794161705,-0.03171723462845738
1592224565.9434724,-9.75,-0.5,1.17,0.5844444444444444,-0.38666666666666666,-0.18777777777777777,-0.11780972450961724,-0.02399827721492203,0.04799655442984406
1592224565.9534724,-9.697777777777777,-0.6844444444444444,1.1225925925925926,0.5844444444444444,-0.38666666666666666,-0.18777777777777777,-0.20018764915814588,-0.08532720787527832,0.04932979205289529
1592224565.9634724,-9.38,-0.66,1.09,0.5844444444444444,-0.38666666666666666,-0.18777777777777777,-0.14508049407202864,0.0,-0.15598880189699318
1592224565.9734724,-9.718274650606132,-0.39040653231410705,1.049467029573006,0.5844444444444444,-0.38666666666666666,-0.18777777777777777,-0.1958765821935507,-0.11847194243253306,-0.09529248318163229
1592224565.9834723,-9.540152111806037,-0.24466990965948576,1.0413705505366382,0.5844444444444444,-0.38666666666666666,-0.18777777777777777,-0.039552154633631625,0.05374988454025911,-0.15093338112668822
1592224565.9934723,-9.85,-0.24,1.16,0.5988888888888889,-0.38666666666666666,-0.2,-0.10471975511965977,-0.12544553998709243,-0.12544553998709243
1592224566.0034723,-9.64528431132702,-0.16201307098172157,1.1989934645091391,0.5988888888888889,-0.38666666666666666,-0.2,-0.10897328225993498,-0.07972012322913392,-0.01591721612500578
1592224566.0134723,-9.6,-0.32,1.33,0.5988888888888889,-0.38666666666666666,-0.2,-0.18435040224190105,-0.09817477042468103,-0.019634954084936207
1592224566.0234723,-9.549492745638199,-0.2815269054178145,1.2666097337006428,0.5988888888888889,-0.38666666666666666,-0.2,-0.10616233625806207,-0.09011324045449604,-0.026216079436143104
1592224566.0334723,-9.657335169880625,-0.41247842056932965,1.2280945821854912,0.5988888888888889,-0.38666666666666666,-0.2,-0.1473355788659995,-0.04809972758925374,0.047727703206683326
1592224566.0434723,-9.730892815892815,-0.5081785631785631,1.2285500115500114,0.5988888888888889,-0.38222222222222224,-0.18666666666666668,-0.12615534854131147,-0.06875114085847778,0.08210838772845233
1592224566.0534723,-9.876146993318486,-0.548641425389755,1.144187082405345,0.5988888888888889,-0.38222222222222224,-0.18666666666666668,-0.16057320654414423,-0.17796819185076923,0.07368088189655347
1592224566.0634723,-9.48599941511917,-0.5413332845932641,0.9973326997124335,0.5988888888888889,-0.38222222222222224,-0.18666666666666668,-0.048141594463701365,0.014689875804486075,-0.0878485367531878
1592224566.0734723,-9.583408409959706,-0.5467042049798533,1.1198873850604403,0.5988888888888889,-0.38222222222222224,-0.18666666666666668,-0.11447881559475584,0.008032184096344912,-0.023402090125408004
1592224566.0834723,-9.540074387849984,-0.5250371939249923,1.1848884182250232,0.5988888888888889,-0.38222222222222224,-0.18666666666666668,-0.07823841690564458,-0.010875850002321831,0.05223004626925897
1592224566.0934722,-9.881633052898467,-0.36300103722484733,1.271474011755215,0.5866666666666667,-0.38222222222222224,-0.22333333333333333,-0.180889337095778,-0.056815727076345315,0.054920947595673814
1592224566.1034722,-9.65122227685619,-0.2158895991304573,1.2395564296990242,0.5866666666666667,-0.38222222222222224,-0.22333333333333333,-0.04918469360775641,0.06839600188764294,-0.0228832534255003
1592224566.1134722,-9.66,-0.33,1.38,0.5866666666666667,-0.38222222222222224,-0.22333333333333333,-0.10471975511965977,0.21489366415180183,-0.030543261909900768
1592224566.1234722,-9.332222783276107,-0.11,1.2313968895172693,0.5866666666666667,-0.38222222222222224,-0.22333333333333333,-0.26855542214198785,-0.012452656297360169,-0.025189488224545406
1592224566.1334722,-9.628729549585943,-0.11,1.2652833770955363,0.5866666666666667,-0.38222222222222224,-0.22333333333333333,-0.16782736739310633,0.05593152766059611,-0.0011626127798580708
1592224566.1434722,-10.06,-0.02,1.3,0.5611111111111111,-0.3688888888888889,-0.22333333333333333,-0.14508049407202864,0.04363323129985824,-0.032724923474893676
1592224566.1534722,-9.63998369106212,0.06972274805603286,1.0997390569939134,0.5611111111111111,-0.3688888888888889,-0.22333333333333333,-0.12755426135705922,0.03919874700399327,0.021483937199444136
1592224566.1634722,-9.63,-0.1,0.94,0.5611111111111111,-0.3688888888888889,-0.22333333333333333,-0.08290313946973066,-0.004363323129985824,-0.18216874067690814
1592224566.1734722,-9.771914918620364,-0.45242023620659266,1.0759574593101828,0.5611111111111111,-0.3688888888888889,-0.22333333333333333,-0.07746058673073869,-0.07133337247117401,0.05725121432082845
1592224566.1834722,-9.640475938656795,-0.3291961924907456,1.0102379693283976,0.5611111111111111,-0.3688888888888889,-0.22333333333333333,-0.09538279740126335,-0.06058004606885923,0.03036789831504147
1592224566.1934721,-10.15,-0.45,1.19,0.5688888888888889,-0.37444444444444447,-0.21666666666666667,-0.17998707911191522,-0.32070425005395803,0.09381144729469522
1592224566.2034721,-9.619846116855012,-0.18492305842750661,1.180182335497315,0.5688888888888889,-0.37444444444444447,-0.21666666666666667,-0.03969379957397068,-0.14828273856075902,-0.0347014805263227
1592224566.2134721,-9.101927895924343,-0.06630214584033411,1.0747914166386636,0.5688888888888889,-0.37444444444444447,-0.21666666666666667,-0.17174156929424483,-0.05319092189366978,0.18770683687465475
1592224566.223472,-9.54,-0.1,0.94,0.5688888888888889,-0.37444444444444447,-0.21666666666666667,0.02399827721492203,-0.12762720155208535,0.26398104936414235
1592224566.233472,-9.303735862823787,0.23224644290404958,0.8292511856986502,0.5688888888888889,-0.37444444444444447,-0.21666666666666667,-0.03398966635222813,-0.03339679325546632,0.11417886181567108
1592224566.243472,-9.76,-0.01,1.2,0.5688888888888889,-0.37444444444444447,-0.2311111111111111,-0.0370882466048795,-0.10035643198967394,0.008726646259971648
1592224566.253472,-9.596424298763237,0.14395360116401262,0.9594474981812302,0.5688888888888889,-0.37444444444444447,-0.2311111111111111,-0.0370882466048795,-0.2063668698010152,0.12733238361325447
1592224566.263472,-9.7,0.05,1.02,0.5688888888888889,-0.37444444444444447,-0.2311111111111111,-0.03490658503988659,-0.1908953869368798,-0.01308996938995747
1592224566.273472,-9.772627890948078,-0.16538731046102007,1.1556708531168631,0.5688888888888889,-0.37444444444444447,-0.2311111111111111,0.0039921666614124015,-0.03479944838201006,0.02865431523707109
1592224566.283472,-9.563844386582938,-0.31795987134323783,1.3162735487823558,0.5688888888888889,-0.37444444444444447,-0.2311111111111111,-0.0065192551896173555,0.030020986366006766,0.0987304609106028
1592224566.293472,-9.97,-0.4,1.18,0.5544444444444444,-0.38222222222222224,-0.21444444444444444,-0.019634954084936207,0.08726646259971647,0.14726215563702155
1592224566.303472,-10.004163338710956,-0.0816857528232525,0.9876245008066435,0.5544444444444444,-0.38222222222222224,-0.21444444444444444,0.02546530628373077,-0.01665364036503502,0.1161378924013506
1592224566.313472,-9.62,0.12,0.93,0.5544444444444444,-0.38222222222222224,-0.21444444444444444,0.16689710972195776,-0.05017821599483697,-0.056723200689815706
1592224566.323472,-9.269150936186472,0.17681601069927397,0.917665074512801,0.5544444444444444,-0.38222222222222224,-0.21444444444444444,0.04506881796321171,-0.0869293971383998,-0.02403168573124495
1592224566.333472,-9.237096675582729,0.05661253343523119,0.8295158578525029,0.5544444444444444,-0.38222222222222224,-0.21444444444444444,0.0992657679371404,0.0905219068084958,0.1394333085449594
1592224566.343472,-9.97,0.25,1.02,0.5344444444444445,-0.39444444444444443,-0.21444444444444444,-0.039269908169872414,0.017453292519943295,0.14944381720201447
1592224566.353472,-9.573598191982871,0.16191070932952698,1.3459303754807501,0.5344444444444445,-0.39444444444444443,-0.21444444444444444,-0.02389542659041164,-0.09977712952344511,0.1302257152276885
1592224566.363472,-9.814179478529084,0.49000530146031135,1.2458417273121596,0.5344444444444445,-0.39444444444444443,-0.21444444444444444,0.03962908480036139,-0.13770654317249048,0.05100024260407668
1592224566.373472,-10.08,0.6,1.42,0.5344444444444445,-0.39444444444444443,-0.21444444444444444,-0.05235987755982988,0.08726646259971647,0.13199052468207118
1592224566.383472,-9.866975969889982,0.6137434858135495,1.4612304574406485,0.5344444444444445,-0.39444444444444443,-0.21444444444444444,-0.06885087668247535,0.18996041168164504,0.06527693732227814
1592224566.393472,-9.621151128119644,0.12442443594017798,1.1584074847979715,0.5422222222222223,-0.38666666666666666,-0.22333333333333333,-0.035176981382046044,0.22952820669914106,0.02179774066374125
1592224566.403472,-9.81,0.03,1.27,0.5422222222222223,-0.38666666666666666,-0.22333333333333333,-0.06326818538479445,0.23889194136672384,0.1407171709420428
1592224566.413472,-9.39696117481392,-0.02632347616173808,0.8006376986521827,0.5422222222222223,-0.38666666666666666,-0.22333333333333333,-0.08169999985712323,0.07812555958030068,0.03319825318679165
1592224566.423472,-9.59,0.09,0.88,0.5422222222222223,-0.38666666666666666,-0.22333333333333333,-0.01090830782496456,-0.13853550937704992,-0.056723200689815706
1592224566.433472,-9.54243378326754,0.12397586909461353,0.9751324334649178,0.5422222222222223,-0.38666666666666666,-0.22333333333333333,-0.06872490906290465,-0.0873900544357952,0.08930077935985353
1592224566.443472,-9.56,0.03,1.13,0.5277777777777778,-0.38222222222222224,-0.2311111111111111,0.04581489286485115,0.05235987755982988,0.04581489286485115
1592224566.453472,-9.462764644602935,0.11751181985736037,1.3244707107941343,0.5277777777777778,-0.38222222222222224,-0.2311111111111111,-0.09207262159348362,-0.10674110066132561,0.1338507674805572
1592224566.463472,-9.4,-0.21,1.38,0.5277777777777778,-0.38222222222222224,-0.2311111111111111,0.02617993877991494,-0.06544984694978735,0.02617993877991494
1592224566.4734719,-9.391240461993913,-0.3413930700913147,1.3099236959512988,0.5277777777777778,-0.38222222222222224,-0.2311111111111111,-0.02159592970752521,-0.08456019434476342,0.003247521905943667
1592224566.4834719,-9.567632788964643,-0.3908926589503726,1.1841525289361026,0.5277777777777778,-0.38222222222222224,-0.2311111111111111,0.06430972382972765,-0.07547193043203558,-0.060657594005215955
1592224566.4934719,-9.76,-0.33,1.1,0.5422222222222223,-0.38666666666666666,-0.22333333333333333,0.002181661564992912,-0.08508480103472357,0.008726646259971648
1592224566.5034719,-9.514451945848503,-0.45277402707574843,1.1327397405535329,0.5422222222222223,-0.38666666666666666,-0.22333333333333333,-0.022817800199725975,-0.16097602424904878,0.05336854226839824
1592224566.5134718,-9.63,-0.27,1.28,0.5422222222222223,-0.38666666666666666,-0.22333333333333333,0.15162547876700738,-0.16689710972195776,-0.10253809355466686
1592224566.5234718,-9.387728554168344,-0.10040998791784131,1.368832863471607,0.5422222222222223,-0.38666666666666666,-0.22333333333333333,0.07498510502541063,-0.0884948883081404,0.019029395828555576
1592224566.5334718,-9.461814151445292,0.03519910937715513,1.3973230084136272,0.5422222222222223,-0.38666666666666666,-0.22333333333333333,0.0966640156801418,-0.06502027228093406,-0.0238969125527429
1592224566.5434718,-9.88,0.17,1.51,0.5277777777777778,-0.4011111111111111,-0.2088888888888889,0.05890486225480862,0.12544553998709243,-0.056723200689815706
1592224566.5534718,-9.364155550165737,-0.07180208585981082,1.3004381922548307,0.5277777777777778,-0.4011111111111111,-0.2088888888888889,-0.014949382132956518,-0.05655241939704311,-0.12793979349230353
1592224566.5634718,-9.92875701399247,-0.2601065416577882,1.1497158889125647,0.5277777777777778,-0.4011111111111111,-0.2088888888888889,0.18443562944985234,0.01972018129288749,-0.09531129119607787
1592224566.5734718,-9.581193266567228,-0.2898977200085233,1.070272746643938,0.5277777777777778,-0.4011111111111111,-0.2088888888888889,0.20826686133718986,0.043551413180225006,0.09533856390262227
1592224566.5834718,-9.78546406204486,-0.35848802068161956,1.039560879697058,0.5277777777777778,-0.4011111111111111,-0.2088888888888889,0.18676612533475778,-0.03107560989190631,0.06444937591205421
1592224566.5934718,-9.52,-0.45,1.2,0.5155555555555555,-0.4088888888888889,-0.24444444444444444,0.24434609527920614,-0.04145156973486533,-0.12326387842209952
1592224566.6034718,-9.854578278922087,-0.11542172107791254,1.1702597085402588,0.5155555555555555,-0.4088888888888889,-0.24444444444444444,0.17702972256444938,-0.08038152022050779,0.017046151453236874
1592224566.6134717,-9.319061569637988,-0.18725626078907207,1.044079457606765,0.5155555555555555,-0.4088888888888889,-0.24444444444444444,0.0030401951414997797,-0.025723149466727227,-0.01236535056789033
1592224566.6234717,-9.514841336116909,-0.043132045929018786,1.1576049060542797,0.5155555555555555,-0.4088888888888889,-0.24444444444444444,0.14212619865790946,0.0960444621668808,0.016729791602199822
1592224566.6334717,-9.715219512195121,0.1954117647058823,1.079615494978479,0.5155555555555555,-0.4088888888888889,-0.24444444444444444,0.1488384608940236,0.020510122770118447,0.0011687696246317873
1592224566.6434717,-9.365906588398293,0.2810631859116929,0.940945054143727,0.49579181909148734,-0.4088888888888889,-0.22358272262126128,0.10096208230344708,0.12783727805309336,-0.01090830782496456
1592224566.6534717,-9.5019757822803,-0.04338928186068819,0.9873252607601007,0.4955555555555556,-0.4088888888888889,-0.22333333333333333,0.22941606005664766,0.12034449039216685,-0.10985402267631104
1592224566.6634717,-9.471972693531283,-0.19802730646871686,0.6792998409331921,0.4955555555555556,-0.4088888888888889,-0.22333333333333333,0.24489943452078322,0.09872810966625811,0.07248382575137355
1592224566.6734717,-9.462652214208003,-0.3322601442559536,0.9124769311359149,0.4955555555555556,-0.4088888888888889,-0.22333333333333333,0.20827773611625214,0.07733527401941873,0.07693677815472465
1592224566.6834717,-9.627549562184907,-0.2526623327394716,1.0603178423865662,0.4955555555555556,-0.4088888888888889,-0.22333333333333333,0.15431862878124336,0.07419960736037556,0.0207966158871217
1592224566.6934717,-9.44,-0.11,1.11,0.5344444444444445,-0.42777777777777776,-0.2,0.22580197197676635,0.039269908169872414,-0.26616271092913524
1592224566.7034717,-9.453335255532329,-0.04999135010451958,1.1966791609601384,0.5344444444444445,-0.42777777777777776,-0.2,0.17197989523642007,-0.007278914956913567,-0.19561215087760025
1592224566.7134717,-9.59215867425008,-0.22767791667869616,1.041761988624881,0.5344444444444445,-0.42777777777777776,-0.2,0.2006861262325933,-0.07173261906587457,-0.05840846606594384
1592224566.7234716,-10.022185123887649,-0.0097172051521911,1.1259511645199203,0.5344444444444445,-0.42777777777777776,-0.2,0.07524558116094282,-0.07626982288725322,-0.09422647110971424
1592224566.7334716,-9.944210822470223,-0.05268404764137672,1.1108421644940447,0.5344444444444445,-0.42777777777777776,-0.2,0.1607192817069359,-0.01575408035664346,-0.11427882096860016
1592224566.7434716,-9.967290512532445,-0.14916631154844456,1.1389578894355556,0.5159492417687901,-0.42777777777777776,-0.19564818760572839,0.05667958943318005,-0.13246610712604182,0.08692357332031553
1592224566.7534716,-9.823836509528586,-0.045597506806132684,1.237442326980943,0.5155555555555555,-0.42777777777777776,-0.19555555555555557,0.08880322263030899,0.051936768385418386,-0.004033995080305358
1592224566.7634716,-9.517518924142374,-0.25146185644494556,1.055480485317013,0.5155555555555555,-0.42777777777777776,-0.19555555555555557,0.12333312775909969,-0.03138886512479619,0.08153976203657984
1592224566.7734716,-9.508196388961768,0.12032055715887141,1.1027855558470676,0.5155555555555555,-0.42777777777777776,-0.19555555555555557,0.13735504871295687,-0.028344116664085525,0.07614392764991408
1592224566.7834716,-9.355917633240345,-0.21119842901189254,1.2290636470415506,0.5155555555555555,-0.42777777777777776,-0.19555555555555557,0.043036765796743814,-0.03229185836905453,0.10015215146360226
1592224566.7934716,-9.414386882306802,-0.2073402308295671,1.2608635565681843,0.490040297646468,-0.43521972800126163,-0.19555555555555557,0.1242981977081136,0.036067128274063893,-0.03485761112584779
1592224566.8034716,-9.64026265539145,-0.21295662678773236,1.2016951794552044,0.4888888888888889,-0.43555555555555553,-0.19555555555555557,0.02027433625240939,0.0025228410926931844,0.0009488922772645653
1592224566.8134716,-9.795327714853187,-0.13168071286703525,0.9492017821675882,0.4888888888888889,-0.43555555555555553,-0.19555555555555557,0.02431541391136309,0.06925396486355968,-0.002977313971056675
1592224566.8234715,-9.806136648981411,-0.0034036693532056295,0.8893167550929488,0.4888888888888889,-0.43555555555555553,-0.19555555555555557,0.024692068742536315,-0.03307729747032488,-0.017255457671455216
1592224566.8334715,-9.620010358238709,0.044668047765161145,0.914330916410968,0.4888888888888889,-0.43555555555555553,-0.19555555555555557,0.09493453376882725,-0.028729353603806435,0.017451032702816158
1592224566.8434715,-9.683962159813563,0.039155903148082316,1.205521191294387,0.5061833726130444,-0.43555555555555553,-0.22098861985578422,0.08959655849917636,-0.08060876260169983,-0.03844875822900985
1592224566.8534715,-9.496104777197912,-0.10828743476515457,1.2114640706543556,0.5077777777777778,-0.43555555555555553,-0.22333333333333333,0.12080602778664473,-0.030137408048311963,-0.07412228010222266
1592224566.8634715,-9.800563301728944,-0.22583379810373677,1.398059118795315,0.5077777777777778,-0.43555555555555553,-0.22333333333333333,0.17107913470739036,0.08544983085597169,-0.05593473627591977
1592224566.8734715,-9.782299644077108,-0.010749110192771666,1.3861498220385542,0.5077777777777778,-0.43555555555555553,-0.22333333333333333,0.09622077024436365,0.008248497420690892,0.1440242671946311
1592224566.8834715,-9.651034649997305,0.1587929083364768,1.2808622083310879,0.5077777777777778,-0.43555555555555553,-0.22333333333333333,-0.02017395236348181,0.020148989305212688,0.1344919641991458
1592224566.8934715,-9.460312872073025,0.12319883582484456,1.1231988358248446,0.5077777777777778,-0.4389460687039732,-0.19620922814599226,0.017360790531376,0.2091422339578084,0.004119008205423491
1592224566.9034715,-9.634318657549539,0.057650013954786486,1.1304374825565169,0.5077777777777778,-0.44,-0.18777777777777777,0.0061154871994702625,0.1775245659150906,-0.04112977008733567
1592224566.9134715,-9.89282863522188,0.0186296399665085,1.1792129500418642,0.5077777777777778,-0.44,-0.18777777777777777,-0.04176971602783456,0.07324123444229341,-0.05389915761461696
1592224566.9234715,-9.865269492140893,0.4505986408673549,1.1052694921408934,0.5077777777777778,-0.44,-0.18777777777777777,-0.07454227264525504,0.10378567078461443,0.03755197842324119
1592224566.9334714,-9.687901021435763,0.4716443677168753,1.1613235505682635,0.5077777777777778,-0.44,-0.18777777777777777,-0.01629827675830124,0.18346813340875545,0.02483534977913381
1592224566.9434714,-9.389558270676691,0.4063293233082707,1.2168353383458645,0.4918777360066834,-0.45215885547201334,-0.1943248538011696,-0.061514080276128896,0.1103333917732371,0.025254701031242575
1592224566.9534714,-9.45834771593698,0.3036909191671285,1.2681545404164358,0.4888888888888889,-0.45444444444444443,-0.19555555555555557,-0.03696181352233855,0.11111611185353674,-0.09311045185003337
1592224566.9634714,-9.646473074514715,0.3398340638697558,1.183526925485285,0.4888888888888889,-0.45444444444444443,-0.19555555555555557,-0.15338851608915588,0.09912753973447111,0.08792287360909606
1592224566.9734714,-9.693638461232446,0.40254923021840316,1.1883661534789354,0.4888888888888889,-0.45444444444444443,-0.19555555555555557,-0.08263647458695066,0.11598702989504843,0.007663675339923487
1592224566.9834714,-9.6394191663858,0.5037205557428005,1.1770235554057595,0.4888888888888889,-0.45444444444444443,-0.19555555555555557,-0.006798421169330229,0.14423317309346662,-0.035823106757899195
1592224566.9934714,-9.62172928066195,0.429298345122114,1.082523021486721,0.4959138529294007,-0.45444444444444443,-0.2006646203122915,-0.10542869322229717,0.137230530445474,0.07585874265686135
1592224567.0034714,-9.73264268298751,0.3036786585062447,1.04,0.5011111111111111,-0.45444444444444443,-0.20444444444444446,-0.05059843851153535,0.09256565199590143,0.04408526089415741
1592224567.0134714,-9.737493636517902,0.3200084846427965,0.8824554556253181,0.5011111111111111,-0.45444444444444443,-0.20444444444444446,-0.004361472068077633,0.019618294527762495,0.09901348657528199
1592224567.0234714,-9.663764974064339,0.25640552673815453,0.8815161312832919,0.5011111111111111,-0.45444444444444443,-0.20444444444444446,-0.0037872439021055804,0.036928393753591374,-0.004379917378357634
1592224567.0334713,-9.683506426552418,0.2245616966809479,0.9435064265524169,0.5011111111111111,-0.45444444444444443,-0.20444444444444446,-0.015041406726940251,0.03238140999991293,-0.05017821599483697
1592224567.0434713,-9.725878763809662,0.18472741714203192,0.9623637085710159,0.48216842772442453,-0.44595289671937804,-0.20444444444444446,-0.07145252751179706,0.008475461382696668,-0.09955628724969343
1592224567.0534713,-9.708580850367182,0.12430141727863792,0.9428602834557275,0.4688888888888889,-0.44,-0.20444444444444446,-0.06422099767874359,-0.018067717155465176,-0.0975675400985437
1592224567.0634713,-9.861885348809665,0.09592301314698566,0.9259230131469857,0.4688888888888889,-0.44,-0.20444444444444446,-0.10711565517849796,-0.04153554936398089,-0.052191918301598764
1592224567.0734713,-9.59212728221179,0.03624752217005738,0.8355318205529474,0.4688888888888889,-0.44,-0.20444444444444446,-0.04738880178652359,-0.10579377106145577,0.03109192077295922
1592224567.0834713,-9.583308942372682,-0.17948808369332042,0.9033089423726822,0.4688888888888889,-0.44,-0.20444444444444446,-0.04498131081224785,-0.07096782419201633,0.020069696424476507
1592224567.0934713,-9.62176489897148,-0.3936063899627982,1.0587212779925597,0.4872349875588624,-0.4499374701129023,-0.1990934989990355,-0.030772106415733427,-0.01776568595871207,-0.1057826169022257
1592224567.1034713,-9.574398831429981,-0.3691300223849452,1.0887976628599614,0.4955555555555556,-0.45444444444444443,-0.19666666666666666,-0.015489159755375369,-0.04008456511575625,-0.058799284634967655
1592224567.1134713,-9.676517561112671,-0.4552183197527395,1.0121831975273954,0.4955555555555556,-0.45444444444444443,-0.19666666666666666,-0.051030896870618125,-0.1292338092496661,0.025422517866819903
1592224567.1234713,-9.712614117647059,-0.46261411764705884,0.96,0.4955555555555556,-0.45444444444444443,-0.19666666666666666,-0.020030219827299627,-0.16528576015666063,-0.00823179408381796
1592224567.1334713,-9.73,-0.42933887842449786,0.9549338878424497,0.4955555555555556,-0.45444444444444443,-0.19666666666666666,0.06370088844411262,-0.07679004410006103,-0.08121187470529834
1592224567.1434712,-9.73,-0.3622403577844884,0.95,0.5073953170325634,-0.4590487961299474,-0.1914045504546632,0.06499668579600228,-0.05406894724802853,-0.04677625498867051
1592224567.1534712,-9.692887221971658,-0.34257744439433147,0.9648451112113371,0.5155555555555555,-0.4622222222222222,-0.18777777777777777,0.13512653047569867,-0.01938891059512489,-0.14760825301492284
1592224567.1634712,-9.67304041195567,-0.34,0.92824247173402,0.5155555555555555,-0.4622222222222222,-0.18777777777777777,0.10844076660563672,-0.08920670779204674,-0.0819501736769844
1592224567.1734712,-9.67,-0.36685254437869824,0.9569919526627219,0.5155555555555555,-0.4622222222222222,-0.18777777777777777,0.024319975476458255,-0.17299873947736183,0.1444739405200005
1592224567.1834712,-9.659884991167033,-0.3749424955835166,1.0204600353318671,0.5155555555555555,-0.4622222222222222,-0.18777777777777777,0.037564976270864366,-0.14839030835096656,0.13803337405488403
1592224567.1934712,-9.632509833828369,-0.3641699446094565,1.094980332343261,0.500008741180773,-0.4622222222222222,-0.19619896889745167,0.003496490512507111,-0.0729217357013387,0.04672463365311122
1592224567.2034712,-9.62,-0.36,1.1230373996475427,0.4888888888888889,-0.4622222222222222,-0.20222222222222222,-0.03891303327827361,-0.062106056518257,0.03454971014828779
1592224567.2134712,-9.60760661623285,-0.36,1.0680330811642518,0.4888888888888889,-0.4622222222222222,-0.20222222222222222,-0.04012813841495489,-0.08539239881095978,-0.011551980508776418
1592224567.2234712,-9.6,-0.36635670910412416,1.0744969637288693,0.4888888888888889,-0.4622222222222222,-0.20222222222222222,0.0029100074191096767,-0.08706359584942312,-0.012903726869075448
1592224567.2334712,-9.61880024208765,-0.379400121043825,1.128200363131475,0.4888888888888889,-0.4622222222222222,-0.20222222222222222,0.0391390348836389,-0.06996563551649507,-0.07370830082434915
1592224567.2434711,-9.625386678408454,-0.3753866784084541,1.1746133215915457,0.48510024995774736,-0.45139753956181783,-0.19951605155712113,0.011695669151919011,-0.05756095104579109,-0.10534132169514761
1592224567.2534711,-9.62392513982504,-0.4017754194751183,1.2108877097375592,0.4811111111111111,-0.44,-0.19666666666666666,-0.06672386471726924,-0.21497422888046747,-0.01181595162247559
1592224567.2634711,-9.63,-0.4007224810972393,1.1364640847547038,0.4811111111111111,-0.44,-0.19666666666666666,-0.08165885965857284,-0.1530816141433608,-0.03613417726917749
1592224567.273471,-9.605610057218833,-0.4021949713905838,1.1387798855623352,0.4811111111111111,-0.44,-0.19666666666666666,-0.08519114143200104,-0.10152684972804807,-0.04246281356148411
1592224567.283471,-9.603686903015776,-0.41912460201051766,1.2064984080420706,0.4811111111111111,-0.44,-0.19666666666666666,-0.05461123553585341,-0.093539607877428,-0.022580544509019397
1592224567.293471,-9.615483959311424,-0.4029037558685446,1.2229037558685445,0.4846235872022257,-0.44,-0.19365597287428274,-0.03378016142199882,-0.07572465351749928,-0.07466792186627101
1592224567.303471,-9.630056498527686,-0.3900564985276867,1.2033709990184578,0.4888888888888889,-0.44,-0.19,-0.007855621627585865,-0.09311298759517521,-0.043698961617053014
1592224567.313471,-9.652178925924321,-0.38782107407567945,1.1734632222270382,0.4888888888888889,-0.44,-0.19,0.06660833751511734,-0.003850224623130838,-0.024486221980010825
1592224567.323471,-9.648412886960317,-0.38579355651984193,1.1326193304404741,0.4888888888888889,-0.44,-0.19,0.027393124754542766,-0.03301781435625245,0.018646963013310473
1592224567.333471,-9.64449824394527,-0.39899648789053926,1.1379929757810785,0.4888888888888889,-0.44,-0.19,-0.038718746102957266,-0.11044182783137707,0.021288440285681637
1592224567.343471,-9.637963075674579,-0.41,1.1961107729762628,0.4888888888888889,-0.44,-0.18643350390357896,-0.01032965923783382,-0.07948967345446886,-0.03622632282976024
1592224567.353471,-9.591701307800093,-0.3590623540401681,1.2103818309201309,0.4888888888888889,-0.44,-0.1811111111111111,-0.0028333068572922795,-0.050420736056709145,-0.014286775325540926
1592224567.363471,-9.59829489291598,-0.42186161449752885,1.2479077429983525,0.4888888888888889,-0.44,-0.1811111111111111,-0.009436494956983343,-0.12331509535340289,0.04728670573283237
1592224567.373471,-9.608536870482142,-0.46561061144642985,1.2885368704821434,0.4888888888888889,-0.44,-0.1811111111111111,-0.04320592396754458,-0.10784711391097901,-0.021494859994830084
1592224567.383471,-9.582719499928151,-0.43567987498203764,1.3232012501796235,0.4888888888888889,-0.44,-0.1811111111111111,0.0021494688114427896,-0.07010982150323553,-0.06677545166596452
1592224567.393471,-9.575732957360058,-0.43,1.3760667606599855,0.48582970273554427,-0.4430591861533446,-0.18941461638447502,0.1340265370811201,-0.04103041752329446,0.019691983381647148
1592224567.403471,-9.62499411694081,-0.39875735382398847,1.3325088245887862,0.4811111111111111,-0.4477777777777778,-0.20222222222222222,0.06342427280544269,-0.032717222568421016,0.017471261301712837
1592224567.413471,-9.68108190068455,-0.4034753718197427,1.1750166120364796,0.4811111111111111,-0.4477777777777778,-0.20222222222222222,0.01308996938995747,-0.09653308797471079,-0.03860466362951792
1592224567.423471,-9.687812625843895,-0.3922657823048679,1.1188279047731848,0.4811111111111111,-0.4477777777777778,-0.20222222222222222,-0.013532968393513539,-0.09313839578713426,0.0661224591792883
1592224567.433471,-9.665835162857658,-0.378329674284686,1.1791538599964009,0.4811111111111111,-0.4477777777777778,-0.20222222222222222,-0.05035323574032444,-0.09770608811834874,0.1282756932873841
1592224567.443471,-9.656670514973412,-0.3999884550797649,1.2233294850265883,0.48592036726062754,-0.44518817831265356,-0.20518176446807848,-0.05528806976319375,-0.12510249919840433,0.03351679090901072
1592224567.453471,-9.623002572757098,-0.40920102910283945,1.2623969126914816,0.4955555555555556,-0.44,-0.2111111111111111,-0.058334150259037945,-0.06942237937906906,-0.042022281730636005
1592224567.463471,-9.594485434985508,-0.416543695043474,1.29,0.4955555555555556,-0.44,-0.2111111111111111,-0.03891828309767406,-0.11672527034760108,0.02518443579434638
1592224567.473471,-9.584504165796375,-0.42450416579637495,1.3284708394253755,0.4955555555555556,-0.44,-0.2111111111111111,0.023763752014312894,-0.0857479220520763,0.006581338126333949
1592224567.483471,-9.583982504197225,-0.42,1.3639825041972256,0.4955555555555556,-0.44,-0.2111111111111111,0.0397138744669634,0.015562917570193315,-0.03880685691255042
1592224567.493471,-9.593022979701264,-0.42302297970126385,1.3730229797012639,0.48749427635218523,-0.44436652623515893,-0.21279054427847993,0.04829994826908149,0.015986457254778583,-0.025573151101440088
1592224567.503471,-9.610606168976307,-0.4246969155118462,1.3587876620473849,0.4688888888888889,-0.45444444444444443,-0.21666666666666667,0.008230140268582334,-0.02875755680238981,0.10427430410499255
1592224567.513471,-9.645673454367026,-0.4045959273797841,1.2629796368989206,0.4688888888888889,-0.45444444444444443,-0.21666666666666667,-0.04457713713152286,0.0584898862461386,0.12359249253344087
1592224567.5234709,-9.637841768470041,-0.39535970525499325,1.2596761683149118,0.4688888888888889,-0.45444444444444443,-0.21666666666666667,-0.0006828004199919691,0.0337922750607919,0.030755209252165933
1592224567.5334709,-9.594129061450374,-0.4079354692748125,1.3596773463740623,0.4688888888888889,-0.45444444444444443,-0.21666666666666667,0.028396796395633535,-0.015651649586787872,-0.037292284983088585
