time,acc_x,acc_y,acc_z,mag_x,mag_y,mag_z,gyr_x,gyr_y,gyr_z
1592224821.2932289,-9.615202573356347,-0.45040514671269416,1.4469935666091323,0.44922293704342975,-0.2824212214725317,0.157353697020416,-0.052169063475987584,-0.00853583217612934,0.14094971490895003
1592224821.3032289,-9.633932584269663,-0.4559550561797753,1.412134831460674,0.4477777777777778,-0.28444444444444444,0.16111111111111112,-0.04505498827479744,0.03338677585977916,-0.06243474164086457
1592224821.3132288,-9.64,-0.47505949698007754,1.3171727666095736,0.4477777777777778,-0.28444444444444444,0.16111111111111112,0.025874657596803047,-0.011706837651815953,-0.037315646423190435
1592224821.3232288,-9.647347103322346,-0.4726528966776542,1.3267355166117292,0.4477777777777778,-0.28444444444444444,0.16111111111111112,0.036197557105415015,-0.08081160227207436,0.005120585107428998
1592224821.3332288,-9.632122415764082,-0.4580816105093875,1.4055511421983686,0.4477777777777778,-0.28444444444444444,0.16111111111111112,0.039225396541964844,-0.031869945140555134,0.04081048393349193
1592224821.3432288,-9.584800534134535,-0.45,1.5203989317309297,0.44230230530981657,-0.27896897197648324,0.1399914315918322,0.04516909773559753,-0.12897767591592715,0.11560978228854646
1592224821.3532288,-9.532235973785765,-0.45,1.6104224419427762,0.44,-0.27666666666666667,0.13111111111111112,-0.03986896464736973,-0.08243278672692059,0.03060680424146399
1592224821.3632288,-9.534268872235423,-0.499941052823981,1.5871933832937306,0.44,-0.27666666666666667,0.13111111111111112,0.014862594334535198,-0.09157834461438807,0.05633988462705764
1592224821.3732288,-9.603125387661626,-0.34465170093993036,1.2894427215038884,0.44,-0.27666666666666667,0.13111111111111112,0.08472141630628277,-0.04175416480950794,0.07766107274836785
1592224821.3832288,-9.5896825210413,-0.3506349579174007,1.2794331571736153,0.44,-0.27666666666666667,0.13111111111111112,0.023706364150559295,0.00827152492586136,0.17939595088634863
1592224821.3932288,-9.777143964848799,-0.7319720858102869,1.5921194107004393,0.43084833864621924,-0.27250682059676634,0.16438987967031388,0.0783576822778444,-0.02500875473481537,0.09353119767003729
1592224821.4032288,-9.894138764512421,-0.7860526211514839,1.5670095494710148,0.42777777777777776,-0.27111111111111114,0.17555555555555555,0.12579262447349915,-0.04359147742515477,0.12326128501373285
1592224821.4132288,-9.81045094853789,-0.6461741431715753,1.4142768053663137,0.42777777777777776,-0.27111111111111114,0.17555555555555555,0.13302876326669022,-0.02752692786533387,0.15566644602326418
1592224821.4232287,-9.716762358498249,-0.5831431712680186,1.4409520319244238,0.42777777777777776,-0.27111111111111114,0.17555555555555555,0.10384733035383956,-0.030750963055716934,0.11843322771402734
1592224821.4332287,-9.612622064369376,-0.4807197158648762,1.5273779356306243,0.42777777777777776,-0.27111111111111114,0.17555555555555555,0.12717863257157036,-0.04243864350197458,0.13663434218111403
1592224821.4432287,-9.523970734381962,-0.3739707343819609,1.5764117062472158,0.4446519234357211,-0.2747794036454466,0.16601799496628325,0.14685477159029092,0.050742677281828394,0.2116371337228254
1592224821.4532287,-9.380274048333597,-0.36965566261254146,1.5544132048649504,0.4533333333333333,-0.27666666666666667,0.16111111111111112,0.1146046875801262,0.10205668758305177,0.18067085133752528
1592224821.4632287,-9.077475693934499,-0.8865052136877662,1.4133009252459978,0.4533333333333333,-0.27666666666666667,0.16111111111111112,0.2393474661496509,0.13523126454592257,-0.07666539449786422
1592224821.4732287,-9.155477684101172,-1.0188512406600871,1.3354413233707596,0.4533333333333333,-0.27666666666666667,0.16111111111111112,0.25819315623794786,0.07105960344721839,-0.11520200824774085
1592224821.4832287,-9.46082334855541,-0.8624650721164715,1.2415069855767058,0.4533333333333333,-0.27666666666666667,0.16111111111111112,0.18949102306742172,-0.0067235264245368576,-0.10678220802157479
1592224821.4932287,-9.579814296289145,-0.6560213704097068,1.1754642592771394,0.44919245884872994,-0.27666666666666667,0.15614206172958708,0.14600066641309367,-0.07888113322260766,-0.05201273280178138
1592224821.5032287,-9.576711489497136,-0.6354360280076384,1.2563080840229153,0.4477777777777778,-0.27666666666666667,0.15444444444444444,0.08340854268794173,-0.09873129548653393,-0.0933424976831557
1592224821.5132287,-9.646040699017167,-0.5437688932228182,1.2609389514742486,0.4477777777777778,-0.27666666666666667,0.15444444444444444,0.07747118342762019,-0.17132559885727222,-0.1285310999533169
1592224821.5232286,-9.650246144221747,-0.6090154231130146,1.2769461755010707,0.4477777777777778,-0.27666666666666667,0.15444444444444444,0.13737504663030903,-0.07177913790855775,-0.16831604799975
1592224821.5332286,-9.634344705415229,-0.6613105891695428,1.3037701963898476,0.4477777777777778,-0.27666666666666667,0.15444444444444444,0.15676628661463585,-0.03356017981151095,-0.18521797603549953
1592224821.5432286,-9.725701111062316,-0.672865925958456,1.4371340740415441,0.45437330132380854,-0.2736687014184709,0.15804200274227942,0.16496158089423887,-0.11426120708774622,-0.07922163947123981
1592224821.5532286,-9.791619954303123,-0.6191900228484387,1.5654067022086824,0.46,-0.27111111111111114,0.16111111111111112,0.14254541330301898,-0.10471975511965977,-0.04151122064894244
1592224821.5632286,-9.75641195374516,-0.6135292663498777,1.566940972889829,0.46,-0.27111111111111114,0.16111111111111112,0.07989353473411878,-0.06121476167925397,0.06716344032777889
1592224821.5732286,-9.748705608383467,-0.6248825926644673,1.5520589947603338,0.46,-0.27111111111111114,0.16111111111111112,0.03490658503988659,-0.001501294762170556,0.037453409247962435
1592224821.5832286,-9.895173082248686,-0.7601087945563161,1.6550840685207897,0.46,-0.27111111111111114,0.16111111111111112,0.08568038419843893,0.014175405788317674,0.014218560861407693
1592224821.5932286,-9.814148088906661,-0.7309500483188377,1.6287600386550702,0.46,-0.27852710853410645,0.15740311239961347,0.08963641779173231,-0.045878142075472764,0.07420179289400765
1592224821.6032286,-9.682955282669138,-0.7659105653382762,1.7456012511584802,0.46,-0.28444444444444444,0.15444444444444444,0.05525376367187446,0.008944003644806423,0.1531248656106497
1592224821.6132286,-9.386013777324614,-0.9286085896893884,1.5773581855711125,0.46,-0.28444444444444444,0.15444444444444444,0.08497677864841383,-0.05410944957958384,0.2416010733685341
1592224821.6232285,-9.53325449385052,-0.8252649006622517,1.4017549668874172,0.46,-0.28444444444444444,0.15444444444444444,0.050058503250494886,-0.04976334941530663,0.30142430617638116
1592224821.6332285,-9.491834743395323,-0.8864398595258999,1.4547144624471227,0.46,-0.28444444444444444,0.15444444444444444,0.048423344476599406,0.012363634023768902,0.24299017494247502
1592224821.6432285,-9.433621204256424,-1.0402355307552558,1.5367713470023359,0.46,-0.2911372811950284,0.13510958272053522,0.042826078805464934,-0.024976712508020332,0.08869341818016749
1592224821.6532285,-9.451367185935686,-1.0373925753874496,1.5057470665972528,0.46,-0.29444444444444445,0.12555555555555556,0.04390380940513167,-0.06434516836952343,0.07712568097908745
1592224821.6632285,-9.373253968253968,-0.9076719576719577,1.320925925925926,0.46,-0.29444444444444445,0.12555555555555556,0.08193928369895337,0.0006695046072465183,0.0952456877679776
1592224821.6732285,-9.509476240861868,-0.78651644863409,1.3072472585609851,0.46,-0.29444444444444445,0.12555555555555556,0.05907227477053324,-0.04904087590642081,-0.026719373279031358
1592224821.6832285,-9.458036120926579,-0.8243274440518257,1.343818217510797,0.46,-0.29444444444444445,0.12555555555555556,0.01858772227128865,-0.16036009104682764,-0.02648136269225142
1592224821.6932285,-9.360388045834624,-0.7892239083307525,1.3132554970579127,0.46683035683562163,-0.28866491173738,0.1323859123911772,-0.029241156562098244,-0.21891048213046937,-0.006984762803573931
1592224821.7032285,-9.255247649911512,-0.9594086280999333,1.358832195637684,0.47444444444444445,-0.2822222222222222,0.14,0.041682126168610924,-0.19307867814173713,0.010356837694835343
1592224821.7132285,-9.66630127560472,-0.9789361139046208,1.310196369025565,0.47444444444444445,-0.2822222222222222,0.14,0.02983863591775622,-0.16126264222593997,-0.03604920617922946
1592224821.7232285,-9.834235519591141,-0.6477257240204429,1.1128236797274276,0.47444444444444445,-0.2822222222222222,0.14,0.03357185044103127,-0.15989869621790043,-0.17014381795171776
1592224821.7332284,-9.788354705498804,-0.6789458813301457,1.2219278417735275,0.47444444444444445,-0.2822222222222222,0.14,0.08905551043382173,-0.16787295399510607,-0.14013678542681757
1592224821.7432284,-9.739265574774223,-0.7503036889637227,1.4437217204959438,0.47444444444444445,-0.2809620218718642,0.13180869772267292,0.1489993032407161,-0.11379694326617253,-0.11715258787597374
1592224821.7532284,-9.677597977755308,-0.7453265925176946,1.532924570273003,0.47444444444444445,-0.28,0.12555555555555556,0.16965544466037882,-0.05608515843394256,-0.12358404663195097
1592224821.7632284,-9.513491747374164,-0.9588604555995089,1.7322425317146364,0.47444444444444445,-0.28,0.12555555555555556,0.16249789675637813,0.06794061939563666,0.04559020939989825
1592224821.7732284,-9.699941698593626,-0.8252809175927468,1.7649063608024178,0.47444444444444445,-0.28,0.12555555555555556,0.21378240446547114,0.015160427112478045,0.011539293586593282
1592224821.7832284,-9.642433040647791,-0.6635136329843878,1.810270248548293,0.47444444444444445,-0.28,0.12555555555555556,0.18446840808756726,-0.06120444199396277,0.02682848873780178
1592224821.7932284,-9.620510227017308,-0.59291975724882,1.882627556754327,0.47001623336080517,-0.2831630079168852,0.12871856347244076,0.14695959659328126,0.011560991920942426,0.08247308390836881
1592224821.8032284,-9.863199176574382,-0.5356673528546821,1.9140402470276856,0.4666666666666667,-0.28555555555555556,0.13111111111111112,0.13985767712505667,0.05163002959772264,0.09297390482606077
1592224821.8132284,-9.753707984521611,-0.4035205746225246,1.8908988593540554,0.4666666666666667,-0.28555555555555556,0.13111111111111112,0.13598614522299018,-0.011749929612334925,-0.054304551936941364
1592224821.8232284,-9.438864078591429,-0.418864078591429,1.8712343979877557,0.4666666666666667,-0.28555555555555556,0.13111111111111112,0.16701027739746138,0.05564598523149924,0.06873095888463782
1592224821.8332283,-9.336419728434505,-0.40471605431309904,1.8888642172523962,0.4666666666666667,-0.28555555555555556,0.13111111111111112,0.1205506982318175,0.01992761387714112,0.1220338621623636
1592224821.8432283,-9.548334135363886,-0.4944088091261641,2.0011560562742376,0.464599755302051,-0.2922730174905565,0.11457582019418576,0.045867632666603465,-0.007870272921682048,0.04753912619614456
1592224821.8532283,-9.48646239418409,-0.6811953843526628,1.9306947866604864,0.4622222222222222,-0.3,0.09555555555555556,0.04553291772466593,0.028643575485093078,0.08520460587439078
1592224821.8632283,-9.423993048166276,-0.811068312406895,1.7959544583954032,0.4622222222222222,-0.3,0.09555555555555556,-0.07293477074634688,0.02641300839166775,0.023665851234812435
1592224821.8732283,-9.627193854058115,-0.8958502774883067,1.7871938540581151,0.4622222222222222,-0.3,0.09555555555555556,-0.11529978006027172,0.05616291501974252,-0.0364500803278404
1592224821.8832283,-9.639989823609227,-0.9298710990502036,1.7999626865671643,0.4622222222222222,-0.3,0.09555555555555556,-0.07194228823529712,0.07194746857144195,-0.03272048318676954
1592224821.8932283,-9.406003638067414,-0.520250530551498,1.7494989388970041,0.4589167256168331,-0.30236106900384935,0.10830532817634216,0.022635813543197693,-0.05557804332947368,0.0605669488788346
1592224821.9032283,-9.493697257250146,-0.4158181310735036,1.8674394235404561,0.45444444444444443,-0.3055555555555556,0.12555555555555556,-0.046069409899226546,0.005070745422138402,0.12065411012725466
1592224821.9132283,-9.641862383969354,-0.377393546485929,1.6912774421688521,0.45444444444444443,-0.3055555555555556,0.12555555555555556,-0.06652894491261058,0.0044215050576804915,-0.05996611990278625
1592224821.9232283,-9.539884449113167,-0.3924855561391459,1.5499422245565837,0.45444444444444443,-0.3055555555555556,0.12555555555555556,-0.08592340667204498,-0.0188467670333356,-0.13825485766912143
1592224821.9332283,-9.572655127852043,-0.36276825625489906,1.5985310255704088,0.45444444444444443,-0.3055555555555556,0.12555555555555556,-0.14071118561965512,-0.02189065801645494,-0.08699552854692345
1592224821.9432282,-9.68420054200542,-0.36008376447400836,1.5422690317812269,0.4611204182748898,-0.3055555555555556,0.10501409761572364,-0.15779502847722446,-0.04090172007214354,-0.18143560779327908
1592224821.9532282,-9.98,-0.43,1.51,0.4688888888888889,-0.3055555555555556,0.0811111111111111,-0.0545415391248228,-0.002181661564992912,-0.12980886311707826
1592224821.9632282,-9.493461461058564,-0.5952931029525917,1.4810715004456199,0.4688888888888889,-0.3055555555555556,0.0811111111111111,-0.013565465359948882,-0.045059719209832476,0.015165756110293277
1592224821.9732282,-9.693260077707626,-0.4633268576979116,1.3361279747450219,0.4688888888888889,-0.3055555555555556,0.0811111111111111,-0.021556887728064675,-0.004263193446696931,-0.011223266008643113
1592224821.9832282,-9.629800763739,-0.8640818528972273,1.8826548231778184,0.4688888888888889,-0.3055555555555556,0.0811111111111111,-0.14316080938348952,-0.05347244164697512,0.0039603514396231165
1592224821.9932282,-9.802501266143327,-0.8317488604710054,1.8917488604710053,0.4840004501842942,-0.3098056821698883,0.07733322078725978,-0.04701607738186452,0.029809009042409393,0.02440975576756227
1592224822.0032282,-9.83639615525003,-0.7545078476700329,1.8390558462100013,0.5044444444444445,-0.31555555555555553,0.07222222222222222,-0.10183600147054393,0.10730024215020832,0.1289196349576031
1592224822.0132282,-9.79006550380865,-0.7143986799990075,1.7229340247624247,0.5044444444444445,-0.31555555555555553,0.07222222222222222,-0.041262704955562036,-0.06492612475438488,0.08384849186461531
1592224822.0232282,-9.70805719544771,-0.8679779568564951,1.6243127791869627,0.5044444444444445,-0.31555555555555553,0.07222222222222222,-0.020076095465830418,-0.024715229903231453,-0.027648026736891707
1592224822.0332282,-9.588723404255319,-0.7857021276595745,1.564936170212766,0.5044444444444445,-0.31555555555555553,0.07222222222222222,-0.04036538078548588,0.00869879526126962,-0.06357918820363384
1592224822.0432281,-9.755994879297733,-0.7754005120702268,1.4854418434528163,0.508209014061611,-0.3179511907664797,0.06845765260505567,-0.06294572399546977,-0.07403329673286142,0.08573874092225528
1592224822.0532281,-9.41,-0.81,1.61,0.5166666666666667,-0.3233333333333333,0.06,-0.0916297857297023,-0.12762720155208535,0.04799655442984406
1592224822.0632281,-9.601202943518492,-0.42164117630906944,1.475973530300118,0.5166666666666667,-0.3233333333333333,0.06,-0.00241073632883961,-0.0613111057470142,-0.06339715974843513
1592224822.0732281,-9.77,-0.41,1.54,0.5166666666666667,-0.3233333333333333,0.06,-0.02399827721492203,0.002181661564992912,-0.039269908169872414
1592224822.083228,-9.629672382790229,-0.5565817288715407,1.7265453269593438,0.5166666666666667,-0.3233333333333333,0.06,0.0449738418076042,0.02326840947149999,0.12649269161058627
1592224822.093228,-9.591618205221295,-0.6592732433413644,1.7556879765008746,0.5221953053089394,-0.32545973281113055,0.04894272271545449,0.0025875504141914044,0.027661861505718404,0.024044792062639292
1592224822.103228,-9.82,-0.9,1.91,0.5311111111111111,-0.3288888888888889,0.03111111111111111,0.03490658503988659,0.0370882466048795,-0.10253809355466686
1592224822.113228,-9.356813524590164,-0.5582415471311475,1.7106152663934426,0.5311111111111111,-0.3288888888888889,0.03111111111111111,-0.051842012351766636,-0.09213812293323606,-0.05591035852040986
1592224822.123228,-9.554642624846426,-0.714313796343138,1.665947098359471,0.5311111111111111,-0.3288888888888889,0.03111111111111111,0.007415158155786417,-0.08757328585659846,-0.07421898491979483
1592224822.133228,-10.02,-0.73,1.53,0.5311111111111111,-0.3288888888888889,0.03111111111111111,0.08726646259971647,-0.14289883250703572,-0.01090830782496456
1592224822.143228,-9.40482322536182,-0.4561822880771882,1.5877219159200553,0.5316173520177655,-0.3299013707021977,0.02959238839114787,0.05299227373780095,-0.12080800560423578,-0.10529730904705667
1592224822.153228,-9.15,-0.85,1.58,0.5333333333333333,-0.3333333333333333,0.024444444444444446,0.10690141668465267,-0.08290313946973066,-0.15162547876700738
1592224822.163228,-9.651189772581267,-0.6027781061287422,1.7169839393550044,0.5333333333333333,-0.3333333333333333,0.024444444444444446,-0.03701816882108813,0.04536454499509429,0.06595210844177686
1592224822.173228,-9.398274568996015,-0.6314968986580505,1.6825987594632201,0.5333333333333333,-0.3333333333333333,0.024444444444444446,0.09283172941400772,0.013743114643749128,0.01807474268342965
1592224822.183228,-9.127962147104729,-0.5879621471047276,1.6790283896714542,0.5333333333333333,-0.3333333333333333,0.024444444444444446,0.07076980477631817,0.0013131260493327154,-0.10748296179134938
1592224822.193228,-9.225262430029634,-0.56,1.7259163648337175,0.5316535689459627,-0.3333333333333333,0.02132488201075623,-0.02317869944755278,0.0020074590857335176,-0.1426532968063724
1592224822.203228,-9.630153200209932,-0.5373423637317872,1.6840541823907231,0.5255555555555556,-0.3333333333333333,0.01,-0.023147214925966584,-0.04213551651894228,-0.28219094165682507
1592224822.213228,-9.57,-0.51,1.52,0.5255555555555556,-0.3333333333333333,0.01,-0.04581489286485115,-0.08508480103472357,-0.4134248665661568
1592224822.223228,-9.747463918569908,-0.36426241960804173,1.6510609206461742,0.5255555555555556,-0.3333333333333333,0.01,0.006054671532197617,0.05363902262487713,-0.1294596337553047
1592224822.233228,-9.615632819436597,-0.3172152716119138,1.5278797723787232,0.5255555555555556,-0.3333333333333333,0.01,0.09816094683659064,0.026324910358200553,-0.14182873710667487
1592224822.243228,-9.55673074224779,-0.5164422618212432,1.605384593798232,0.5356410208440515,-0.3257692343669613,0.008108975258406998,0.05873705155326111,-0.0218900213526491,-0.1567177774618696
1592224822.253228,-9.734315975286849,-0.6913680494263018,1.7314386584289496,0.5611111111111111,-0.30666666666666664,0.0033333333333333335,0.050318782009174556,-0.04898629321572786,-0.07091266589055072
1592224822.263228,-9.839090796940537,-0.23258820626696275,1.6291611152232914,0.5611111111111111,-0.30666666666666664,0.0033333333333333335,0.08732755773606651,0.03568467331824762,-0.021755520513579076
1592224822.273228,-9.810961663888687,0.1461540691354446,1.5673075343623935,0.5611111111111111,-0.30666666666666664,0.0033333333333333335,0.09744048797462315,0.10239116328331385,-0.03146631919209152
1592224822.283228,-9.65,-0.14,1.77,0.5611111111111111,-0.30666666666666664,0.0033333333333333335,0.18653206380689397,0.21489366415180183,0.028361600344907853
1592224822.293228,-9.711935803693146,-0.1515760936919073,1.7628079687693643,0.5559262128034591,-0.3085768923589595,-0.003488901281998321,-0.0004590303534473556,0.08673064554600168,0.03850288609127664
1592224822.303228,-9.38,-0.31,1.71,0.54,-0.31444444444444447,-0.024444444444444446,-0.015271630954950384,0.08508480103472357,0.12326387842209952
1592224822.313228,-9.70426461506793,-0.3176780568135035,1.5357817002881844,0.54,-0.31444444444444447,-0.024444444444444446,-0.11208112269184342,0.025084055775803384,-0.055379085197015426
1592224822.323228,-9.58,-0.37,1.49,0.54,-0.31444444444444447,-0.024444444444444446,-0.04145156973486533,0.04363323129985824,-0.061086523819801536
1592224822.3332279,-9.65332106022436,-0.6685087096010163,1.6279323041147213,0.54,-0.31444444444444447,-0.024444444444444446,-0.06935511651044635,-0.13911637917619982,0.038034323816062185
1592224822.3432279,-9.482666666666667,-0.72,1.674,0.5417777777777778,-0.31444444444444447,-0.026222222222222223,-0.13664473602072272,-0.16835155076528638,-0.05105088062083414
1592224822.3532279,-9.6,-0.72,1.74,0.5466666666666666,-0.31444444444444447,-0.03111111111111111,-0.04145156973486533,-0.05235987755982988,0.030543261909900768
1592224822.3632278,-9.306404447601087,-0.8057152653621023,1.5664044476010874,0.5466666666666666,-0.31444444444444447,-0.03111111111111111,-0.037711685343591206,-0.09847585692559296,-0.02974820119409428
1592224822.3732278,-9.541159928014396,-1.026585722855429,1.6365202159568086,0.5466666666666666,-0.31444444444444447,-0.03111111111111111,-0.08425417298309207,-0.12783947840022084,-0.05358647653114
1592224822.3832278,-9.61,-0.77,1.43,0.5466666666666666,-0.31444444444444447,-0.03111111111111111,-0.09381144729469522,-0.06981317007977318,0.05017821599483697
1592224822.3932278,-9.715433929767487,-0.4654339297674864,1.6184661754855996,0.5532184054689078,-0.31444444444444447,-0.036985083830361795,-0.1737040775060252,-0.019009743446035267,0.02052214781292586
1592224822.4032278,-9.58,-0.33,1.73,0.5788888888888889,-0.31444444444444447,-0.06,-0.13199052468207118,0.02617993877991494,0.02399827721492203
1592224822.4132278,-9.344332445001829,-0.4034880075246904,1.510654230025605,0.5788888888888889,-0.31444444444444447,-0.06,0.006544984694978735,0.021150671351872676,-0.06680248396021954
1592224822.4232278,-9.406442284674679,-0.18915210417963327,1.4698338679561451,0.5788888888888889,-0.31444444444444447,-0.06,-0.021502898002088055,0.10214000586186371,0.12613922313299702
1592224822.4332278,-9.55,-0.15,1.77,0.5788888888888889,-0.31444444444444447,-0.06,-0.074176493209759,0.05017821599483697,0.15817046346198613
1592224822.4432278,-9.460022085396867,-0.22683978048454023,1.4358010975772988,0.577308779131159,-0.3154978509495977,-0.05894659349484674,-0.12728970250861854,0.05006009497984037,0.021688858062633657
1592224822.4532278,-9.62,-0.21,1.52,0.5688888888888889,-0.3211111111111111,-0.05333333333333334,-0.1778054175469223,0.02617993877991494,-0.07199483164476608
1592224822.4632277,-9.526814432705304,-0.61,1.4530972938677553,0.5688888888888889,-0.3211111111111111,-0.05333333333333334,-0.14573696049642915,-0.04349800210517288,0.07518045112063626
1592224822.4732277,-9.65,-0.61,1.43,0.5688888888888889,-0.3211111111111111,-0.05333333333333334,-0.16253378659197193,-0.006544984694978735,0.07853981633974483
1592224822.4832277,-9.66626566639211,-0.5199122904654838,1.4340350838138063,0.5688888888888889,-0.3211111111111111,-0.05333333333333334,-0.1426555136931043,-0.016179292694184878,-0.07367072032986238
1592224822.4932277,-9.6045818815331,-0.2727642276422764,1.5774912891986064,0.5717737772615822,-0.32145050974319267,-0.05842431281455672,-0.13937612055496673,0.0850056176155528,-0.058841515519472004
1592224822.5032277,-9.63,-0.51,1.73,0.5877777777777777,-0.3233333333333333,-0.08666666666666667,-0.01090830782496456,0.14508049407202864,-0.10690141668465267
1592224822.5132277,-9.988781276037065,-0.34954957457015173,1.8969795743176712,0.5877777777777777,-0.3233333333333333,-0.08666666666666667,-0.05955762011013592,0.04070260989697786,0.16197103391242665
1592224822.5232277,-9.22,-0.49,1.69,0.5877777777777777,-0.3233333333333333,-0.08666666666666667,-0.16035212502697901,-0.04799655442984406,0.10471975511965977
1592224822.5332277,-9.392579175704988,-0.4051583514099783,1.7254848156182212,0.5877777777777777,-0.3233333333333333,-0.08666666666666667,-0.08121365318187279,0.015624198821744248,-0.05735640311366831
1592224822.5432277,-9.513986379666788,-0.6290374559163322,1.6709284932506383,0.5858953207129055,-0.32255820395368,-0.0889920548056265,-0.13824751307049515,-0.02600708793355803,-0.06329790034226485
1592224822.5532277,-9.55,-0.53,1.86,0.5688888888888889,-0.31555555555555553,-0.11,-0.32288591161895097,0.09381144729469522,0.015271630954950384
1592224822.5632277,-9.956874053206475,-0.5941079543944507,1.560267361203391,0.5688888888888889,-0.31555555555555553,-0.11,-0.12542255041017905,0.07957568087025166,0.009466951223477363
1592224822.5732276,-9.46,-1.02,1.3,0.5688888888888889,-0.31555555555555553,-0.11,0.01308996938995747,0.1974403716318585,0.061086523819801536
1592224822.5832276,-9.877251700976023,-0.9776062430711041,1.9167462991544029,0.5688888888888889,-0.31555555555555553,-0.11,-0.12572887666122348,0.056465923686357535,0.1330281453635759
1592224822.5932276,-9.62431335891633,-0.4603686575486241,1.3756912329036701,0.569337429528318,-0.31510701491612636,-0.11,-0.07885952718209414,-0.10289801869724005,0.04891747621610989
1592224822.6032276,-9.93,-0.82,2.05,0.5733333333333334,-0.3111111111111111,-0.11,0.03490658503988659,-0.028361600344907853,0.09599310885968812
1592224822.6132276,-9.223955705219531,-0.6780950654060355,1.8378754047403187,0.5733333333333334,-0.3111111111111111,-0.11,-0.08021004059964291,0.08540454824712429,0.08276742491854996
1592224822.6232276,-9.62,-0.88,1.9,0.5733333333333334,-0.3111111111111111,-0.11,-0.06326818538479445,-0.019634954084936207,-0.08072147790473774
1592224822.6332276,-9.384147625905467,-0.41943425832383985,1.5631734840831417,0.5733333333333334,-0.3111111111111111,-0.11,-0.00420392954703952,0.013232199674475312,-0.05182692431764549
1592224822.6432276,-9.581838800146324,-0.8317726496768687,1.9172512498475796,0.5740410722269642,-0.3112122166673441,-0.11,-0.053069130387529764,0.05136109102821595,0.04698952115898921
1592224822.6532276,-9.8,-0.35,1.69,0.5811111111111111,-0.31222222222222223,-0.11,-0.2127120025868089,-0.02399827721492203,-0.11562806294462433
1592224822.6632276,-9.440715442829855,-0.6646836238787205,1.660378394061752,0.5811111111111111,-0.31222222222222223,-0.11,0.009960032239145811,-0.052286344925539886,0.06872684936917901
1592224822.6732275,-8.994058840129815,-0.7711365881190912,1.4055199661351772,0.5811111111111111,-0.31222222222222223,-0.11,-0.015009505256828265,-0.06812020439941781,0.037824907550981945
1592224822.6832275,-9.728918727079144,-1.0296557435230096,2.184249378918727,0.5811111111111111,-0.31222222222222223,-0.11,0.04019697883608022,0.02335820615362043,0.021926305247127985
1592224822.6932275,-9.786807642257186,-0.0538140305217083,1.4978522418076423,0.5811111111111111,-0.31222222222222223,-0.11,-0.10955164639956214,-0.00911739931916948,-0.034003904178232416
1592224822.7032275,-9.69,-0.65,2.07,0.5688888888888889,-0.3022222222222222,-0.13111111111111112,0.006544984694978735,0.1341721862470641,0.056723200689815706
1592224822.7132275,-9.94509120104373,0.41401535489374514,1.7582996713249868,0.5688888888888889,-0.3022222222222222,-0.13111111111111112,0.019540641846772705,0.019152938084200388,0.10342563028461588
1592224822.7232275,-9.131310991574237,-0.060973961060598825,1.3440077117151428,0.5688888888888889,-0.3022222222222222,-0.13111111111111112,-0.041500588836054286,0.08455369153582444,-0.01798440201884241
1592224822.7332275,-9.7,-0.84,2.31,0.5688888888888889,-0.3022222222222222,-0.13111111111111112,-0.01090830782496456,0.11344640137963141,0.01090830782496456
1592224822.7432275,-10.08679507628294,-0.41353363384188624,1.8240266990291263,0.5688888888888889,-0.3022222222222222,-0.13111111111111112,-0.10827630222361753,0.005259740936683688,0.01090830782496456
1592224822.7532275,-9.32,-0.53,1.32,0.5544444444444444,-0.3022222222222222,-0.14555555555555555,-0.18435040224190105,-0.06981317007977318,0.074176493209759
1592224822.7632275,-9.42411758743031,-0.7585288900152053,1.8232344145970603,0.5544444444444444,-0.3022222222222222,-0.14555555555555555,-0.006737663117533229,0.14524058026213094,0.049664812312816595
1592224822.7732275,-9.39,-0.46,1.32,0.5544444444444444,-0.3022222222222222,-0.14555555555555555,-0.1090830782496456,-0.04363323129985824,0.008726646259971648
1592224822.7832274,-9.869944720840243,-0.4285424728210798,1.7571033720287452,0.5544444444444444,-0.3022222222222222,-0.14555555555555555,-0.06076854071718325,-0.06030262110158959,0.048928393661031376
1592224822.7932274,-9.112741850023705,-0.036374132017066844,1.2332031010346078,0.555556268223381,-0.3026265217781992,-0.14555555555555555,0.028560060425362046,0.0033696234077116595,0.005554083612710977
1592224822.8032274,-9.650394344145996,-0.38188732325456237,1.8847042418905033,0.5788888888888889,-0.3111111111111111,-0.14555555555555555,-0.003303206820571551,-0.07912056271479914,0.01860251015483229
1592224822.8132274,-9.91,-0.39,1.69,0.5788888888888889,-0.3111111111111111,-0.14555555555555555,-0.15817046346198613,-0.14726215563702155,-0.032724923474893676
1592224822.8232274,-9.482087485345838,-0.5444333724110981,1.6706958284486126,0.5788888888888889,-0.3111111111111111,-0.14555555555555555,-0.05793986172303829,-0.01466440608208356,-0.05788127592559033
1592224822.8332274,-9.500229878322688,-0.4662422608933419,1.6657205913946993,0.5788888888888889,-0.3111111111111111,-0.14555555555555555,-0.1861404802483251,-0.018104326817154806,-0.09581563927084816
1592224822.8432274,-9.393736059842581,-0.4252830999394543,1.5100757797699265,0.5788888888888889,-0.3111111111111111,-0.14555555555555555,-0.13431224447960116,-0.1441005551514664,-0.022541236977135032
1592224822.8532274,-9.935842319612716,-0.3217960605517277,1.6324832868010553,0.5866666666666667,-0.3055555555555556,-0.14555555555555555,-0.08457443718458958,-0.053917512724467376,0.01795393302507307
1592224822.8632274,-8.87,-0.54,1.28,0.5866666666666667,-0.3055555555555556,-0.14555555555555555,-0.002181661564992912,-0.039269908169872414,-0.10471975511965977
1592224822.8732274,-9.684995981020043,-1.1085300904918711,1.9057028029144085,0.5866666666666667,-0.3055555555555556,-0.14555555555555555,-0.06482426043159158,-0.03568637617410567,0.06559879073334911
1592224822.8832273,-9.644946105348788,-0.46619341061622943,1.7449461053487898,0.5866666666666667,-0.3055555555555556,-0.14555555555555555,-0.03897427239587307,-0.032481022852099986,-0.04527065327249396
1592224822.8932273,-9.815550132194428,-0.6453276388041489,1.9155501321944275,0.5866666666666667,-0.3055555555555556,-0.14555555555555555,-0.11155332079529162,0.058708037957425914,-0.0415486507904725
1592224822.9032273,-9.15,-0.38,1.45,0.5866666666666667,-0.31777777777777777,-0.16,-0.019634954084936207,-0.06763150851478027,0.1341721862470641
1592224822.9132273,-9.46250202718817,-0.745160505604579,2.1674979728118293,0.5866666666666667,-0.31777777777777777,-0.16,-0.04901646690294187,-0.08669279435299981,-0.013678050235135922
1592224822.9232273,-9.748953141612427,-0.6233718849674559,1.8496737805668646,0.5866666666666667,-0.31777777777777777,-0.16,0.031892890265953745,0.18633925975602925,0.1694310573270723
1592224822.9332273,-9.517215148811937,-0.5428748682183115,1.4532908928716244,0.5866666666666667,-0.31777777777777777,-0.16,0.05658909157731351,0.16159298816752543,-0.044288207466722546
1592224822.9432273,-9.57674012651042,-1.0615925310193821,1.8104407590625256,0.5866666666666667,-0.31777777777777777,-0.16,0.01948527557678731,-0.008156970034881916,0.0762991945349876
1592224822.9532273,-9.29,-0.82,1.55,0.5666666666666667,-0.30666666666666664,-0.18777777777777777,0.09817477042468103,0.04799655442984406,-0.02399827721492203
1592224822.9632273,-9.935979958507847,-0.6013606294281129,1.5996907660390653,0.5666666666666667,-0.30666666666666664,-0.18777777777777777,-0.06226971249099489,0.04149204836569504,-0.021830108526872356
1592224822.9732273,-9.7,-0.72,1.63,0.5666666666666667,-0.30666666666666664,-0.18777777777777777,0.015271630954950384,-0.05235987755982988,0.015271630954950384
1592224822.9832273,-9.291984940724127,-0.34907721884011533,1.5836346523550144,0.5666666666666667,-0.30666666666666664,-0.18777777777777777,0.005156281264490416,-0.10091355607403771,0.09012521866435413
1592224822.9932272,-9.131728200561682,-0.145916843619426,1.7815699705459278,0.5666666666666667,-0.30666666666666664,-0.18777777777777777,0.14128780418308162,0.17012865575334274,-0.09390215683438632
1592224823.0032272,-9.81,0.05,1.77,0.5666666666666667,-0.3022222222222222,-0.17333333333333334,0.006544984694978735,0.21489366415180183,-0.07199483164476608
1592224823.0132272,-9.91940586419753,-0.44729938271604935,1.9390817901234567,0.5666666666666667,-0.3022222222222222,-0.17333333333333334,0.1573514986846952,0.2745653063779486,0.1287188740250004
1592224823.0232272,-9.407289507928093,-0.5444590100727746,1.6666885151091617,0.5666666666666667,-0.3022222222222222,-0.17333333333333334,0.1347849735428749,0.17156325155680546,0.1449565276647258
1592224823.0332272,-10.37,-0.6,1.75,0.5666666666666667,-0.3022222222222222,-0.17333333333333334,0.006544984694978735,0.09381144729469522,-0.019634954084936207
1592224823.0432272,-9.473820433202059,-0.4627472735534686,1.491641926688882,0.5666666666666667,-0.3022222222222222,-0.17333333333333334,0.10606441637619594,0.1440115146029198,-0.05662447736468065
1592224823.0532272,-9.1,-0.78,1.43,0.5722222222222222,-0.2822222222222222,-0.18777777777777777,0.08072147790473774,-0.10471975511965977,-0.08508480103472357
1592224823.0632272,-9.456857830931876,-0.5640071023307074,1.336090044491612,0.5722222222222222,-0.2822222222222222,-0.18777777777777777,0.03359913758908346,0.09606239057312806,-0.007230499643642585
1592224823.0732272,-9.599788853603549,-0.7584143414705098,1.7223097621875834,0.5722222222222222,-0.2822222222222222,-0.18777777777777777,-0.016216545171598363,0.003083446039180062,0.08176439262755363
1592224823.0832272,-10.75,-0.61,1.88,0.5722222222222222,-0.2822222222222222,-0.18777777777777777,0.19525871006686563,0.26616271092913524,-0.18435040224190105
1592224823.0932271,-9.351718055696889,-0.3782405617177165,1.5323608425765747,0.5722222222222222,-0.2822222222222222,-0.18777777777777777,0.03598820253705212,0.03189180567364236,0.00020113822915271418
1592224823.1032271,-9.147807101019984,-0.23915667010682357,1.5953011030840782,0.5695983951891416,-0.2822222222222222,-0.18200535830500042,0.08749245371881802,0.046887272408924485,0.07927052631907182
1592224823.1132271,-9.38,-0.16,1.78,0.5666666666666667,-0.2822222222222222,-0.17555555555555555,0.1974403716318585,0.1407171709420428,0.10690141668465267
1592224823.1232271,-9.501016370800667,-0.2810163708006662,1.710847788113905,0.5666666666666667,-0.2822222222222222,-0.17555555555555555,-0.08354889959457612,-0.0073208008114814815,-0.08168198682302158
1592224823.133227,-10.16,-0.41,1.77,0.5666666666666667,-0.2822222222222222,-0.17555555555555555,-0.0370882466048795,0.08726646259971647,0.08072147790473774
1592224823.143227,-9.41374805157999,-0.24496351140711348,1.3968740257899959,0.5666666666666667,-0.2822222222222222,-0.17555555555555555,0.01144073897563893,0.12718546686756227,-0.08130271588828347
1592224823.153227,-9.661723448055902,-0.48533503435878106,1.7720244135811418,0.53821250575868,-0.3019212566969823,-0.20400971646354232,-0.10913077382852597,-0.0171891007623918,0.10096069195950769
1592224823.163227,-9.869959543949982,-0.6328282456785583,1.4467340934166972,0.5377777777777778,-0.3022222222222222,-0.20444444444444446,0.1141280201731075,0.20160310064957945,-0.07185521814262975
1592224823.173227,-9.927265763949821,-0.5832810832602148,1.628516208589248,0.5377777777777778,-0.3022222222222222,-0.20444444444444446,-0.044698995919338264,0.1003134909880153,-0.04566139171795808
1592224823.183227,-9.64897289249167,-0.28023775199111384,1.3870756032425025,0.5377777777777778,-0.3022222222222222,-0.20444444444444446,-0.11380845624478825,0.1275322794491583,0.17810678620070206
1592224823.193227,-9.589998573815247,-0.5720111242410659,1.56200684568681,0.5377777777777778,-0.3022222222222222,-0.20444444444444446,0.03927550878429706,0.03817581036229492,0.05955460020204559
1592224823.203227,-9.93,-0.13,1.61,0.56,-0.28888888888888886,-0.2311111111111111,-0.030543261909900768,0.04145156973486533,0.004363323129985824
1592224823.213227,-9.5639985550293,-0.15495464397527495,1.6682275026089748,0.56,-0.28888888888888886,-0.2311111111111111,0.031158337402897078,0.14217035684840298,0.026140358181561536
1592224823.223227,-9.14559219100245,-0.11079888442892144,1.3651128603450973,0.56,-0.28888888888888886,-0.2311111111111111,-0.07873457708780562,-0.08756883932316567,0.06274531674875969
1592224823.233227,-10.357597183300998,-0.35747910229695096,1.5480841177456828,0.56,-0.28888888888888886,-0.2311111111111111,-0.06344417724489113,-0.020360920507834973,-0.15809722931949044
1592224823.243227,-9.965888930820109,-0.5166961288656723,1.5664943293542812,0.56,-0.28888888888888886,-0.2311111111111111,0.03928919113402961,0.0667291524572314,0.09334243794063832
1592224823.253227,-9.75,-0.53,1.69,0.5311111111111111,-0.28888888888888886,-0.1811111111111111,-0.15162547876700738,-0.03490658503988659,0.01308996938995747
1592224823.263227,-9.327616236162362,-0.47106273062730625,1.2381476014760149,0.5311111111111111,-0.28888888888888886,-0.1811111111111111,0.038031754853651345,0.040099100572803296,0.045235263223967426
1592224823.273227,-9.23306516361867,-0.6754823405376911,1.3722570049876321,0.5311111111111111,-0.28888888888888886,-0.1811111111111111,-0.029240776073098093,-0.09389840943404024,-0.047292099174905546
1592224823.283227,-9.547667584940312,-0.6721141282959465,1.4968288075560803,0.5311111111111111,-0.28888888888888886,-0.1811111111111111,0.05092856104155068,-0.11191815074459197,0.16689879827019777
1592224823.293227,-9.138282929167831,-0.7024397746793976,1.6459789860572889,0.5311111111111111,-0.28888888888888886,-0.1811111111111111,-0.10735080532390417,-0.15992090891125044,0.14554539690402388
1592224823.303227,-8.97,-0.54,1.5,0.5433333333333333,-0.2822222222222222,-0.2111111111111111,-0.09599310885968812,0.04581489286485115,-0.11344640137963141
1592224823.313227,-9.92404411169567,-0.54,1.594615944961554,0.5433333333333333,-0.2822222222222222,-0.2111111111111111,-0.04438811622016133,0.049255225707486264,0.0817924874399116
1592224823.323227,-9.512782969885775,-0.4637466251298027,1.677190031152648,0.5433333333333333,-0.2822222222222222,-0.2111111111111111,-0.013907356194370182,-0.022603871510609323,-0.014511221085490522
1592224823.333227,-9.632507420863908,-0.40280971717603475,1.7848488518439363,0.5433333333333333,-0.2822222222222222,-0.2111111111111111,-0.08587237718136036,0.1952865306424967,-0.019737118284460464
1592224823.343227,-9.656232207760564,-0.3756516883591545,1.7737677922394364,0.5433333333333333,-0.2822222222222222,-0.2111111111111111,0.016791427193894884,0.20439635870252013,-0.1674849963923271
1592224823.353227,-9.97,-0.6,1.73,0.5288888888888889,-0.28888888888888886,-0.19555555555555557,-0.006544984694978735,-0.03490658503988659,0.017453292519943295
1592224823.363227,-9.676651769681976,-0.489994413630741,1.6493292366625434,0.5288888888888889,-0.28888888888888886,-0.19555555555555557,0.011054645684218104,0.08269094522111048,0.0638523180650986
1592224823.373227,-9.722556965676377,-0.5940815786943563,1.5267707431977695,0.5288888888888889,-0.28888888888888886,-0.19555555555555557,0.12007515697043931,-0.0381947303528877,-0.020975865244402453
1592224823.3832269,-9.579383431981022,-0.5176300591886128,1.5441233136037957,0.5288888888888889,-0.28888888888888886,-0.19555555555555557,0.13481323328906986,0.01239742737679074,-0.06160356469775269
1592224823.3932269,-9.685234031304873,-0.5743787172176802,1.55,0.5288888888888889,-0.28888888888888886,-0.19555555555555557,0.012470294791596906,0.011428194361070435,-0.00791804371629378
1592224823.4032269,-9.332253094910591,-0.5076946354883081,1.6182035763411278,0.5175216261653676,-0.2803634418462479,-0.193661011768302,0.0230037756432045,0.006223287143717057,0.11542310079209474
1592224823.4132268,-9.46978202836649,-0.49,1.664963671394415,0.5155555555555555,-0.2788888888888889,-0.19333333333333333,0.052069337101639954,0.05421929597762695,0.10624639658944114
1592224823.4232268,-9.869215347816438,-0.3999474761423323,1.742042019086134,0.5155555555555555,-0.2788888888888889,-0.19333333333333333,0.13410951182782957,0.16423019213851403,0.055386702323255425
1592224823.4332268,-9.557386372810203,-0.21689876483410025,1.5640764511181078,0.5155555555555555,-0.2788888888888889,-0.19333333333333333,0.08065679596320681,0.17702245343235254,-0.00017489222039541313
1592224823.4432268,-9.73283287622755,-0.2515880739626648,1.6208298681765902,0.5155555555555555,-0.2788888888888889,-0.19333333333333333,0.12954674718278997,0.014328940069041729,-0.010817783249720669
1592224823.4532268,-9.954132768361582,-0.15977871939736346,1.6052153170119272,0.49685938480853736,-0.2788888888888889,-0.17983054334937573,0.04512399913101575,-0.21406835103152316,-0.008442194843117267
1592224823.4632268,-9.688690988868125,0.019568131957422602,1.5932172747217033,0.4955555555555556,-0.2788888888888889,-0.17888888888888888,0.09997809354853589,-0.2346805386041061,0.04158523129495346
1592224823.4732268,-9.22494454234477,-0.005806986627967248,1.6605379910853115,0.4955555555555556,-0.2788888888888889,-0.17888888888888888,0.011505907149676253,0.1054369873839259,-0.18750688003742177
1592224823.4832268,-9.519078931365792,0.07418859204605342,1.4565058580289456,0.4955555555555556,-0.2788888888888889,-0.17888888888888888,0.021665110146185943,0.13176167442466577,-0.04266440976570601
1592224823.4932268,-9.44898500250321,0.11573605276332688,1.2372843429616247,0.4955555555555556,-0.2788888888888889,-0.17888888888888888,0.07909903896418392,0.07331272789760523,0.002585929754688056
1592224823.5032268,-10.087534593646463,-0.17032547261742353,1.6111440265055543,0.4955555555555556,-0.2840801013447671,-0.17265943394183503,0.10414744631699353,0.11569907005461338,0.04341808400851416
1592224823.5132267,-9.723161043971185,0.2513588946187458,1.4315805219855922,0.4955555555555556,-0.28444444444444444,-0.17222222222222222,0.07128587537113634,0.10929254455508267,0.102159439622452
1592224823.5232267,-9.726154751082829,0.6158563713170419,1.1368728944976205,0.4955555555555556,-0.28444444444444444,-0.17222222222222222,0.1260385818867578,0.051964516293386324,0.0642396728283792
1592224823.5332267,-9.708458900002398,0.43658511429325275,1.259456957137032,0.4955555555555556,-0.28444444444444444,-0.17222222222222222,0.030167014118955504,-0.03116980082519808,0.01783540119441928
1592224823.5432267,-9.586639325926479,0.34859630154350907,1.3839139512340617,0.4955555555555556,-0.28444444444444444,-0.17222222222222222,-0.009459831605838697,-0.01672010717407624,-0.03637295573162071
1592224823.5532267,-9.643196258161728,0.4108544701155198,1.4389345806127574,0.4897398013281991,-0.29026019867180086,-0.17222222222222222,-0.02376583876214748,-0.08996135155572071,-0.05166256220150625
1592224823.5632267,-9.808949036176394,0.527264325323475,1.4716847108529179,0.4888888888888889,-0.2911111111111111,-0.17222222222222222,-0.10214865515542335,-0.004683630452440551,0.05068460113231487
1592224823.5732267,-10.025778264532434,1.078257792754844,1.4482850884582983,0.4888888888888889,-0.2911111111111111,-0.17222222222222222,-0.16396717683738615,-0.0877841798951059,0.09386625533839199
1592224823.5832267,-9.639201070646443,1.0936053207883851,1.23721064157677,0.4888888888888889,-0.2911111111111111,-0.17222222222222222,-0.1526682666332174,-0.10477673419532915,0.05532809810417177
1592224823.5932267,-9.373710555453036,0.42955688318878027,1.2836754936335117,0.4888888888888889,-0.2911111111111111,-0.17222222222222222,-0.08421929756485988,-0.012018261863474516,0.1676047456809942
1592224823.6032267,-9.160531312112491,0.05210744904921534,1.0615850366370998,0.5001167508842017,-0.30140331794014785,-0.18999967038146753,-0.1491550022050172,-0.12343354307523752,0.01946658384074834
1592224823.6132267,-9.213836061528337,-0.3120482026815826,1.3786962243974665,0.5022222222222222,-0.30333333333333334,-0.19333333333333333,-0.13025171870044677,-0.11413098585401299,0.07164538355046385
1592224823.6232266,-10.063266487282327,0.2697563080672184,1.2407341219475048,0.5022222222222222,-0.30333333333333334,-0.19333333333333333,-0.2157264215502076,-0.08443474408569868,0.13160762352807917
1592224823.6332266,-9.861671805273835,0.16261703853955378,1.4100993914807303,0.5022222222222222,-0.30333333333333334,-0.19333333333333333,-0.16994386868926398,-0.020403447690162717,-0.01781032386895673
1592224823.6432266,-9.813840736365865,0.05232944794847222,1.6718863803516903,0.5022222222222222,-0.30333333333333334,-0.19333333333333333,-0.12537734634905945,-0.1477926073262344,-0.03321710893014429
1592224823.6532266,-8.998240891010342,-0.08043977724741447,1.6581387430389816,0.48051890745160436,-0.30966346680809687,-0.18881180942278794,0.002775899660953346,-0.10062600690954243,-0.0330201854203484
1592224823.6632266,-9.291257844038531,-0.05062952156361167,1.8337759302929773,0.47555555555555556,-0.3111111111111111,-0.18777777777777777,-0.0029901817308914044,-0.021023355517360252,0.029948120610045585
1592224823.6732266,-9.619796254045736,0.26577439380272727,1.8387228736668966,0.47555555555555556,-0.3111111111111111,-0.18777777777777777,-0.1939499677920309,-0.0002638089195425679,0.2583015755473645
1592224823.6832266,-9.555667119131268,0.3733288086873203,1.8506603321622486,0.47555555555555556,-0.3111111111111111,-0.18777777777777777,-0.22631211217902458,0.006689046824829352,0.1589850154803434
1592224823.6932266,-9.683488443287922,-0.006871268942292952,1.7843762436859023,0.47555555555555556,-0.3111111111111111,-0.18777777777777777,-0.04128543218265593,0.12791322529774835,0.05145588890891364
1592224823.7032266,-9.333313975040157,-0.7044816508093414,1.9342481156555047,0.47555555555555556,-0.3053544215165369,-0.18531062509438884,-0.022227446272077803,-0.017080606604509857,0.09066794605790016
1592224823.7132266,-9.37073509183591,-0.6034400032365078,1.8060045311109314,0.47555555555555556,-0.30333333333333334,-0.18444444444444444,0.005339060188040541,-0.027689484768509243,0.003027653396874816
1592224823.7232265,-9.582261436499811,-0.22713723799773694,1.4284444204967939,0.47555555555555556,-0.30333333333333334,-0.18444444444444444,-0.07101667517715976,0.0036075764733050006,-0.03134461903520692
1592224823.7332265,-9.251215714746692,-0.42573249435301713,1.4390722813810906,0.47555555555555556,-0.30333333333333334,-0.18444444444444444,-0.060987437383766434,0.016967540186982627,-0.03021942702126032
1592224823.7432265,-9.392767749699157,-0.36910148415563576,1.551893301243482,0.47555555555555556,-0.30333333333333334,-0.18444444444444444,0.006958038950364477,0.030130207654515025,-0.06555048516879024
1592224823.7532265,-9.608957329896208,-0.12516586391696627,1.4198103927820365,0.47555555555555556,-0.31503949679277,-0.17904159977085832,0.027648168449239424,0.050105844208304065,-0.02508392801269732
1592224823.7632265,-9.756852255438135,-0.034158065709938734,1.6226941897281961,0.47555555555555556,-0.31777777777777777,-0.17777777777777778,0.03716171923211455,0.013703228095426095,-0.009780740728850577
1592224823.7732265,-9.904414637322569,0.5153535616616747,1.3612683943221775,0.47555555555555556,-0.31777777777777777,-0.17777777777777778,-0.10512546064314068,-0.02496140167192502,0.01725640601590109
1592224823.7832265,-9.80628085106383,0.3733053698074975,1.3226447821681864,0.47555555555555556,-0.31777777777777777,-0.17777777777777778,-0.0864099338697927,-0.013288286183889754,0.03276099714940298
1592224823.7932265,-9.527978229040677,-0.08401532030470855,1.3299838733634646,0.47555555555555556,-0.31777777777777777,-0.17777777777777778,0.007420112121393022,-0.023565111359602604,0.05410661412634828
1592224823.8032265,-9.711678847807395,-0.11655846947549442,1.467207652622528,0.4590064010700296,-0.31777777777777777,-0.18605235502054077,-0.04264557453806222,0.012179224170865414,0.08681108999017045
1592224823.8132265,-9.90322197405313,0.002553818371905159,1.5140571686546596,0.4488888888888889,-0.31777777777777777,-0.19111111111111112,0.049084948817968155,0.032094882257839935,0.0736922209496211
1592224823.8232265,-9.587074355372492,0.03681936144377515,1.2129775481536154,0.4488888888888889,-0.31777777777777777,-0.19111111111111112,0.017858708308014296,0.07218904684420202,-0.01585993834965789
1592224823.8332264,-9.391204586916862,-0.24355642428980975,1.2527724784988272,0.4488888888888889,-0.31777777777777777,-0.19111111111111112,-0.00131400048910571,0.048876724381006174,-0.07495863906558498
1592224823.8432264,-9.344463255390222,-0.37792172790768297,1.3149233221986032,0.4488888888888889,-0.31777777777777777,-0.19111111111111112,-0.009027759281924055,0.0477104308074993,-0.08179558018601463
1592224823.8532264,-9.721181627846114,-0.46,1.5041376602983512,0.4456486085666928,-0.33316910930820903,-0.19111111111111112,-0.06445037074734819,0.0059217751691504755,-0.16681638938598525
1592224823.8632264,-10.036888933927848,-0.1342987434130523,1.5280766112687476,0.4444444444444444,-0.3388888888888889,-0.19111111111111112,0.005729182995057397,-0.06955405907914775,-0.11672220999419364
1592224823.8732264,-9.74416735049111,0.25157254755688174,1.3980915081437275,0.4444444444444444,-0.3388888888888889,-0.19111111111111112,0.015444742531573338,-0.2725080558240599,0.029340920364086066
1592224823.8832264,-9.533437926878264,0.21346645239051829,1.3533808758537567,0.4444444444444444,-0.3388888888888889,-0.19111111111111112,-0.01308374608858686,-0.24967727325051986,-0.008196044079028117
1592224823.8932264,-9.334236673359674,-0.27916186281494915,1.5496547703866832,0.4444444444444444,-0.3388888888888889,-0.19111111111111112,-0.019839144833133288,-0.04731954552007782,-0.08786836605435003
1592224823.9032264,-9.691718884736993,-0.4761684392066685,1.6128600172463352,0.4570840918527035,-0.3388888888888889,-0.19631567180862955,0.0767250050235363,0.09204554934499126,0.011890964816152802
1592224823.9132264,-9.843238422778533,-0.47280492681756375,1.6511857154282972,0.4633333333333333,-0.3388888888888889,-0.1988888888888889,0.10527328434460968,0.12632868280048284,-0.0029030075547298237
1592224823.9232264,-9.88042184204359,-0.5565885477697055,1.9268697757987656,0.4633333333333333,-0.3388888888888889,-0.1988888888888889,0.08658355361675213,-0.026445808012114713,-0.010714018770664746
1592224823.9332263,-9.393269880550136,-0.2064693285109218,1.5391895493266075,0.4633333333333333,-0.3388888888888889,-0.1988888888888889,0.0035207883372424115,0.01411700009480256,-0.11119709823515946
1592224823.9432263,-9.423717001250091,-0.1884756232075888,1.6069512464151776,0.4633333333333333,-0.3388888888888889,-0.1988888888888889,-0.04059187571976085,0.05905895343306994,-0.012275155132394494
1592224823.9532263,-9.614761729395301,-0.21407380128157916,1.744073801281579,0.45174011604592734,-0.3388888888888889,-0.1988888888888889,0.05143672475060219,-0.05005159381665221,0.15039043046557588
1592224823.9632263,-9.441770690129227,-0.10640087984602695,1.5969067913115205,0.4444444444444444,-0.3388888888888889,-0.1988888888888889,0.1214196335825145,-0.09352711746741815,0.12809628578189686
1592224823.9732263,-9.708197055862426,-0.0537141846480368,1.669098527931213,0.4444444444444444,-0.3388888888888889,-0.1988888888888889,0.05805148477317397,-0.0669218199618296,-0.0016206187783817105
1592224823.9832263,-9.941547120105378,-0.02154472518261287,1.7084720392767334,0.4444444444444444,-0.3388888888888889,-0.1988888888888889,0.039183566516509914,-0.10228533848771312,-0.007217430733571926
1592224823.9932263,-9.5545109282245,0.12275026983270372,1.4127388019427956,0.4444444444444444,-0.3388888888888889,-0.1988888888888889,0.1179176743718624,-0.08557936887667975,0.10540137718781038
1592224824.0032263,-9.574173820414812,-0.040484366188357664,1.575242183094179,0.4521573337232213,-0.34660177816766574,-0.19398068662057635,0.1015000989269965,0.06732235207457528,-0.14080596028889802
1592224824.0132263,-9.686392442432592,-0.08439874040543201,1.647594961621728,0.45666666666666667,-0.3511111111111111,-0.19111111111111112,0.11068825903975964,0.07708650598764258,-0.22206686947967585
1592224824.0232263,-9.561108611749107,-0.06351810195818436,1.7109253427414581,0.45666666666666667,-0.3511111111111111,-0.19111111111111112,0.0348756162214694,-0.0370882466048795,0.005797445460091033
1592224824.0332263,-9.38994536822769,-0.12118853925614909,1.751188539256149,0.45666666666666667,-0.3511111111111111,-0.19111111111111112,-0.03613302474495835,0.051215412160287244,0.033927525572389344
1592224824.0432262,-9.701562789232193,-0.06063685236604241,1.6952822906205078,0.45666666666666667,-0.3511111111111111,-0.19111111111111112,-0.019859130647944673,0.06627708338534276,0.044166821355926686
1592224824.0532262,-9.632479960839504,0.0052218075016826765,1.5670794835709478,0.4451328125531148,-0.3511111111111111,-0.19462141453697474,0.0354469611039563,0.03882564642549889,0.08511336834641103
1592224824.0632262,-9.146901445466492,-0.08705507107872418,1.4393854975510694,0.4311111111111111,-0.3511111111111111,-0.1988888888888889,0.01972158463137076,0.10324760919730654,0.04645325887097869
1592224824.0732262,-9.483988939141845,-0.23940688491552037,1.6136386005202352,0.4311111111111111,-0.3511111111111111,-0.1988888888888889,-0.025230238847139923,0.05962526609593335,0.011522780450504116
1592224824.0832262,-9.675954395256731,-0.20571746619483958,1.7030978884956998,0.4311111111111111,-0.3511111111111111,-0.1988888888888889,-0.008259494289796582,0.03698389537678195,0.06550153685258335
1592224824.0932262,-9.525851478890125,-0.07,1.629476012990693,0.4311111111111111,-0.3511111111111111,-0.1988888888888889,0.013004232216050408,0.055646659436303765,0.11242228676740208
1592224824.1032262,-9.57567196487105,-0.07578359824355248,1.6526492052693424,0.4497471498958913,-0.3556094653005408,-0.19053480253709087,0.0019699584914896692,-0.0022388038541124936,0.11222114791582356
1592224824.1132262,-9.598782859200576,-0.08489737126395391,1.6546921137918615,0.4633333333333333,-0.35888888888888887,-0.18444444444444444,0.019008030812028627,-0.022264417987720247,0.06638708938660283
1592224824.1232262,-9.72331163509495,0.06205774229049105,1.5865595803966563,0.4633333333333333,-0.35888888888888887,-0.18444444444444444,0.037018158805053464,0.04127619698209363,0.05940288409191064
1592224824.1332262,-9.888171950291657,0.13211463352777075,1.540914024854172,0.4633333333333333,-0.35888888888888887,-0.18444444444444444,0.013314166515530673,0.025693809474562984,0.09389875802128814
1592224824.1432261,-9.87459270084683,0.11974935436727993,1.52037596844908,0.4633333333333333,-0.35888888888888887,-0.18444444444444444,0.003525398421283514,-0.03567615675567156,0.06341856196921258
1592224824.1532261,-9.568823949607117,0.06174751607247224,1.4927508279758426,0.44999040341724933,-0.3625278697750936,-0.18808342533064917,-0.043042515156262035,-0.07773963291750442,0.11727082619298358
1592224824.1632261,-9.298542665388302,-0.03027804410354746,1.536273569830617,0.4388888888888889,-0.3655555555555556,-0.19111111111111112,-0.03183315449386909,-0.07149491111357405,0.16152069798413088
1592224824.173226,-9.71477868338558,-0.08265579937304077,1.633541065830721,0.4388888888888889,-0.3655555555555556,-0.19111111111111112,0.05887723243436167,-0.05608662056922154,-0.032841187570833735
1592224824.183226,-9.619588809925606,0.07037007106695504,1.5751027975185987,0.4388888888888889,-0.3655555555555556,-0.19111111111111112,0.0242225466102253,0.04389338379841001,0.008780470914844431
1592224824.193226,-9.583350505464185,0.1826251805229237,1.6316752527320932,0.4388888888888889,-0.3655555555555556,-0.19111111111111112,0.10470087431612594,0.04668162285222821,0.04649685902387357
1592224824.203226,-9.610864322205062,0.31318492336937154,1.6405185933230366,0.43506722506039364,-0.3584581798740644,-0.18455968740511927,0.14064174460066073,0.016699029106122528,0.09029381933771409
1592224824.213226,-9.572268424884719,0.43104158239624624,1.598958417603754,0.4311111111111111,-0.3511111111111111,-0.17777777777777778,0.13905824508938044,0.05359216953028378,0.10445209960931985
1592224824.223226,-9.66,0.5415572982939053,1.4621449531278403,0.4311111111111111,-0.3511111111111111,-0.17777777777777778,0.03288304280876096,-0.04130840686969778,0.06122968668496909
1592224824.233226,-9.682582582582583,0.4966066066066066,1.4495195195195194,0.4311111111111111,-0.3511111111111111,-0.17777777777777778,-0.02399827721492203,-0.06622292822507013,0.03262009889519432
1592224824.243226,-9.647758496168198,-0.09191349356016537,1.6604706496007704,0.4311111111111111,-0.3511111111111111,-0.17777777777777778,-0.017781552796343546,-0.07019277026340243,0.052739477743459134
1592224824.253226,-9.513275274885666,-0.49074567805131203,1.7986202199085337,0.43793108667682956,-0.35849941797397283,-0.19312272280064438,0.010294094131469754,-0.08954846460449922,0.08994982636365847
1592224824.263226,-9.43978383106335,-0.3112249573076763,1.74115290099546,0.4444444444444444,-0.3655555555555556,-0.20777777777777778,0.030103094946644253,-0.09359136381306696,0.11163416565880022
1592224824.273226,-9.429565088197952,-0.48,1.8217396472081904,0.4444444444444444,-0.3655555555555556,-0.20777777777777778,0.029214899402136098,-0.05899974529107753,0.09263808005735738
1592224824.283226,-9.47203449018154,-0.4634741323638451,1.72898275490923,0.4444444444444444,-0.3655555555555556,-0.20777777777777778,0.0796118356463825,0.005548211291776205,0.05088162430156769
1592224824.293226,-9.49,-0.45,1.72,0.4444444444444444,-0.3655555555555556,-0.20777777777777778,0.06981317007977318,0.0545415391248228,0.07635815477475191
1592224824.303226,-9.571812325270452,-0.4595308131761274,1.7136246505409019,0.442170090352903,-0.35964223491754793,-0.20777777777777778,0.008419564201838455,-0.008433618907435223,0.0091079795929557
1592224824.313226,-9.550042031678613,-0.4399579683213875,1.69,0.4388888888888889,-0.3511111111111111,-0.20777777777777778,-0.005477078636917543,0.00427162423224477,-0.0044366822481786625
1592224824.323226,-9.507674736665306,-0.445382105237901,1.680764210475802,0.4388888888888889,-0.3511111111111111,-0.20777777777777778,0.03425392394642181,0.0231575337258189,0.043314019930917894
1592224824.333226,-9.448048286569314,-0.4356096573138627,1.7182937695475102,0.4388888888888889,-0.3511111111111111,-0.20777777777777778,0.04831524009192659,0.04932750396096601,0.07279287120244873
1592224824.343226,-9.42,-0.43705628603426105,1.7905844290513917,0.4388888888888889,-0.3511111111111111,-0.20777777777777778,0.00603497413542421,0.07802980578019031,0.029272941073309848
1592224824.353226,-9.449698164090861,-0.4685613525567887,1.8025754589772847,0.4434261084027706,-0.3539984326199449,-0.204477981767682,0.01500822943418991,0.11656411139017907,-0.011171709345725037
1592224824.363226,-9.49651233760572,-0.5069753247885604,1.7938691254686547,0.45111111111111113,-0.35888888888888887,-0.1988888888888889,0.059624140988144524,0.20954950638544886,0.03203536700326587
1592224824.373226,-9.400977001426462,-0.5209119347331015,1.5664556170074326,0.45111111111111113,-0.35888888888888887,-0.1988888888888889,0.11830609769508568,0.05352116641809459,-0.062477941147158184
1592224824.383226,-9.99,0.85,0.55,0.45111111111111113,-0.35888888888888887,-0.1988888888888889,0.039269908169872414,0.07853981633974483,-0.028361600344907853
1592224824.393226,-9.544251870324189,-0.6278749554684717,1.8398432490203063,0.45111111111111113,-0.35888888888888887,-0.1988888888888889,0.14137023155122888,0.23762060082346162,-0.09465317849344382
1592224824.403226,-9.540257777777779,-0.28533925925925924,1.5497422222222224,0.45111111111111113,-0.36165234567901233,-0.1956648559670782,0.018143020783601794,0.28569553093191774,-0.03072231976279055
1592224824.413226,-9.47,-0.42,1.62,0.45111111111111113,-0.3655555555555556,-0.19111111111111112,0.028361600344907853,0.26398104936414235,0.06763150851478027
1592224824.4232259,-9.76770739574933,-0.43770739574933015,1.3515741005697042,0.45111111111111113,-0.3655555555555556,-0.19111111111111112,-0.003965764813012397,0.21257020394941303,-0.05194376084604699
1592224824.4332259,-9.859319833349481,-0.4706801666505184,1.1953400833252592,0.45111111111111113,-0.3655555555555556,-0.19111111111111112,0.0006977681257670371,0.1342821571248073,-0.011084070986605063
1592224824.4432259,-9.89,-0.44,1.18,0.45111111111111113,-0.3655555555555556,-0.19111111111111112,0.06763150851478027,0.10471975511965977,-0.05235987755982988
1592224824.4532259,-9.831836119392985,-0.40448963183812936,1.25,0.441632552789968,-0.3629704941952438,-0.19111111111111112,-0.04719451918766684,-0.020258661826574653,0.012288372658027479
1592224824.4632258,-9.74,-0.38,1.25,0.4266666666666667,-0.35888888888888887,-0.19111111111111112,0.04363323129985824,-0.07635815477475191,-0.01308996938995747
1592224824.4732258,-9.607751493315634,-0.41325447994690434,1.2422485066843652,0.4266666666666667,-0.35888888888888887,-0.19111111111111112,-0.006648203536443745,-0.03218276599297025,-0.02237180476915175
1592224824.4832258,-9.646745901833794,-0.4614625293573411,1.268208431191137,0.4266666666666667,-0.35888888888888887,-0.19111111111111112,-0.023150776251129213,-0.011390878755431995,-0.05168979542375504
1592224824.4932258,-9.671387143358963,-0.47069357167948167,1.388940712696616,0.4266666666666667,-0.35888888888888887,-0.19111111111111112,-0.061640901385817154,0.05191419563362978,-0.0198770392427862
1592224824.5032258,-9.611761128006636,-0.45455971799834116,1.547358307990047,0.4307197493318588,-0.36040879488833594,-0.1961774644426013,0.08011092028262991,-0.010513609238679732,-0.1389539577350023
1592224824.5132258,-9.55,-0.47,1.64,0.4444444444444444,-0.3655555555555556,-0.21333333333333335,0.06326818538479445,-0.11999138607461016,-0.16253378659197193
1592224824.5232258,-9.493842620161633,-0.4369213100808167,1.5546295193534667,0.4444444444444444,-0.3655555555555556,-0.21333333333333335,-0.11508640583893043,0.036328237748337946,-0.019223305820269744
1592224824.5332258,-9.566107842919617,-0.4751497325016094,1.4416167558327968,0.4444444444444444,-0.3655555555555556,-0.21333333333333335,-0.06623365077174764,0.048218609578366545,-0.012854886360311207
1592224824.5432258,-9.64553411440386,-0.5006795313576844,1.4175727084769123,0.4444444444444444,-0.3655555555555556,-0.21333333333333335,-0.01539853118657368,0.007815791279907757,-0.07423994332557066
1592224824.5532258,-9.677827476038338,-0.4821725239616613,1.3856549520766772,0.44154774582889594,-0.36410720624778137,-0.20753993610223642,0.0009688528994696924,-0.03289917759350334,-0.0039660237395558046
1592224824.5632257,-9.662044393345692,-0.45817757338276355,1.3739778033271546,0.4311111111111111,-0.35888888888888887,-0.18666666666666668,-0.10303253662128659,-0.10176712274750671,0.08920282225196047
1592224824.5732257,-9.646301942519596,-0.41,1.3652077700783822,0.4311111111111111,-0.35888888888888887,-0.18666666666666668,-0.04369974930099922,-0.06207462840455977,0.031834984986454165
1592224824.5832257,-9.63654874996963,-0.41345125003037003,1.3676100002429603,0.4311111111111111,-0.35888888888888887,-0.18666666666666668,0.034307991681120226,-0.014345515382085249,0.05813405338000294
1592224824.5932257,-9.63,-0.4258489093534163,1.4316978187068325,0.4311111111111111,-0.35888888888888887,-0.18666666666666668,0.03315734825810598,0.009015496991232462,-0.0405671825195093
1592224824.6032257,-9.62094013275466,-0.44,1.4672478937962725,0.4311111111111111,-0.36009687118826766,-0.18505602360082832,0.00874154527627585,-0.06325328636849024,0.017263086386564413
1592224824.6132257,-9.59117630910713,-0.4511763091071306,1.492549127261913,0.4311111111111111,-0.3655555555555556,-0.17777777777777778,0.03298095540654818,-0.06746062092530951,-0.026778344795614282
1592224824.6232257,-9.623328435986318,-0.46333578200684095,1.4500110190307844,0.4311111111111111,-0.3655555555555556,-0.17777777777777778,0.05674163120004084,-0.06398712553229963,-0.04437460859024621
1592224824.6332257,-9.637750973501758,-0.4469377433754393,1.3961245132491213,0.4311111111111111,-0.3655555555555556,-0.17777777777777778,-0.03494818144592442,-0.11242348203962015,0.046754619392786766
1592224824.6432257,-9.595092556432085,-0.44,1.4522377567757556,0.4311111111111111,-0.3655555555555556,-0.17777777777777778,-0.0006362824559621623,-0.12947726010173216,0.09290413986652957
1592224824.6532257,-9.55,-0.43764918010478326,1.5870524596856501,0.4326783243745889,-0.36477194892381665,-0.1802591987782843,0.04209462327637375,-0.1449640779270776,0.09840151656610625
1592224824.6632257,-9.55,-0.42,1.64,0.4444444444444444,-0.35888888888888887,-0.1988888888888889,0.030543261909900768,-0.04581489286485115,-0.18653206380689397
1592224824.6732256,-9.54,-0.4619464305356947,1.6205356946430536,0.4444444444444444,-0.35888888888888887,-0.1988888888888889,-0.046925162057507595,-0.011566693976494428,0.004039949578250265
1592224824.6832256,-9.525053494249072,-0.4670106988498146,1.554946505750927,0.4444444444444444,-0.35888888888888887,-0.1988888888888889,0.09716563408519009,0.043990203296794324,-0.08571362410784827
1592224824.6932256,-9.494859475958298,-0.46,1.5997189519165973,0.4444444444444444,-0.35888888888888887,-0.1988888888888889,0.04363323129985824,0.10367936450475289,-0.07974436991757826
1592224824.7032256,-9.508851997059544,-0.4565559911786327,1.63,0.4452097797380816,-0.35888888888888887,-0.19799599771297885,0.040126855851490555,0.12174149990661103,-0.012483477097508449
1592224824.7132256,-9.538654736122194,-0.4270265587598313,1.5913452638778067,0.45111111111111113,-0.35888888888888887,-0.19111111111111112,0.03125368830439201,0.044571646674491455,-0.006421540399884414
1592224824.7232256,-9.63807899070128,-0.42538599380085235,1.4676840371948856,0.45111111111111113,-0.35888888888888887,-0.19111111111111112,0.06242607754514927,-0.03230582425959223,0.07988327947413483
1592224824.7332256,-9.64870145456291,-0.44,1.394123181796361,0.45111111111111113,-0.35888888888888887,-0.19111111111111112,0.0397868627800594,-0.006892483762361314,0.030289078595694158
1592224824.7432256,-9.607907709600369,-0.44241845807992614,1.4420922903996307,0.45111111111111113,-0.35888888888888887,-0.19111111111111112,0.050077542785990935,0.06506453874420391,-0.09466535228490741
1592224824.7532256,-9.574991622786023,-0.4487520943034945,1.4787520943034944,0.45027917398010747,-0.35888888888888887,-0.1884766435295995,0.007909893891531117,0.04691120652107485,-0.011732370691708084
1592224824.7632256,-9.615670494660172,-0.4371647526699138,1.4614942580097412,0.4444444444444444,-0.35888888888888887,-0.17,-0.009570883676873147,0.027091052278570994,-0.005466680991936304
1592224824.7732255,-9.62758793356131,-0.43,1.4182914020517832,0.4444444444444444,-0.35888888888888887,-0.17,-0.03137643920762095,0.010699946888982091,-0.05288610882397998
1592224824.7832255,-9.630227769550807,-0.43255694238770187,1.3653416543262111,0.4444444444444444,-0.35888888888888887,-0.17,-0.03332122276450037,-0.033095225949115376,-0.04617396472809729
