time,acc_x,acc_y,acc_z,mag_x,mag_y,mag_z,gyr_x,gyr_y,gyr_z
1592224577.1934617,-9.637009935126798,-0.38549834414553374,1.1384884090187362,0.49333333333333335,-0.4311111111111111,-0.24333333333333335,0.0041314294201106536,0.040266467181708995,-0.1601816440558907
1592224577.2034616,-9.66139963078119,-0.38430018460940535,1.0698987077341626,0.49333333333333335,-0.4311111111111111,-0.24333333333333335,-0.012368772532252739,0.06787056494986779,-0.2115729471632285
1592224577.2134616,-9.64559481237782,-0.3988103752443618,1.0388103752443618,0.49333333333333335,-0.4311111111111111,-0.24333333333333335,0.015608247405830897,-0.047706279953273575,-0.02560427887905809
1592224577.2234616,-9.64,-0.3999474018318672,1.0600525981681328,0.49333333333333335,-0.4311111111111111,-0.24333333333333335,0.009492117248904048,-0.08323829270189698,0.02250176065759852
1592224577.2334616,-9.64192248908297,-0.38192248908296944,1.0857674672489084,0.4920516739446871,-0.42876140223192627,-0.24055640465793304,0.016868102294486136,0.07341886597850983,-0.005618254875176614
1592224577.2434616,-9.645565785632481,-0.3944342143675193,1.1321710718375964,0.4866666666666667,-0.41888888888888887,-0.2288888888888889,-0.028568297480447258,0.045955499828349136,-0.041244872599325924
1592224577.2534616,-9.631745802665128,-0.39174580266512726,1.1269832106605089,0.4866666666666667,-0.41888888888888887,-0.2288888888888889,0.004226254288696531,0.022579940062407752,-0.04882841326296734
1592224577.2634616,-9.615824618243323,-0.3925261452700288,1.1050522905400577,0.4866666666666667,-0.41888888888888887,-0.2288888888888889,0.08036167031928747,0.06538139879291346,-0.05538401795772022
1592224577.2734616,-9.619273546562997,-0.39145290687400597,1.1152705424986746,0.4866666666666667,-0.41888888888888887,-0.2288888888888889,0.03502135454826235,0.03716912884491051,-0.026419308574172604
1592224577.2834616,-9.645218762606815,-0.3573062676495397,1.0579124949572745,0.48736250168090856,-0.41888888888888887,-0.23109236643398817,-0.07153940869292175,0.0795461154376623,-0.05858169758465766
1592224577.2934616,-9.715316541045585,-0.40312230596961013,1.031561152984805,0.49333333333333335,-0.41888888888888887,-0.25,-0.004114565273404758,0.0350996547596195,-0.06286323806514782
1592224577.3034616,-9.745865486562487,-0.3841345134375144,0.9497132715622552,0.49333333333333335,-0.41888888888888887,-0.25,0.03870460509252833,-0.04703198908296502,-0.07021243234930814
1592224577.3134615,-9.716566273618412,-0.3743775157456078,0.8773393474451864,0.49333333333333335,-0.41888888888888887,-0.25,-0.09344233561423262,-0.038483540930115655,-0.022874592884210027
1592224577.3234615,-9.665388111383638,-0.3646118886163613,0.9842923099119896,0.49333333333333335,-0.41888888888888887,-0.25,-0.13772852123143592,-0.033033711527881426,-0.021109330476571875
1592224577.3334615,-9.61798016194332,-0.39890728744939274,1.1607615384615384,0.49333333333333335,-0.4197387764282501,-0.24769316239316239,0.014115791957399888,0.028469976812124306,-0.036517569869194515
1592224577.3434615,-9.52,-0.39,1.33,0.49333333333333335,-0.4266666666666667,-0.2288888888888889,-0.01308996938995747,-0.02399827721492203,0.039269908169872414
1592224577.3534615,-9.526949212585745,-0.3938984251714921,1.2581366139576826,0.49333333333333335,-0.4266666666666667,-0.2288888888888889,-0.04196967132194007,0.07757851095401706,-0.025810859903198972
1592224577.3634615,-9.52,-0.38,1.14,0.49333333333333335,-0.4266666666666667,-0.2288888888888889,0.006544984694978735,0.06544984694978735,0.0545415391248228
1592224577.3734615,-9.535574580001073,-0.3683618700016102,1.1767237400032204,0.49333333333333335,-0.4266666666666667,-0.2288888888888889,0.0068704013386970166,0.04077415509509913,-0.012300491515920532
1592224577.3834615,-9.554471589349438,-0.39,1.2142508136935806,0.49248160202867863,-0.4278732860149275,-0.22931475454121625,0.06047576808816417,0.0892708604196537,0.03462785662222662
1592224577.3934615,-9.802246783689489,-0.5377676624509377,1.1497023549934582,0.48,-0.44555555555555554,-0.23555555555555555,-0.07958194507193249,0.2416920713984282,0.1267196724424544
1592224577.4034615,-9.982821762403132,-0.6828217624031316,1.1494223855556442,0.48,-0.44555555555555554,-0.23555555555555555,-0.0777873810137023,0.22653096450657245,0.21604026961679387
1592224577.4134614,-9.900502159956085,-0.5572863314160242,0.7745726628320485,0.48,-0.44555555555555554,-0.23555555555555555,0.05982555582248814,0.06972519859563142,0.09771387691069419
1592224577.4234614,-9.963911255296141,-0.5928709957630874,0.8586129872892623,0.48,-0.44555555555555554,-0.23555555555555555,0.1149744617530131,0.06066147709677379,0.1770822579812105
1592224577.4334614,-9.91985008263162,-0.612750059022586,0.9530498937593452,0.4809666587969885,-0.444588896758567,-0.2376499829490307,0.13420489314311596,-0.06294111642427572,0.1341721862470641
1592224577.4434614,-9.86,-0.57,1.03,0.4866666666666667,-0.4388888888888889,-0.25,0.14726215563702155,0.06763150851478027,0.1341721862470641
1592224577.4534614,-9.586067660149022,-0.3303383007451117,1.0510149022353354,0.4866666666666667,-0.4388888888888889,-0.25,0.18619080074867037,0.045252212486721885,0.1252380055713297
1592224577.4634614,-9.584250468907806,-0.28299812436877797,0.9557495310921944,0.4866666666666667,-0.4388888888888889,-0.25,0.15244513635108495,-0.0122205783579981,0.1200203447910983
1592224577.4734614,-9.59,-0.26,0.95,0.4866666666666667,-0.4388888888888889,-0.25,0.1712604328519436,-0.05235987755982988,0.1407171709420428
1592224577.4834614,-9.597690842602468,-0.2051272284016456,0.9151272284016456,0.4892302808674895,-0.4378919278107911,-0.2454424636429817,0.16566541666791387,0.08089009710766974,0.02612442491714581
1592224577.4934614,-9.65,-0.24,0.95,0.5066666666666667,-0.4311111111111111,-0.21444444444444444,0.20180369476184434,0.05235987755982988,0.01090830782496456
1592224577.5034614,-9.698672196124486,-0.274453660207477,0.8939834116265414,0.5066666666666667,-0.4311111111111111,-0.21444444444444444,0.12537009032419077,-0.08667954589052976,0.08681533927038251
1592224577.5134614,-9.701757780242078,-0.2583137106858882,0.8391211098789608,0.5066666666666667,-0.4311111111111111,-0.21444444444444444,0.17485173512092939,-0.12221203989205055,0.08114395831656981
1592224577.5234613,-9.642074354127285,-0.1220743541272842,0.8667221172022684,0.5066666666666667,-0.4311111111111111,-0.21444444444444444,0.1262834245011839,-0.04615004667048774,-0.0035393231664970076
1592224577.5334613,-9.581664956341704,-0.06166495634170492,0.8893756413718606,0.5066666666666667,-0.4311111111111111,-0.21444444444444444,0.22100954357002212,-0.08404049429802303,0.035998535227452846
1592224577.5434613,-9.450272631779985,-0.02,1.0424245607333842,0.4722222222222222,-0.4388888888888889,-0.21444444444444444,0.2141926241244717,0.08160730916661225,0.115545198555064
1592224577.5534613,-9.41755350705061,-0.029334869712043084,1.1037767535253047,0.4722222222222222,-0.4388888888888889,-0.21444444444444444,0.13407125714509213,0.06641891566894303,0.043192876756803264
1592224577.5634613,-9.376021454225436,-0.04161287253526152,1.1123656732393026,0.4722222222222222,-0.4388888888888889,-0.21444444444444444,0.0926150957645734,0.08055734605091969,-0.011518236945981771
1592224577.5734613,-9.346217235124657,-0.03657929366575381,1.1907241170821923,0.4722222222222222,-0.4388888888888889,-0.21444444444444444,0.14089695220768597,0.1212074895603353,-0.015802749972355385
1592224577.5834613,-9.36859319984351,-0.09624853291602946,1.2653106661450368,0.4722222222222222,-0.4388888888888889,-0.21444444444444444,0.2043587690764737,0.06669541609612019,-0.025566106413707348
1592224577.5934613,-9.57008690205903,-0.044469584279339225,1.242278243169185,0.5066666666666667,-0.44555555555555554,-0.2288888888888889,0.10411835917741127,0.1785680511402593,0.03364691589075775
1592224577.6034613,-9.84,0.05,1.33,0.5066666666666667,-0.44555555555555554,-0.2288888888888889,0.18435040224190105,0.17562375598192942,0.017453292519943295
1592224577.6134613,-11.242984491003725,1.1012576289994451,1.3785452720019022,0.5066666666666667,-0.44555555555555554,-0.2288888888888889,0.07865140969200846,-0.13617622647166422,0.2811599697989746
1592224577.6234612,-10.58,1.2,1.04,0.5066666666666667,-0.44555555555555554,-0.2288888888888889,0.13635384781205698,-0.23234695667174513,0.2596177262341565
1592224577.6334612,-9.357718345551634,0.7726982834042297,0.821380517090536,0.5066666666666667,-0.44555555555555554,-0.2288888888888889,-0.00781625488919957,-0.13478824055811287,0.0016291214003290033
1592224577.6434612,-9.59,0.45,0.96,0.4988888888888889,-0.4388888888888889,-0.22,0.16907877128695067,-0.08508480103472357,0.16471544815696484
1592224577.6534612,-9.498284386224382,0.5545594760194379,0.730540883160786,0.4988888888888889,-0.4388888888888889,-0.22,0.20184241429944405,-0.023131697087690535,0.13648199104363698
1592224577.6634612,-9.49,0.48,0.54,0.4988888888888889,-0.4388888888888889,-0.22,0.0545415391248228,-0.061086523819801536,0.15817046346198613
1592224577.6734612,-9.513759884130588,0.3013315196116809,0.5839426916151257,0.4988888888888889,-0.4388888888888889,-0.22,0.048950764485471435,-0.03177368111438035,0.14360781273474965
1592224577.6834612,-9.628690205903078,0.21102912393329679,0.748128865575824,0.4988888888888889,-0.4388888888888889,-0.22,0.15909685404470983,-0.06938454096387639,-0.10623575626547405
1592224577.6934612,-9.7,0.37,0.65,0.4722222222222222,-0.4533333333333333,-0.22,0.19962203319685143,-0.02399827721492203,0.11344640137963141
1592224577.7034612,-9.442885233059146,0.24992662227444837,0.8527384776080428,0.4722222222222222,-0.4533333333333333,-0.22,-0.01740526691087451,-0.10232741893742325,-0.029380392713801134
1592224577.7134612,-9.6,0.22,0.95,0.4722222222222222,-0.4533333333333333,-0.22,0.002181661564992912,-0.12762720155208535,0.0
1592224577.7234612,-9.638080648001408,0.43849327933321597,1.1009596759992957,0.4722222222222222,-0.4533333333333333,-0.22,-0.06138591483576405,-0.09331632524028158,-0.09701165297472913
1592224577.7334611,-9.736555731642895,0.4302870223630921,1.0517221341785525,0.4722222222222222,-0.4533333333333333,-0.22,-0.027369691529832714,-0.2213247445231284,0.0578516794443793
1592224577.7434611,-9.64,0.74,1.14,0.4722222222222222,-0.4533333333333333,-0.20777777777777778,-0.02399827721492203,-0.07635815477475191,-0.04799655442984406
1592224577.7534611,-9.493667262001408,0.6753309519943713,1.1761627969908535,0.4722222222222222,-0.4533333333333333,-0.20777777777777778,-0.09670438933095063,-0.1281901805173874,0.1651154843848263
1592224577.763461,-9.574593478468442,0.6184252363219708,1.0784252363219708,0.4722222222222222,-0.4533333333333333,-0.20777777777777778,-0.15817046346198613,-0.07817891414731187,0.12615252811312033
1592224577.773461,-9.74,0.64,1.1,0.4722222222222222,-0.4533333333333333,-0.20777777777777778,-0.15817046346198613,0.006544984694978735,0.02181661564992912
1592224577.783461,-9.606043335811238,0.6651168745353928,1.0832554169764048,0.4722222222222222,-0.4533333333333333,-0.20777777777777778,-0.10063411766503977,-0.0738232443547241,0.08209278743720624
1592224577.793461,-9.481793441997903,0.3862019826517968,1.2103993899532932,0.4866666666666667,-0.44555555555555554,-0.22,-0.04865088653491033,0.019373553971772914,0.18042274596718738
1592224577.803461,-9.755280233850318,0.31104459583514515,1.205802531767889,0.4866666666666667,-0.44555555555555554,-0.22,-0.06361002857246763,-0.04505133239901468,0.17454749807044614
1592224577.813461,-9.567394636015326,0.34550224887556225,1.0936681659170415,0.4866666666666667,-0.44555555555555554,-0.22,-0.07874624375419027,-0.1424590839656995,0.06881919300493466
1592224577.823461,-9.4,0.28,1.05,0.4866666666666667,-0.44555555555555554,-0.22,-0.06763150851478027,-0.06544984694978735,0.07199483164476608
1592224577.833461,-9.263329037530648,0.2435544100081725,1.2140051549632238,0.4866666666666667,-0.44555555555555554,-0.22,-0.14813735069967388,-0.22347983346087485,-0.205303069214312
1592224577.843461,-9.35,0.18,1.23,0.48,-0.4388888888888889,-0.2288888888888889,-0.10253809355466686,0.08072147790473774,-0.22362031041177347
1592224577.853461,-9.70076619761868,0.1435843513220968,1.1918053193134375,0.48,-0.4388888888888889,-0.2288888888888889,-0.12796438583138184,-0.0364734208429807,-0.0549325312005653
1592224577.863461,-9.60988567776752,0.0404572889299155,1.4312284314421644,0.48,-0.4388888888888889,-0.2288888888888889,-0.14388672257306995,-0.05128151739836459,-0.03301786688321588
1592224577.873461,-9.557382538737736,0.2098991954839577,1.2701008045160422,0.48,-0.4388888888888889,-0.2288888888888889,-0.02249016140180641,-0.06157705312849505,-0.007035514003672251
1592224577.883461,-9.54127570515159,0.024670609243294117,1.455329390756706,0.48,-0.4388888888888889,-0.2288888888888889,-0.04005999128612078,-0.09144576393182949,-0.03690422480700669
1592224577.893461,-9.21,-0.32,1.34,0.4866666666666667,-0.4266666666666667,-0.23555555555555555,0.0916297857297023,-0.08944812416470939,-0.032724923474893676
1592224577.903461,-9.636083668288554,-0.17542204357943728,1.4377718426063042,0.4866666666666667,-0.4266666666666667,-0.23555555555555555,-0.024326772585957297,-0.14545211383538018,0.07969286739931566
1592224577.913461,-9.89,-0.04,1.15,0.4866666666666667,-0.4266666666666667,-0.23555555555555555,-0.05017821599483697,-0.015271630954950384,0.15817046346198613
1592224577.923461,-9.498637342471396,-0.04034174110068723,1.3111362657528605,0.4866666666666667,-0.4266666666666667,-0.23555555555555555,0.09197740212309827,-0.1101492135203536,0.029055893517520904
1592224577.933461,-9.34155627960976,0.09317716233170421,1.3268443720390242,0.4866666666666667,-0.4266666666666667,-0.23555555555555555,0.006302972764731032,-0.0947278162358475,0.008494030471512766
1592224577.943461,-9.85,0.21,1.41,0.49333333333333335,-0.41888888888888887,-0.20555555555555555,0.06544984694978735,0.17344209441693648,0.13199052468207118
1592224577.953461,-9.10756968095251,0.024324169686401657,1.3701345939024057,0.49333333333333335,-0.41888888888888887,-0.20555555555555555,0.015080349944783716,0.09555057091043676,0.0357321010961932
1592224577.963461,-9.85,-0.03,1.18,0.49333333333333335,-0.41888888888888887,-0.20555555555555555,0.13853550937704992,-0.01308996938995747,0.04363323129985824
1592224577.973461,-9.232615080883981,0.004186627450190376,1.0438367009810834,0.49333333333333335,-0.41888888888888887,-0.20555555555555555,0.08887760201931619,-0.02916717005470771,-0.09801004374715745
1592224577.983461,-9.790289087209652,-0.2662007695561957,1.2804256733616715,0.49333333333333335,-0.41888888888888887,-0.20555555555555555,-0.032787992520316916,0.03166562721510884,-0.020586483585572732
1592224577.993461,-9.97,-0.13,1.36,0.5066666666666667,-0.40444444444444444,-0.2222222222222222,-0.017453292519943295,-0.05017821599483697,-0.15162547876700738
1592224578.003461,-9.477301133563332,-0.1048437654016757,0.9388920650566782,0.5066666666666667,-0.40444444444444444,-0.2222222222222222,0.08804429107488447,-0.048022897805074384,0.060124291718021264
1592224578.0134609,-9.506970155965256,-0.31,1.2077646557640878,0.5066666666666667,-0.40444444444444444,-0.2222222222222222,-0.0024416610161684914,-0.07515184613056264,-0.041092253642971595
1592224578.0234609,-10.09401040479988,-0.3028020809599757,1.2728020809599758,0.5066666666666667,-0.40444444444444444,-0.2222222222222222,0.16123830594690527,-0.038137033138715144,-0.0037127971170855603
1592224578.0334609,-9.695827447406396,-0.22316548948127896,1.1931654894812789,0.5066666666666667,-0.40444444444444444,-0.2222222222222222,-0.02205748984299577,0.022671998639925008,0.1483097823295148
1592224578.0434608,-9.551576014109347,-0.12315202821869489,1.305475367430923,0.48,-0.4122222222222222,-0.23444444444444446,0.01307221853983431,-0.038494642355894976,-0.07169537582924902
1592224578.0534608,-9.489891333512208,0.07867028888292639,1.0373949110097487,0.48,-0.4122222222222222,-0.23444444444444446,0.04571133174548616,0.10240645922560118,-0.0018145147138856968
1592224578.0634608,-9.755823676258048,0.04836920247010906,0.894991722506898,0.48,-0.4122222222222222,-0.23444444444444446,-0.04891491040434469,-0.10018215131282258,-0.17318789687708158
1592224578.0734608,-9.82,-0.19,0.95,0.48,-0.4122222222222222,-0.23444444444444446,0.01308996938995747,-0.05017821599483697,-0.05017821599483697
1592224578.0834608,-9.397720741471975,-0.32196226829000774,0.9236075463419985,0.48,-0.4122222222222222,-0.23444444444444446,-0.04832805914499563,0.1791797343153785,0.01699775271526798
1592224578.0934608,-9.56,-0.52,1.1,0.52,-0.4122222222222222,-0.22666666666666666,-0.12326387842209952,0.18871372537188688,0.09817477042468103
1592224578.1034608,-9.473224352649405,-0.25997519933864904,0.9308816235099603,0.52,-0.4122222222222222,-0.22666666666666666,-0.02988630246053145,-0.08714003921294004,-0.09807318955339174
1592224578.1134608,-9.61,-0.57,0.94,0.52,-0.4122222222222222,-0.22666666666666666,0.17998707911191522,-0.06326818538479445,-0.16471544815696484
1592224578.1234608,-9.619179360426127,-0.15983502902799332,1.0842618459121305,0.52,-0.4122222222222222,-0.22666666666666666,-0.0020030855996799324,-0.0020741481326930562,-0.03769549685022165
1592224578.1334608,-9.844199766243223,-0.40092832097488074,1.1887356057557816,0.52,-0.4122222222222222,-0.22666666666666666,0.055855150948315405,-0.052919265099113204,-0.2130234863896014
1592224578.1434608,-9.707478554717962,-0.06067585131271121,0.848240187158825,0.52,-0.4122222222222222,-0.22666666666666666,0.057455903248165296,0.04946195954654323,0.034226623455164334
1592224578.1534607,-9.657914197677174,-0.43623370466935296,1.3553875325906612,0.52,-0.4122222222222222,-0.22666666666666666,-0.008724060740221716,-0.08435413315339269,-0.13830281259955599
1592224578.1634607,-9.621631750912934,-0.12218095329617527,0.7990873054007304,0.52,-0.4122222222222222,-0.22666666666666666,0.039627630642029746,-0.021101170705614465,-0.030900984382058093
1592224578.1734607,-9.919076951742127,-0.17931730948388297,1.0430721073225266,0.52,-0.4122222222222222,-0.22666666666666666,-0.004705267178517971,-0.1171394946627083,0.013282973472509854
1592224578.1834607,-9.668997577790199,-0.16368734861188747,1.1134069312465062,0.52,-0.4122222222222222,-0.22666666666666666,0.08736280204277654,-0.10179481645915921,-0.08219502423846221
1592224578.1934607,-9.81195990273891,-0.04771344680460614,1.2813066018259394,0.5255555555555556,-0.4,-0.22666666666666666,0.04448840019517867,0.0032036804776938623,-0.08825284947511242
1592224578.2034607,-9.869687571684176,0.01963550029820617,1.319791714456118,0.5255555555555556,-0.4,-0.22666666666666666,0.06967684751008375,-0.15947170843106817,0.0754720580717707
1592224578.2134607,-9.673604863799367,-0.0649416961550336,0.9704647683283064,0.5255555555555556,-0.4,-0.22666666666666666,0.01865823994805442,-0.0002982835545079004,-0.02801906906492666
1592224578.2234607,-9.465007653205843,-0.22379051002475484,1.3179969387176629,0.5255555555555556,-0.4,-0.22666666666666666,0.05798716187428854,0.20690657885886296,-0.0907372746992495
1592224578.2334607,-9.663154821519681,0.02191197868440445,1.2387380713921277,0.5255555555555556,-0.4,-0.22666666666666666,0.021674796723200045,0.1498442907642953,-0.1417475019353024
1592224578.2434607,-9.483992513559626,0.21172671946219856,1.1660074864403758,0.5133333333333333,-0.38555555555555554,-0.21777777777777776,-0.0451243565084339,0.13979897424865068,0.037166855530408896
1592224578.2534606,-9.75,0.12,0.9,0.5133333333333333,-0.38555555555555554,-0.21777777777777776,0.01090830782496456,0.1538071403320003,-0.08290313946973066
1592224578.2634606,-9.7793426940287,0.13992696600318882,1.0410224759553568,0.5133333333333333,-0.38555555555555554,-0.21777777777777776,-0.1330648047737876,0.03764592072811227,-0.024626418008052223
1592224578.2734606,-9.69,0.13,1.18,0.5133333333333333,-0.38555555555555554,-0.21777777777777776,0.017453292519943295,0.11344640137963141,0.18653206380689397
1592224578.2834606,-9.756902328897338,0.39760931558935364,1.0796465066539924,0.5133333333333333,-0.38555555555555554,-0.21777777777777776,-0.0628237392401675,0.06673976471920331,0.07195484574928128
1592224578.2934606,-9.64343029792018,0.24283305227655988,1.0573201236649803,0.5522222222222222,-0.37777777777777777,-0.19111111111111112,0.11609575894201003,0.023896337576029374,0.06603450526969201
1592224578.3034606,-9.54664325323475,0.11671349353049908,1.318927911275416,0.5522222222222222,-0.37777777777777777,-0.19111111111111112,-0.061584958883448705,-0.14659346225308972,0.011810894685365139
1592224578.3134606,-9.69,-0.17,1.08,0.5522222222222222,-0.37777777777777777,-0.19111111111111112,0.02181661564992912,-0.08508480103472357,0.12544553998709243
1592224578.3234606,-9.48713149044377,0.023208104339266677,0.84815027479288,0.5522222222222222,-0.37777777777777777,-0.19111111111111112,-0.07302419078854751,-0.0492560519357435,-0.03789140443472844
1592224578.3334606,-9.57361726350652,-0.11468122541916789,1.1548944317946594,0.5522222222222222,-0.37777777777777777,-0.19111111111111112,-0.04108013180540835,-0.036856126123735566,0.021352600485774663
1592224578.3434606,-9.77,0.05,1.09,0.52,-0.40444444444444444,-0.22,0.08072147790473774,-0.16907877128695067,-0.002181661564992912
1592224578.3534606,-9.705093314434206,0.12417906921804867,1.1456343019135364,0.52,-0.40444444444444444,-0.22,0.022056789117750213,-0.004210766592485732,0.040299664797998055
1592224578.3634605,-9.29671671815504,0.005174222286083774,1.169203965802141,0.52,-0.40444444444444444,-0.22,0.002789498589854073,-0.033169907825997554,-0.16899178068643547
1592224578.3734605,-9.472029175505924,-0.06721021142707316,1.3140218816294424,0.52,-0.40444444444444444,-0.22,0.17918494029848075,-0.1616367431863483,-0.17990013090471507
1592224578.3834605,-9.540614863593603,0.043652869238005654,1.236654562558796,0.52,-0.40444444444444444,-0.22,0.05511745262600121,0.012454906795361265,0.06631200347868879
1592224578.3934605,-9.781546415669638,0.09926490571040335,1.2196324528552016,0.5392649057104034,-0.38624981127350794,-0.2264216352368011,-0.04364986147120178,-0.14138508923676402,-0.2468446339133861
1592224578.4034605,-9.410148837209302,0.11947954680977936,1.2394795468097795,0.54,-0.38555555555555554,-0.22666666666666666,0.015806886073793963,-0.04426181522053402,-0.16724183046226296
1592224578.4134605,-9.419185647865495,0.062443056403512893,1.3167425914619828,0.54,-0.38555555555555554,-0.22666666666666666,0.06140271259496559,-0.026801763043191228,0.06444938509136564
1592224578.4234605,-9.21,-0.16,1.32,0.54,-0.38555555555555554,-0.22666666666666666,0.10035643198967394,-0.04799655442984406,0.06326818538479445
1592224578.4334605,-9.259330376940133,-0.18818878682293316,1.2565752296484003,0.54,-0.38555555555555554,-0.22666666666666666,0.0450078784918392,-0.0895079695532201,-0.07279700863071598
1592224578.4434605,-9.68,-0.2,1.35,0.54,-0.37777777777777777,-0.21333333333333335,0.02181661564992912,-0.04581489286485115,-0.12326387842209952
1592224578.4534605,-9.61748319377285,-0.035893383653732736,1.303112395329638,0.54,-0.37777777777777777,-0.21333333333333335,0.05932400681069651,-0.032175841533663006,-0.21021283065842394
1592224578.4634604,-9.50816759212519,0.046732963149924284,1.0879687026754166,0.54,-0.37777777777777777,-0.21333333333333335,0.0878444212010836,0.03775298709989702,-0.015148396260794533
1592224578.4734604,-9.57,-0.19,1.35,0.54,-0.37777777777777777,-0.21333333333333335,-0.030543261909900768,-0.08508480103472357,-0.17998707911191522
1592224578.4834604,-9.834512804399058,-0.22870919088766692,1.2016147682639435,0.54,-0.37777777777777777,-0.21333333333333335,-0.03195076780942738,-0.023154541455552582,-0.05683031290333658
1592224578.4934604,-9.57,-0.32,1.22,0.5466666666666666,-0.37333333333333335,-0.22,-0.017453292519943295,0.006544984694978735,-0.10035643198967394
1592224578.5034604,-9.875312185094119,-0.32,1.164488693619251,0.5466666666666666,-0.37333333333333335,-0.22,0.09557979879658737,-0.06813759349630044,-0.18008513032901252
1592224578.5134604,-9.593894376431756,-0.25087937532329974,1.130376875138557,0.5466666666666666,-0.37333333333333335,-0.22,0.09610273739363362,-0.13341849007618878,-0.19514908153292013
1592224578.5234604,-9.597851236383875,-0.28925618191937663,1.224214836606504,0.5466666666666666,-0.37333333333333335,-0.22,0.07372574600640096,-0.03225617934163438,-0.06079809591432392
1592224578.5334604,-9.641919002638724,-0.15328349076446518,1.2430134995602127,0.5466666666666666,-0.37333333333333335,-0.22,0.03257449570321284,-0.07447734875312069,-0.005707661834973808
1592224578.5434604,-9.579831598285365,-0.18798360209566578,1.4448748043818467,0.5585434669206868,-0.36640519985182163,-0.21802053329099663,0.07186672564146006,0.023540480095344,-0.011421696715386277
1592224578.5534604,-10.080008316392535,-0.10157734245056367,1.3626298281278877,0.56,-0.3655555555555556,-0.21777777777777776,-0.011254244920282236,-0.0036750776501405236,-0.007233834959955707
1592224578.5634604,-9.620246701225259,-0.24856880301602263,1.1297655513666354,0.56,-0.3655555555555556,-0.21777777777777776,0.05121589319443516,-0.0317895437897709,-0.062280320391993584
1592224578.5734603,-9.295471199828699,-0.2787768551783208,1.170214841426566,0.56,-0.3655555555555556,-0.21777777777777776,0.00747176652845756,0.0914710571468528,0.0010349020552170712
1592224578.5834603,-9.675003882131104,-0.3616401079602174,1.2072133693200724,0.56,-0.3655555555555556,-0.21777777777777776,0.019295367617356802,0.08088215634735488,0.1051587573405151
1592224578.5934603,-9.728776369886095,-0.39169272764035856,1.1535418211228685,0.5756915144571005,-0.3720167673908322,-0.21408565672904825,0.10448095897613019,0.13015812453328432,-0.025449471081627317
1592224578.6034603,-9.90015085089332,-0.3551911563663791,1.0790845236411635,0.5788888888888889,-0.37333333333333335,-0.21333333333333335,0.04784732561115719,0.088790787159446,0.02814428780604819
1592224578.6134603,-9.661041026740005,-0.1678019858561326,0.905154177679358,0.5788888888888889,-0.37333333333333335,-0.21333333333333335,0.1118550512938822,0.046650528932533984,-0.002083531729617255
1592224578.6234603,-10.076797886531871,-0.3017825848133714,1.0703324527216134,0.5788888888888889,-0.37333333333333335,-0.21333333333333335,0.010110706828550517,0.0435277747182332,-0.08969864061131867
1592224578.6334603,-10.056819778438259,-0.3747703323426101,1.2041431369900029,0.5788888888888889,-0.37333333333333335,-0.21333333333333335,0.010251112489306232,0.013016726631392122,-0.027868206470306647
1592224578.6434603,-9.72,-0.16,1.15,0.5844444444444444,-0.37777777777777777,-0.21333333333333335,0.04581489286485115,0.04363323129985824,-0.10253809355466686
1592224578.6534603,-9.664498623221663,-0.2648359339146398,1.1931677374942633,0.5844444444444444,-0.37777777777777777,-0.21333333333333335,0.0498510668822342,0.08668575415194416,-0.07428487543298548
1592224578.6634603,-10.085361311407377,-0.5204238211339939,1.2531171862841728,0.5844444444444444,-0.37777777777777777,-0.21333333333333335,0.06680997605120795,0.006876925005718182,0.02636486563560818
1592224578.6734602,-9.930301730234312,-0.46844396775258124,1.2183836217057187,0.5844444444444444,-0.37777777777777777,-0.21333333333333335,0.10068274009937833,-0.03706191567467168,0.0944772289792079
1592224578.6834602,-9.692774290157232,-0.30958071761792316,1.1163871450786154,0.5844444444444444,-0.37777777777777777,-0.21333333333333335,0.11127780741832215,-0.08521547707156008,0.041991487937063934
1592224578.6934602,-9.82711854010121,-0.29677963502530286,1.3444349026222973,0.5791870708309905,-0.37777777777777777,-0.22595103000562286,0.1702219606087695,-0.0036731271771288376,-0.09438454747270975
1592224578.7034602,-9.37791526726824,-0.17061627483510702,1.292227572532675,0.5788888888888889,-0.37777777777777777,-0.22666666666666666,0.062549719288137,-0.048896038494332904,-0.12791150702167867
1592224578.7134602,-9.335991933519205,-0.07242914760577106,1.2060728690144276,0.5788888888888889,-0.37777777777777777,-0.22666666666666666,0.0854557833033884,0.06686308742597621,0.037962700591389315
1592224578.7234602,-9.963597464342314,-0.39977636907906317,1.2659552738158126,0.5788888888888889,-0.37777777777777777,-0.22666666666666666,-0.006660892154170886,0.06876605155638967,-0.12070812443495546
1592224578.7334602,-9.816578322326498,-0.4110526010890974,1.238684103811841,0.5788888888888889,-0.37777777777777777,-0.22666666666666666,0.018142344706963416,0.04908732201973349,-0.09636616641527078
1592224578.7434602,-9.404675410802446,-0.3831523100729497,1.1410330852553237,0.5788888888888889,-0.38432965719385287,-0.18922735571766594,0.2258006055245298,0.040882321809020516,-0.11943950013012408
1592224578.7534602,-9.833901509599883,-0.727926132199912,1.3561519859299427,0.5788888888888889,-0.38555555555555554,-0.18222222222222223,0.197344046621386,0.06387475316858332,-0.16488299771874945
1592224578.7634602,-9.635980669229031,-0.4718203142663351,1.0118203142663351,0.5788888888888889,-0.38555555555555554,-0.18222222222222223,0.26937252921544397,0.14149006882097026,-0.2037466214868064
1592224578.7734601,-9.573535662534214,-0.5194461439381742,1.2418475285783288,0.5788888888888889,-0.38555555555555554,-0.18222222222222223,0.28797932657906433,0.10862249159256993,-0.14647630435119313
1592224578.7834601,-9.656772631578947,-0.5632591578947369,1.5935452631578946,0.5788888888888889,-0.38555555555555554,-0.18222222222222223,0.15978507673894948,-0.0015815898103269665,-0.026055101808680176
1592224578.7934601,-8.928590139495261,0.10998402726014267,1.1771547226067511,0.5737302854979354,-0.3638894213135508,-0.19769803239508277,0.13954735337090857,-0.05158046380724217,0.19237139447102763
1592224578.8034601,-9.410144621384466,-0.10296514462138448,1.4100723106922326,0.5733333333333334,-0.3622222222222222,-0.1988888888888889,0.17390969461261827,-0.06476422240206291,-0.06982965484785442
1592224578.81346,-9.846291087977342,-0.20134835648090638,1.2258441203508161,0.5733333333333334,-0.3622222222222222,-0.1988888888888889,0.13745717264386476,-0.049050716126183905,-0.11327514346727098
1592224578.82346,-9.690456279938296,-0.17212592352033776,1.1354014776325405,0.5733333333333334,-0.3622222222222222,-0.1988888888888889,0.18210701224828105,0.06182199546332202,-0.12382222401504009
1592224578.83346,-9.959853094177868,-0.4148304132506555,1.287319072787049,0.5733333333333334,-0.3622222222222222,-0.1988888888888889,0.11581682129468551,0.004228768115656506,-0.0737803639739163
1592224578.84346,-9.33716600140878,-0.14194411833763804,1.2980277060342804,0.6002747123737966,-0.3622222222222222,-0.21096605880357935,0.11418275697946173,-0.14805306558216103,0.07600675307632855
1592224578.85346,-9.420526722871065,-0.13971304818624797,1.3483254698739269,0.6055555555555555,-0.3622222222222222,-0.21333333333333335,0.19935596970604763,-0.10601404621865326,0.027369820946018086
1592224578.86346,-9.61,-0.23772438958685377,1.3849102441652583,0.6055555555555555,-0.3622222222222222,-0.21333333333333335,0.26183855117012733,-0.036931593120967984,-0.014657679664490863
1592224578.87346,-9.67842829919009,-0.15876226774654598,1.3723968556455455,0.6055555555555555,-0.3622222222222222,-0.21333333333333335,0.18021423591755087,-0.02006785643930474,0.1508196983342962
1592224578.88346,-9.592277744406067,-0.08810801171347049,1.3999228487760924,0.6055555555555555,-0.3622222222222222,-0.21333333333333335,0.1022347323509823,-0.017453292519943295,0.022279489764629762
1592224578.89346,-9.578712544438801,-0.14480700863382429,1.4917597765363129,0.6055555555555555,-0.3738197618644546,-0.2220314880650076,0.12242594974839414,0.02382044243524638,-0.07540305458733501
1592224578.90346,-9.385763000653535,0.05593735412193071,1.3057630006535337,0.6055555555555555,-0.38,-0.22666666666666666,0.16582832775510975,0.0032063459005440414,0.0045898708916946585
1592224578.91346,-9.669003237515943,-0.12306239576179731,1.2642803885019132,0.6055555555555555,-0.38,-0.22666666666666666,-0.0018232059870500195,-0.04690165697710971,-0.01936922929018111
1592224578.92346,-9.45224449704142,-0.07201893491124259,1.2356056804733728,0.6055555555555555,-0.38,-0.22666666666666666,0.044884756302242465,-0.04437685516252008,0.03070911982580035
1592224578.93346,-9.546028746038932,-0.26522181982797643,1.4418673607967407,0.6055555555555555,-0.38,-0.22666666666666666,0.009023427292239816,-0.14180985351966574,0.02142304745905104
1592224578.94346,-9.616048983038919,-0.2651020479977479,1.4041142937574778,0.6141061220978878,-0.3846639453867267,-0.20723356088863865,0.05404821245803961,-0.10729144876224248,0.07718451148829908
1592224578.95346,-9.562648937827872,-0.35483509063522567,1.5802659325819355,0.6177777777777778,-0.38666666666666666,-0.1988888888888889,0.0070358670457578015,0.05626132708368102,-0.13951897380973957
1592224578.96346,-10.100252901990507,-0.6446136662810642,1.6420511388567554,0.6177777777777778,-0.38666666666666666,-0.1988888888888889,0.08666450188947451,0.10845353021178374,-0.14112297443949232
1592224578.97346,-9.759756475761966,-0.5947172017590686,1.2854831083657439,0.6177777777777778,-0.38666666666666666,-0.1988888888888889,0.054442352523511386,0.0980537333783505,-0.10275360327381483
1592224578.98346,-9.480501535657632,-0.6129663505349489,1.351058084984306,0.6177777777777778,-0.38666666666666666,-0.1988888888888889,0.0029048813797473913,0.011005723811008145,-0.0857533117960915
1592224578.99346,-9.747924308388468,-0.44206746426245247,1.3520592369133728,0.6177777777777778,-0.39288760907903203,-0.18555829800524876,-0.006550369482359333,-0.16056149603075667,-0.09947586967551858
1592224579.00346,-9.927422041304103,-0.4679919333756582,1.3159973111252194,0.6177777777777778,-0.39444444444444443,-0.18222222222222223,0.03029166647677913,0.023952528887299707,-0.0608407946014418
1592224579.01346,-9.83048342838054,-0.4181013624758405,1.2257192965711423,0.6177777777777778,-0.39444444444444443,-0.18222222222222223,-0.06687324460116537,0.07202630016980935,-0.11996119294884491
1592224579.02346,-9.626170121820902,-0.4050355014129325,1.2387943767661656,0.6177777777777778,-0.39444444444444443,-0.18222222222222223,0.06884626260623311,0.13472929715963208,-0.11061484184256343
1592224579.03346,-9.78559624575344,-0.43,1.3750340684439837,0.6177777777777778,-0.39444444444444443,-0.18222222222222223,0.11438020579279286,0.14446260577712,0.04335912606954703
1592224579.04346,-9.880133126832966,-0.38699476060236593,1.3125534649223976,0.6177777777777778,-0.39854018152993337,-0.18222222222222223,0.18526697040754764,0.06267063139500233,0.005857675392836353
1592224579.05346,-9.625775599077803,-0.6416888288582008,1.4805621666938358,0.6177777777777778,-0.4011111111111111,-0.18222222222222223,0.20864078870364844,-0.05727586864128382,-0.015302673436872347
1592224579.0634599,-9.308196591359492,-0.5009256021076682,1.4195563171760976,0.6177777777777778,-0.4011111111111111,-0.18222222222222223,0.09049577034743715,-0.03947184322415005,-0.037481689336576605
1592224579.0734599,-10.063815293612555,-0.3665028860373038,1.2725144301865192,0.6177777777777778,-0.4011111111111111,-0.18222222222222223,0.05246707173108126,-0.036646877206552214,-0.14721646802422605
1592224579.0834599,-9.856267121152287,-0.1834718267412134,1.1929258204643236,0.6177777777777778,-0.4011111111111111,-0.18222222222222223,0.049020706075073625,-0.06982028917161331,-0.201551216396457
1592224579.0934598,-9.15954249197215,-0.08815756843544337,1.286709057959495,0.6271636339229255,-0.3862501722146271,-0.18769730497355844,0.20795924319139047,-0.16110477849856322,-0.10225946402786253
1592224579.1034598,-9.472921929507999,-0.15236176270099042,1.1708312281968003,0.6311111111111111,-0.38,-0.19,0.2546632575880939,-0.21372733820387815,-0.007513999697802684
1592224579.1134598,-9.948719239373602,-0.5109499840204539,1.2153576755086823,0.6311111111111111,-0.38,-0.19,0.13578452292538973,-0.13433162161870416,-0.060280980090786376
1592224579.1234598,-9.795626445490072,-0.5130433048887472,1.23248066033974,0.6311111111111111,-0.38,-0.19,0.10047918198840611,-0.009616475006982178,-0.07819940475573425
1592224579.1334598,-9.419909600395096,-0.4500903996049043,1.2060363745678642,0.6311111111111111,-0.38,-0.19,0.0762795004669719,-0.007184080224394401,-0.06309138886450749
1592224579.1434598,-9.291068462558448,-0.2980187033289134,1.362977179147184,0.6256489171144765,-0.39014407456517863,-0.1814165522910027,0.06350128775453442,-0.06830706384759301,0.039534679574822
1592224579.1534598,-9.534166732956805,-0.25515153925702017,1.4907684352875668,0.6233333333333333,-0.39444444444444443,-0.17777777777777778,0.024978124577578142,-0.08243447531761361,0.06803760890950492
1592224579.1634598,-8.977677129298144,0.06563067188410615,1.2336616434934644,0.6233333333333333,-0.39444444444444443,-0.17777777777777778,0.07372503039901969,-0.13733896491285952,-0.022749693283712197
1592224579.1734598,-9.476248486431302,0.07936204563261234,1.0564892328877704,0.6233333333333333,-0.39444444444444443,-0.17777777777777778,-1.4296127446966622e-05,0.005349548733572448,-0.02521676309195836
1592224579.1834598,-9.631482359582273,-0.18036974315551793,1.2035798287703454,0.6233333333333333,-0.39444444444444443,-0.17777777777777778,0.055106751416808965,0.16074225430881003,0.0032589249536191973
1592224579.1934597,-9.79872144219102,-0.4679115964638586,1.3097389495579823,0.6138293946572678,-0.39444444444444443,-0.16827383910171223,0.08757678873600236,0.04125741736054267,0.05557832944317685
1592224579.2034597,-9.777842949102395,-0.47281276238455083,1.2832441725640718,0.6088888888888889,-0.39444444444444443,-0.16333333333333333,0.01858647253636899,-0.09391686243208651,0.06798539284444226
1592224579.2134597,-9.39670532459919,-0.3466589350801621,1.040208752835623,0.6088888888888889,-0.39444444444444443,-0.16333333333333333,-0.0588998019432746,-0.06808198745694649,-0.04205902955022442
1592224579.2234597,-9.532065105352734,-0.7439868638684469,1.440755567274732,0.6088888888888889,-0.39444444444444443,-0.16333333333333333,-0.06862640099536192,-0.09237025474949603,-0.07119181576801403
1592224579.2334597,-9.7590520316304,-0.7280406514805519,1.5119170739992827,0.6088888888888889,-0.39444444444444443,-0.16333333333333333,0.01654941012735099,-0.18939092692302623,0.11241232830123865
1592224579.2434597,-9.28721253741856,-0.3923363268181017,1.358274344074661,0.6088888888888889,-0.39444444444444443,-0.1576932167243842,-0.03929111396638367,-0.17523667336300236,0.03653612756962546
1592224579.2534597,-9.119862183020947,-0.37651598676957,1.4538368246968028,0.6088888888888889,-0.39444444444444443,-0.15444444444444444,-0.06327900950501768,-0.1331787725465767,-0.02214434595668799
1592224579.2634597,-9.486028744326777,-0.38223903177004537,1.4021028744326778,0.6088888888888889,-0.39444444444444443,-0.15444444444444444,-0.0036454541581462663,-0.0062966185334572405,-0.07224732349003377
1592224579.2734597,-9.299337902250468,-0.6369520263700823,1.3704185539140126,0.6088888888888889,-0.39444444444444443,-0.15444444444444444,-0.02693621777057316,0.07502408649912509,-0.08438706149391687
1592224579.2834597,-9.208556103531444,-0.7430404262212462,1.2911839879045321,0.6088888888888889,-0.39444444444444443,-0.15444444444444444,-0.05107824268891591,0.06740650184126054,0.048098259017002196
1592224579.2934597,-9.473608180178799,-0.8987925411502897,1.460571307984499,0.6132867368385152,-0.4013553483652858,-0.1500465964948181,-0.003759124335675171,0.009846649012517604,0.03070414720813644
1592224579.3034596,-9.692895220588236,-0.978685661764706,1.6051930147058824,0.6166666666666667,-0.4066666666666667,-0.14666666666666667,0.07317689919307796,-0.01440538298061496,-0.0055744661311399775
1592224579.3134596,-9.688036594535884,-0.3870256495947865,1.014556771660122,0.6166666666666667,-0.4066666666666667,-0.14666666666666667,-0.01463548767967049,-0.08963349886699007,0.06384836992497094
1592224579.3234596,-9.3993245974934,-0.3065766129991201,1.2169818545030797,0.6166666666666667,-0.4066666666666667,-0.14666666666666667,-0.0996390347992733,-0.07073086464874775,0.0902539313364829
1592224579.3334596,-9.556021469676848,-0.4451114062269441,1.41319462889184,0.6166666666666667,-0.4066666666666667,-0.14666666666666667,-0.11998611461111203,-0.019634954084936207,0.12526602854690072
1592224579.3434596,-9.725381540578619,-0.3685052914386816,1.3402372137216998,0.6166666666666667,-0.4003791560637667,-0.13980756419077575,-0.09651155816773482,-0.0005555477763875688,0.07855446987733611
1592224579.3534596,-9.731295029848356,-0.3795352347841998,1.2854621349008486,0.6166666666666667,-0.39444444444444443,-0.13333333333333333,-0.03318973849463039,-0.06239893389324172,0.04023940801082407
1592224579.3634596,-10.157926421404682,-0.7118060200668896,1.331438127090301,0.6166666666666667,-0.39444444444444443,-0.13333333333333333,-0.03770115487063001,-0.11261459730468427,0.02453092368396712
1592224579.3734596,-9.232204075836115,-0.6306106653411915,1.2826144997514735,0.6166666666666667,-0.39444444444444443,-0.13333333333333333,-0.05425634144384914,-0.014212015453668583,-0.04292960942751584
1592224579.3834596,-8.851757031023485,-0.5854392577558712,1.2741448608292258,0.6166666666666667,-0.39444444444444443,-0.13333333333333333,0.013224544193654833,0.11627695940187663,-0.02788754438981525
1592224579.3934596,-9.455256602467998,-0.6061419290354823,1.2408784069503709,0.6106629164050453,-0.40044819470606574,-0.13333333333333333,0.005896432475623395,0.12184952634306057,0.011138274226810197
1592224579.4034595,-9.788947268082511,-0.5622442521066078,1.2100198268959468,0.6044444444444445,-0.4066666666666667,-0.13333333333333333,-0.0812046094245257,0.03780753693745638,-0.014314019030742564
1592224579.4134595,-9.605363282937365,-0.6004872570194384,1.198292008639309,0.6044444444444445,-0.4066666666666667,-0.13333333333333333,-0.05826629038593639,0.05752169824662716,-0.10658213075021657
1592224579.4234595,-9.67141181591739,-0.5612708277913472,1.3250704940630214,0.6044444444444445,-0.4066666666666667,-0.13333333333333333,-0.028356007828985886,0.002285334147885981,-0.09435476549247271
1592224579.4334595,-10.00808815477277,-0.598025187077934,1.4746988501551377,0.6044444444444445,-0.4066666666666667,-0.13333333333333333,-0.016868158066620228,-0.07243482726975553,-0.0849488204863671
1592224579.4434595,-9.721321722302854,-0.6514533139816159,1.4560406386066764,0.611301833037682,-0.41191055206149546,-0.12808944793850455,-0.02818153674404293,-0.02423575851735232,-0.005976085041601291
1592224579.4534595,-9.626919925135313,-0.5628666093378523,1.4295199554858617,0.6233333333333333,-0.4211111111111111,-0.11888888888888889,-0.08404197585598915,-0.08847802471673175,0.047534045268081436
1592224579.4634595,-9.215922839506172,-0.36520655270655267,1.2276032763532763,0.6233333333333333,-0.4211111111111111,-0.11888888888888889,-0.007203134805984973,-0.10819060152610309,0.009021160211978997
1592224579.4734595,-9.096519546326332,-0.35121563706106596,1.1280849099045769,0.6233333333333333,-0.4211111111111111,-0.11888888888888889,0.04150787667744204,-0.08219196728766313,0.06504794968992789
1592224579.4834595,-9.56569081081081,-0.5978486486486487,1.327411891891892,0.6233333333333333,-0.4211111111111111,-0.11888888888888889,0.06298728171734508,-0.17567635171479357,0.08939765112958414
1592224579.4934595,-10.070536281312478,-0.8966129601317183,1.7192720216394213,0.6155027637304481,-0.4211111111111111,-0.11566453669946555,0.11509977396869578,-0.20147181433913258,0.028361600344907853
1592224579.5034595,-9.694477404403244,-0.6770150637311704,1.6571657010428738,0.6044444444444445,-0.4211111111111111,-0.1111111111111111,0.09534139118708654,-0.06786054505914685,0.0071972079670160095
1592224579.5134594,-9.475338595436607,-0.6391777528031155,1.5689056741852017,0.6044444444444445,-0.4211111111111111,-0.1111111111111111,0.15834984997262272,-0.0130015876062681,-0.0793760790749631
1592224579.5234594,-9.61971197879007,-0.5403697276452157,1.6543121234032296,0.6044444444444445,-0.4211111111111111,-0.1111111111111111,0.10235003106762908,-0.062448419084523546,0.025216673939975065
1592224579.5334594,-9.82837003257329,-0.5292456026058632,1.65,0.6044444444444445,-0.4211111111111111,-0.1111111111111111,-0.010669248883445476,-0.05242355080941405,0.01528243266693341
1592224579.5434594,-9.783969301519992,-0.5423665900200078,1.5290844208200196,0.6015945823088894,-0.4211111111111111,-0.1111111111111111,0.023298376053494635,-0.038487267133641645,-0.03347446856120309
1592224579.5534594,-9.600432302054827,-0.4984544737696554,1.4593974674150008,0.5966666666666667,-0.4211111111111111,-0.1111111111111111,0.13823693372662493,-0.05698463779975398,0.0585205238984914
1592224579.5634594,-9.419783940115686,-0.6350323239197005,1.5624838380401498,0.5966666666666667,-0.4211111111111111,-0.1111111111111111,0.09494700251043114,-0.048107344830856366,-0.06665128255473496
1592224579.5734594,-9.62992002806033,-0.6305637787910675,1.3672571027709575,0.5966666666666667,-0.4211111111111111,-0.1111111111111111,0.0607956101035763,0.022449917337473185,-0.12414274138505792
1592224579.5834594,-9.631818433653885,-0.5640907831730579,1.410908623214215,0.5966666666666667,-0.4211111111111111,-0.1111111111111111,0.0003469902975862388,-0.08272938530852332,0.08600192082474839
1592224579.5934594,-9.45269757498831,-0.5550684748480192,1.6460221123655554,0.5966666666666667,-0.4158371374915566,-0.10299730554256574,0.05370933339724517,-0.2176282105552476,0.1623734303132036
1592224579.6034594,-9.44,-0.39,1.5,0.5966666666666667,-0.4066666666666667,-0.08888888888888889,0.0370882466048795,-0.19962203319685143,0.09381144729469522
1592224579.6134593,-9.442356775300171,-0.7,1.4386620926243567,0.5966666666666667,-0.4066666666666667,-0.08888888888888889,0.07093506053806628,0.04473790796192669,-0.011867041432084939
1592224579.6234593,-9.736757075471697,-0.8325176886792452,1.4153655660377358,0.5966666666666667,-0.4066666666666667,-0.08888888888888889,-0.0623870308022354,-0.08273784258818491,0.021946537712467025
1592224579.6334593,-9.911304601804375,-0.8221892646199779,1.4690257675082754,0.5966666666666667,-0.4066666666666667,-0.08888888888888889,-0.05601349161188072,-0.12277832526403107,-0.02738681237752866
1592224579.6434593,-9.74,-0.723904162187068,1.43289817232376,0.5966666666666667,-0.41066400450519636,-0.07989487875219714,-0.005021741955851446,-0.06023409761471138,0.011940333261944783
1592224579.6534593,-9.74,-0.9,1.62,0.5966666666666667,-0.41555555555555557,-0.06888888888888889,0.002181661564992912,-0.12326387842209952,0.11999138607461016
1592224579.6634593,-9.556497106305208,-0.7923728297289065,1.4944004467458627,0.5966666666666667,-0.41555555555555557,-0.06888888888888889,0.09207214314114416,-0.011486229951380086,-0.15600386464310137
1592224579.6734593,-9.620642944667356,-0.6256149539895726,1.359465414093847,0.5966666666666667,-0.41555555555555557,-0.06888888888888889,0.11479984297014821,0.026261500140649402,-0.12887544156741315
1592224579.6834593,-9.780563256540415,-0.6417567356501367,1.4825224521671223,0.5966666666666667,-0.41555555555555557,-0.06888888888888889,0.10731174539777957,-0.026514045638872465,-0.06693871809395618
1592224579.6934593,-9.415639694750826,-0.7259529767973554,1.6157441220996696,0.5966666666666667,-0.41747026292211203,-0.07144183204429752,0.04523387137103835,-0.07108912563405118,-0.04916425934385948
1592224579.7034593,-9.507386,-0.844718,1.639436,0.5966666666666667,-0.4222222222222222,-0.07777777777777778,0.06133261524433273,-0.11647869278881506,-0.09602037962925053
1592224579.7134593,-9.65,-0.85,1.65,0.5966666666666667,-0.4222222222222222,-0.07777777777777778,0.056723200689815706,-0.15162547876700738,-0.02399827721492203
1592224579.7234592,-9.545842785688905,-0.602108125837046,1.36186732992593,0.5966666666666667,-0.4222222222222222,-0.07777777777777778,0.014824589198240298,-0.19821922129242525,0.08046525028988069
1592224579.7334592,-9.79,-0.73,1.42,0.5966666666666667,-0.4222222222222222,-0.07777777777777778,0.09599310885968812,-0.1341721862470641,0.05890486225480862
1592224579.7434592,-9.234320935432216,-0.5590153186089374,1.4944142973683414,0.5966666666666667,-0.42068854847535697,-0.07931145152464306,-0.055678676740246937,0.04578338444330036,-0.08813689922435712
1592224579.7534592,-9.592362134718421,-0.7514889684377998,1.4750827074705786,0.5966666666666667,-0.41555555555555557,-0.08444444444444445,-0.06826715652181933,-0.146986442739726,-0.05706208024644723
1592224579.7634592,-9.563898730124853,-0.9239857005655746,1.4008387578700245,0.5966666666666667,-0.41555555555555557,-0.08444444444444445,-0.09099846348566543,-0.08607092556507451,0.02323343849371906
1592224579.7734592,-9.43,-1.25,1.82,0.5966666666666667,-0.41555555555555557,-0.08444444444444445,-0.18435040224190105,0.10253809355466686,0.1407171709420428
1592224579.7834592,-9.662085561497326,-0.7564171122994653,1.0749197860962567,0.5966666666666667,-0.41555555555555557,-0.08444444444444445,-0.036178248732850374,-0.029189931741242063,0.0436565645786282
1592224579.7934592,-9.707618149993268,-0.8147637000134644,1.2669880166958394,0.5933508370360396,-0.40809493888664483,-0.0678652962913095,0.0024071126557606596,-0.10192496939935092,-0.0031137219050659526
1592224579.8034592,-9.646659270998414,-0.8761067089276281,1.4227754886423665,0.5877777777777777,-0.39555555555555555,-0.04,0.019635645578300706,-0.16980691379976764,0.12041573250262409
1592224579.8134592,-9.443045174340204,-0.7201319591600848,1.3182118089000194,0.5877777777777777,-0.39555555555555555,-0.04,0.04480359963796535,-0.20415882594944387,0.1284218416222087
1592224579.8234591,-9.543870274801561,-0.7867183611453121,1.4599224582820318,0.5877777777777777,-0.39555555555555555,-0.04,0.018669086051289908,-0.08765326702881222,0.03876851407169614
1592224579.8334591,-9.2,-0.68,1.62,0.5877777777777777,-0.39555555555555555,-0.04,0.01090830782496456,0.04363323129985824,-0.09381144729469522
1592224579.8434591,-9.554326701768767,-0.6993101491313807,1.6507339912349843,0.5902780843080997,-0.3998417953218218,-0.03785688011686687,0.0918967756519686,-0.021195347331518927,0.07768316491841173
1592224579.8534591,-10.26,-1.12,1.99,0.5955555555555555,-0.4088888888888889,-0.03333333333333333,-0.006544984694978735,-0.056723200689815706,0.08508480103472357
1592224579.863459,-9.64735585231736,-0.6919347996857816,1.6747509819324429,0.5955555555555555,-0.4088888888888889,-0.03333333333333333,-0.12159421323773634,0.13352651382396033,-0.0650382789805548
1592224579.873459,-9.827199003067484,-0.6283473926380369,1.5490663343558282,0.5955555555555555,-0.4088888888888889,-0.03333333333333333,-0.11860212440127349,0.09343459202819623,0.07714239853133967
1592224579.883459,-9.44,-0.46,1.42,0.5955555555555555,-0.4088888888888889,-0.03333333333333333,-0.13635384781205698,0.10690141668465267,0.11999138607461016
1592224579.893459,-9.901633256269935,-0.7989567176845863,1.7616332562699366,0.5914459629510403,-0.4088888888888889,-0.03143659828509555,-0.07742711850372316,-0.21469935064113324,0.015946253498232615
1592224579.903459,-9.866911004222839,-0.6450595036469977,1.7071585032631031,0.5811111111111111,-0.4088888888888889,-0.02666666666666667,-0.05168492863043479,0.00969443434530283,-0.1466873898206137
1592224579.913459,-9.777748024790652,-0.6847211051710271,1.7275516866158869,0.5811111111111111,-0.4088888888888889,-0.02666666666666667,-0.1009345408237339,0.06092426938538942,0.004799459333935177
1592224579.923459,-9.511290119572058,-0.684745122718691,1.6974701069855256,0.5811111111111111,-0.4088888888888889,-0.02666666666666667,-0.03843651070608972,-0.032528587663821315,-0.11911817225753306
1592224579.933459,-9.74398266897747,-0.8732611207394569,1.8158873483535527,0.5811111111111111,-0.4088888888888889,-0.02666666666666667,-0.049032308025517765,-0.059921710637614096,-0.0774851575312029
1592224579.943459,-9.683634269921695,-0.7316582220175034,1.6162920313219715,0.5811111111111111,-0.4120297865806848,-0.027658529095654846,-0.08602137799399276,-0.05055606249342626,-0.0066379389532752985
1592224579.953459,-9.59,-0.97,2.11,0.5811111111111111,-0.43,-0.03333333333333333,-0.04145156973486533,-0.015271630954950384,-0.13199052468207118
1592224579.963459,-8.99251619781842,-0.11318024002843163,1.198227671614861,0.5811111111111111,-0.43,-0.03333333333333333,0.029343523994413326,0.024119172482486496,-0.038966029833295716
1592224579.973459,-9.35,0.02,1.03,0.5811111111111111,-0.43,-0.03333333333333333,-0.13199052468207118,0.09599310885968812,0.05890486225480862
1592224579.983459,-9.665099058718065,-0.694009861048857,1.8986261766024204,0.5811111111111111,-0.43,-0.03333333333333333,-0.02781755399274121,0.13224296570986271,-0.03340533589843562
1592224579.993459,-9.911080713047784,-0.4496397623174053,1.5417495048279277,0.5767200352122362,-0.4234133861516877,-0.02976558416549751,-0.14173504785845314,0.014272490454864808,0.01901749632893657
1592224580.003459,-9.64,-0.54,1.73,0.5633333333333334,-0.4033333333333333,-0.01888888888888889,-0.0916297857297023,-0.008726646259971648,0.0370882466048795
1592224580.013459,-9.60116460936901,-0.47748447443072917,1.6196933220884766,0.5633333333333334,-0.4033333333333333,-0.01888888888888889,-0.15549335747810883,0.07493320845318673,-0.0006292579013649699
1592224580.023459,-9.89,-0.53,1.6,0.5633333333333334,-0.4033333333333333,-0.01888888888888889,-0.21707532571679475,-0.06326818538479445,0.05235987755982988
1592224580.033459,-9.72493670886076,-0.48060126582278484,1.473132911392405,0.5633333333333334,-0.4033333333333333,-0.01888888888888889,-0.003811003746443314,0.05288458097419527,0.014888459382617774
1592224580.043459,-9.871467006123995,-0.5356877451317691,1.466514140232574,0.5640672951214477,-0.40541289173299083,-0.02121310121791784,-0.026159973116380637,0.11476743776385612,0.11992090578115636
1592224580.053459,-9.56,-0.42,1.6,0.57,-0.4222222222222222,-0.04,-0.04363323129985824,0.12544553998709243,-0.030543261909900768
1592224580.063459,-9.72941312193102,-0.2540513518310359,1.310293439034491,0.57,-0.4222222222222222,-0.04,0.0047772489797717945,0.022230541499715088,-0.002993508647984415
1592224580.073459,-9.129520656779661,-0.27766491718027736,1.6982629526194144,0.57,-0.4222222222222222,-0.04,-0.10977477463710206,-0.0029654860915334846,0.03191520432317154
1592224580.083459,-9.2,-0.22,1.82,0.57,-0.4222222222222222,-0.04,-0.27052603405912107,-0.004363323129985824,-0.02399827721492203
1592224580.093459,-9.373611111111112,-0.21833333333333332,1.5933333333333333,0.5710802469135802,-0.41962962962962963,-0.03200617283950617,-0.006302577854423969,0.07581273938350368,0.045330079183741614
1592224580.103459,-10.01,-1.04,2.27,0.5755555555555556,-0.4088888888888889,0.0011111111111111111,-0.10471975511965977,0.0916297857297023,-0.01090830782496456
1592224580.1134589,-9.757004925338128,-0.6960878742866077,1.7247025252130406,0.5755555555555556,-0.4088888888888889,0.0011111111111111111,-0.09578237921669315,0.027903981864814353,-0.03937633900534701
1592224580.1234589,-9.31,-0.04,0.91,0.5755555555555556,-0.4088888888888889,0.0011111111111111111,-0.21925698728178766,0.04363323129985824,0.039269908169872414
1592224580.1334589,-9.727102847781692,-0.8499533224119746,1.698238369875003,0.5755555555555556,-0.4088888888888889,0.0011111111111111111,-0.08739287471256879,-0.014144105409253767,0.05472606555911418
1592224580.1434588,-9.241445308686172,-0.3108761024506135,1.1377957496664173,0.5722854673595065,-0.4088888888888889,0.004562870873607359,-0.1185359273438265,0.07362559295647102,0.03791001739126372
1592224580.1534588,-9.3,-0.52,1.28,0.5555555555555556,-0.4088888888888889,0.022222222222222223,-0.16689710972195776,0.1712604328519436,0.1090830782496456
1592224580.1634588,-10.015090360627227,-0.8985169986683698,1.5415859988586025,0.5555555555555556,-0.4088888888888889,0.022222222222222223,-0.05608714706399719,-0.034482549289340914,0.042294127348260824
1592224580.1734588,-8.795832041093236,-0.29,1.0231166408218648,0.5555555555555556,-0.4088888888888889,0.022222222222222223,-0.050939593256694296,-0.05541556226754365,-0.0003962957150792758
1592224580.1834588,-9.14,-0.29,1.03,0.5555555555555556,-0.4088888888888889,0.022222222222222223,-0.1538071403320003,-0.1778054175469223,-0.01090830782496456
1592224580.1934588,-9.79435603462355,-0.982141107300343,1.9211772007186019,0.5527896274520478,-0.4088888888888889,0.02205952056907471,0.0473961075787374,-0.10231974924517352,-0.007944091418359046
1592224580.2034588,-9.47,-0.47,1.52,0.5366666666666666,-0.4088888888888889,0.021111111111111112,-0.09599310885968812,-0.05017821599483697,-0.15598880189699318
1592224580.2134588,-9.03242524500589,-0.230897059929318,1.5796678948291851,0.5366666666666666,-0.4088888888888889,0.021111111111111112,-0.01777947271482468,-0.03160147467290909,-0.007871359683586102
1592224580.2234588,-9.24304672087764,-0.28946494731270755,1.450242987056729,0.5366666666666666,-0.4088888888888889,0.021111111111111112,0.04172733477991351,-0.019525361885838262,0.005028014513786774
1592224580.2334588,-9.76,-0.67,1.68,0.5366666666666666,-0.4088888888888889,0.021111111111111112,0.1090830782496456,0.019634954084936207,0.11780972450961724
1592224580.2434587,-9.454753984753983,-0.5787892287892288,1.78004455004455,0.5349177749177749,-0.4088888888888889,0.021111111111111112,-0.10023386066622743,-0.12810161196961897,0.04384835207193357
1592224580.2534587,-10.07,-0.57,1.49,0.5222222222222223,-0.4088888888888889,0.021111111111111112,0.1778054175469223,-0.05235987755982988,-0.06544984694978735
1592224580.2634587,-9.849720646812102,-0.49065340684270226,1.353643461974729,0.5222222222222223,-0.4088888888888889,0.021111111111111112,0.004068149367374076,-0.0062800246631860915,-0.14680377017802318
1592224580.2734587,-9.48,-0.78,1.86,0.5222222222222223,-0.4088888888888889,0.021111111111111112,-0.16689710972195776,0.030543261909900768,-0.01090830782496456
1592224580.2834587,-9.66994140499238,-0.5000937949389367,1.3823446588396902,0.5222222222222223,-0.4088888888888889,0.021111111111111112,-0.041249516341442895,0.20928861404921437,0.12167175387290924
1592224580.2934587,-9.00551912568306,-0.24382513661202188,1.6497814207650274,0.524207650273224,-0.4083098057073467,0.022186551305403764,-0.04066474097372034,0.07226083341344863,0.03862017835953299
1592224580.3034587,-9.884921598734413,-0.537177321794156,1.9917732179415597,0.5488888888888889,-0.4011111111111111,0.035555555555555556,0.05360728813778519,0.08146755398361857,-0.0033264451262811842
1592224580.3134587,-10.05,-0.53,1.92,0.5488888888888889,-0.4011111111111111,0.035555555555555556,-0.07635815477475191,-0.04145156973486533,-0.08944812416470939
1592224580.3234587,-8.953817807655371,-0.11622280148168473,1.5010733982713678,0.5488888888888889,-0.4011111111111111,0.035555555555555556,-0.021283067851087526,0.08927027489842886,-0.09192472458361148
1592224580.3334587,-9.579547868186788,-0.34007555052319227,1.4369850070279555,0.5488888888888889,-0.4011111111111111,0.035555555555555556,0.03021437719560912,0.07106844321941545,-0.0782711973429775
1592224580.3434587,-9.895723370429252,-0.800556438791733,1.6610492845786962,0.5481893658364246,-0.4011111111111111,0.035555555555555556,0.05324433495104323,0.05608153552364133,-0.016766537369118817
1592224580.3534586,-8.95,-0.54,1.69,0.5288888888888889,-0.4011111111111111,0.035555555555555556,0.017453292519943295,-0.02181661564992912,0.002181661564992912
1592224580.3634586,-9.176363986360137,-0.5286107138928611,1.555231547684523,0.5288888888888889,-0.4011111111111111,0.035555555555555556,-0.07887092925848853,0.005302606307346098,0.02015511154199507
1592224580.3734586,-9.859634422050123,-0.6255471643657704,1.5152311318485738,0.5288888888888889,-0.4011111111111111,0.035555555555555556,0.0731041848798202,0.024199977803113688,0.04428618710616859
1592224580.3834586,-9.06,-0.26,1.5,0.5288888888888889,-0.4011111111111111,0.035555555555555556,0.0,0.01090830782496456,0.1090830782496456
1592224580.3934586,-9.946373964056244,-0.7959512058850917,1.8463441661234752,0.527891899721679,-0.4011111111111111,0.035555555555555556,-0.03544047149046871,0.07676669573826814,-0.016965521832025612
1592224580.4034586,-9.23,-0.3,1.58,0.5166666666666667,-0.4011111111111111,0.035555555555555556,-0.04145156973486533,-0.04145156973486533,0.01308996938995747
1592224580.4134586,-9.6505579105008,-0.684486636038277,1.8719643627687388,0.5166666666666667,-0.4011111111111111,0.035555555555555556,-0.09597408708778735,0.017440611338676106,0.012418392858001951
1592224580.4234586,-10.19,-0.56,1.54,0.5166666666666667,-0.4011111111111111,0.035555555555555556,-0.22362031041177347,0.10253809355466686,0.15817046346198613
1592224580.4334586,-9.382557935796083,-0.7900325399970798,1.782196032623433,0.5166666666666667,-0.4011111111111111,0.035555555555555556,-0.005536658499731861,0.11268429199040432,-0.02041437897082545
1592224580.4434586,-9.75875972549592,-0.6238038422227321,1.3185054546213053,0.5166666666666667,-0.4011111111111111,0.035555555555555556,-0.17064001018770358,-0.10013679139929332,0.1485063912532843
1592224580.4534585,-9.7,-0.95,1.85,0.5288888888888889,-0.4011111111111111,0.04888888888888889,-0.074176493209759,0.08726646259971647,-0.056723200689815706
1592224580.4634585,-9.333512520227092,-0.26699020871616247,0.9331773675982558,0.5288888888888889,-0.4011111111111111,0.04888888888888889,-0.046030450194268525,-0.11019598832556467,0.10938931625435291
1592224580.4734585,-9.68,-0.37,0.98,0.5288888888888889,-0.4011111111111111,0.04888888888888889,-0.1778054175469223,-0.1908953869368798,0.017453292519943295
1592224580.4834585,-9.38880542843617,-0.9438362000946819,1.7335426858134764,0.5288888888888889,-0.4011111111111111,0.04888888888888889,0.014288041387144679,-0.13972910581792578,-0.06706414568392839
1592224580.4934585,-9.672466015915598,-0.7452737888590816,1.5255249216618951,0.5288888888888889,-0.4011111111111111,0.04888888888888889,-0.15795893194885383,-0.03761862461874102,0.09177438062591456
1592224580.5034585,-9.74,-0.96,1.66,0.5022222222222222,-0.39444444444444443,0.04888888888888889,-0.1908953869368798,-0.07853981633974483,0.019634954084936207
1592224580.5134585,-9.871335920610528,-1.070378714869898,1.9000596462896882,0.5022222222222222,-0.39444444444444443,0.04888888888888889,0.02003619161027715,0.12299958784989151,-0.004585165829168807
1592224580.5234585,-9.65,-0.61,1.36,0.5022222222222222,-0.39444444444444443,0.04888888888888889,-0.2127120025868089,0.08726646259971647,0.061086523819801536
1592224580.5334585,-9.17347036328872,-0.594793499043977,1.71214913957935,0.5022222222222222,-0.39444444444444443,0.04888888888888889,-0.02684695156049308,-0.006148281033734326,-0.026414373540818575
1592224580.5434585,-9.574455066921606,-0.5324181007010835,1.4982906309751434,0.5022222222222222,-0.39444444444444443,0.04888888888888889,-0.08711184133392476,-0.027532596759790726,-0.003086029112393411
1592224580.5534585,-9.55,-0.54,1.62,0.5166666666666667,-0.4011111111111111,0.07222222222222222,-0.0370882466048795,0.0545415391248228,-0.12762720155208535
1592224580.5634584,-9.719130391670799,-0.6075845314823995,1.6578864650470995,0.5166666666666667,-0.4011111111111111,0.07222222222222222,-0.03251941246976296,0.022072206442099583,-0.14485783912252254
1592224580.5734584,-9.403661877714667,-0.5387520882058136,1.6135633144002675,0.5166666666666667,-0.4011111111111111,0.07222222222222222,-0.094083699414483,0.09653761309926369,-0.06939404031035423
1592224580.5834584,-9.833222821896683,-0.6430259177984698,1.9258549314987248,0.5166666666666667,-0.4011111111111111,0.07222222222222222,-0.062076753103763975,0.04141132913545172,-0.09479895936776478
1592224580.5934584,-9.294248265227449,-0.394268430104976,1.71855702508748,0.5166666666666667,-0.4011111111111111,0.07222222222222222,0.01932894438199996,0.008849050141146148,-0.1092710833652339
1592224580.6034584,-9.38,-0.68,1.97,0.4955555555555556,-0.41333333333333333,0.08666666666666667,-0.05017821599483697,0.002181661564992912,-0.019634954084936207
1592224580.6134584,-9.452781281486734,-0.7163906407433668,1.606093592566332,0.4955555555555556,-0.41333333333333333,0.08666666666666667,0.02325944157278633,0.07958892224437962,0.08754432993267616
1592224580.6234584,-9.70523173494431,-0.7867594865017935,1.5898149896167644,0.4955555555555556,-0.41333333333333333,0.08666666666666667,-0.08167582613086274,-0.01397877921764384,0.12433972752828362
1592224580.6334584,-9.44448164779383,-0.5521241702459977,1.4134713002733306,0.4955555555555556,-0.41333333333333333,0.08666666666666667,-0.21647911705306985,-0.03171885463137293,-0.053982067733643925
1592224580.6434584,-9.796599765716516,-0.8469207340882468,1.7410230378758298,0.4955555555555556,-0.41333333333333333,0.08666666666666667,-0.09588917964807972,-0.06030313609033355,0.0657146108757537
1592224580.6534584,-9.415734199868137,-0.7966259301120845,1.7758392201186777,0.4955555555555556,-0.4011111111111111,0.10111111111111111,-0.04240888496665497,-0.06601057116524128,0.11940212477242376
1592224580.6634583,-9.598704513042279,-0.64,1.6074090260845564,0.4955555555555556,-0.4011111111111111,0.10111111111111111,-0.10987777835875052,0.07987358367365432,0.07657886019782867
1592224580.6734583,-9.575294304338273,-0.6359217304265032,1.5690588608676546,0.4955555555555556,-0.4011111111111111,0.10111111111111111,-0.1831184539984918,0.06530449516611836,0.10770577822256734
1592224580.6834583,-9.448042180660565,-0.5207393932503364,1.5507393932503364,0.4955555555555556,-0.4011111111111111,0.10111111111111111,-0.14072256587570647,-0.006170109151209086,-0.0015256293633960248
1592224580.6934583,-9.781850378034221,-0.7194347488298941,1.749434748829894,0.4955555555555556,-0.4011111111111111,0.10111111111111111,-0.06009416607934956,0.0007656671753592508,0.010611979208098565
1592224580.7034583,-9.441532436928195,-0.3161297477127807,1.617662184640976,0.5022222222222222,-0.39444444444444443,0.08,-0.12712571274003245,-0.04094153754338202,0.057010348964831065
1592224580.7134583,-9.47702479338843,-0.4345454545454545,1.7558677685950412,0.5022222222222222,-0.39444444444444443,0.08,-0.11922960755294941,-0.07050733512318001,0.02580581086690996
1592224580.7234583,-9.805747170812925,-0.6489793209951017,1.5603402263349662,0.5022222222222222,-0.39444444444444443,0.08,-0.18514032870990532,-7.4225871839394e-05,0.210829797668595
1592224580.7334583,-9.561612841545728,-0.5925344652861431,1.5790783762595844,0.5022222222222222,-0.39444444444444443,0.08,-0.1042170873466973,-0.004614657016467062,-0.023495609441959553
1592224580.7434583,-9.617751773456472,-0.6807527868601694,1.546998986596302,0.5022222222222222,-0.39444444444444443,0.08,-0.08672049448249383,-0.013362953448568797,-0.005999016577756089
1592224580.7534583,-9.650072989328775,-0.6391971173834712,1.570218967986326,0.4955555555555556,-0.38555555555555554,0.10777777777777778,-0.14269978499048094,-0.034444794801479536,-0.0611183714224503
1592224580.7634583,-9.659760936850372,-0.5326296946459094,1.5992828105511157,0.4955555555555556,-0.38555555555555554,0.10777777777777778,-0.1162800065510616,0.026849091177973364,-0.06534553597275738
1592224580.7734582,-9.715305370601953,-0.6613502551796397,1.6138263426504884,0.4955555555555556,-0.38555555555555554,0.10777777777777778,-0.041725282099392094,0.07360820086239697,-0.014170366363299686
1592224580.7834582,-9.553808122574262,-0.5758514497349129,1.5599381040562137,0.4955555555555556,-0.38555555555555554,0.10777777777777778,-0.10765786733534914,0.025673387746090834,0.0932440470462213
1592224580.7934582,-9.622828753680079,-0.5514180569185476,1.698545142296369,0.4955555555555556,-0.38555555555555554,0.10777777777777778,-0.009062512950853169,-0.03677405736576006,0.07699215333307727
1592224580.8034582,-9.429071062329754,-0.4161825028040378,1.6943919243710943,0.492055181683847,-0.3897560042016059,0.10357732913172746,-0.0965439862701565,-0.02026514001448131,0.0507457416398884
1592224580.8134582,-9.852053021186595,-0.7650993691426905,1.9581457170987855,0.49,-0.39222222222222225,0.10111111111111111,-0.08662532156655897,0.002792094019071263,0.0075418997323898895
1592224580.8234582,-9.494912666487886,-0.5479290247608831,1.7450984178063824,0.49,-0.39222222222222225,0.10111111111111111,-0.006093167986855427,-0.0030459794389581024,0.09409814262558788
1592224580.8334582,-9.515117742360875,-0.36478504954598545,1.737558871180438,0.49,-0.39222222222222225,0.10111111111111111,-0.06675394478817373,0.028966754349710907,-0.09525010600049025
1592224580.8434582,-9.532236779888091,-0.35223677988809204,1.6335516983213807,0.49,-0.39222222222222225,0.10111111111111111,0.01679379938826063,0.08184140839720938,0.003646662178115559
1592224580.8534582,-9.648838848920864,-0.5612690647482014,1.6484158273381295,0.492445243804956,-0.389287929656275,0.10111111111111111,0.00426318643369334,0.05758330899025895,-0.061075693989011276
1592224580.8634582,-9.8,-0.83,1.71,0.4955555555555556,-0.38555555555555554,0.10111111111111111,-0.04581489286485115,0.008726646259971648,-0.18871372537188688
1592224580.8734581,-9.747110539240422,-0.8331111447505635,1.6664439734921115,0.4955555555555556,-0.38555555555555554,0.10111111111111111,-0.034276202491613755,0.014835364692862035,-0.13950460466249212
1592224580.8834581,-9.6262753986242,-0.8366674619269155,1.5707841266054317,0.4955555555555556,-0.38555555555555554,0.10111111111111111,-0.009881368002053664,0.030072299222066397,-0.03221119331513035
1592224580.8934581,-9.46783629567776,-0.6949061592906278,1.6041397272257347,0.4955555555555556,-0.38555555555555554,0.10111111111111111,-0.05900154450118759,0.10284293107263517,-0.1031625593694349
1592224580.903458,-8.75,-0.19,1.63,0.4688888888888889,-0.39222222222222225,0.10666666666666667,-0.23671027980173093,0.10471975511965977,-0.21707532571679475
1592224580.913458,-10.074653067053866,-0.46492799504891574,2.0257296898431365,0.4688888888888889,-0.39222222222222225,0.10666666666666667,-0.21671695180377157,0.10835490566474329,-0.05712870173311979
1592224580.923458,-9.451046643913537,0.19116040955631408,1.397185112953031,0.4688888888888889,-0.39222222222222225,0.10666666666666667,0.05233913528751527,0.2200659359020593,-0.006939087868957222
1592224580.933458,-9.698071815332005,-1.1235987460815045,2.802200911940724,0.4688888888888889,-0.39222222222222225,0.10666666666666667,-0.14231552248130863,0.2088671116300831,0.061946691609818
1592224580.943458,-9.476928746928747,-0.8918918918918919,2.0831941031941033,0.4688888888888889,-0.39222222222222225,0.10666666666666667,0.011564950433592652,0.08450856364347852,0.09443324764245731
1592224580.953458,-10.06,-0.76,1.71,0.4633333333333333,-0.37333333333333335,0.12777777777777777,-0.06326818538479445,0.05017821599483697,-0.1112647398146385
1592224580.963458,-9.551393666613084,-0.44918501848577397,1.264969458286449,0.4633333333333333,-0.37333333333333335,0.12777777777777777,0.07003875339462315,0.1064291207977126,0.02127163862501366
1592224580.973458,-9.449049200034345,-0.5480119637081772,1.2782712727897192,0.4633333333333333,-0.37333333333333335,0.12777777777777777,-0.059474208548337515,0.07249455509147716,0.12285844241816411
1592224580.983458,-9.512616860253349,-0.7456776882917157,1.6870095916467684,0.4633333333333333,-0.37333333333333335,0.12777777777777777,-0.042302814186202756,-0.06461396569049771,0.05752089470450382
1592224580.993458,-9.435854701700888,-0.5465318891947013,1.6044674573787696,0.4633333333333333,-0.37333333333333335,0.12777777777777777,-0.0702671447225966,-0.07409903802519507,0.15855594664071243
1592224581.003458,-9.478003550172287,-0.5280035501722878,1.7445097629737913,0.48283422087640526,-0.37333333333333335,0.13427807362546842,-0.1041753078877152,-0.06326818538479445,-0.009799936273907545
1592224581.013458,-9.494904100663762,-0.5598082013275237,1.6978356476768335,0.48333333333333334,-0.37333333333333335,0.13444444444444445,-0.09333925886703966,0.016395288383546328,-0.010394275418113195
1592224581.023458,-9.85054053316598,-0.5310510518704467,1.6702627629676117,0.48333333333333334,-0.37333333333333335,0.13444444444444445,0.0018983057012758736,0.018141204360513516,-0.07033237803005471
1592224581.033458,-9.5639811899733,-0.42639341649065476,1.4775877734826444,0.48333333333333334,-0.37333333333333335,0.13444444444444445,-0.02146919128402183,-0.008379221894064356,0.0006591151446304205
1592224581.043458,-9.439530744336569,-0.7379773462783172,1.3485922330097087,0.48333333333333334,-0.37333333333333335,0.13444444444444445,-0.03798609330072071,0.12321622076655356,-0.028897013512152615
1592224581.053458,-9.53,-1.24,1.63,0.49,-0.37777777777777777,0.14222222222222222,-0.02399827721492203,0.12326387842209952,0.13199052468207118
1592224581.063458,-9.872617497932325,-1.1562490560609873,1.5234078895321659,0.49,-0.37777777777777777,0.14222222222222222,0.030816587412163893,0.11246701114706745,-0.04491199297806975
1592224581.073458,-9.457735194448926,-0.9875641439406164,1.290589801516863,0.49,-0.37777777777777777,0.14222222222222222,0.10807427540722389,0.0717934583326512,-0.07756833092928848
1592224581.083458,-9.699442677824267,-1.021452719665272,1.3767230125523011,0.49,-0.37777777777777777,0.14222222222222222,0.03740883218714959,0.009522633241006724,0.04874470916568849
1592224581.093458,-9.597296938678799,-1.0137996398445646,1.465850630272012,0.49,-0.37777777777777777,0.14222222222222222,-0.0342198920195718,0.0668581776216826,0.05041745231657869
1592224581.103458,-9.603184850281648,-0.9296086569819152,1.4812010821227395,0.47142450670356095,-0.3768001202358599,0.11680312613235827,-0.037264904273109176,0.18517034445808012,0.02949512002846851
1592224581.113458,-9.628568834964355,-0.8771558251782314,1.4028804853208166,0.4688888888888889,-0.37666666666666665,0.11333333333333333,0.05295661508305361,0.01111987576666118,-0.016192482836344016
1592224581.123458,-9.680697563647621,-0.8108528424111077,1.2463569029984043,0.4688888888888889,-0.37666666666666665,0.11333333333333333,0.10081298632941989,-0.09890181775324199,0.025773939507037408
1592224581.133458,-9.699365633177385,-0.6876124018713822,1.3230219649512331,0.4688888888888889,-0.37666666666666665,0.11333333333333333,-0.005478113957423342,-0.10935987299264684,0.04103637762036347
1592224581.143458,-9.69017173431522,-0.5768032103098122,1.3889695941086788,0.4688888888888889,-0.37666666666666665,0.11333333333333333,-0.018450456763713177,-0.07155966663335567,0.026442205088349352
1592224581.1534579,-9.644471940549842,-0.4966460445876194,1.5121741040377787,0.4817184659125575,-0.3717322139652557,0.11925467657502653,0.012819068631145895,-0.1596478788916015,0.11651595775184359
1592224581.1634579,-9.64,-0.458334261631577,1.4723820132932308,0.48333333333333334,-0.3711111111111111,0.12,-0.03319129403780126,-0.09316398043278122,-0.011086973844852105
1592224581.1734579,-9.631293055088074,-0.4909486143834848,1.4487069449119263,0.48333333333333334,-0.3711111111111111,0.12,-0.010644687326199012,-0.09787418920603283,-0.010023820664064528
1592224581.1834579,-9.593891091981817,-0.44583663797272466,1.4770816810136376,0.48333333333333334,-0.3711111111111111,0.12,0.06871801353442902,-0.11084028752350944,0.024057677324269694
1592224581.1934578,-9.577519469026548,-0.44416017699115046,1.5340823008849558,0.48333333333333334,-0.3711111111111111,0.12,0.09087991196700915,-0.07496034683399538,-0.0010483559555673864
1592224581.2034578,-9.568080712252792,-0.4419192877472086,1.6180807122527914,0.47166119341263474,-0.3756003956959952,0.15052713517721178,0.06719129146543301,-0.004605959941271616,-0.012825839160349121
1592224581.2134578,-9.587302077683182,-0.4573020776831828,1.62,0.4688888888888889,-0.37666666666666665,0.15777777777777777,0.052948472902223556,-0.007549455575184302,0.09348530167621326
1592224581.2234578,-9.565800783859618,-0.46,1.5232031354384714,0.4688888888888889,-0.37666666666666665,0.15777777777777777,-0.0373907720260974,0.01415097030114707,-0.02642280445851912
1592224581.2334578,-9.56,-0.45211119280851975,1.5394440359574015,0.4688888888888889,-0.37666666666666665,0.15777777777777777,0.008216896774030952,-0.047486804943903366,0.07361758505854132
1592224581.2434578,-9.565877581514489,-0.473510326057954,1.5911430706014196,0.4688888888888889,-0.37666666666666665,0.15777777777777777,0.032591385622551136,-0.02569887652544295,-0.09544207603044903
1592224581.2534578,-9.562689311311935,-0.46806793393580554,1.6273106886880648,0.4558921089989959,-0.36366988677677364,0.15127938783283126,0.038683191457317447,-0.013767786959386557,-0.1392078880893522
1592224581.2634578,-9.517677255707211,-0.4430709022828844,1.63,0.45111111111111113,-0.35888888888888887,0.14888888888888888,-0.06783742110650458,0.09855244373727287,0.01010926999462615
1592224581.2734578,-9.525915829960418,-0.4559158299604195,1.5504208501979024,0.45111111111111113,-0.35888888888888887,0.14888888888888888,0.018638548624093712,0.0713792497751563,-0.05105568116418249
1592224581.2834578,-9.568760779681039,-0.46,1.53,0.45111111111111113,-0.35888888888888887,0.14888888888888888,0.03397608640855163,0.1138707493733421,-0.17938971878405457
1592224581.2934577,-9.625715695430756,-0.4657144619288446,1.5185710761423108,0.45111111111111113,-0.35888888888888887,0.14888888888888888,0.010596026782260067,0.08679763737310299,-0.16066225320271424
1592224581.3034577,-9.66,-0.4478772282199347,1.4878772282199346,0.45111111111111113,-0.36790186998447105,0.13823718395774634,-0.015625016674177414,0.05293272576136685,-0.14417845214702676
1592224581.3134577,-9.664834020821058,-0.45450206246317026,1.4751659791789433,0.45111111111111113,-0.3711111111111111,0.13444444444444445,-0.021744193570871213,0.07134303293324493,-0.09414870277527848
1592224581.3234577,-9.67,-0.4773830098207646,1.4109359214338828,0.45111111111111113,-0.3711111111111111,0.13444444444444445,-0.004669602703009135,0.040086653697934585,-0.0005104659550388552
1592224581.3334577,-9.632237637428013,-0.47244752748560276,1.4579722526295749,0.45111111111111113,-0.3711111111111111,0.13444444444444445,-0.01594297134086546,-0.0243188135649831,0.04056679803455098
