time,acc_x,acc_y,acc_z,mag_x,mag_y,mag_z,gyr_x,gyr_y,gyr_z
1592262187.9808416,-0.38716314471220487,9.825148943413662,0.38,-0.48,-0.57,-0.16111111111111112,0.02945243112740431,0.044789050906543504,-0.0063902582413079955
1592262187.9908416,-0.4609230916946711,9.845461545847336,0.37848718194911185,-0.48,-0.57,-0.16111111111111112,0.029122385427759294,0.05629246130660928,-0.01024821642567453
1592262188.0008416,-0.41259702352376376,9.821298511761881,0.37043283725396065,-0.48,-0.57,-0.16111111111111112,0.0273652000024977,0.05980683215713248,-0.006733845575151333
1592262188.0108416,-0.51,9.82,0.36,-0.4666666666666667,-0.5822222222222222,-0.16111111111111112,0.016362461737446838,0.06654067773228381,-0.00545415391248228
1592262188.0208416,-0.28284579194981707,9.850711447987454,0.3028855201254574,-0.4666666666666667,-0.5822222222222222,-0.16111111111111112,0.005885325734847515,0.07397814219685185,-0.003078475006274303
1592262188.0308416,-0.34445682319197857,9.874782515940929,0.11358688695569726,-0.4666666666666667,-0.5822222222222222,-0.16111111111111112,-0.014868442190841363,0.101565765568676,0.002181661564992912
1592262188.0408416,-0.23,9.909090581838162,0.1463659271328698,-0.4666666666666667,-0.5822222222222222,-0.16111111111111112,-0.03887427766515803,0.1300084454074208,0.0020824594324834298
1592262188.0508416,-0.23,9.901143972262746,0.20199219416077754,-0.4666666666666667,-0.5822222222222222,-0.16111111111111112,-0.06401265605505622,0.1603478676021255,0.0012156187983490088
1592262188.0608416,-0.40408434251930964,9.886158815676552,0.2948784209020692,-0.4666666666666667,-0.5755555555555556,-0.16111111111111112,-0.10166650550906435,0.21100239812095442,-0.00643183973610961
1592262188.0708416,-0.5,9.858668420268996,0.2520105216139759,-0.4666666666666667,-0.5755555555555556,-0.16111111111111112,-0.1299483772828678,0.2286387058762775,-0.01308996938995747
1592262188.0808415,-0.5199648789748458,9.845008780256288,0.19833626008542954,-0.4666666666666667,-0.5755555555555556,-0.16111111111111112,-0.16307249754153372,0.2209018534519863,-0.013815912875110073
1592262188.0908415,-0.6226091784572381,9.812172464628286,0.22652849840133255,-0.4666666666666667,-0.5755555555555556,-0.16111111111111112,-0.1851572214639991,0.19051488788408924,-0.017453292519943295
1592262188.1008415,-0.6386697555091804,9.76399073347246,0.4513765771285252,-0.4666666666666667,-0.5755555555555556,-0.16111111111111112,-0.20355256188855975,0.15460017562661377,-0.017453292519943295
1592262188.1108415,-0.56,9.78,0.55,-0.4722222222222222,-0.5822222222222222,-0.16666666666666666,-0.21162117180431245,0.0839939702522271,-0.014180800172453926
1592262188.1208415,-0.6083383076761965,9.702096292805528,0.6527950570740392,-0.4722222222222222,-0.5822222222222222,-0.16666666666666666,-0.21420765393538263,0.028585158397200827,-0.02189283900730903
1592262188.1308415,-0.3261661180653997,9.73,0.7177475312942985,-0.4722222222222222,-0.5822222222222222,-0.16666666666666666,-0.20204940098192326,-0.015866698659152155,-0.023580065571850124
1592262188.1408415,-0.34173453383677027,9.732609352309034,0.8647812953819344,-0.4722222222222222,-0.5822222222222222,-0.16666666666666666,-0.18231023502121918,-0.03680361042277238,-0.028978586655054123
1592262188.1508415,-0.22803485332558815,9.74885216381063,0.8322956723787395,-0.4722222222222222,-0.5822222222222222,-0.16666666666666666,-0.1628202603629662,-0.03503179454474938,-0.03960948192319211
1592262188.1608415,-0.21308615802386793,9.772304613992043,0.870771539505967,-0.4666666666666667,-0.5755555555555556,-0.1811111111111111,-0.1246077405797407,-0.039269908169872414,-0.05831682024917089
1592262188.1708415,-0.0115143436821742,9.856657780503916,0.8018278758139096,-0.4666666666666667,-0.5755555555555556,-0.1811111111111111,-0.09087224147792472,-0.0407566116032876,-0.07622425856447239
1592262188.1808414,-0.02,9.954281107421828,0.7,-0.4666666666666667,-0.5755555555555556,-0.1811111111111111,-0.05968670726421564,-0.04581841058110744,-0.09894840742949006
1592262188.1908414,-0.013044444018918869,9.984637037320722,0.7023185186603603,-0.4666666666666667,-0.5755555555555556,-0.1811111111111111,-0.04434469535367766,-0.024283105136529783,-0.13474063058987967
1592262188.2008414,0.035144668058135306,10.016763112038756,0.7183815560193784,-0.4666666666666667,-0.5755555555555556,-0.1811111111111111,-0.04171638701193654,-0.011141563427824179,-0.16890863903251424
1592262188.2108414,0.07,9.97,0.62,-0.4666666666666667,-0.59,-0.1811111111111111,-0.053450708342326333,0.01090830782496456,-0.21707532571679475
1592262188.2208414,0.0222807986741378,10.017719201325862,0.6581753610606897,-0.4666666666666667,-0.59,-0.1811111111111111,-0.06282035161235766,0.01090830782496456,-0.2587181846947117
1592262188.2308414,0.01,10.014950275722297,0.5778041193382665,-0.4666666666666667,-0.59,-0.1811111111111111,-0.07954134264615152,0.038980298432501316,-0.3028219670052336
1592262188.2408414,0.015527418957112236,9.911381854739279,0.735025322938599,-0.4666666666666667,-0.59,-0.1811111111111111,-0.10123070640786895,0.05566251730105011,-0.3406050060742866
1592262188.2508414,0.17464652212674747,9.951161630531688,0.5918181300859273,-0.4666666666666667,-0.59,-0.1811111111111111,-0.12639864870186576,0.05653037738015345,-0.3796587096339368
1592262188.2608414,0.1711015123687731,9.994406049475092,0.532116636056504,-0.4666666666666667,-0.5755555555555556,-0.2111111111111111,-0.12712772902591402,0.09463369472759801,-0.43084046491308403
1592262188.2708414,0.17324179077287424,10.024470556086897,0.6410588878262058,-0.4666666666666667,-0.5755555555555556,-0.2111111111111111,-0.14192350846814286,0.11883353654066368,-0.46833145668108683
1592262188.2808414,0.07711282393929271,9.941040901064286,0.8091325824464277,-0.4666666666666667,-0.5755555555555556,-0.2111111111111111,-0.16097662083433054,0.11741231808675719,-0.5080689749373207
1592262188.2908413,0.46787394347343864,10.002337553065361,0.7598539029334149,-0.4666666666666667,-0.5755555555555556,-0.2111111111111111,-0.1961423635186596,0.09515726556113316,-0.556205008073223
1592262188.3008413,-0.19783703675373843,10.130667380579034,0.7518332887138104,-0.4666666666666667,-0.5755555555555556,-0.2111111111111111,-0.18476849076780413,0.10915587817757064,-0.6095747186733909
1592262188.3108413,-0.33,10.14,0.94,-0.44555555555555554,-0.5822222222222222,-0.2111111111111111,-0.17016960206944715,0.14726215563702155,-0.7188574856651644
1592262188.3208413,-0.24829979633401222,9.967521792260692,0.9581556008146639,-0.44555555555555554,-0.5822222222222222,-0.2111111111111111,-0.17908171177895604,0.16607660946820704,-0.8238223333549363
1592262188.3308413,-0.2547585217079297,9.837188853008014,0.9028111469919866,-0.44555555555555554,-0.5822222222222222,-0.2111111111111111,-0.19152624486842904,0.17264035140478518,-0.930561738565314
1592262188.3408413,-0.47631356703432715,9.794401368716102,0.93888027374322,-0.44555555555555554,-0.5822222222222222,-0.2111111111111111,-0.18397551478175947,0.19138395968442581,-0.9932921017046535
1592262188.3508413,-0.8351139383349715,9.718060864184048,0.9236121728368097,-0.44555555555555554,-0.5822222222222222,-0.2111111111111111,-0.16398961743099008,0.19804592546801558,-1.046587827973372
1592262188.3608413,-1.418530605800893,9.634739501105146,0.8989099643646533,-0.43333333333333335,-0.6166666666666667,-0.1811111111111111,-0.12261252416691,0.18369904798671152,-1.1244241783116025
1592262188.3708413,-1.5653204251541544,9.520529043403153,0.8660171789150412,-0.43333333333333335,-0.6166666666666667,-0.1811111111111111,-0.08792283499814803,0.14805224176341622,-1.1694860182020879
1592262188.3808413,-1.48373696166149,9.694384126836956,0.48814194984006304,-0.43333333333333335,-0.6166666666666667,-0.1811111111111111,-0.0447217864629948,0.08978744429592961,-1.2095332071963012
1592262188.3908412,-1.3874837701594152,9.761957067653787,0.6102795810933983,-0.43333333333333335,-0.6166666666666667,-0.1811111111111111,-0.02915453706840339,0.0783263333757268,-1.2569796162689704
1592262188.4008412,-1.3172653881210588,9.816571364794733,0.6180816235421046,-0.43333333333333335,-0.6166666666666667,-0.1811111111111111,-0.05128237804882471,0.07236883772715183,-1.2969799441951166
1592262188.4108412,-1.29,9.78,0.78,-0.38,-0.6355555555555555,-0.2111111111111111,-0.1090830782496456,0.06981317007977318,-1.3700834628155487
1592262188.4208412,-1.4182134904101718,9.658534588032468,0.8204884706558436,-0.38,-0.6355555555555555,-0.2111111111111111,-0.13411051798861823,0.08159078878046619,-1.4230827469686673
1592262188.4308412,-1.6568814194558434,9.500458761297056,0.7904587612970563,-0.38,-0.6355555555555555,-0.2111111111111111,-0.16397491903572126,0.1116251587716182,-1.5297653364072026
1592262188.4408412,-1.8040074557315937,9.506917341744927,0.8036991899060865,-0.38,-0.6355555555555555,-0.2111111111111111,-0.17200021772558446,0.14207701440586323,-1.5848950937398187
1592262188.4508412,-1.9017311276794036,9.431745286400458,0.8939056563194494,-0.38,-0.6355555555555555,-0.2111111111111111,-0.1900402159553048,0.14863701376212518,-1.6094950913258008
1592262188.4608412,-2.07,9.23,0.91,-0.3411111111111111,-0.6411111111111111,-0.21777777777777776,-0.2083486794568231,0.17453292519943295,-1.6427911584396628
1592262188.4708412,-2.198362402336043,9.165818798831978,0.91,-0.3411111111111111,-0.6411111111111111,-0.21777777777777776,-0.23022706379797162,0.1981615802878734,-1.6585435951652896
1592262188.4808412,-2.66821876567988,9.240563639404582,0.8063923733065731,-0.3411111111111111,-0.6411111111111111,-0.21777777777777776,-0.2538696555478656,0.23492707524108192,-1.6691039162210257
1592262188.4908412,-2.93,8.94,1.01,-0.3411111111111111,-0.6411111111111111,-0.21777777777777776,-0.2792526803190927,0.2476185876266955,-1.6733344203495635
1592262188.5008411,-3.025086090380208,8.922171358053712,1.045657283892578,-0.3411111111111111,-0.6411111111111111,-0.21777777777777776,-0.2915697669010018,0.23141189475576251,-1.6862997746463098
1592262188.5108411,-3.12,8.86,1.26,-0.2877777777777778,-0.6755555555555556,-0.21777777777777776,-0.3010692959690219,0.21707532571679475,-1.7115134977369395
1592262188.5208411,-3.25769915822862,8.875299906469847,1.2064503273555365,-0.2877777777777778,-0.6755555555555556,-0.21777777777777776,-0.298565854627028,0.21874428661145728,-1.7140169390789333
1592262188.530841,-3.674926217765043,8.67924212034384,1.148989493791786,-0.2877777777777778,-0.6755555555555556,-0.21777777777777776,-0.2889185923108601,0.21253288025416256,-1.7256805192684206
1592262188.540841,-4.06,8.62,1.07,-0.2877777777777778,-0.6755555555555556,-0.21777777777777776,-0.27707101875409984,0.19853120241435498,-1.7246034671268968
1592262188.550841,-4.088153701693125,8.47360075119575,1.1882455471111242,-0.2877777777777778,-0.6755555555555556,-0.21777777777777776,-0.2629439935079816,0.19054636205785336,-1.7086337864138936
1592262188.560841,-4.56,8.45,1.2,-0.2222222222222222,-0.6888888888888889,-0.23222222222222222,-0.22907446432425577,0.13962634015954636,-1.663516943307095
1592262188.570841,-4.462016479279133,8.338018833461865,1.1930011770913667,-0.2222222222222222,-0.6888888888888889,-0.23222222222222222,-0.21456885453129632,0.10985166742662963,-1.6154193950462297
1592262188.580841,-4.790039178105358,8.455543842836608,1.0536697764874996,-0.2222222222222222,-0.6888888888888889,-0.23222222222222222,-0.19878854488876224,0.0482210296276514,-1.5278736620333926
1592262188.590841,-4.584126611957796,8.381500586166473,1.157936694021102,-0.2222222222222222,-0.6888888888888889,-0.23222222222222222,-0.19103861442532014,0.022287220254804493,-1.4618500819493858
1592262188.600841,-4.6132627543497495,8.38,1.2320693010911237,-0.2222222222222222,-0.6888888888888889,-0.23222222222222222,-0.20419953360049878,-0.0011632740417763764,-1.437642528071049
1592262188.610841,-4.79,8.38,1.45,-0.15555555555555556,-0.7033333333333334,-0.21777777777777776,-0.22798363354175932,-0.0370882466048795,-1.3777192782930239
1592262188.620841,-4.860982275841525,8.344508862079238,1.5564734137622878,-0.15555555555555556,-0.7033333333333334,-0.21777777777777776,-0.24114667429668962,-0.04715410129982622,-1.3591361619331224
1592262188.630841,-4.668671663660956,8.089425721370604,1.3882946348061316,-0.15555555555555556,-0.7033333333333334,-0.21777777777777776,-0.2517762734163156,-0.06806429980810619,-1.3252967566525264
1592262188.640841,-4.87270298585647,8.050995047383209,1.4186732701557216,-0.15555555555555556,-0.7033333333333334,-0.21777777777777776,-0.24670866156347346,-0.06872233929727672,-1.254661680600354
1592262188.650841,-5.266976250067523,8.196028773610387,1.3250812971532493,-0.15555555555555556,-0.7033333333333334,-0.21777777777777776,-0.25289946409957564,-0.06872233929727672,-1.247494957864399
1592262188.660841,-4.87,7.77,1.69,-0.09555555555555556,-0.7033333333333334,-0.25555555555555554,-0.24870941840919195,-0.04908738521234052,-1.22500296874352
1592262188.670841,-5.27030124210787,7.859722692196591,1.6002773078034087,-0.09555555555555556,-0.7033333333333334,-0.25555555555555554,-0.23967505460582306,-0.04306447601009458,-1.2204857868418355
1592262188.680841,-5.223801182395445,7.758625738997154,1.9087231771403546,-0.09555555555555556,-0.7033333333333334,-0.25555555555555554,-0.22533842263559492,-0.04858556005928051,-1.204064547111446
1592262188.690841,-5.37179685633749,7.797587310687497,1.5112316659500262,-0.09555555555555556,-0.7033333333333334,-0.25555555555555554,-0.2049854539196951,-0.04701099707817475,-1.1896898302215133
1592262188.700841,-5.602368298117005,7.735441461836999,1.9275634253270089,-0.09555555555555556,-0.7033333333333334,-0.25555555555555554,-0.18129368098979232,-0.03595112176049832,-1.1858756666677515
1592262188.710841,-5.775678483219527,7.300647246840041,2.0904801685311636,-0.04478312105509549,-0.6980445380728688,-0.25555555555555554,-0.15365911825574696,-0.042018617902782274,-1.1991805650856902
1592262188.720841,-5.653361597679348,7.439964297668191,1.9300357023318084,-0.042222222222222223,-0.6977777777777778,-0.25555555555555554,-0.10545752330034631,-0.03890710926742659,-1.2195444334957515
1592262188.730841,-5.682382686650792,7.205898865387309,1.8315234626698418,-0.042222222222222223,-0.6977777777777778,-0.25555555555555554,-0.0465414512582915,-0.01693347093119796,-1.233397247008242
1592262188.740841,-5.821387965067592,7.452160784782868,1.7830757267615744,-0.042222222222222223,-0.6977777777777778,-0.25555555555555554,-0.015992552784693585,-0.010152986785475448,-1.2204211401628569
1592262188.750841,-6.026147412112445,7.461084208540344,1.7844578957298283,-0.042222222222222223,-0.6977777777777778,-0.25555555555555554,-0.015153362149905172,-0.0020369812228581393,-1.1952347653947568
1592262188.760841,-6.357422408627921,7.382004793289394,1.6345823846614738,-0.010922841355435725,-0.7118085347180614,-0.2577141335463684,-0.01318369325706951,0.006576225984016082,-1.0897764216706183
1592262188.770841,-6.5334715784337645,7.26228714320566,1.6981495486704075,-0.01,-0.7122222222222222,-0.2577777777777778,-0.002276932953168987,-0.019135976842393917,-1.0659322172753896
1592262188.7808409,-6.819418566237198,7.342505781301619,1.3991047241493229,-0.01,-0.7122222222222222,-0.2577777777777778,0.04350638213056892,-0.030992279139828282,-1.0115514931584677
1592262188.7908409,-6.219611233164581,7.122792530327634,2.0077588594899227,-0.01,-0.7122222222222222,-0.2577777777777778,0.058943805611858774,-0.0663706294146762,-0.9859375145331098
1592262188.8008409,-6.419170631738394,7.352350351955804,1.5721195758709792,-0.01,-0.7122222222222222,-0.2577777777777778,0.07636318952789575,-0.05716555915522584,-0.9437546016985352
1592262188.8108408,-6.661537745364264,7.311066025292885,1.4615377453642642,0.02531866104602546,-0.7070283014801596,-0.27024318755872795,0.06563713909981177,-0.03699151143656594,-0.8679143621939248
1592262188.8208408,-6.636032482598608,7.113178654292343,1.5945475638051043,0.027777777777777776,-0.7066666666666667,-0.27111111111111114,0.052625625198257094,-0.04279043164656051,-0.8441764791577678
1592262188.8308408,-6.9618334430546405,7.090138248847927,1.4754674127715601,0.027777777777777776,-0.7066666666666667,-0.27111111111111114,0.04269715629986869,-0.0433161794298963,-0.7925244696977141
1592262188.8408408,-6.825985706062932,6.669058422870299,1.5105506523407521,0.027777777777777776,-0.7066666666666667,-0.27111111111111114,0.03484651818751198,-0.05312423872090526,-0.7316558325797649
1592262188.8508408,-6.846916767757238,6.884798211149535,1.7478814433922978,0.027777777777777776,-0.7066666666666667,-0.27111111111111114,0.042589169311932795,-0.08817296350056966,-0.7045714557049257
1592262188.8608408,-7.0776493965800125,7.123824698290006,1.63504648703832,0.06815404933500241,-0.7008986278727773,-0.25765235392536956,0.05634365505385976,-0.11321389338552072,-0.6391754131518207
1592262188.8708408,-7.144514156796391,7.14,1.5568573040045122,0.07444444444444444,-0.7,-0.25555555555555554,0.04275438960614745,-0.13242055687819848,-0.5730853076681985
1592262188.8808408,-6.977647355647933,7.096911838911983,1.593088161088017,0.07444444444444444,-0.7,-0.25555555555555554,0.017799830563900946,-0.13150286563148253,-0.4821762216424715
1592262188.8908408,-7.184661383285302,6.950941402497598,1.6173823246878003,0.07444444444444444,-0.7,-0.25555555555555554,-0.014260962088746894,-0.16028951490281557,-0.4093295357249543
1592262188.9008408,-7.258768915265824,7.034676071217723,1.6393844576329117,0.07444444444444444,-0.7,-0.25555555555555554,-0.02911670484642903,-0.16936738403632012,-0.36185070035607836
1592262188.9108407,-6.996685631202984,6.989142802958468,1.641885707061129,0.07913015993425628,-0.6960952370918234,-0.23525078843303762,-0.06881584498923356,-0.20278233250539257,-0.24586701087050405
1592262188.9208407,-6.928092160327351,6.801644657304938,1.3954603366502372,0.0811111111111111,-0.6944444444444444,-0.22666666666666666,-0.09587112206382167,-0.20472453037097937,-0.15402955700554474
1592262188.9308407,-7.047812335644275,6.78504805163758,1.673629213483146,0.0811111111111111,-0.6944444444444444,-0.22666666666666666,-0.12114511630361346,-0.21493559711613974,-0.08931184203061122
1592262188.9408407,-6.980411981082502,6.980877036258539,1.9808770362585393,0.0811111111111111,-0.6944444444444444,-0.22666666666666666,-0.1258166402753679,-0.21654114536671148,-0.027287450159243054
1592262188.9508407,-7.018028576102961,7.000657141299013,2.0973714348039483,0.0811111111111111,-0.6944444444444444,-0.22666666666666666,-0.11348899476133328,-0.2159844949342983,0.0015365146033212082
1592262188.9608407,-7.067134661720274,6.570200787853291,2.131432669139863,0.11442850890053245,-0.6896848161888128,-0.24570517968919314,-0.08821040023251431,-0.2029007834178014,0.0456429682213101
1592262188.9708407,-7.151357597018198,6.601696996272747,2.0994909011181755,0.12,-0.6888888888888889,-0.24888888888888888,-0.06622598465102777,-0.20182220611956528,0.07511990279200753
1592262188.9808407,-7.221895255926795,6.643266791487566,2.159152184805253,0.12,-0.6888888888888889,-0.24888888888888888,-0.03473519795088277,-0.2214604246148866,0.1255815738145344
1592262188.9908407,-7.104218341026983,6.613459763003855,1.9567068005520392,0.12,-0.6888888888888889,-0.24888888888888888,-0.0036680632113652023,-0.2203891920772118,0.17799915382828513
1592262189.0008407,-7.199054305593204,6.584935935664589,2.0102562573416463,0.12,-0.6888888888888889,-0.24888888888888888,0.008333308470089082,-0.2260921505096723,0.23478552086179438
1592262189.0108407,-7.137603470857891,6.813888343156516,1.9724446627373935,0.11690300516626646,-0.6943086298479225,-0.24888888888888888,0.031002060907974343,-0.2233242430785674,0.3191388685911653
1592262189.0208406,-7.174045655093037,7.061068482639555,2.1964626894302706,0.11555555555555555,-0.6966666666666667,-0.24888888888888888,0.0555129916296645,-0.20068513808664107,0.39832524077199905
1592262189.0308406,-7.28099936033066,6.792202430743492,1.8812030704128329,0.11555555555555555,-0.6966666666666667,-0.24888888888888888,0.05911212708119302,-0.1908408802863053,0.48145944518678546
1592262189.0408406,-7.295086577377227,6.715086577377227,1.6720778570534485,0.11555555555555555,-0.6966666666666667,-0.24888888888888888,0.06372860363471033,-0.18390887224561456,0.545656250617401
1592262189.0508406,-7.414438022813688,6.659093536121673,1.7140319391634982,0.11555555555555555,-0.6966666666666667,-0.24888888888888888,0.06502031677550853,-0.1759544062860382,0.6505069413159599
1592262189.0608406,-7.444383698154702,6.849657056458541,2.115588467750249,0.1235753257810919,-0.704686436892203,-0.24524353878637237,0.07720837379844818,-0.16522800855419711,0.7664011172282718
1592262189.0708406,-7.2734035879767145,6.818226208863015,2.2144678626589047,0.12777777777777777,-0.7088888888888889,-0.24333333333333335,0.09998515813608053,-0.15621313694326874,0.8745681172887169
1592262189.0808406,-7.222298469140587,6.531252543358201,1.999760197655266,0.12777777777777777,-0.7088888888888889,-0.24333333333333335,0.12404220906738578,-0.15321775772773796,0.9445489847347122
1592262189.0908406,-7.134731411374114,6.545268588625887,2.2035574557527404,0.12777777777777777,-0.7088888888888889,-0.24333333333333335,0.1610952562658632,-0.16032651328839745,1.0087293712137988
1592262189.1008406,-7.117894140243711,6.656835542680815,2.2431606788626843,0.12777777777777777,-0.7088888888888889,-0.24333333333333335,0.17677149997348776,-0.16942272353531868,1.0346808355539203
1592262189.1108406,-6.85976165562144,6.828144014261907,2.025030422819052,0.10861618158095313,-0.7104856885719576,-0.24572853285793642,0.19525871006686563,-0.21222854171680816,1.0848605311459736
1592262189.1208405,-6.821216432046948,6.94638933254095,1.9681305946588419,0.10111111111111111,-0.7111111111111111,-0.24666666666666667,0.1840375323796109,-0.21971231381797215,1.1096165473242388
1592262189.1308405,-6.7053283270284005,7.2787120998249675,1.8992676867483484,0.10111111111111111,-0.7111111111111111,-0.24666666666666667,0.14238923203871798,-0.21233186552003866,1.1777556637331932
1592262189.1408405,-6.543152391864795,6.935761959323976,1.4112295903752505,0.10111111111111111,-0.7111111111111111,-0.24666666666666667,0.1146392534312442,-0.18370546533698193,1.2495334595162442
1592262189.1508405,-6.455914335338998,6.80205601389492,1.4596935673965634,0.10111111111111111,-0.7111111111111111,-0.24666666666666667,0.10069428436216975,-0.1736663707415184,1.2846302585679163
1592262189.1608405,-6.3363074367964565,7.280459494371655,2.0431537183982282,0.07532488569026675,-0.7332135900432635,-0.227511184925468,0.08865428761297418,-0.15135199607627112,1.3720770320603413
1592262189.1708405,-6.2932394794916675,7.55,2.088280191766228,0.06222222222222222,-0.7444444444444445,-0.21777777777777776,0.09842786707302072,-0.1380511476377708,1.3967695948921428
1592262189.1808405,-5.931683315334773,7.259114740820734,2.442169546436285,0.06222222222222222,-0.7444444444444445,-0.21777777777777776,0.12452472448827179,-0.13012577537545958,1.4087195464686584
1592262189.1908405,-5.763023555523735,7.333487506264767,2.1606995059783776,0.06222222222222222,-0.7444444444444445,-0.21777777777777776,0.17935266811125522,-0.11113798257543239,1.394741377518046
1592262189.2008405,-5.695828897809058,7.2674866934271725,2.1690774698944315,0.06222222222222222,-0.7444444444444445,-0.21777777777777776,0.2145319892535364,-0.0962876954754913,1.3806840672817329
1592262189.2108405,-5.564151133864513,7.321744961603634,2.0563683887947506,0.03759438856240961,-0.7324633361775086,-0.21378407502213248,0.28636355044253675,-0.05677471989971838,1.3831579764425352
1592262189.2208405,-5.5186230248307,7.472325056433409,1.9863431151241535,0.021111111111111112,-0.7244444444444444,-0.2111111111111111,0.33117918041228744,-0.02770414702904656,1.3950740759341864
1592262189.2308404,-5.287704267183901,7.502408473754395,1.811450781912959,0.021111111111111112,-0.7244444444444444,-0.2111111111111111,0.41459097379706356,0.040640356080455756,1.442159719973022
1592262189.2408404,-5.07656384335585,7.779207331475271,1.7461382209835137,0.021111111111111112,-0.7244444444444444,-0.2111111111111111,0.46013678726707474,0.09571922886493311,1.4727288925939361
1592262189.2508404,-5.246943895205141,8.165697690841043,1.994896370312831,0.021111111111111112,-0.7244444444444444,-0.2111111111111111,0.4627226416926767,0.11308711125342147,1.4820052931804584
1592262189.2608404,-4.820453225806451,7.451777419354839,1.4714637096774195,-0.011641487455197132,-0.7202632616487455,-0.20971738351254482,0.43009900680863467,0.10810247415831592,1.4630055311416117
1592262189.2708404,-4.672593753377283,7.422068518318383,1.3059699556900464,-0.03111111111111111,-0.7177777777777777,-0.2088888888888889,0.41129990981110454,0.11382871676141419,1.4414551309980566
1592262189.2808404,-4.68481860884796,8.372687561370451,1.6533656219314774,-0.03111111111111111,-0.7177777777777777,-0.2088888888888889,0.37323319031832813,0.12184818091522805,1.3898980460240589
1592262189.2908404,-4.3005401359250985,8.106240197709234,1.204986930278979,-0.03111111111111111,-0.7177777777777777,-0.2088888888888889,0.3556108350938446,0.12539463005750678,1.324906369755919
1592262189.3008404,-4.265245981217677,8.1013662926383,1.2764210899721813,-0.03111111111111111,-0.7177777777777777,-0.2088888888888889,0.3301074187263747,0.1322766485719032,1.2702336589049879
1592262189.3108404,-4.217404495931596,8.563996690111708,1.6207005930216523,-0.057933465115922705,-0.7218011308784995,-0.21358280083973094,0.30607183299982516,0.15698756421460375,1.2249074401892674
1592262189.3208404,-4.143212099387829,8.79,1.7429900372104188,-0.07555555555555556,-0.7244444444444444,-0.21666666666666667,0.30755038372223387,0.17570310341371345,1.2089115452631571
1592262189.3308403,-3.81321562110511,8.495737432488575,1.5080847528043206,-0.07555555555555556,-0.7244444444444444,-0.21666666666666667,0.34857277857030083,0.21411598836336648,1.1727473251180376
1592262189.3408403,-3.786943838015498,8.531532999064368,1.2254108389511311,-0.07555555555555556,-0.7244444444444444,-0.21666666666666667,0.3769399619397927,0.2391487967785273,1.1267506052168526
1592262189.3508403,-3.7421166320297248,8.587133320738083,1.2428666792619183,-0.07555555555555556,-0.7244444444444444,-0.21666666666666667,0.37561173511859813,0.24184107956765422,1.0940996339325861
1592262189.3608403,-3.2474832542562098,8.83819808819425,1.0600446553167737,-0.08955406704499644,-0.7302771575650447,-0.19683544205662543,0.3471562876370704,0.2245478819123515,0.9451565421968069
1592262189.3708403,-3.376360180850638,9.237131996959148,0.8066554635297885,-0.10222222222222223,-0.7355555555555555,-0.17888888888888888,0.3451115287998197,0.2261148225768918,0.8765706320808178
1592262189.3808403,-3.265595079787234,9.295754654255319,1.009615469858156,-0.10222222222222223,-0.7355555555555555,-0.17888888888888888,0.30733722124982926,0.2421398948568499,0.784542446297571
1592262189.3908403,-3.0250200755222023,9.211958797380621,0.793387744371684,-0.10222222222222223,-0.7355555555555555,-0.17888888888888888,0.26537458164789507,0.24070405734733058,0.7416090581611494
1592262189.4008403,-2.9744674477076978,9.218741240036376,0.7305809661370567,-0.10222222222222223,-0.7355555555555555,-0.17888888888888888,0.23788560868367933,0.23783279737152188,0.7124709349066581
1592262189.4108403,-2.8661062974171885,9.32174246507193,1.1221205588491356,-0.1323635928121646,-0.7286481581286938,-0.17574916278576988,0.20934698340457025,0.234528618236738,0.6682082691894311
1592262189.4208403,-2.748828424852746,9.247029450883527,1.258117803534106,-0.15555555555555556,-0.7233333333333334,-0.17333333333333334,0.1983410169068462,0.24704803110416915,0.6282440400124238
1592262189.4308403,-2.622786394772065,9.150669501089153,0.6763931973860327,-0.15555555555555556,-0.7233333333333334,-0.17333333333333334,0.19095195680345756,0.3031661027341481,0.5314043006755074
1592262189.4408402,-2.718660498697076,9.293605154318774,0.48687824236773525,-0.15555555555555556,-0.7233333333333334,-0.17333333333333334,0.1863738726111536,0.3430316621020023,0.44741531960697334
1592262189.4508402,-2.826514657980456,9.35087947882736,0.4868729641693811,-0.15555555555555556,-0.7233333333333334,-0.17333333333333334,0.1856828502661231,0.3595904131928545,0.41002090601361085
1592262189.4608402,-2.8515564917656073,9.253112983531214,1.0276652623515894,-0.15248163751649005,-0.7233333333333334,-0.16923477594791267,0.14861405886531734,0.3881659716556757,0.31091873339251674
1592262189.4708402,-2.869832804147743,9.338350146698284,1.0577870664362365,-0.14888888888888888,-0.7233333333333334,-0.16444444444444445,0.13623771056906703,0.389913936120988,0.2654658874711955
1592262189.4808402,-2.915468657222835,9.764910509797268,0.8775222665196369,-0.14888888888888888,-0.7233333333333334,-0.16444444444444445,0.11186858761229496,0.37345127122172456,0.1711995484126457
1592262189.4908402,-3.022767625899281,9.61276762589928,0.8006302158273381,-0.14888888888888888,-0.7233333333333334,-0.16444444444444445,0.09276244477170023,0.34500733207170137,0.10147708404536095
1592262189.5008402,-3.1837942664418213,9.770050590219226,0.8217639123102867,-0.14888888888888888,-0.7233333333333334,-0.16444444444444445,0.08337515832097617,0.33224240688385814,0.07434536043713366
1592262189.5108402,-2.8688023034064987,9.215151628463524,0.5263493250570243,-0.15426807430397155,-0.7248003839010831,-0.16444444444444445,0.027577709757538565,0.2972254257805569,0.026875683485334752
1592262189.5208402,-2.9773699996386367,8.974488490586493,0.2836743396090052,-0.16111111111111112,-0.7266666666666667,-0.16444444444444445,0.03049769401395288,0.281680313917576,0.021083350943681186
1592262189.5308402,-3.306868409243886,9.096555418442898,0.2837160646174557,-0.16111111111111112,-0.7266666666666667,-0.16444444444444445,0.007355704229872051,0.27492349918914244,0.06466874162281014
1592262189.5408401,-3.0792431619647718,9.097602749534584,0.38015752541887443,-0.16111111111111112,-0.7266666666666667,-0.16444444444444445,-0.009655719162577642,0.2179356651890272,0.10766873170736821
1592262189.5508401,-3.020578333384906,9.056092459077265,0.4515038524615528,-0.16111111111111112,-0.7266666666666667,-0.16444444444444445,-0.01772389902374235,0.19531059009634535,0.1286717554833022
1592262189.5608401,-3.4074315068493153,9.295258480104371,0.37913078930202215,-0.15856390882075813,-0.736346035370008,-0.15884059940566791,-0.017185921569830415,0.1356123959690294,0.19780682815696335
1592262189.5708401,-3.1905193783935593,8.875193783935591,0.3353888784871747,-0.15555555555555556,-0.7477777777777778,-0.15222222222222223,-0.03375909886344433,0.07458745926490587,0.2101265641154323
1592262189.58084,-3.4994094666064264,9.708820527812474,0.8382339809179578,-0.15555555555555556,-0.7477777777777778,-0.15222222222222223,-0.056658783489435476,-0.015592238434250574,0.2317052198816385
1592262189.59084,-3.0437901909972167,9.480804299836837,0.8420625779825319,-0.15555555555555556,-0.7477777777777778,-0.15222222222222223,-0.1040147302142628,-0.07433730673139395,0.2591912981914357
1592262189.60084,-2.5489947831271427,9.083916530034282,0.7459791325085706,-0.15555555555555556,-0.7477777777777778,-0.15222222222222223,-0.1201558643008098,-0.09958886693407559,0.27560778689480653
1592262189.61084,-2.7781439348097945,9.03627980152487,0.6374565331396991,-0.15781551853196535,-0.7391899184674205,-0.15312620741278615,-0.143676042288812,-0.10682819297969992,0.3102396849217481
1592262189.62084,-3.0531247162365105,9.378724897845144,0.6039000454021584,-0.16111111111111112,-0.7266666666666667,-0.15444444444444444,-0.1742002242870751,-0.13853550937704992,0.31126583794655927
1592262189.63084,-2.7099961719348133,9.414989882970579,0.7349964453680412,-0.16111111111111112,-0.7266666666666667,-0.15444444444444444,-0.18053234536847265,-0.13799012381273984,0.31034150675493255
1592262189.64084,-3.011153268667032,9.650740961414714,0.8394651922114446,-0.16111111111111112,-0.7266666666666667,-0.15444444444444444,-0.1912545429525186,-0.12698971587278898,0.30576928724251273
1592262189.65084,-2.9255895511617838,9.387207389233655,0.9041174772694472,-0.16111111111111112,-0.7266666666666667,-0.15444444444444444,-0.1899970927465313,-0.13332190813243522,0.27177744319320457
1592262189.66084,-2.6860280040005713,8.918360122874697,0.9681293756250893,-0.1703772364306012,-0.731904041847248,-0.15968181962502578,-0.17365873319214295,-0.15864913384929033,0.20464785796259907
1592262189.67084,-2.8886838058436184,8.804735223374474,1.016452426954773,-0.18666666666666668,-0.7411111111111112,-0.1688888888888889,-0.1576522532467928,-0.16692515363466576,0.16312210658893525
1592262189.68084,-3.2854619710765935,9.311646759507232,1.3282046063203,-0.18666666666666668,-0.7411111111111112,-0.1688888888888889,-0.0526345717710729,-0.137420197710897,0.1629200762394532
1592262189.69084,-3.4142827795427944,9.455964933234599,1.153415904259131,-0.18666666666666668,-0.7411111111111112,-0.1688888888888889,0.002593677338655429,-0.15937836905292335,0.16123694792264423
1592262189.70084,-3.0487379164121178,8.999946095518741,1.0965910806051675,-0.18666666666666668,-0.7411111111111112,-0.1688888888888889,0.02194840754595647,-0.210877460962126,0.12683645017592124
1592262189.71084,-2.912533593940875,9.106557944458018,1.5490915383988924,-0.18917039932676386,-0.7411111111111112,-0.16680244500547456,0.029180944941940578,-0.25060493566679654,0.07442843523265663
1592262189.72084,-2.8744516298173557,9.428414751376387,1.6148553700952548,-0.19333333333333333,-0.7411111111111112,-0.16333333333333333,0.032191471665154084,-0.22431743926892603,0.04491166629278492
1592262189.73084,-2.6229438757500882,9.362848570420049,0.5080868337451465,-0.19333333333333333,-0.7411111111111112,-0.16333333333333333,0.03552612147795111,-0.18280906951252116,0.020014607862395263
1592262189.74084,-2.9733977481434164,9.644066916872955,1.1358859698155395,-0.19333333333333333,-0.7411111111111112,-0.16333333333333333,-0.018611979022280425,-0.15605151835178815,-0.03893576883571476
1592262189.75084,-2.694566615342813,9.683900009057151,0.9539833348428584,-0.19333333333333333,-0.7411111111111112,-0.16333333333333333,-0.021363922357165895,-0.09898560714526326,-0.08586293555541391
1592262189.76084,-2.539448557183865,9.621102885632272,0.9138480132950596,-0.1893041916368703,-0.7381808262409562,-0.16333333333333333,-0.04345277206027014,-0.02636039801950304,-0.14552299001567617
1592262189.77084,-2.6187157418791895,9.383980486257089,0.8107222464601594,-0.1811111111111111,-0.7322222222222222,-0.16333333333333333,-0.07659628322542658,0.00981925089175547,-0.20017884881461723
1592262189.78084,-2.503495061602688,8.948969045922004,0.8574050504021994,-0.1811111111111111,-0.7322222222222222,-0.16333333333333333,-0.08072147790473774,0.11882813683470736,-0.2561655761338224
1592262189.79084,-3.2966752774588595,9.646808266360505,1.1695345388442404,-0.1811111111111111,-0.7322222222222222,-0.16333333333333333,-0.09534977230677923,0.17998707911191522,-0.29487751105166116
1592262189.80084,-3.4893389924604667,9.751966725765147,1.150170311072906,-0.1811111111111111,-0.7322222222222222,-0.16333333333333333,-0.12038109547628321,0.18815282826722815,-0.3529651519028083
1592262189.81084,-3.1131512448903753,9.294384243775548,1.0546577480490524,-0.18255708328172096,-0.733957388826954,-0.16333333333333333,-0.14908523343754165,0.20151977879006414,-0.41789285432194734
1592262189.82084,-3.52,9.79,1.21,-0.18666666666666668,-0.7388888888888889,-0.16333333333333333,-0.18216874067690814,0.20071286397934787,-0.46469391334349025
1592262189.8308399,-3.2920612295149243,8.985465240349102,0.8825088232880085,-0.18666666666666668,-0.7388888888888889,-0.16333333333333333,-0.21660507262823914,0.20351381994305998,-0.5591233717416829
1592262189.8408399,-3.2821100498039124,9.0639412458196,0.9241296345307124,-0.18666666666666668,-0.7388888888888889,-0.16333333333333333,-0.20570092872920104,0.2159179107682084,-0.6342691920226712
1592262189.8508399,-3.68,9.43,1.2,-0.18666666666666668,-0.7388888888888889,-0.16333333333333333,-0.21380283336930533,0.21707532571679475,-0.6730425928003133
1592262189.8608398,-3.6279652679436536,9.194491316985914,1.1727405530297383,-0.18322029266353632,-0.7356339801081547,-0.16429065944531399,-0.21519261211239207,0.22399625149683447,-0.7914811893456024
1592262189.8708398,-3.33,9.12,1.33,-0.16666666666666666,-0.72,-0.1688888888888889,-0.23234695667174513,0.22580197197676635,-0.8835729338221293
1592262189.8808398,-3.6966956917278577,8.796056598869322,1.0012781857170707,-0.16666666666666666,-0.72,-0.1688888888888889,-0.2339471584337087,0.24609284929555994,-0.969304159661647
1592262189.8908398,-3.6591231776885698,8.605482780477498,1.5255271497992817,-0.16666666666666666,-0.72,-0.1688888888888889,-0.2184595491859842,0.23789998368916948,-1.0368921618856857
1592262189.9008398,-3.7256802518044174,8.699688500569817,1.6270407554132524,-0.16666666666666666,-0.72,-0.1688888888888889,-0.1958953190772833,0.23154045107774002,-1.0956018574270516
1592262189.9108398,-3.6776686204903823,8.551263931313464,1.3099157929497234,-0.1612421915847987,-0.7269038773769229,-0.17086142528229542,-0.17394153695963652,0.22603791490173467,-1.1615938479856052
1592262189.9208398,-3.957832436861041,8.184643251522816,1.5077405336088057,-0.14222222222222222,-0.7511111111111111,-0.17777777777777778,-0.13581020041142622,0.24420753144312227,-1.211082199191109
1592262189.9308398,-4.230012455238985,8.584611552234158,1.1253759925268565,-0.14222222222222222,-0.7511111111111111,-0.17777777777777778,-0.08483192122230923,0.3029994363774092,-1.2318869380627961
1592262189.9408398,-4.335921467333349,8.521117798999978,0.8669485058887652,-0.14222222222222222,-0.7511111111111111,-0.17777777777777778,-0.0633110183099016,0.2972728046928378,-1.2726864576598018
1592262189.9508398,-4.454523981769515,8.509011068509007,0.7950553425450336,-0.14222222222222222,-0.7511111111111111,-0.17777777777777778,-0.049688750760920004,0.2730852605433684,-1.3115642147268882
1592262189.9608397,-4.679541711289191,8.579749990767754,1.2085416743602053,-0.13633795766296966,-0.7503518511679818,-0.17777777777777778,-0.05701408621292982,0.23564216878589234,-1.3432672094361169
1592262189.9708397,-4.92,8.53,1.25,-0.10777777777777778,-0.7466666666666667,-0.17777777777777778,-0.042542400517361786,0.20398535632683729,-1.3613568165555772
1592262189.9808397,-4.594717845727378,8.288542697932282,0.9920583825983651,-0.10777777777777778,-0.7466666666666667,-0.17777777777777778,-0.037219382033997536,0.18557236845351555,-1.3363054447063494
1592262189.9908397,-5.016901803031391,8.131150300505231,1.2980521035366233,-0.10777777777777778,-0.7466666666666667,-0.17777777777777778,-0.021189224049815027,0.18476933371043686,-1.295322074514143
1592262190.0008397,-5.114856196107867,8.31355472969262,1.3039726854987825,-0.10777777777777778,-0.7466666666666667,-0.17777777777777778,-0.004028603053362,0.19087371929872354,-1.270191756731436
1592262190.0108397,-4.965474197308467,8.493145067288333,0.962040902829289,-0.09804587145161481,-0.7474776588605136,-0.1785887699716247,0.0008996435286817755,0.1853141986882776,-1.2611038383701136
1592262190.0208397,-4.99,7.88,1.24,-0.05444444444444444,-0.7511111111111111,-0.18222222222222223,0.009817477042468103,0.15053464798451094,-1.2664545384783854
1592262190.0308397,-5.216421017662366,8.149533802115055,0.9998045512430098,-0.05444444444444444,-0.7511111111111111,-0.18222222222222223,0.0032938124995419253,0.11833626582858098,-1.2470361077506968
1592262190.0408397,-5.165066381773221,8.092775550380525,0.9829947422754665,-0.05444444444444444,-0.7511111111111111,-0.18222222222222223,-0.016770976595348125,0.07445029427645289,-1.2335709910856567
1592262190.0508397,-5.23,8.14,0.8,-0.05444444444444444,-0.7511111111111111,-0.18222222222222223,-0.028361600344907853,0.05126904677733343,-1.2239121379610236
1592262190.0608397,-5.332525440123815,7.881962468562585,1.395281485780615,-0.050628533350529865,-0.7511111111111111,-0.17873338922207177,-0.05225284150394244,-0.006993599142150523,-1.2311402794385709
1592262190.0708396,-5.08,7.9,1.26,-0.015555555555555555,-0.7511111111111111,-0.14666666666666667,-0.05126904677733343,-0.001090830782496456,-1.2173671532660448
1592262190.0808396,-5.654629851620981,7.524126908015663,1.5882538160313273,-0.015555555555555555,-0.7511111111111111,-0.14666666666666667,-0.05586899408648942,0.0712964953714249,-1.1676621856295482
1592262190.0908396,-6.0163905908359165,7.470036281506043,1.461299887070809,-0.015555555555555555,-0.7511111111111111,-0.14666666666666667,-0.033803881162302055,0.10076598824540545,-1.1366377599645816
1592262190.1008396,-6.21,7.52,1.53,-0.015555555555555555,-0.7511111111111111,-0.14666666666666667,-0.017453292519943295,0.10144726277217041,-1.1257373675363425
1592262190.1108396,-5.997029378486989,7.361200109242715,1.5112106433615544,-0.013724439589212715,-0.7511111111111111,-0.14709392705881333,0.03596077248799385,0.07891156956377458,-1.0877869173177688
1592262190.1208396,-6.29,8.07,1.36,0.017777777777777778,-0.7511111111111111,-0.15444444444444444,0.0916297857297023,0.06654067773228381,-1.016654289286697
1592262190.1308396,-5.874586598254371,7.720286941245364,1.0392412369984105,0.017777777777777778,-0.7511111111111111,-0.15444444444444444,0.15207433125373437,0.008367984043178595,-0.9710362332639175
1592262190.1408396,-6.12,7.46,0.95,0.017777777777777778,-0.7511111111111111,-0.15444444444444444,0.1407171709420428,-0.03381575425739013,-0.9621127501618743
1592262190.1508396,-6.22601805004786,7.902023207204391,1.2320146119435058,0.017777777777777778,-0.7511111111111111,-0.15444444444444444,0.1295921502367284,-0.07592144742274702,-0.9173910320733089
1592262190.1608396,-5.93181035719409,7.483818677377707,0.9699211017070721,0.01966751143626771,-0.7515835445257335,-0.15444444444444444,0.10176507618764169,-0.08344425162664829,-0.8706247364432093
1592262190.1708395,-7.07,7.86,1.24,0.07111111111111111,-0.7644444444444445,-0.15444444444444444,0.08072147790473774,-0.09817477042468103,-0.7853981633974483
1592262190.1808395,-6.8741766746730715,7.617526020816654,1.475876701361089,0.07111111111111111,-0.7644444444444445,-0.15444444444444444,0.06396542043258707,-0.10591742734789313,-0.6763602089191629
1592262190.1908395,-6.228519298413534,7.439195281280658,1.3155686631092818,0.07111111111111111,-0.7644444444444445,-0.15444444444444444,0.06516426441787154,-0.11152808339973115,-0.5631987441937334
1592262190.2008395,-6.557166639255889,7.401133344297644,1.4350916433675054,0.07111111111111111,-0.7644444444444445,-0.15444444444444444,0.082718613391965,-0.1323405003056351,-0.4928282498002479
1592262190.2108395,-6.395138550210596,7.442661641912363,1.313715362447351,0.07111111111111111,-0.7639628233864546,-0.1539628233864545,0.11799221478461702,-0.13581347024863008,-0.4479664710560438
1592262190.2208395,-6.17,7.18,1.37,0.07111111111111111,-0.7566666666666667,-0.14666666666666667,0.1538071403320003,-0.12762720155208535,-0.3763366199612773
1592262190.2308395,-6.718929794300132,7.625912262183663,1.1975964781299075,0.07111111111111111,-0.7566666666666667,-0.14666666666666667,0.1841915643842227,-0.17122024597529265,-0.2958658396441447
1592262190.2408395,-6.319875866933113,7.323305748207359,1.0218535323850946,0.07111111111111111,-0.7566666666666667,-0.14666666666666667,0.2238315266413407,-0.20382694415466185,-0.247055797418117
1592262190.2508395,-6.70388950429244,7.394194129050124,1.208692882857934,0.07111111111111111,-0.7566666666666667,-0.14666666666666667,0.21299717130978776,-0.21791421718259163,-0.203113235454761
1592262190.2608395,-6.306079920845169,7.250232676901471,1.1553222048450416,0.0720206823912419,-0.7564717585352101,-0.14536727912362268,0.22269544912722347,-0.2359064749351293,-0.1555169360262845
1592262190.2708395,-6.588469364455157,7.475933781555246,1.1579378409235064,0.10222222222222223,-0.75,-0.10222222222222223,0.1833720447893568,-0.24735118671281803,-0.09054814322120786
1592262190.2808394,-5.98,7.2,1.54,0.10222222222222223,-0.75,-0.10222222222222223,0.16253378659197193,-0.25198191075668136,-0.05890486225480862
1592262190.2908394,-6.349370999165043,6.846845634187688,1.5132839106343141,0.10222222222222223,-0.75,-0.10222222222222223,0.14166975383370292,-0.21018523189284463,-0.013462319618600534
1592262190.3008394,-6.577822637299062,7.317652795570065,1.2150981445514277,0.10222222222222223,-0.75,-0.10222222222222223,0.14433955496000359,-0.21195253661616964,0.02603916170095563
1592262190.3108394,-6.513255288132568,6.865796864308452,1.64024544075209,0.10113712617803297,-0.749095753296509,-0.10493496233269536,0.1877493625499827,-0.19891183949667138,0.05332424038173405
1592262190.3208394,-6.53,7.41,1.23,0.09555555555555556,-0.7444444444444445,-0.11888888888888889,0.19962203319685143,-0.19525871006686563,0.04145156973486533
1592262190.3308394,-6.69819722781258,7.312863743303382,0.4951926075002126,0.09555555555555556,-0.7444444444444445,-0.11888888888888889,0.22189342191713285,-0.22847322266305095,-0.0017576230902301238
1592262190.3408394,-6.88,6.88,0.98,0.09555555555555556,-0.7444444444444445,-0.11888888888888889,0.23889194136672384,-0.210530341021816,-0.01308996938995747
1592262190.3508394,-6.7392656048024895,7.4344865587275155,0.8065576320574896,0.09555555555555556,-0.7444444444444445,-0.11888888888888889,0.1902138537023323,-0.19928032256152653,0.006283384148450107
1592262190.3608394,-6.9772762939489965,7.079251546702882,1.0377546401086464,0.09555555555555556,-0.7452760592190198,-0.11780778968194089,0.17742666371705595,-0.23848372341884527,0.020993430989711105
1592262190.3708394,-6.900202733107548,7.083367122184591,1.0554482154276106,0.09555555555555556,-0.7555555555555555,-0.10444444444444445,0.1481795302967015,-0.2340210381883353,0.06555868976263006
1592262190.3808393,-6.954718653924069,7.0439181105364765,1.1327767582640196,0.09555555555555556,-0.7555555555555555,-0.10444444444444445,0.11437555346062532,-0.23533326809848515,0.12160442944387002
1592262190.3908393,-6.348303174982096,6.843120076390547,1.0419842444497494,0.09555555555555556,-0.7555555555555555,-0.10444444444444445,0.1061509334392111,-0.23739097487584068,0.1908326817441309
1592262190.4008393,-5.95,6.88,1.16,0.09555555555555556,-0.7555555555555555,-0.10444444444444445,0.11017390903214205,-0.2454369260617026,0.25198191075668136
1592262190.4108393,-6.816594829046796,7.142415370539799,1.2350205008301989,0.09475954352237773,-0.7551937319041111,-0.10198404361462204,0.07938787064637004,-0.26232186731900936,0.31797493680405214
1592262190.4208393,-6.05,6.89,1.02,0.08333333333333333,-0.75,-0.06666666666666667,0.13853550937704992,-0.25416357232167425,0.34143003492139073
1592262190.4308393,-6.1776498843622125,7.186008336086615,0.8319124710905533,0.08333333333333333,-0.75,-0.06666666666666667,0.1703759469880971,-0.2543903770750634,0.34121232342788566
1592262190.4408393,-6.800592559159197,7.201441098716874,1.020212134889419,0.08333333333333333,-0.75,-0.06666666666666667,0.18621766483869748,-0.2311867049090227,0.34401387395845245
1592262190.4508393,-6.6134981819755865,7.288420699506536,1.098885594320838,0.08333333333333333,-0.75,-0.06666666666666667,0.1601798500676708,-0.20585627607815132,0.36362500859487384
1592262190.4608393,-6.498015772382867,7.13553548786145,1.1679369104685324,0.08272704156143154,-0.75,-0.06644619693142965,0.14306976924972659,-0.18957950799758624,0.4117302077281198
1592262190.4708393,-6.46,7.05,1.32,0.07111111111111111,-0.75,-0.06222222222222222,0.12544553998709243,-0.20616701789183017,0.421060682043632
1592262190.4808393,-6.746434896076056,7.223304362009507,1.2239304688228168,0.07111111111111111,-0.75,-0.06222222222222222,0.1492294433829359,-0.18724348292263854,0.430819342271143
1592262190.4908392,-6.429032786885246,7.185049180327868,1.0619344262295083,0.07111111111111111,-0.75,-0.06222222222222222,0.15682570157930195,-0.1632115322748673,0.45724944031474796
1592262190.5008392,-6.544949558638083,7.225428751576293,0.6527616645649432,0.07111111111111111,-0.75,-0.06222222222222222,0.16760346735980383,-0.1656817894239305,0.5040264101648173
1592262190.5108392,-6.1968701095461665,7.279593114241002,0.6491079812206573,0.07111111111111111,-0.7487063119457485,-0.06222222222222222,0.1558829622905538,-0.19139215025097442,0.5410930382884768
1592262190.5208392,-6.625285890971363,7.781987441727714,1.1159832556369518,0.07111111111111111,-0.7233333333333334,-0.06222222222222222,0.14884306116622564,-0.22016563240747955,0.5955589966383688
1592262190.5308392,-5.6559372485921156,7.506395816572808,0.7954304102976669,0.07111111111111111,-0.7233333333333334,-0.06222222222222222,0.11810897897207201,-0.21603978241563157,0.6453286458081668
1592262190.5408392,-5.989734645338805,7.440832439490743,1.0911940959753765,0.07111111111111111,-0.7233333333333334,-0.06222222222222222,0.07046187940861685,-0.2292521064961756,0.6914669653373753
1592262190.5508392,-5.96821778156858,7.192274481133992,1.4720283497827058,0.07111111111111111,-0.7233333333333334,-0.06222222222222222,0.06597614477949677,-0.21518731698582103,0.7239569789052985
1592262190.5608392,-6.268122828823661,7.7329881760525225,1.5891414093125538,0.070522817491935,-0.7237944283321471,-0.06177702705095381,0.05162806801871536,-0.20417082919628363,0.7397705859628834
1592262190.5708392,-5.45,7.25,1.53,0.03,-0.7555555555555555,-0.03111111111111111,0.07635815477475191,-0.14180800172453928,0.7526732399225546
1592262190.5808392,-5.476778837502249,7.572902645312219,1.3210542687472684,0.03,-0.7555555555555555,-0.03111111111111111,0.07648392603004117,-0.08537108838037528,0.7699508452820993
1592262190.5908391,-5.976711916245148,7.49684766498059,0.7379487119162451,0.03,-0.7555555555555555,-0.03111111111111111,0.0892391712360872,-0.0605188965936574,0.7945279076247336
1592262190.6008391,-5.945811437403401,7.504812420963889,0.9174062104819446,0.03,-0.7555555555555555,-0.03111111111111111,0.09602943412250274,-0.07181780346522648,0.7740344869825164
1592262190.6108391,-5.853201589754913,7.993118890383187,1.1615594451915934,0.03,-0.7555555555555555,-0.03111111111111111,0.07490672076543568,-0.09202213798068191,0.7354625756348288
1592262190.620839,-5.4,7.68,0.76,-0.008888888888888889,-0.75,-0.04777777777777778,0.06872233929727672,-0.13962634015954636,0.6926775468852495
1592262190.630839,-6.175238870350777,7.948351916659885,1.415971351835273,-0.008888888888888889,-0.75,-0.04777777777777778,0.05571227124240892,-0.15805726990394242,0.6774991341545705
1592262190.640839,-5.014626456477039,7.893247618822528,0.5879671952920045,-0.008888888888888889,-0.75,-0.04777777777777778,0.058966041178655,-0.1394326455725856,0.7175499891953503
1592262190.650839,-4.697239182159132,7.933370569020446,0.8008085655522845,-0.008888888888888889,-0.75,-0.04777777777777778,0.04164965865746006,-0.13431058015123531,0.7684007437411179
1592262190.660839,-5.965830140742831,7.671195104246482,1.164471307012945,-0.008888888888888889,-0.75,-0.04777777777777778,0.05087511244425863,-0.15091639696747275,0.7794712882852762
1592262190.670839,-5.197259373702901,8.28792348844717,1.203438407969377,-0.03,-0.7377777777777778,-0.03333333333333333,0.011624066481883267,-0.1344349203595756,0.7416924884169741
1592262190.680839,-5.040950474996383,8.42856150841491,1.353295558663259,-0.03,-0.7377777777777778,-0.03333333333333333,-0.01347039511301357,-0.14421696134668446,0.6951606768986432
1592262190.690839,-5.743223495702006,8.614405444126074,1.3176074498567334,-0.03,-0.7377777777777778,-0.03333333333333333,-0.08726646259971647,-0.1597406815546986,0.6586430013534331
1592262190.700839,-4.446378702540621,8.25113659386523,0.86,-0.03,-0.7377777777777778,-0.03333333333333333,-0.08827848341077198,-0.19705785817540875,0.7041250156926239
1592262190.710839,-5.6530536083309695,8.013200696948823,0.86,-0.03,-0.7377777777777778,-0.03333333333333333,-0.09662109128775727,-0.21188916106782701,0.7625232708315208
1592262190.720839,-4.67,8.36,1.73,-0.04888888888888889,-0.73,-0.012222222222222223,-0.08617563181722002,-0.210530341021816,0.8213955792198314
1592262190.730839,-4.611492790500424,8.203980774667796,1.193683912920554,-0.04888888888888889,-0.73,-0.012222222222222223,-0.07979348530520937,-0.20627557668047555,0.8724527513159166
1592262190.740839,-5.451429305912596,8.234307548492637,1.228289787333489,-0.04888888888888889,-0.73,-0.012222222222222223,-0.11430820613385145,-0.1711400055414385,0.9137242716270967
1592262190.750839,-4.223229255774165,7.95598374679213,1.6367520316509836,-0.04888888888888889,-0.73,-0.012222222222222223,-0.11143439479465786,-0.19154811245643177,0.879080838538179
1592262190.760839,-3.685038494439692,8.254978614200171,1.5993776732249787,-0.04888888888888889,-0.73,-0.012222222222222223,-0.10083442862640091,-0.22416339297414553,0.8399425019169224
1592262190.770839,-5.22,8.71,1.29,-0.06888888888888889,-0.7377777777777778,-0.01888888888888889,-0.11017390903214205,-0.17344209441693648,0.8475755179997462
1592262190.780839,-4.591756357902398,8.55957546597663,1.5112125500343672,-0.06888888888888889,-0.7377777777777778,-0.01888888888888889,-0.15940022267875517,-0.158963766873815,0.884253947775654
1592262190.790839,-4.021614760073398,8.605467159339415,1.5096885604403891,-0.06888888888888889,-0.7377777777777778,-0.01888888888888889,-0.14521260132160932,-0.1368621508823614,0.9107996676346806
1592262190.800839,-4.061364468034999,8.296158402927484,1.7556913824024927,-0.06888888888888889,-0.7377777777777778,-0.01888888888888889,-0.14552501932432946,-0.09313966974626371,0.9095296120418979
1592262190.810839,-4.076560931867176,8.698864694480172,1.9304507164725275,-0.06888888888888889,-0.7377777777777778,-0.01888888888888889,-0.11402915531118736,-0.04921122783319712,0.9070430964619128
1592262190.820839,-3.9,9.06,1.81,-0.12222222222222222,-0.7033333333333334,-0.01888888888888889,-0.09817477042468103,-0.004363323129985824,0.8672104720846825
1592262190.830839,-4.113872707659115,8.838206080946103,1.2475939909704743,-0.12222222222222222,-0.7033333333333334,-0.01888888888888889,-0.0878059289557731,0.024150990909511016,0.8386961580451857
1592262190.840839,-3.987672054657557,8.866417025733806,1.7182590996738638,-0.12222222222222222,-0.7033333333333334,-0.01888888888888889,-0.10369737554631085,0.056592920069067146,0.8353820620940868
1592262190.850839,-3.81999945698409,9.290434774738898,1.5282609010444006,-0.12222222222222222,-0.7033333333333334,-0.01888888888888889,-0.06914919814367185,0.07313306924951124,0.8510851234369419
1592262190.860839,-4.343840932539324,9.29802668018173,1.4978932792730828,-0.12222222222222222,-0.7033333333333334,-0.01888888888888889,-0.05755512032689475,0.09300863122112912,0.874273279070496
1592262190.8708389,-3.22,8.89,1.44,-0.13666666666666666,-0.6977777777777778,0.0011111111111111111,-0.044724062082354694,0.0839939702522271,0.8748462875621577
1592262190.8808389,-3.619825935596171,8.844565234591345,1.8307389825144396,-0.13666666666666666,-0.6977777777777778,0.0011111111111111111,-0.018952008916655924,0.12562574844297128,0.8827761500746804
1592262190.8908389,-3.495482535763561,8.840753273787913,0.8,-0.13666666666666666,-0.6977777777777778,0.0011111111111111111,-0.005336735073623767,0.10556431526801335,0.8568416255362454
1592262190.9008389,-3.0001967809208065,9.085148387786749,0.8390419407161828,-0.13666666666666666,-0.6977777777777778,0.0011111111111111111,0.04483208938619852,0.12426110887329572,0.8197899466151836
1592262190.9108388,-3.8748970643281107,9.174861237366985,1.5193643833663084,-0.13666666666666666,-0.6977777777777778,0.0011111111111111111,0.027706320252369212,0.12263008324150246,0.8108193056403205
1592262190.9208388,-3.06,9.23,0.91,-0.19,-0.6855555555555556,-0.013333333333333334,0.031634092692397225,0.074176493209759,0.7832165018324554
1592262190.9308388,-3.537496194085447,9.322418618210087,1.6801551517507205,-0.19,-0.6855555555555556,-0.013333333333333334,0.04591594478847178,0.08341769162486606,0.7630538871085853
1592262190.9408388,-3.52,8.85,1.26,-0.19,-0.6855555555555556,-0.013333333333333334,-0.019634954084936207,0.04581489286485115,0.7199483164476609
1592262190.9508388,-3.1911399594320486,9.088423529411765,1.070905476673428,-0.19,-0.6855555555555556,-0.013333333333333334,0.0009920585996756812,0.026084706818700648,0.7163610098938153
1592262190.9608388,-3.204823505499221,8.809188328553038,1.3608116714469611,-0.19,-0.6855555555555556,-0.013333333333333334,0.05634460389527641,0.022741896558707196,0.726688364223012
1592262190.9708388,-3.2616774133258573,8.97719348659004,1.2508387066629287,-0.19666666666666666,-0.6855555555555556,0.006666666666666667,0.10499422123328202,0.009131311758412477,0.7533066271823474
1592262190.9808388,-3.290651541871217,9.366438682617606,1.265548353272008,-0.19666666666666666,-0.6855555555555556,0.006666666666666667,0.1107548605198507,-0.0071762638218588635,0.7417631643912554
1592262190.9908388,-2.8802167989574694,9.208699206255185,1.070433597914939,-0.19666666666666666,-0.6855555555555556,0.006666666666666667,0.0882390478940025,-0.03516672511394954,0.6930589047384833
1592262191.0008388,-2.8883083238675993,9.149609613200216,1.0880480660010763,-0.19666666666666666,-0.6855555555555556,0.006666666666666667,0.08261924217754031,-0.04710445175188085,0.6606601928483953
1592262191.0108387,-2.779649867479723,9.124534584803012,0.9626729240150654,-0.19666666666666666,-0.6855555555555556,0.006666666666666667,0.06438416694577974,-0.05986900441411325,0.6360428412855186
1592262191.0208387,-2.88,9.51,1.27,-0.2111111111111111,-0.6666666666666666,0.006666666666666667,0.02399827721492203,-0.07635815477475191,0.5977752688080579
1592262191.0308387,-2.431511964238759,8.858290823034446,1.03874835656061,-0.2111111111111111,-0.6666666666666666,0.006666666666666667,-0.0012273639017360838,-0.08705994191515233,0.5870734816676575
1592262191.0408387,-2.2104539262007594,8.845914664193165,1.0581842951969622,-0.2111111111111111,-0.6666666666666666,0.006666666666666667,0.05460904611692777,-0.04113648440637531,0.5782063356128243
1592262191.0508387,-3.0069216709554842,9.866075130468243,1.6576912532166133,-0.2111111111111111,-0.6666666666666666,0.006666666666666667,0.06323880344409086,-0.016454804979658125,0.5553210141128069
1592262191.0608387,-2.7264852112676055,9.61348661971831,1.3629845070422535,-0.2111111111111111,-0.6666666666666666,0.006666666666666667,0.04117770975320337,-0.025935001177802973,0.525778900781908
1592262191.0708387,-2.51,9.29,1.48,-0.2588888888888889,-0.6666666666666666,0.022222222222222223,0.019634954084936207,-0.031634092692397225,0.4766930519509512
1592262191.0808387,-2.6582974990820447,9.25704500020399,1.125733752192893,-0.2588888888888889,-0.6666666666666666,0.022222222222222223,-0.03428753823704193,-0.016356053201170086,0.46680726169192194
1592262191.0908387,-2.6803500807878744,10.128142648303456,1.8798930522428252,-0.2588888888888889,-0.6666666666666666,0.022222222222222223,-0.06686775071523285,-0.02887961277774375,0.461535984665933
1592262191.1008387,-2.523592387376536,9.231329800048183,1.1963902674054445,-0.2588888888888889,-0.6666666666666666,0.022222222222222223,-0.11668310207388638,-0.03265144809865036,0.4539570480630934
1592262191.1108387,-2.5650387974529383,9.280775253140332,1.0255812658756394,-0.2588888888888889,-0.6666666666666666,0.022222222222222223,-0.10938748908076781,-0.02500454099844837,0.4586985761853545
1592262191.1208386,-2.3,9.11,1.84,-0.2588888888888889,-0.6444444444444445,0.013333333333333334,-0.16035212502697901,-0.028361600344907853,0.4516039439535327
1592262191.1308386,-2.4056757411745697,9.706313110913644,1.236138621859601,-0.2588888888888889,-0.6444444444444445,0.013333333333333334,-0.12000610202425688,0.000456987514179389,0.46148460264807695
1592262191.1408386,-2.4304034134988366,9.065096974398758,1.3662839410395655,-0.2588888888888889,-0.6444444444444445,0.013333333333333334,-0.16552362767386486,0.03075398096718674,0.47202168971714176
1592262191.1508386,-2.422990966061691,9.54866851143485,1.7234426629771304,-0.2588888888888889,-0.6444444444444445,0.013333333333333334,-0.19398321842105082,0.031634092692397225,0.4654486258430428
1592262191.1608386,-2.2573943358533435,9.546417211798346,1.239903051431705,-0.2588888888888889,-0.6444444444444445,0.013333333333333334,-0.22503090429352224,0.05528412787365769,0.4521653613866959
1592262191.1708386,-2.532917546836583,9.45764587734183,1.5223139522803617,-0.2696724805977845,-0.6405231383684824,0.005490721181409272,-0.26725135075739875,0.08001474406432059,0.42799195463492296
1592262191.1808386,-2.132718466195762,9.071059535822402,1.2013360242179616,-0.27111111111111114,-0.64,0.0044444444444444444,-0.2610101590695329,0.060598897143064975,0.4105746170926994
1592262191.1908386,-2.1784288473921443,9.279108177720541,1.1315711526078558,-0.27111111111111114,-0.64,0.0044444444444444444,-0.2264504649065409,0.08389668753273208,0.4037787756865535
1592262191.2008386,-2.366388816031055,8.934784136809526,1.3595832240465824,-0.27111111111111114,-0.64,0.0044444444444444444,-0.21682786740913562,0.07255372291333048,0.4175592428377904
1592262191.2108386,-2.4433942257407173,9.37193479162534,1.2250363370782464,-0.27111111111111114,-0.64,0.0044444444444444444,-0.20093977204701055,0.0586102456852912,0.4442348905311571
1592262191.2208385,-2.353606664063517,9.611569048548743,1.2763933359364832,-0.2877387305306087,-0.6289149203870016,0.03585217001460656,-0.2005161509702175,0.042567956880872046,0.48480400282002145
1592262191.2308385,-1.9745139454397393,8.974512164087947,1.3280646885179155,-0.2911111111111111,-0.6266666666666667,0.042222222222222223,-0.2069059991179305,0.021992443270458756,0.5204672173887047
1592262191.2408385,-2.2631876050924813,9.507657138281688,1.3647986227880535,-0.2911111111111111,-0.6266666666666667,0.042222222222222223,-0.20725784867432664,0.01844822033189118,0.5445244019927035
1592262191.2508385,-2.1919119738713584,9.506675446452089,1.407141916451562,-0.2911111111111111,-0.6266666666666667,0.042222222222222223,-0.2644985087328607,-0.017088485101585876,0.565984932692724
1592262191.2608385,-1.9929399953801594,9.527670001243804,1.4236200003553723,-0.2911111111111111,-0.6266666666666667,0.042222222222222223,-0.2675546109300705,-0.031125765819109634,0.5754034205030462
1592262191.2708385,-1.963999099639856,9.361003151260505,1.6729959483793517,-0.28011129451780714,-0.6076669834600507,0.021222572362278244,-0.29561465098625933,-0.04581472917475774,0.5870849961875179
1592262191.2808385,-1.8350570543338622,9.373735736416535,1.693252852716693,-0.2788888888888889,-0.6055555555555555,0.01888888888888889,-0.29005563926322675,-0.05647371838321664,0.5982617860965256
1592262191.2908385,-1.77,9.572561548090965,1.759547256415606,-0.2788888888888889,-0.6055555555555555,0.01888888888888889,-0.270624807386808,-0.058241613014689636,0.6136607623392838
1592262191.3008385,-1.6003737097826876,9.412518310812445,1.8682046943363386,-0.2788888888888889,-0.6055555555555555,0.01888888888888889,-0.24984101460515598,-0.06755264088756069,0.6084115347373272
1592262191.3108385,-1.5040874155014352,9.335174244528815,1.8462610735561935,-0.2788888888888889,-0.6055555555555555,0.01888888888888889,-0.23611750652254304,-0.07654307444810039,0.6094329188271904
1592262191.3208385,-1.5491041959445895,9.623441477614938,1.7813619755069263,-0.29234968435610875,-0.6003783265297017,0.01888888888888889,-0.1878183287171358,-0.07710099717873263,0.6129726155226102
1592262191.3308384,-1.466510598930051,9.699494388801737,1.834993765335264,-0.29333333333333333,-0.6,0.01888888888888889,-0.17944234381708823,-0.06975937664671172,0.6106473440800845
1592262191.3408384,-1.202079768914565,9.423952338629041,1.692079768914565,-0.29333333333333333,-0.6,0.01888888888888889,-0.17453292519943295,-0.04386009889510692,0.6021611938646002
1592262191.3508384,-1.2396258904946063,9.49184530836556,1.7644388357419092,-0.29333333333333333,-0.6,0.01888888888888889,-0.1701025047638354,-0.021373222799807925,0.6010477611555471
1592262191.3608384,-1.3575049958287255,9.377485012513823,2.0241045340783423,-0.29333333333333333,-0.6,0.01888888888888889,-0.16823595567508992,-0.0009415857118144043,0.5963618003195846
1592262191.3708384,-1.4265050529355148,9.559225617581006,2.0869898941289704,-0.3168933803871244,-0.5754582843189676,0.011035539870958544,-0.15076750378557077,-0.026603786207393613,0.5789556818611933
1592262191.3808384,-1.3732621234778895,9.499132663960692,2.0926084170049135,-0.32,-0.5722222222222222,0.01,-0.1284101948076265,-0.036732404134280895,0.569484976777494
1592262191.3908384,-1.11335682561634,9.347663891917769,2.0496348501369646,-0.32,-0.5722222222222222,0.01,-0.06910435200289394,-0.04310773174415119,0.5641346810692367
1592262191.4008384,-1.156328773051862,9.407695895746675,2.152227404967421,-0.32,-0.5722222222222222,0.01,-0.03080296728866732,-0.0257409155184351,0.5573676087364592
1592262191.4108384,-1.045695705665241,9.502869529556506,2.0954174233991445,-0.32,-0.5722222222222222,0.01,-0.016688292233935104,-0.03149512664069305,0.5490919683714937
1592262191.4208384,-0.8130187279807157,9.473476729093269,2.0551214537363247,-0.3308535756227208,-0.565890969775635,0.021758040257947545,0.006495024523779659,-0.03386571442858921,0.531766757919599
1592262191.4308383,-0.8919293004729898,9.57371534614253,1.9529990721252857,-0.3333333333333333,-0.5644444444444444,0.024444444444444446,0.01419642684738819,-0.014313120832244841,0.5483763622513327
1592262191.4408383,-0.8106592357448028,9.641391985106333,1.8886080148936677,-0.3333333333333333,-0.5644444444444444,0.024444444444444446,0.015271630954950384,0.013473583986451322,0.5718271026043603
1592262191.4508383,-0.7733680530613223,9.591788185714629,2.0130555755094224,-0.3333333333333333,-0.5644444444444444,0.024444444444444446,0.02071442286301761,0.04212955490406439,0.5931941608670083
1592262191.4608383,-0.7823921808185705,9.623372632864998,2.0430980452046428,-0.3333333333333333,-0.5644444444444444,0.024444444444444446,0.02756166887707165,0.047581612262305555,0.5966844380255614
1592262191.4708383,-0.5550544071689447,10.164333747505554,2.1956831959034604,-0.3389987909518012,-0.5547322313842138,0.013113529207508651,0.0665818318587216,0.05862232808737788,0.579998287994246
1592262191.4808383,-0.31663553205449846,10.326125284650121,2.1918792697518237,-0.3411111111111111,-0.5511111111111111,0.008888888888888889,0.09875944629316412,0.08119731909906307,0.5484170389307824
1592262191.4908383,0.18573455538908965,9.868101700890104,1.9927698951264652,-0.3411111111111111,-0.5511111111111111,0.008888888888888889,0.17427615168924981,0.15888819877723404,0.38968624687688236
1592262191.5008383,0.05026038422842907,9.51026038422843,2.0820775643175393,-0.3411111111111111,-0.5511111111111111,0.008888888888888889,0.24690063461131984,0.2116163377197352,0.18208896521629006
1592262191.5108383,-0.2975068312446999,9.469015358522567,2.0649232073871664,-0.3411111111111111,-0.5511111111111111,0.008888888888888889,0.27283744141303057,0.22067562575067268,0.10815121774984593
1592262191.5208383,-0.9043239497960961,9.606830977550779,1.7730704359187552,-0.3627464773242181,-0.5355336474376741,0.019273864671180266,0.3248586236125095,0.18065694431508744,0.006030298452154557
1592262191.5308383,-0.7781191865048085,9.592978086079142,1.7121630143465236,-0.3688888888888889,-0.5311111111111111,0.022222222222222223,0.33845161803315865,0.14898903208388237,0.014105561568111786
1592262191.5408382,-0.5013470575072724,9.653484560304317,1.5368522040724995,-0.3688888888888889,-0.5311111111111111,0.022222222222222223,0.38385023871454405,0.10810245335175356,0.048131504769712646
1592262191.5508382,-0.578595880475776,9.692093607968282,1.4009360796828159,-0.3688888888888889,-0.5311111111111111,0.022222222222222223,0.41235819207891145,0.09609521931297664,0.03597325952713194
1592262191.5608382,-0.6168366164542294,9.700254924681344,1.3936732329084587,-0.3688888888888889,-0.5311111111111111,0.022222222222222223,0.41334144265926837,0.08635385561829997,0.02678665810274032
1592262191.5708382,-0.6600923606762681,9.735046180338134,1.329722917971196,-0.3638734954428442,-0.5419777969108746,0.022222222222222223,0.39539089620089746,0.06214712964166839,0.0035023813488882175
1592262191.5808382,-0.6610437791727024,9.722087558345404,1.3,-0.3622222222222222,-0.5455555555555556,0.022222222222222223,0.3749997245816991,0.04425028019493047,-0.007929635743772924
1592262191.5908382,-0.6128811196169731,9.714847552153211,1.277728671770184,-0.3622222222222222,-0.5455555555555556,0.022222222222222223,0.34723172919129847,0.004315113419765794,-0.009883994964069314
1592262191.6008382,-0.571813698630137,9.712953424657535,1.3334191780821918,-0.3622222222222222,-0.5455555555555556,0.022222222222222223,0.3377845681036121,-0.010190451512757302,-0.002255180571155687
1592262191.6108382,-0.5903475232748205,9.715057920545805,1.3448262383625897,-0.3622222222222222,-0.5455555555555556,0.022222222222222223,0.3431610533665875,-0.013641702932635835,-0.006069068969462017
1592262191.6208382,-0.6098589426079466,9.760564229568214,1.279294713039733,-0.3622222222222222,-0.5416118110142014,0.03349006376894823,0.3617565806556582,-0.006990384751749119,-0.01255224748597677
1592262191.6308382,-0.7090571690909969,9.765919634659063,1.1004946117044412,-0.3622222222222222,-0.5377777777777778,0.044444444444444446,0.3608205233535058,0.01263980994149043,-0.010115896462547957
1592262191.6408381,-0.7965505323879952,9.815790958298392,1.025379787044802,-0.3622222222222222,-0.5377777777777778,0.044444444444444446,0.3324859765034785,0.020936350053167282,0.0016396696598476625
1592262191.6508381,-0.9080715471407607,9.76456034835326,0.9898241393413044,-0.3622222222222222,-0.5377777777777778,0.044444444444444446,0.2885912278795063,0.024285372477041288,0.007099991797223727
1592262191.6608381,-0.9554909787641704,9.753277981797861,0.9755740060673799,-0.3622222222222222,-0.5377777777777778,0.044444444444444446,0.265725194255715,0.024123505912449564,0.006187412350021811
1592262191.670838,-1.0356143550093002,9.819210766256976,1.0368430650279004,-0.3543956137471583,-0.5463158961142112,0.05298256278087782,0.2076403694801074,0.008152367754361074,0.0003923076095480344
1592262191.680838,-1.0708497944045796,9.817490123357253,1.086254938321374,-0.35,-0.5511111111111111,0.057777777777777775,0.18925267651557293,-0.003003016775646335,0.0
1592262191.690838,-1.1303074795504031,9.70435826516801,1.1822059083151886,-0.35,-0.5511111111111111,0.057777777777777775,0.14241757796832122,-0.03716116979495283,0.0007160402497120413
1592262191.700838,-1.0624901429860816,9.65562253574652,1.2775098570139185,-0.35,-0.5511111111111111,0.057777777777777775,0.1373088623634517,-0.060236597141994926,-0.0004775072756973465
1592262191.710838,-1.055327868852459,9.655109289617487,1.2948907103825138,-0.35,-0.5511111111111111,0.057777777777777775,0.14410887976849354,-0.06879386918465354,-0.0005334937433520919
1592262191.720838,-0.8947953008187968,9.706721253114988,1.1615165539337844,-0.345457655947154,-0.5511111111111111,0.04999090225861319,0.15708856436621,-0.06562420900793649,-0.0019111867910488814
1592262191.730838,-0.7008824211502783,9.757919372294372,1.036721165739023,-0.3422222222222222,-0.5511111111111111,0.044444444444444446,0.16169605789618413,-0.05885258063103405,-0.0013177920573178232
1592262191.740838,-0.3498944583441176,9.849157967388491,0.855157737324936,-0.3422222222222222,-0.5511111111111111,0.044444444444444446,0.14929452712943225,-0.050936053686251266,0.00293949925640721
1592262191.750838,-0.2840325157410018,9.884032515741001,0.7819349685179965,-0.3422222222222222,-0.5511111111111111,0.044444444444444446,0.12638649814445874,-0.03869789090022386,-0.007767953517005117
1592262191.760838,-0.32306149990360516,9.874972045498362,0.7895363408521303,-0.3422222222222222,-0.5511111111111111,0.044444444444444446,0.11463838689634433,-0.032176458720555766,-0.013802363697978822
1592262191.770838,-0.49766721044045675,9.759168026101142,1.0048287112561174,-0.3422222222222222,-0.542889251404749,0.05746238897951786,0.07843126711016525,-0.01550830386534521,-0.022652978566361965
1592262191.780838,-0.4938473983219835,9.72845780503405,1.1007791865758683,-0.3422222222222222,-0.5377777777777778,0.06555555555555556,0.06754651244455377,-0.014685482294894912,-0.0197181853888567
1592262191.790838,-0.5119056480878384,9.686188703824323,1.1142830557364847,-0.3422222222222222,-0.5377777777777778,0.06555555555555556,0.06737217357021169,-0.018777727754465023,-0.01116764276953313
1592262191.800838,-0.5492369449209071,9.71093172288927,1.09,-0.3422222222222222,-0.5377777777777778,0.06555555555555556,0.07983391752391575,-0.02319395323100151,-0.006360113097240033
1592262191.810838,-0.530551472560485,9.718084151422492,1.1206821880085118,-0.3422222222222222,-0.5377777777777778,0.06555555555555556,0.0923913172029681,-0.03396458459321704,-0.003063505687194551
1592262191.820838,-0.43567170461067534,9.702089535106179,1.1801492251769656,-0.3529684756499373,-0.5400165805752184,0.062421231639138666,0.10607107470696052,-0.05441127385326468,-0.0004395879013297369
1592262191.830838,-0.3136416803366379,9.701213893445546,1.1912138934455458,-0.3688888888888889,-0.5433333333333333,0.057777777777777775,0.12614962803941346,-0.06926250320305183,-0.004506241334639271
1592262191.840838,-0.23830247404411933,9.707870368266807,1.1323456846218507,-0.3688888888888889,-0.5433333333333333,0.057777777777777775,0.14867619370455148,-0.052686455201462395,-0.010443694254974701
1592262191.850838,-0.23306428503199925,9.743064285032,1.0538714299360015,-0.3688888888888889,-0.5433333333333333,0.057777777777777775,0.1699539678823828,-0.014867245219267057,-0.014347930994416322
1592262191.860838,-0.3488566407498136,9.768596229630418,1.0114037703695815,-0.3688888888888889,-0.5433333333333333,0.057777777777777775,0.1801496755204895,0.026083624079873448,-0.014802779360236948
1592262191.870838,-0.5028951048951049,9.764736596736597,1.0152634032634034,-0.36422507122507125,-0.5412134162134162,0.06116964516964517,0.18534079522507674,0.058861890133073906,-0.012515821159916212
1592262191.880838,-0.5149855824682814,9.746253604382929,1.04,-0.3566666666666667,-0.5377777777777778,0.06666666666666667,0.18803156295564144,0.06626718368228939,-0.006406664961240899
1592262191.890838,-0.5117755881761512,9.70878544138347,1.0164488236476976,-0.3566666666666667,-0.5377777777777778,0.06666666666666667,0.1921187055119819,0.059027259917513834,-0.0017942883170764148
1592262191.900838,-0.5368582137656075,9.668761190822929,1.0393358321197508,-0.3566666666666667,-0.5377777777777778,0.06666666666666667,0.20997027687760972,0.04473382791766006,-0.0012259639008953412
1592262191.910838,-0.5208649249386985,9.668324307160372,1.0575135392594424,-0.3566666666666667,-0.5377777777777778,0.06666666666666667,0.23188112091429325,0.02846185663606467,-0.002181661564992912
1592262191.9208379,-0.4585904362551407,9.69070478187243,1.0150221756309976,-0.3566666666666667,-0.5425354586099688,0.07459613472031826,0.2578156255776768,0.007020777268361795,-0.002960135270749999
1592262191.9308379,-0.39952819785759297,9.744119670237346,0.8881127914303717,-0.3566666666666667,-0.5511111111111111,0.08888888888888889,0.288583109779983,-0.015772482895831972,-0.011062704715020178
1592262191.9408379,-0.39234557427382544,9.785801317012078,0.7374124348563811,-0.3566666666666667,-0.5511111111111111,0.08888888888888889,0.2954803801879631,-0.015729636219867185,-0.014692525096558029
1592262191.9508379,-0.4297136654951416,9.899713665495142,0.3284008683068017,-0.3566666666666667,-0.5511111111111111,0.08888888888888889,0.28854684273869896,0.0031787895998922457,-0.015714210117788775
1592262191.9608378,-0.47761403693376125,9.91079532102208,0.31380701846688064,-0.3566666666666667,-0.5511111111111111,0.08888888888888889,0.2596732233334712,0.014837850628524907,-0.015773668313556064
1592262191.9708378,-0.48274946100964083,9.881832974006427,0.45716918195500955,-0.3501063517245432,-0.5485879130564483,0.09191672655448435,0.21738855740103352,0.01725778341089723,-0.014380746619426591
1592262191.9808378,-0.45533279807306304,9.845779205138498,0.6286647932557206,-0.3422222222222222,-0.5455555555555556,0.09555555555555556,0.19164710115656403,0.012411298355548396,-0.012096091612376597
1592262191.9908378,-0.5262011784511784,9.68919921436588,0.82,-0.3422222222222222,-0.5455555555555556,0.09555555555555556,0.16462809599497708,0.0001523306623031663,-0.01485724380668384
1592262192.0008378,-0.4846037099494098,9.68,0.8692411467116358,-0.3422222222222222,-0.5455555555555556,0.09555555555555556,0.18108158891897322,-0.014434652867200155,-0.013005351825042063
1592262192.0108378,-0.4427691962028872,9.68516485985508,0.8803735325506937,-0.3422222222222222,-0.5455555555555556,0.09555555555555556,0.19547929035204153,-0.021176503916808833,-0.011246347111996687
1592262192.0208378,-0.39168157076205284,9.745575427682738,0.6593798600311042,-0.3396263176084327,-0.5503147140141698,0.08949844479004666,0.233872296061033,-0.021266322904871127,-0.015030307970797784
1592262192.0308378,-0.41599577266322213,9.774663378738062,0.5693408485987161,-0.33555555555555555,-0.5577777777777778,0.08,0.24689111092119312,-0.013527531385378783,-0.01650780336824447
1592262192.0408378,-0.5049742997718589,9.874820098403013,0.29564250570352657,-0.33555555555555555,-0.5577777777777778,0.08,0.24438534371916898,0.008737860099961029,-0.019086735233690633
1592262192.0508378,-0.4697087874659401,9.915755887504865,0.1469764499805372,-0.33555555555555555,-0.5577777777777778,0.08,0.2222692714786742,0.006544984694978735,-0.02277430372038332
1592262192.0608377,-0.4355303641392026,9.923575708688638,0.12821214565568104,-0.33555555555555555,-0.5577777777777778,0.08,0.20840326499119727,0.006544984694978735,-0.024601546359067698
1592262192.0708377,-0.4655602676123277,9.967556026761233,0.08733191971630169,-0.33807423114263313,-0.5552591021907002,0.0825186755870776,0.15913906281289,0.011078275316464574,-0.01757436743880628
1592262192.0808377,-0.5824525947099319,9.983354402351141,0.03909819235879061,-0.3422222222222222,-0.5511111111111111,0.08666666666666667,0.12796553080641734,0.01708048916583836,-0.013357505970615646
1592262192.0908377,-0.5463541191313451,10.004548626956218,-0.12635411913134514,-0.3422222222222222,-0.5511111111111111,0.08666666666666667,0.05253161466930675,0.002776314117295761,0.0001312990961456562
1592262192.1008377,-0.5853009427121102,9.990587382160987,-0.16471356055112402,-0.3422222222222222,-0.5511111111111111,0.08666666666666667,0.01919118608712583,0.0032100009538583163,0.004619616946903047
1592262192.1108377,-0.5172586978179758,9.98185325545506,-0.032818464183157196,-0.3422222222222222,-0.5511111111111111,0.08666666666666667,-0.06094756760615735,-0.02318964197563826,0.010706149015143617
1592262192.1208377,-0.5066150119042646,9.899332525792573,0.18641243055845624,-0.3422222222222222,-0.5563077751323856,0.08926499867730393,-0.11536543612743583,-0.044315814982769534,0.012055044767192153
1592262192.1308377,-0.4624513591590964,9.801128397897742,0.4301945633636142,-0.3422222222222222,-0.5644444444444444,0.09333333333333334,-0.14954780890133776,-0.05872022858054457,0.008314931770208272
1592262192.1408377,-0.584,9.734903225806452,0.6245806451612903,-0.3422222222222222,-0.5644444444444444,0.09333333333333334,-0.1756096807460262,-0.07253672822703852,0.0016679154545268396
1592262192.1508377,-0.5235231128329764,9.733347931756382,0.7843617200471641,-0.3422222222222222,-0.5644444444444444,0.09333333333333334,-0.16993409580622895,-0.09125025105963189,0.0009659116667301436
1592262192.1608377,-0.3511262368815592,9.718873763118442,0.8616893553223388,-0.3422222222222222,-0.5644444444444444,0.09333333333333334,-0.16251893690155955,-0.10538059905158056,0.004086903011758611
1592262192.1708376,-0.369117861837301,9.69044106908135,0.9130392872791003,-0.3449291660581276,-0.5528432565762783,0.09101309575970011,-0.11524315755970956,-0.08104775531711583,-0.00583380189768588
1592262192.1808376,-0.33,9.71,0.9006982009298565,-0.35,-0.5311111111111111,0.08666666666666667,-0.09604223703804676,-0.06121181390482569,-0.006621146601644245
1592262192.1908376,-0.3835891630431986,9.719743484189673,0.827180384387784,-0.35,-0.5311111111111111,0.08666666666666667,-0.05540874215948866,-0.013621618539951821,-0.008698664725761418
1592262192.2008376,-0.4499484745762712,9.72005152542373,0.7549227118644067,-0.35,-0.5311111111111111,0.08666666666666667,-0.03223290332601579,0.02391396893749519,-0.008189661696466104
1592262192.2108376,-0.4566110556912387,9.716777888617523,0.7767778886175226,-0.35,-0.5311111111111111,0.08666666666666667,-0.014792762582819401,0.04479685667896448,-0.006544984694978735
1592262192.2208376,-0.44186460348162476,9.736779497098647,0.7791528046421664,-0.34728820116054154,-0.5347268428970556,0.08576273372018053,0.0014235658200200364,0.053154896977324395,-0.006249173329976795
1592262192.2308376,-0.46034963026778664,9.775310024648814,0.6724801971905138,-0.33,-0.5577777777777778,0.08,0.024615649795055594,0.05126904677733343,-0.004363323129985824
1592262192.2408376,-0.5714546984827461,9.752025886581288,0.5985453015172539,-0.33,-0.5577777777777778,0.08,0.034195427190284705,0.05175921468246377,-0.004853491035116167
1592262192.2508376,-0.563647897362794,9.746855310049893,0.5557861724875268,-0.33,-0.5577777777777778,0.08,0.03921501675629846,0.0408684456529891,-0.00545415391248228
1592262192.2608376,-0.5188814341688583,9.77629381138962,0.5625876227792389,-0.33,-0.5577777777777778,0.08,0.04534960210061416,0.019939995595150715,-0.00545415391248228
1592262192.2708375,-0.5573756896116541,9.793936465582519,0.587375689611654,-0.33160374523732256,-0.5561740325404553,0.08087477012944867,0.04951678699550548,0.0064365034164251995,-0.005597287840203933
1592262192.2808375,-0.5097884224779959,9.802736241415998,0.5829478189380017,-0.3422222222222222,-0.5455555555555556,0.08666666666666667,0.0509474896134536,-0.014846994027602225,-0.003720208802226162
1592262192.2908375,-0.4666700984376411,9.783329901562357,0.5600411812516933,-0.3422222222222222,-0.5455555555555556,0.08666666666666667,0.04836091338695969,-0.024360390083187224,0.0010897077380712362
1592262192.3008375,-0.4635040883360123,9.79,0.4940163533440492,-0.3422222222222222,-0.5455555555555556,0.08666666666666667,0.04556789504981946,-0.025359585851656898,0.0030813739764139177
1592262192.3108375,-0.4832297206861329,9.7803108379416,0.5955269275474623,-0.3422222222222222,-0.5455555555555556,0.08666666666666667,0.037156060923892786,-0.015305538114457026,0.001477045816333037
1592262192.3208375,-0.49,9.755837198791598,0.6758279216917624,-0.34064960843238157,-0.546573129184276,0.08666666666666667,0.03317901464484748,-0.013634878793902036,-9.081823399076086e-05
1592262192.3308375,-0.4850654747523556,9.712467262623823,0.7408224208746074,-0.3233333333333333,-0.5577777777777778,0.08666666666666667,0.03925562379480324,-0.019904090686793028,-0.0013599673843532768
1592262192.3408375,-0.4312602312175547,9.74,0.7361374566068983,-0.3233333333333333,-0.5577777777777778,0.08666666666666667,0.05360603508612524,-0.021807687228288252,-0.004500793030502989
1592262192.3508375,-0.42576798508195113,9.747116007459024,0.6293259888114634,-0.3233333333333333,-0.5577777777777778,0.08666666666666667,0.07679929406607361,-0.012240210176259366,-0.0070066259094379284
1592262192.3608375,-0.41414965004690096,9.76,0.6184897900281405,-0.3233333333333333,-0.5577777777777778,0.08666666666666667,0.09407858631452297,-0.0044048815868122995,-0.008891384612505385
1592262192.3708375,-0.4523826064303237,9.75904695742787,0.6385704361418058,-0.32492173762021576,-0.5577777777777778,0.08634898580929018,0.1062264291720396,0.006856867147391264,-0.006493004286243314
1592262192.3808374,-0.49791047044265463,9.740835811822938,0.6112537177344072,-0.3552736469617698,-0.5577777777777778,0.08027860394097938,0.11417254045619371,0.012816450610506847,-0.00549974037572405
1592262192.3908374,-0.5151973574640537,9.73,0.6255920723921612,-0.3566666666666667,-0.5577777777777778,0.08,0.12697414436236448,0.011432194856518262,-0.0038394360984321217
1592262192.4008374,-0.49481131907467096,9.737783021387994,0.5825943404626645,-0.3566666666666667,-0.5577777777777778,0.08,0.1392249980412913,0.011108978884092093,-0.002181661564992912
1592262192.4108374,-0.47982903533906396,9.760170964660936,0.589401623686724,-0.3566666666666667,-0.5577777777777778,0.08,0.15066519344491858,0.005463478588225683,-0.0021630122135061053
1592262192.4208374,-0.45986852172826787,9.78,0.5198685217282678,-0.35652788404650493,-0.5577631690809187,0.08013878262016173,0.1658851602397805,0.006537813667676991,-1.4342054603488639e-05
1592262192.4308374,-0.446769725644509,9.78,0.506769725644509,-0.34270137706920395,-0.5563077472938344,0.09396528959746274,0.17374387372977498,0.0058233851685865826,-0.0014431990527843056
1592262192.4408374,-0.4487176840022369,9.797435368004475,0.4825646319955263,-0.33555555555555555,-0.5555555555555556,0.10111111111111111,0.18351112838395242,0.007356057524825651,-0.002181661564992912
1592262192.4508374,-0.4966902434944682,9.823309756505532,0.25669024349446823,-0.33555555555555555,-0.5555555555555556,0.10111111111111111,0.18037126403636303,0.016331599742023393,-0.005446438413626418
1592262192.4608374,-0.507317142400965,9.832473877485851,0.25,-0.33555555555555555,-0.5555555555555556,0.10111111111111111,0.17291377617121748,0.025089107997418484,-0.007635815477475192
1592262192.4708374,-0.5594026858734411,9.839914669410492,0.25,-0.33555555555555555,-0.5555555555555556,0.10111111111111111,0.16804378924468882,0.025089107997418484,-0.007635815477475192
1592262192.4808373,-0.5037749674979317,9.82,0.27867509750620495,-0.3566666666666667,-0.5488888888888889,0.11555555555555555,0.15187095114732568,0.012244610987779328,-0.0030052317149264138
1592262192.4908373,-0.49944311674257114,9.82703792217162,0.22481038914190377,-0.3566666666666667,-0.5488888888888889,0.11555555555555555,0.14162576210470118,0.00199942194515482,-0.003979464022504995
1592262192.5008373,-0.4705560326320309,9.824260054386718,0.16314798912265638,-0.3566666666666667,-0.5488888888888889,0.11555555555555555,0.13251587827919448,-0.005393500161373095,-0.002585707659897854
1592262192.5108373,-0.4476331763568321,9.801834118215838,0.1747336472863359,-0.3566666666666667,-0.5488888888888889,0.11555555555555555,0.1252454687262349,-0.007893995886145993,-0.001090830782496456
1592262192.5208373,-0.4401228356044192,9.839385821977904,0.18975432879116155,-0.3566666666666667,-0.5488888888888889,0.11555555555555555,0.12114921328635013,-0.008713246974122943,-0.001090830782496456
1592262192.5308373,-0.4563700813365575,9.86,0.150913387557705,-0.3422222222222222,-0.5644444444444444,0.11555555555555555,0.10323038383144578,0.0020833153406202235,-0.0018840450877614513
1592262192.5408373,-0.5,9.86,0.18,-0.3422222222222222,-0.5644444444444444,0.11555555555555555,0.09053895494720585,0.007635815477475192,-0.001090830782496456
1592262192.5508373,-0.47763763789746916,9.844908241401686,0.10782115509409473,-0.3422222222222222,-0.5644444444444444,0.11555555555555555,0.06866228343511772,0.013903087821649897,-0.0024393552950772793
1592262192.5608373,-0.5,9.832425631808679,0.1672768954260353,-0.3422222222222222,-0.5644444444444444,0.11555555555555555,0.05599431302650874,0.015471327849475556,-0.0002645953843908984
1592262192.5708373,-0.49975830702150054,9.8397583070215,0.19072507893549842,-0.3419268196929451,-0.5641221871397785,0.11536757212783373,0.046668442120573174,0.02285471720425348,-0.001143560010668552
