time,acc_x,acc_y,acc_z,mag_x,mag_y,mag_z,gyr_x,gyr_y,gyr_z
1592262268.9807644,-0.34834048695986913,9.780829756520065,0.4029256086998364,-0.4722222222222222,-0.6055555555555555,-0.15444444444444444,0.03208665466942948,-0.003725054324521629,-0.0007287812008706469
1592262268.9907644,-0.3998573631457209,9.758246653115581,0.3545973224924651,-0.47998415146063567,-0.6055555555555555,-0.16432326347515244,0.044708502815218085,-0.003184641743361771,0.0005014900891844292
1592262269.0007644,-0.436821509009009,9.755892454954955,0.32728603603603607,-0.48444444444444446,-0.6055555555555555,-0.17,0.04943410479382658,0.0034671958148606383,-0.0014375503639825198
1592262269.0107644,-0.3978555143915645,9.828573382730122,0.19713764605300654,-0.48444444444444446,-0.6055555555555555,-0.17,0.04877564821926914,0.015116011151668045,0.000623473986142745
1592262269.0207644,-0.37334072950392827,9.843340729503929,0.16663708198428692,-0.48444444444444446,-0.6055555555555555,-0.17,0.04145883090836712,0.027623084664462973,0.0036344890142100093
1592262269.0307643,-0.37,9.829512623194276,0.18524368840286215,-0.48444444444444446,-0.6055555555555555,-0.17,0.03245910066371424,0.035584911836724534,0.0032193277852534804
1592262269.0407643,-0.3759182904695045,9.825918290469504,0.23734632375603576,-0.4929930862337287,-0.6016100285758859,-0.1732879391497247,0.019523745453742344,0.045926101496045015,0.0015360762226038242
1592262269.0507643,-0.42754609415650524,9.80283080333914,0.3039614958260752,-0.4988888888888889,-0.5988888888888889,-0.17555555555555555,0.0038078515537757762,0.055714596185338354,0.00034990588116230227
1592262269.0607643,-0.4239035623648839,9.763903562364884,0.3004276717736629,-0.4988888888888889,-0.5988888888888889,-0.17555555555555555,-0.006784190279673183,0.0627957210323418,0.003558349685735455
1592262269.0707643,-0.46834602803180436,9.75,0.3742775960459397,-0.4988888888888889,-0.5988888888888889,-0.17555555555555555,-0.00840312941105714,0.06403549931837639,0.002625458649660353
1592262269.0807643,-0.46482225628335583,9.729898432161917,0.4853300954737678,-0.4988888888888889,-0.5988888888888889,-0.17555555555555555,-0.0005094075608533619,0.051756295673328415,-5.539666214594927e-06
1592262269.0907643,-0.38101741022850927,9.764425099746102,0.41393725063474796,-0.4988888888888889,-0.6067502921855479,-0.16769415225889656,0.027917671386633997,0.028487024123671503,-0.0004971450410615876
1592262269.1007643,-0.341804868771396,9.815414606314189,0.28556104982883224,-0.4988888888888889,-0.6133333333333333,-0.16111111111111112,0.04798057992047696,0.019725407150962916,0.0
1592262269.1107643,-0.3876508952193441,9.877650895219345,0.05684612071617548,-0.4988888888888889,-0.6133333333333333,-0.16111111111111112,0.050968905556677296,0.03604130946243428,0.0
1592262269.1207643,-0.4027977315689981,9.897599243856334,-0.0424007561436673,-0.4988888888888889,-0.6133333333333333,-0.16111111111111112,0.040620558760676155,0.0469943923120874,0.0007856456108339314
1592262269.1307642,-0.34019772486886696,9.885024715608608,-0.059950568782783265,-0.4988888888888889,-0.6133333333333333,-0.16111111111111112,0.00444420477002026,0.0675991558587665,0.004357931020650195
1592262269.1407642,-0.2703296877980543,9.88,-0.03439562535766517,-0.4916361459061911,-0.6087179514352529,-0.16111111111111112,-0.03141831253315856,0.08776991495774727,0.007396071305052035
1592262269.1507642,-0.2611967496681282,9.874401625165936,0.010527374391568449,-0.4866666666666667,-0.6055555555555555,-0.16111111111111112,-0.05123806699003537,0.10380150720323027,0.008115958299876585
1592262269.1607642,-0.31,9.844394209181699,0.10560579081830146,-0.4866666666666667,-0.6055555555555555,-0.16111111111111112,-0.09797555467675897,0.1483687784266657,0.004842656993998357
1592262269.1707642,-0.3353394355453852,9.827330282227308,0.173348588863463,-0.4866666666666667,-0.6055555555555555,-0.16111111111111112,-0.12479403693393093,0.17140853954857543,0.002290245407186495
1592262269.1807642,-0.3652455191072032,9.806448427460264,0.24557287791680757,-0.4866666666666667,-0.6055555555555555,-0.16111111111111112,-0.1353165809895262,0.18224015929019569,0.00016692625264783448
1592262269.1907642,-0.4643701366982124,9.752185068349107,0.4504626708727655,-0.4826049772169646,-0.6102941932468746,-0.16111111111111112,-0.14963170162070313,0.21262505729415568,-0.0017049536015801602
1592262269.2007642,-0.4858149064794904,9.76,0.4729074532397452,-0.48,-0.6133333333333333,-0.16111111111111112,-0.14819440944488885,0.21880046439780781,0.0
1592262269.2107642,-0.5258890393185537,9.748221921362893,0.45466576408867826,-0.48,-0.6133333333333333,-0.16111111111111112,-0.1427653938794144,0.21032398343005754,0.000642394536801024
1592262269.2207642,-0.53,9.732941655138742,0.44058751729188705,-0.48,-0.6133333333333333,-0.16111111111111112,-0.13847142118232597,0.19814645133397976,0.0012833172786998544
1592262269.2307642,-0.45716155653392826,9.742846143215337,0.4471538567846637,-0.48,-0.6133333333333333,-0.16111111111111112,-0.12607067167498653,0.16845867907316575,0.0026490404842983172
1592262269.2407641,-0.3644763676450324,9.804476367645034,0.3676181617748381,-0.4854711160105951,-0.6043805980432686,-0.167576975487269,-0.11037104621985655,0.15260207069120188,0.004249084271683866
1592262269.2507641,-0.22973378212974296,9.870985312117503,0.28511321909424725,-0.4922222222222222,-0.5933333333333334,-0.17555555555555555,-0.10586432634156319,0.1591291127910344,0.010776126371516394
1592262269.2607641,-0.2586344505066251,9.893052221356196,0.2274029618082619,-0.4922222222222222,-0.5933333333333334,-0.17555555555555555,-0.12154949713618694,0.17793975212496943,0.00863465258057483
1592262269.270764,-0.36611324192156486,9.853144596797392,0.2690818870457378,-0.4922222222222222,-0.5933333333333334,-0.17555555555555555,-0.1466378749269506,0.20972495248741935,-0.0009097229581707666
1592262269.280764,-0.3843096521126492,9.838619304225299,0.35016756478854466,-0.4922222222222222,-0.5933333333333334,-0.17555555555555555,-0.17054393709167137,0.23817544560645165,-0.0068644842683808814
1592262269.290764,-0.4856001268431901,9.797419930236245,0.5334001902647851,-0.48266220953790323,-0.5959888924123109,-0.17555555555555555,-0.19639100694736483,0.25411557715088895,-0.007683810648260472
1592262269.300764,-0.5834142376030659,9.74,0.6834142376030659,-0.4722222222222222,-0.5988888888888889,-0.17555555555555555,-0.21194065563121478,0.2578885189653913,-0.007742310086442638
1592262269.310764,-0.5944945362402999,9.676760016892784,0.7232399831072164,-0.4722222222222222,-0.5988888888888889,-0.17555555555555555,-0.22094837099838405,0.2522024609280883,-0.009490625143537107
1592262269.320764,-0.6234995034756703,9.629300099304867,0.7790987090367428,-0.4722222222222222,-0.5988888888888889,-0.17555555555555555,-0.21694459934258253,0.23717988949470797,-0.007559468155180902
1592262269.330764,-0.5644043835616439,9.615938630136986,0.9609205479452055,-0.4722222222222222,-0.5988888888888889,-0.17555555555555555,-0.18343482164320074,0.16240384324286797,-0.002557744155867854
1592262269.340764,-0.405076433332228,9.614923566667771,1.040152866664456,-0.462922151849764,-0.5928711962949453,-0.19415569630047197,-0.13507611771420558,0.09917875288974623,0.0011241811151376912
1592262269.350764,-0.4075844512687894,9.62,1.0284831097462421,-0.4533333333333333,-0.5866666666666667,-0.21333333333333335,-0.10332232101879231,0.061772722850911316,-0.002745501364964411
1592262269.360764,-0.4216913056403881,9.659632172103455,0.8897800059457852,-0.4533333333333333,-0.5866666666666667,-0.21333333333333335,-0.029260066843850102,5.6249969811711376e-05,-0.012616738511855984
1592262269.370764,-0.4046278843028924,9.694627884302893,0.779587260318492,-0.4533333333333333,-0.5866666666666667,-0.21333333333333335,-0.0022539818378656037,-0.02035602974681394,-0.013342381322728832
1592262269.380764,-0.44,9.714750278727868,0.7304994425442658,-0.4533333333333333,-0.5866666666666667,-0.21333333333333335,0.04094005277748424,-0.0458693735949885,-0.014855759320247044
1592262269.390764,-0.5024641721167935,9.66698688395697,0.8293138200922054,-0.45771678400819604,-0.595433568016392,-0.21077632043966343,0.06426919542740055,-0.059158691611330354,-0.013822179952726794
1592262269.400764,-0.5697690252724651,9.674755431570487,0.7876358779167356,-0.4666666666666667,-0.6133333333333333,-0.20555555555555555,0.0941730804317185,-0.09497786438002381,-0.019660149519213587
1592262269.410764,-0.3902241630996858,9.782066704604498,0.5402241630996858,-0.4666666666666667,-0.6133333333333333,-0.20555555555555555,0.1301500091964695,-0.12972954125573877,-0.025704601378788494
1592262269.420764,-0.2798880431718416,9.831784462969676,0.43167250614151664,-0.4666666666666667,-0.6133333333333333,-0.20555555555555555,0.14843008391954948,-0.14561178590415427,-0.025790629352405635
1592262269.430764,-0.10820594704339734,9.887519456898739,0.2410297352169867,-0.4666666666666667,-0.6133333333333333,-0.20555555555555555,0.1638952026516848,-0.1661143064457614,-0.021779173420845458
1592262269.440764,-0.05832678711704635,9.993346425765907,0.0866535742340927,-0.4726996595967531,-0.6098140874574496,-0.20253905909051234,0.11730758245263145,-0.11424245935051847,-0.024595534917514355
1592262269.450764,-0.02,10.07,0.009519787644787645,-0.48,-0.6055555555555555,-0.1988888888888889,0.06654067773228381,-0.061086523819801536,-0.02399827721492203
1592262269.460764,0.027895313784598526,10.117895313784599,-0.02478953137845985,-0.48,-0.6055555555555555,-0.1988888888888889,0.027356415772108643,-0.027126830120983055,-0.02504319086719337
1592262269.470764,0.0793859011627907,10.171637596899224,-0.026520106589147285,-0.48,-0.6055555555555555,-0.1988888888888889,-0.01708030132578299,0.012005744898537181,-0.026380902154451897
1592262269.480764,0.04625658939345824,10.23128294696729,0.21486821213083518,-0.48,-0.6055555555555555,-0.1988888888888889,-0.12935451772034204,0.14816128563989478,-0.056414553428080445
1592262269.490764,0.07309294871794872,10.171043669871795,0.4599619391025641,-0.47172676282051285,-0.6004996883903134,-0.1988888888888889,-0.2188284778337757,0.23771414130309085,-0.14558963584350637
1592262269.500764,0.23244552058111378,10.13,0.736823244552058,-0.46,-0.5933333333333334,-0.1988888888888889,-0.284706834231575,0.2944540543761874,-0.27207062931724196
1592262269.510764,0.3222707335720897,10.13059756146634,0.8207170737596072,-0.46,-0.5933333333333334,-0.1988888888888889,-0.28408106932733496,0.2980053919229458,-0.31119087649469523
1592262269.5207639,0.5053816530330394,10.207710081801764,0.8984733878678424,-0.46,-0.5933333333333334,-0.1988888888888889,-0.20917291550702027,0.3248219827095143,-0.4899915574073171
1592262269.5307639,0.48828888848875523,10.24,0.9043851846516737,-0.46,-0.5933333333333334,-0.1988888888888889,-0.17109721186768903,0.3410858173823942,-0.6167621904100204
1592262269.5407639,0.35343104276790005,10.219077366650648,0.8560884190293129,-0.4619926317475573,-0.5993112285760052,-0.19623204655881255,-0.14956857343759072,0.350370024827915,-0.7373696336299145
1592262269.5507638,0.07847320194894918,10.167416187913606,0.8,-0.4666666666666667,-0.6133333333333333,-0.19,-0.13948541507154513,0.35337792804230583,-0.8281052475526882
1592262269.5607638,-0.11275787803219225,9.94581614146452,0.7497936975742463,-0.4666666666666667,-0.6133333333333333,-0.19,-0.11028445116766142,0.33537420535853124,-0.9725441440979146
1592262269.5707638,-0.3059073249982341,9.894611146429328,0.715302441666078,-0.4666666666666667,-0.6133333333333333,-0.19,-0.07407280636770353,0.3009373308973149,-1.0605797289596206
1592262269.5807638,-0.49833715071003204,9.864722858451673,0.6690242785158039,-0.4666666666666667,-0.6133333333333333,-0.19,-0.051336755238638176,0.2685330067682429,-1.117390488291807
1592262269.5907638,-0.6623290450874558,9.875205145895054,0.5275341909825089,-0.46009117595335686,-0.6133333333333333,-0.1938357029160974,-0.034338791702915705,0.23162953434062472,-1.1716272962429346
1592262269.6007638,-0.7,9.83223463195849,0.49765368041509106,-0.44,-0.6133333333333333,-0.20555555555555555,-0.04158563323135102,0.20895198917374508,-1.221157624754339
1592262269.6107638,-0.7000532601678502,9.85000484183344,0.3198983214977405,-0.44,-0.6133333333333333,-0.20555555555555555,-0.06001998849372608,0.20507671527142984,-1.2686615518239914
1592262269.6207638,-0.9251940344720818,9.833416761275673,0.17202755702342865,-0.44,-0.6133333333333333,-0.20555555555555555,-0.1304723796014051,0.20616701789183017,-1.3466108142739448
1592262269.6307638,-1.120684117866733,9.774657941066634,0.31154500026674725,-0.44,-0.6133333333333333,-0.20555555555555555,-0.17218022785457285,0.20458736657889556,-1.3969760991742681
1592262269.6407638,-1.2239462192599402,9.713729410863403,0.47113613728644754,-0.4276033606578309,-0.621081232922189,-0.2073633987929552,-0.20755869835003238,0.19926820055047972,-1.437609005388997
1592262269.6507638,-1.27,9.66,0.64,-0.38666666666666666,-0.6466666666666666,-0.21333333333333335,-0.2301652951067522,0.1908953869368798,-1.4660765716752369
1592262269.6607637,-1.434902389721153,9.470065073519232,0.7412255974302883,-0.38666666666666666,-0.6466666666666666,-0.21333333333333335,-0.237392936343265,0.16594706929964229,-1.500694477574971
1592262269.6707637,-1.5239251775772702,9.42,0.7924920810136302,-0.38666666666666666,-0.6466666666666666,-0.21333333333333335,-0.2316469423507257,0.164559121572374,-1.5205773014990922
1592262269.6807637,-1.6871186440677968,9.403389830508475,0.901186440677966,-0.3774387947269303,-0.6495668549905838,-0.21491525423728813,-0.22269587754525103,0.17492118700337236,-1.5459105940281128
1592262269.6907637,-2.0017203208362067,9.367870286357203,1.0534130584691321,-0.3577057146428903,-0.6557686801598535,-0.21829806796598072,-0.21605373832117397,0.19208004666557144,-1.581335336556524
1592262269.7007637,-2.16,9.35,1.13,-0.3477777777777778,-0.6588888888888889,-0.22,-0.2127120025868089,0.20071286397934787,-1.5991579271398042
1592262269.7107637,-2.3635080459770115,9.026335121328225,1.2364919540229884,-0.3477777777777778,-0.6588888888888889,-0.22,-0.16995823444962546,0.21642996626381436,-1.651592087071694
1592262269.7207637,-2.47,9.05,1.13,-0.3477777777777778,-0.6588888888888889,-0.22,-0.13962634015954636,0.21707532571679475,-1.672243589567067
1592262269.7307637,-2.737705314009662,8.98346618357488,1.2819202898550726,-0.3477777777777778,-0.6588888888888889,-0.22,-0.07819991979157564,0.2100270833419686,-1.7098377287087565
1592262269.7407637,-2.8610998516005934,8.997277082891669,1.2746075895696418,-0.3391214284031753,-0.6652008103078698,-0.22144272489576708,-0.03976669059237801,0.21374575958573103,-1.73286186785615
1592262269.7507637,-2.97,8.88,1.35,-0.29444444444444445,-0.6977777777777778,-0.2288888888888889,-0.014180800172453926,0.2247111411942699,-1.7529650674718045
1592262269.7607636,-3.1907754322992337,8.714336096629918,1.2494242657322736,-0.29444444444444445,-0.6977777777777778,-0.2288888888888889,0.04170023303776071,0.2340966426589389,-1.7753174807558907
1592262269.7707636,-3.6437299809342227,8.642744518589133,1.1,-0.29444444444444445,-0.6977777777777778,-0.2288888888888889,0.08033690546037477,0.23733054032698314,-1.790866263776385
1592262269.7807636,-3.82,8.62,1.1,-0.29444444444444445,-0.6977777777777778,-0.2288888888888889,0.09708393964218458,0.23671027980173093,-1.7976891295541593
1592262269.7907636,-3.9188428278843968,8.534082909808086,1.1158514753849653,-0.2816714708336494,-0.7003323724999369,-0.22770984517096934,0.12160860083820736,0.2132836068533253,-1.7928661151238505
1592262269.8007636,-3.96,8.46,1.05,-0.2222222222222222,-0.7122222222222222,-0.2222222222222222,0.14944381720201447,0.20071286397934787,-1.7704183599917482
1592262269.8107636,-4.450259107166512,8.469956815472248,0.709913630944496,-0.2222222222222222,-0.7122222222222222,-0.2222222222222222,0.18692079780756585,0.17668161185588624,-1.6691949566775512
1592262269.8207636,-4.537887834422243,8.44598597930278,0.6459158758166818,-0.2222222222222222,-0.7122222222222222,-0.2222222222222222,0.199406925881976,0.15180999766564418,-1.5665181102107721
1592262269.8307636,-4.598554667354306,8.455507809622043,0.6131015619244088,-0.2222222222222222,-0.7122222222222222,-0.2222222222222222,0.19597627306999826,0.13541471106197503,-1.4812902575189972
1592262269.8407636,-4.83377253814147,8.463533287101248,0.62,-0.21270804438280166,-0.7175847588226228,-0.21876252118970566,0.18323347321946276,0.12852210641733727,-1.407041218220719
1592262269.8507636,-4.8,8.32,0.62,-0.16111111111111112,-0.7466666666666667,-0.2,0.1712604328519436,0.11562806294462433,-1.347176016383123
1592262269.8607635,-5.092705851204659,8.3556861706822,0.7565095755008384,-0.16111111111111112,-0.7466666666666667,-0.2,0.15902601135396793,0.09508191714171717,-1.2549344373763256
1592262269.8707635,-5.07,8.202287987347535,0.5472583930411444,-0.16111111111111112,-0.7466666666666667,-0.2,0.14854017194666708,0.06128016582303016,-1.1779358854733415
1592262269.8807635,-5.07,8.08,0.48,-0.16111111111111112,-0.7466666666666667,-0.2,0.13853550937704992,0.039269908169872414,-1.1399181677087964
1592262269.8907635,-5.4956491344873495,8.343042609853528,0.6447819573901465,-0.1590625462346501,-0.7466666666666667,-0.2,0.12351988231745904,0.016959985722998745,-1.0554116449767115
1592262269.9007635,-4.82,8.15,0.5,-0.10222222222222223,-0.7466666666666667,-0.2,0.10035643198967394,0.0032724923474893677,-0.9806568734643138
1592262269.9107635,-5.125653444676409,8.1021878914405,0.5439206680584551,-0.10222222222222223,-0.7466666666666667,-0.2,0.06346039022413202,-0.0033670006511920883,-0.9303873373977063
1592262269.9207635,-5.320501608209527,8.097791136978609,0.3889850410986879,-0.10222222222222223,-0.7466666666666667,-0.2,0.03705112817344366,-0.00031454598762138165,-0.8668783275609265
1592262269.9307635,-5.6310911972023385,8.327177749849735,0.37333023696337175,-0.10222222222222223,-0.7466666666666667,-0.2,0.03871679380173372,0.011098149693837909,-0.811744340473215
1592262269.9407635,-5.183927198733891,7.900715200844073,0.689440801869018,-0.09964311134557574,-0.7466666666666667,-0.2009579554684687,0.01629011784652839,-0.004140619038510739,-0.783589566124487
1592262269.9507635,-5.38,7.77,0.4,-0.06333333333333334,-0.7466666666666667,-0.21444444444444444,0.015271630954950384,-0.016362461737446838,-0.7581273938350369
1592262269.9607635,-6.03298395810822,7.9943279860360725,0.40201895104313856,-0.06333333333333334,-0.7466666666666667,-0.21444444444444444,-0.022047185235157987,-0.03020742638348011,-0.7095960775437379
1592262269.9707634,-5.6,7.85,0.44,-0.06333333333333334,-0.7466666666666667,-0.21444444444444444,-0.04690572364734761,-0.056723200689815706,-0.6872233929727672
1592262269.9807634,-6.006227066232525,8.314328413499972,0.6672405389069781,-0.06333333333333334,-0.7466666666666667,-0.21444444444444444,-0.06779034031660296,-0.07745864137380268,-0.630143905413089
1592262269.9907634,-5.221160482754587,7.611039599134317,0.6999516465518921,-0.06333333333333334,-0.7466666666666667,-0.21444444444444444,-0.10793290885880887,-0.06764601350793012,-0.5891092797921674
1592262270.0007634,-6.56,8.27,0.7,-0.03666666666666667,-0.7411111111111112,-0.19111111111111112,-0.1341721862470641,-0.038179077387375956,-0.5377795757707527
1592262270.0107634,-5.102032647148945,7.552585030223683,0.8662748265968411,-0.03666666666666667,-0.7411111111111112,-0.19111111111111112,-0.2023189823300099,-0.04822985894384188,-0.5439182070839013
1592262270.0207634,-5.481487642812754,7.7629977532386825,1.0367505616903294,-0.03666666666666667,-0.7411111111111112,-0.19111111111111112,-0.21756460652525422,-0.01819211540544456,-0.5735024457702071
1592262270.0307634,-5.693743736578382,7.68457766642806,1.0226449534717252,-0.03666666666666667,-0.7411111111111112,-0.19111111111111112,-0.2316289760672315,0.010661953414171695,-0.6078957110213267
1592262270.0407634,-5.888897279885469,7.361823729420187,1.0001272369362921,-0.03666666666666667,-0.7411111111111112,-0.19111111111111112,-0.21607239777992432,0.0065681170227750545,-0.6455590058221758
1592262270.0507634,-6.05,7.64,1.52,0.0011111111111111111,-0.76,-0.21444444444444444,-0.17671458676442586,0.01308996938995747,-0.667588438887831
1592262270.0607634,-6.400939053842875,7.477912203437988,1.102839039636312,0.0011111111111111111,-0.76,-0.21444444444444444,-0.14674973326659924,-0.00017080745680744368,-0.6611778128074886
1592262270.0707633,-5.981009007305137,7.36857892621575,0.7644355658526206,0.0011111111111111111,-0.76,-0.21444444444444444,-0.0961756403681992,-0.016695650080193813,-0.6613447678613241
1592262270.0807633,-6.599166098572087,7.5422214647627825,0.8246297558728696,0.0011111111111111111,-0.76,-0.21444444444444444,-0.09642755194019376,-0.025786254885533724,-0.6797796963612502
1592262270.0907633,-6.526753614868501,7.448584909045245,0.8379189838900649,0.0012313475974629145,-0.7598520166321824,-0.21425021627418384,-0.11226476913987142,-0.05369587227693786,-0.7060580809384503
1592262270.1007633,-6.14,7.28,0.59,0.015555555555555555,-0.7422222222222222,-0.19111111111111112,-0.10144726277217041,-0.08290313946973066,-0.7406741013150936
1592262270.1107633,-6.620276407552304,7.383149061631797,0.9635663661620457,0.015555555555555555,-0.7422222222222222,-0.19111111111111112,-0.14472161525956417,-0.11238513441830825,-0.7564240414981687
1592262270.1207633,-6.480314456391875,7.504138112305855,0.5803593787335724,0.015555555555555555,-0.7422222222222222,-0.19111111111111112,-0.18468726955451714,-0.16193845624377076,-0.7303660241056447
1592262270.1307633,-6.83,7.34,0.98,0.015555555555555555,-0.7422222222222222,-0.19111111111111112,-0.2127120025868089,-0.19307704850187268,-0.7046766854927106
1592262270.1407633,-6.848470650581377,7.321529349418623,1.1092945540696406,0.015555555555555555,-0.7422222222222222,-0.19111111111111112,-0.22883068596833078,-0.22027732670819083,-0.6361722811212426
1592262270.1507633,-6.88,6.97,1.39,0.05444444444444444,-0.7422222222222222,-0.2088888888888889,-0.22907446432425577,-0.26289021858164585,-0.5617778529856748
1592262270.1607633,-6.724226879197346,6.777175337810503,1.2141030827736872,0.05444444444444444,-0.7422222222222222,-0.2088888888888889,-0.1856796288447327,-0.27691020528329247,-0.47371517835513866
1592262270.1707633,-6.8911883670399465,7.045066020391108,1.2046698980444592,0.05444444444444444,-0.7422222222222222,-0.2088888888888889,-0.1264833151523891,-0.27032894429213483,-0.39860958684780823
1592262270.1807632,-6.686627018749666,7.054059756770713,1.2614924947917594,0.05444444444444444,-0.7422222222222222,-0.2088888888888889,-0.06989781673047597,-0.24943880138927257,-0.3496356711404143
1592262270.1907632,-6.955487615961255,7.151148305763787,1.1868089955663181,0.05444444444444444,-0.7422222222222222,-0.2088888888888889,-0.043828357562584325,-0.2347747306073335,-0.3211222001755328
1592262270.2007632,-6.9927189023289404,7.264508936631161,1.0237010290666184,0.06888888888888889,-0.7355555555555555,-0.2311111111111111,-0.027937300846643073,-0.2069818422938123,-0.2544939331517226
1592262270.2107632,-6.731478263180272,7.007043473639456,1.2182607886904762,0.06888888888888889,-0.7355555555555555,-0.2311111111111111,-0.040028753276562856,-0.19974534299034472,-0.21211441097828568
1592262270.2207632,-6.6213049959128725,6.987626099918257,1.0149560032697025,0.06888888888888889,-0.7355555555555555,-0.2311111111111111,-0.07336732619136344,-0.18847092806015076,-0.18592027122877985
1592262270.2307632,-6.24,6.98,1.32,0.06888888888888889,-0.7355555555555555,-0.2311111111111111,-0.10581058590215622,-0.17016960206944715,-0.17344209441693648
1592262270.2407632,-6.860207086425664,7.078873593488149,1.1132643045247785,0.06888888888888889,-0.7355555555555555,-0.2311111111111111,-0.1381668937080306,-0.16428663701383361,-0.17442258859287207
1592262270.2507632,-6.660918183730224,6.95364772966278,1.31,0.0811111111111111,-0.7377777777777778,-0.22333333333333333,-0.17056750764968567,-0.14681280707767347,-0.16768746558137962
1592262270.2607632,-6.699914661781014,7.0159317294248105,1.3268477894026325,0.0811111111111111,-0.7377777777777778,-0.22333333333333333,-0.18116852758103438,-0.12221370200510472,-0.14245505302954162
1592262270.2707632,-6.560332176970965,6.855548163284703,1.4240863945254953,0.0811111111111111,-0.7377777777777778,-0.22333333333333333,-0.1903699033251245,-0.11637461046703666,-0.12001313219033781
1592262270.2807631,-7.091805713624351,6.947708570436527,1.2704857159391216,0.0811111111111111,-0.7377777777777778,-0.22333333333333333,-0.19316228905471491,-0.13184653527128387,-0.09582839322215447
1592262270.2907631,-7.027080110337377,6.850620165506067,1.4322997241565556,0.0811111111111111,-0.7377777777777778,-0.22333333333333333,-0.1852192625005929,-0.15655817343966352,-0.07729466459586976
1592262270.3007631,-6.90483864581271,6.885471963747553,1.7840621219120527,0.08666666666666667,-0.73,-0.20222222222222222,-0.1528531583132817,-0.1791855672045493,-0.03328793987757993
1592262270.3107631,-7.065667060515771,6.772026867358472,1.7280455666289942,0.08666666666666667,-0.73,-0.20222222222222222,-0.12494243309480572,-0.2012847852249124,-0.0056526956499930656
1592262270.320763,-6.817862033217425,6.933931016608713,1.3722068637826397,0.08666666666666667,-0.73,-0.20222222222222222,-0.07823639287917654,-0.22567658804500582,0.025741095018752946
1592262270.330763,-7.068190620156522,7.079163812403131,1.6333104992250433,0.08666666666666667,-0.73,-0.20222222222222222,-0.05262978308877999,-0.23480225998792012,0.059003548616333334
1592262270.340763,-6.666906679933412,7.0711381335986685,1.5691050687893457,0.08666666666666667,-0.73,-0.20222222222222222,-0.04475059134747693,-0.23742865723502113,0.08089019234217519
1592262270.350763,-6.79,7.22,1.72,0.10111111111111111,-0.73,-0.2588888888888889,-0.07090400086226964,-0.22798363354175932,0.10035643198967394
1592262270.360763,-6.287663978343015,7.020971744402459,1.714112007218995,0.10111111111111111,-0.73,-0.2588888888888889,-0.0910955979408344,-0.18582450953305202,0.1161418872464353
1592262270.370763,-6.699536153119093,6.824184546313799,1.5960448960302458,0.10111111111111111,-0.73,-0.2588888888888889,-0.10614028383549536,-0.13328482942952574,0.129529763029345
1592262270.380763,-6.6494720213438185,6.89315944674577,1.7823653724636663,0.10111111111111111,-0.73,-0.2588888888888889,-0.11321671651571882,-0.09470138998181231,0.13293783114480365
1592262270.390763,-6.8703331461068595,6.687022396966931,2.1872774345292423,0.10111111111111111,-0.73,-0.2588888888888889,-0.11803515878668515,-0.08747372657536283,0.13213475743297592
1592262270.400763,-6.92,6.75,1.71,0.10111111111111111,-0.7233333333333334,-0.2588888888888889,-0.05890486225480862,-0.056723200689815706,0.1679879405044542
1592262270.410763,-6.939785705966847,6.690642882099461,1.68032144104973,0.10111111111111111,-0.7233333333333334,-0.2588888888888889,-0.022214005147306606,-0.048090057840991705,0.22626165473401622
1592262270.420763,-7.608779043280182,6.856970627023139,2.160904208128522,0.10111111111111111,-0.7233333333333334,-0.2588888888888889,0.05240455179496965,-0.10652712610804257,0.30454072990461023
1592262270.430763,-6.704098266104322,6.934563281785083,1.6078346130276486,0.10111111111111111,-0.7233333333333334,-0.2588888888888889,0.12264038925850541,-0.14978037394717097,0.3782465667104002
1592262270.440763,-7.210601456328178,6.760689052305253,1.5246773728416423,0.10111111111111111,-0.7233333333333334,-0.2588888888888889,0.14820425106625773,-0.18936312771401329,0.42112788329114603
1592262270.450763,-6.85,7.26,1.43,0.11333333333333333,-0.7244444444444444,-0.23777777777777778,0.20071286397934787,-0.2552544031041707,0.4657847441259867
1592262270.460763,-6.708531238582389,6.948768724881257,1.5243125076117403,0.11333333333333333,-0.7244444444444444,-0.23777777777777778,0.21100076262707965,-0.3066938963428295,0.47092869344985255
1592262270.470763,-6.696760920575478,7.203239079424522,1.225691498186817,0.11333333333333333,-0.7244444444444444,-0.23777777777777778,0.19387287847309934,-0.3214142686586111,0.506975518665122
1592262270.480763,-6.7242689584346795,7.16393276039133,1.4106469920544835,0.11333333333333333,-0.7244444444444444,-0.23777777777777778,0.18769624162433046,-0.3510669155265426,0.5605770016507684
1592262270.490763,-6.603358737365548,7.194160315658613,1.5693416572077186,0.11333333333333333,-0.7244444444444444,-0.23777777777777778,0.15472309385916544,-0.3832157345975786,0.6100367232985159
1592262270.500763,-6.66,7.65,1.38,0.06888888888888889,-0.7466666666666667,-0.2222222222222222,0.12435470920459597,-0.4025165587411922,0.7232208087951503
1592262270.510763,-6.449586915440101,7.3487607463203,1.3094836443001252,0.06888888888888889,-0.7466666666666667,-0.2222222222222222,0.10762049805033606,-0.4322280879469815,0.8288643048899214
1592262270.520763,-6.390985054986371,7.307178306231789,1.3103336779772534,0.06888888888888889,-0.7466666666666667,-0.2222222222222222,0.06760238961805792,-0.45473986457414134,0.9261735721329357
1592262270.530763,-6.185695214884601,7.873237546150628,1.6986865031009584,0.06888888888888889,-0.7466666666666667,-0.2222222222222222,0.030338975411030825,-0.4373196018525946,0.9974917117714502
1592262270.540763,-5.636453449247949,7.400279359074623,1.5842611352599896,0.06888888888888889,-0.7466666666666667,-0.2222222222222222,0.0062073574600784096,-0.44730509893574727,1.0133020821531087
1592262270.550763,-6.43,7.48,1.69,0.06222222222222222,-0.7511111111111111,-0.2222222222222222,-0.0272707695624114,-0.4526947747360292,1.036289243371633
1592262270.560763,-5.627870305026268,7.580266211871717,2.1822159491884263,0.06222222222222222,-0.7511111111111111,-0.2222222222222222,-0.07499737480778446,-0.4914726414978948,1.032312026267852
1592262270.5707629,-5.753031289349267,7.279814212064337,1.4938559311966928,0.06222222222222222,-0.7511111111111111,-0.2222222222222222,-0.06544984694978735,-0.5040740423044571,1.037279986522997
1592262270.5807629,-6.034002936961484,7.1437387873533735,1.7700831549335645,0.06222222222222222,-0.7511111111111111,-0.2222222222222222,-0.06415963234863993,-0.5166080674213973,1.0342822428809593
1592262270.5907629,-5.514548221015198,7.863554608021798,2.2227508359724704,0.06222222222222222,-0.7511111111111111,-0.2222222222222222,-0.04958896163891295,-0.5238934027762608,1.0116167551102728
1592262270.6007628,-5.8,8.14,1.69,0.021111111111111112,-0.7388888888888889,-0.2577777777777778,-0.04908738521234052,-0.519235452468313,0.9915651812892784
1592262270.6107628,-5.3651078698248895,7.409381221305814,2.020518018933084,0.021111111111111112,-0.7388888888888889,-0.2577777777777778,-0.10032190725967093,-0.5676236121796806,0.9915651812892784
1592262270.6207628,-5.7971536643026,8.165659574468085,2.289749408983451,0.021111111111111112,-0.7388888888888889,-0.2577777777777778,-0.09621436957159875,-0.5666146430935953,1.0473022503213478
1592262270.6307628,-5.571094708276798,7.819584984170059,2.691396291270918,0.021111111111111112,-0.7388888888888889,-0.2577777777777778,-0.09630185689391982,-0.6023896951651171,1.081005056385384
1592262270.6407628,-4.751584260515604,7.64505961103573,2.5472231569425596,0.021111111111111112,-0.7388888888888889,-0.2577777777777778,-0.04663812228306624,-0.588318303692042,1.1174251284333432
1592262270.6507628,-5.12,8.26,2.88,-0.024444444444444446,-0.7511111111111111,-0.23555555555555555,0.02399827721492203,-0.5879577917655897,1.1639164449237185
1592262270.6607628,-4.489959383860832,7.578875009579278,2.258473446241091,-0.024444444444444446,-0.7511111111111111,-0.23555555555555555,0.07879394505296339,-0.5842428312341971,1.1862062081120743
1592262270.6707628,-4.7343593998151094,8.153161400431413,2.2594010003081517,-0.024444444444444446,-0.7511111111111111,-0.23555555555555555,0.10999195306901532,-0.5109239926372068,1.1895464304025472
1592262270.6807628,-4.603885567890692,8.409888983774552,2.441468830059778,-0.024444444444444446,-0.7511111111111111,-0.23555555555555555,0.15039678038774792,-0.43056795699338335,1.1529028733255497
1592262270.6907628,-4.215221033123172,8.166021040391009,2.2357052528299146,-0.024444444444444446,-0.7511111111111111,-0.23555555555555555,0.14707154714391205,-0.42308618219475264,1.0714346588515706
1592262270.7007627,-4.28,8.23,2.7,-0.06333333333333334,-0.7588888888888888,-0.25,0.14289883250703572,-0.3665191429188092,0.9795660426818175
1592262270.7107627,-4.244676529388245,8.327139544182327,1.9317145141943224,-0.06333333333333334,-0.7588888888888888,-0.25,0.1534951130062114,-0.33569359964847995,0.9410341135939058
1592262270.7207627,-4.409326276404281,8.123702756464905,2.5150063938618925,-0.06333333333333334,-0.7588888888888888,-0.25,0.17863315011212869,-0.3311688169681117,0.9504563754469239
1592262270.7307627,-3.7623813293986395,8.25502069312988,1.73989167596358,-0.06333333333333334,-0.7588888888888888,-0.25,0.23961128434216075,-0.2471708237117297,1.0303636929055027
1592262270.7407627,-3.860495375535322,8.873893907222802,2.147442329146723,-0.06333333333333334,-0.7588888888888888,-0.25,0.2692492042034081,-0.1837786062307285,1.0558852350082435
1592262270.7507627,-3.6562277625454316,8.246472613658101,2.3915615634763756,-0.08203511232969882,-0.7505769871127265,-0.22194733150545176,0.327122992456631,-0.13615478145361123,1.038059417663193
1592262270.7607627,-4.161162863170007,8.804314891168856,1.9111628631700066,-0.08333333333333333,-0.75,-0.22,0.3642529155577046,-0.06631516894265274,1.0143175904288326
1592262270.7707627,-4.235722273998136,8.376772767462421,2.009335436231988,-0.08333333333333333,-0.75,-0.22,0.3593100201332518,-0.04830865606099636,1.003272185679724
1592262270.7807627,-3.4714015247317267,8.733771001192325,2.5048610759836687,-0.08333333333333333,-0.75,-0.22,0.4423433711621278,-0.005678649780426775,1.047125937960633
1592262270.7907627,-3.539596596451928,8.430681793546988,2.2548124796762656,-0.08333333333333333,-0.75,-0.22,0.5225184877660614,0.036475277506177475,1.0967187935919323
1592262270.8007627,-3.57,8.57,2.16,-0.14333333333333334,-0.7444444444444445,-0.19555555555555557,0.6937683776677459,0.09926560120717749,1.1562806294462433
1592262270.8107626,-3.252821792386687,8.789004000494906,1.963651585763187,-0.14333333333333334,-0.7444444444444445,-0.19555555555555557,0.7703799514138263,0.15198754443028661,1.142276363277605
1592262270.8207626,-2.95,8.91,1.31,-0.14333333333333334,-0.7444444444444445,-0.19555555555555557,0.8104872713948669,0.23343778745424157,1.0733774899765127
1592262270.8307626,-2.749208348326736,9.185158930070768,1.2579429051217463,-0.14333333333333334,-0.7444444444444445,-0.19555555555555557,0.8291453581867577,0.31780478860018313,1.0101022391170564
1592262270.8407626,-2.8284151483809374,9.287067388018139,0.6180698544036916,-0.14333333333333334,-0.7444444444444445,-0.19555555555555557,0.8055100142243542,0.40855878405014173,0.9165959720028767
1592262270.8507626,-2.88,9.28,1.69,-0.1688888888888889,-0.7644444444444445,-0.1811111111111111,0.8104872713948669,0.5225079448158023,0.7930339788749234
1592262270.8607626,-2.742552725596404,9.482553878068456,1.140210902385617,-0.1688888888888889,-0.7644444444444445,-0.1811111111111111,0.7757662419888358,0.559596317135881,0.7283266058909565
1592262270.8707626,-2.9153621185628067,9.599193411923967,0.8222181172090924,-0.1688888888888889,-0.7644444444444445,-0.1811111111111111,0.7197373367672965,0.6261498823353504,0.6469376259482269
1592262270.8807626,-3.3625504508372694,10.583445446305042,1.4690739945613283,-0.1688888888888889,-0.7644444444444445,-0.1811111111111111,0.6147985467888203,0.6422465158557593,0.5159663427839056
1592262270.8907626,-3.1935101177891876,10.454655391120507,0.5300691633947447,-0.1688888888888889,-0.7644444444444445,-0.1811111111111111,0.5213164979895202,0.6396681456504901,0.43054445250211015
1592262270.9007626,-3.45,9.14,0.53,-0.18777777777777777,-0.7477777777777778,-0.1511111111111111,0.14398966328953217,0.5519603759432067,0.15707963267948966
1592262270.9107625,-3.227576655648011,9.402141798700558,0.18047760173258864,-0.18777777777777777,-0.7477777777777778,-0.1511111111111111,0.008812191863340785,0.49217034050469893,0.07216045191175403
1592262270.9207625,-3.5386944257543607,8.987861135551992,0.7233981160395425,-0.18777777777777777,-0.7477777777777778,-0.1511111111111111,-0.13652251697838938,0.4251310995217576,0.00583493690573042
1592262270.9307625,-3.8367900702082287,8.969544485179595,1.199046318261328,-0.18777777777777777,-0.7477777777777778,-0.1511111111111111,-0.11582914509088138,0.3326133159880794,-0.03837318060044041
1592262270.9407625,-3.8864237995824635,9.178135997614078,1.3396781986280941,-0.18777777777777777,-0.7477777777777778,-0.1511111111111111,-0.08785989666782021,0.2636333368856657,-0.09030979264383855
1592262270.9507625,-3.29,9.03,0.47,-0.19333333333333333,-0.7477777777777778,-0.16666666666666666,0.00545415391248228,0.08508480103472357,-0.2498002491916884
1592262270.9607625,-3.121880660628663,8.913047416089503,0.8281672882258924,-0.19333333333333333,-0.7477777777777778,-0.16666666666666666,0.059673732326861274,0.039636036775611776,-0.3159800287268863
1592262270.9707625,-3.1431827939890273,9.664857809228486,0.4146905727385969,-0.19333333333333333,-0.7477777777777778,-0.16666666666666666,0.09677011365972986,-0.0022976514168223314,-0.3988150311491494
1592262270.9807625,-2.822121422750587,9.17729039835099,0.9789173577489094,-0.19333333333333333,-0.7477777777777778,-0.16666666666666666,0.05934310839775971,-0.021735382457819048,-0.4363077364937277
1592262270.9907625,-2.6516408145658463,9.210647231159122,1.2743300321728346,-0.19333333333333333,-0.7477777777777778,-0.16666666666666666,0.05826448417874594,-0.005953328054193005,-0.443137825030366
1592262271.0007625,-3.0205461568725633,9.569780035051325,0.9219721735398261,-0.16890518258879073,-0.7549026550782694,-0.16666666666666666,0.06190264736886483,0.02907015851368779,-0.4560508380100935
1592262271.0107625,-2.9219782322688674,9.357081688793206,1.2112522425547183,-0.16666666666666666,-0.7555555555555555,-0.16666666666666666,0.051337150313807915,0.042474296980887304,-0.47211393715558464
1592262271.0207624,-2.7560932151320987,8.908435003949794,0.9948389361888879,-0.16666666666666666,-0.7555555555555555,-0.16666666666666666,0.04842271854929388,0.07381026589973978,-0.5088301925614769
1592262271.0307624,-3.332385164861157,9.253090496239178,0.6670069539713326,-0.16666666666666666,-0.7555555555555555,-0.16666666666666666,0.02030109413750476,0.06345395532741174,-0.6088774482092483
1592262271.0407624,-3.1595362849474786,8.917191049179745,0.816236958569575,-0.16666666666666666,-0.7555555555555555,-0.16666666666666666,0.029283735561250683,0.051825716941154024,-0.7168416114563582
1592262271.0507624,-3.2498321936485297,8.989790242060662,1.1797650711079415,-0.160005593545049,-0.7677675229451879,-0.15778523583784312,0.01637802084580984,0.029467074994098896,-0.8725731018303235
1592262271.0607624,-3.5610177302194796,9.093672576739827,1.0936061860501445,-0.16,-0.7677777777777778,-0.15777777777777777,0.03521066807220166,0.04641581682868365,-0.8889997381539523
1592262271.0707624,-3.394427068604717,9.275486115038742,1.4079919122221594,-0.16,-0.7677777777777778,-0.15777777777777777,0.041416218451659034,0.03493246612767899,-0.9681489354980356
1592262271.0807624,-3.1426267149390243,8.993940072408538,1.09216796875,-0.16,-0.7677777777777778,-0.15777777777777777,0.04525394020207251,-0.005554236805350422,-1.1271163393577557
1592262271.0907624,-3.3136575972170457,9.040134178158779,0.7962417691638712,-0.16,-0.7677777777777778,-0.15777777777777777,0.05091397451368071,0.02806141520598008,-1.2120264327446608
1592262271.1007624,-3.670692444650875,8.95414847499613,0.31042421427465555,-0.14801414047582184,-0.7767671724209114,-0.13979898849151054,0.100519068627473,0.14104244421764092,-1.2447481627716788
1592262271.1107624,-4.011748529709998,9.117374163455688,0.4097493409044819,-0.14666666666666667,-0.7777777777777778,-0.13777777777777778,0.07004514030052471,0.1768371863222558,-1.2352568223427824
1592262271.1207623,-3.8338725173469674,9.089833132005506,0.384150630671124,-0.14666666666666667,-0.7777777777777778,-0.13777777777777778,-0.00471572793934362,0.2060181191989024,-1.251517109858292
1592262271.1307623,-3.786092431030417,8.398991747229427,0.5513444942230605,-0.14666666666666667,-0.7777777777777778,-0.13777777777777778,-0.07271898278483695,0.16266671310656616,-1.3333435310056836
1592262271.1407623,-4.4266844461887,8.403948481010401,0.8463679825891504,-0.14666666666666667,-0.7777777777777778,-0.13777777777777778,-0.11441199201520337,0.1489019142169999,-1.3910591247380866
1592262271.1507623,-4.450203591526578,8.340076346822467,0.9580203591526577,-0.09425558861130029,-0.7893259814170959,-0.1439960412758721,-0.10321091394626508,0.1538015882343941,-1.4403174193350232
1592262271.1607623,-4.644648119186765,8.233458720882378,1.044550991851181,-0.0811111111111111,-0.7922222222222223,-0.14555555555555555,-0.08960830542374089,0.15009513718688805,-1.448406172493669
1592262271.1707623,-4.652030519461894,7.607049594125577,1.2419923701345266,-0.0811111111111111,-0.7922222222222223,-0.14555555555555555,-0.06302995041999142,0.1366380464179548,-1.4203954082876076
1592262271.1807623,-5.1911872146118725,7.99750366927593,0.9380353065883889,-0.0811111111111111,-0.7922222222222223,-0.14555555555555555,-0.024974501387564713,0.1334772085628635,-1.3851437586482542
1592262271.1907623,-4.848908212560386,7.830782608695652,1.0330531400966185,-0.0811111111111111,-0.7922222222222223,-0.14555555555555555,0.05196464901544711,0.13653512597108056,-1.336686123843812
1592262271.2007623,-4.473478050159525,8.150651427648317,0.839130891321029,-0.052850270811177075,-0.7799758580922508,-0.12106282729561273,0.13595066202305786,0.17939419511406227,-1.2884608963915596
1592262271.2107623,-4.803218303979644,8.079091162088021,0.8685993718443128,-0.04777777777777778,-0.7777777777777778,-0.11666666666666667,0.14508049407202864,0.18120120460735398,-1.2899248124818854
1592262271.2207623,-5.264596909731634,8.372208728652751,0.6133434535104365,-0.04777777777777778,-0.7777777777777778,-0.11666666666666667,0.1396784421882468,0.2199310018346807,-1.3049103894120928
1592262271.2307622,-5.315684526221934,8.049345059576883,0.8412798897625031,-0.04777777777777778,-0.7777777777777778,-0.11666666666666667,0.12179319767270635,0.2557381459274696,-1.3185969041856627
1592262271.2407622,-5.648421645137286,7.485176591806751,0.9266887366673663,-0.04777777777777778,-0.7777777777777778,-0.11666666666666667,0.10126666137356097,0.2831452367746809,-1.3190732773490952
1592262271.2507622,-6.381686330284126,7.293069140511362,0.9511888676988719,-0.008877647405300379,-0.7927393663825768,-0.12639169925978602,0.08057017833180914,0.289448177105529,-1.291327504228763
1592262271.2607622,-6.335480809896384,7.414637344047367,1.0857335060266442,0.01,-0.8,-0.13111111111111112,0.12173521021540638,0.28924307214805456,-1.2117916389506356
1592262271.2707622,-6.56460594059406,7.44,0.7119009900990099,0.01,-0.8,-0.13111111111111112,0.16250985311658567,0.2670559393354282,-1.1508433240092133
1592262271.2807622,-6.515323041133552,7.282661520566776,0.49947155546156285,0.01,-0.8,-0.13111111111111112,0.21773066621491818,0.2044784909681472,-1.0408831439293669
1592262271.2907622,-6.646893853158793,7.529191804211725,0.47975170745589074,0.01,-0.8,-0.13111111111111112,0.22273952043127093,0.15298742632089338,-0.9752231687487004
1592262271.3007622,-6.385185950413224,7.420137741046832,0.6049242424242425,0.03915327517600245,-0.7941693449647995,-0.13777471686562598,0.22716288104184376,0.07338278610114501,-0.8887795472781154
1592262271.3107622,-6.371340044039006,7.552568417741428,0.6043858131487889,0.04888888888888889,-0.7922222222222223,-0.14,0.2202503673117742,0.045153754704997405,-0.8285685036228845
1592262271.3207622,-6.536422192365447,7.795474064121816,0.3952593587818436,0.04888888888888889,-0.7922222222222223,-0.14,0.16435833247599108,0.0003034348173655832,-0.7377850478129597
1592262271.3307621,-6.326175822068833,7.304389320295273,0.5098744128079762,0.04888888888888889,-0.7922222222222223,-0.14,0.07467241807585945,-0.029001029433161577,-0.6927015209008652
1592262271.3407621,-6.27,7.208496672716273,0.5300523290986087,0.04888888888888889,-0.7922222222222223,-0.14,0.03791389266266561,-0.029774698043697197,-0.6648364503393097
1592262271.3507621,-6.931523244312562,7.356597428288823,0.5426706231454006,0.07519507638202,-0.7821639740630839,-0.11524123530058249,-0.04224568591282516,-0.03710551000005254,-0.5890712807542509
1592262271.3607621,-7.054138351363705,7.329318909035502,0.5255005332927015,0.08666666666666667,-0.7777777777777778,-0.10444444444444445,-0.07370030393780222,-0.05310848366136334,-0.5600476155263135
1592262271.370762,-7.328779223705706,7.447511689482282,0.6675116894822827,0.08666666666666667,-0.7777777777777778,-0.10444444444444445,-0.12537895696907458,-0.09617015147612507,-0.476826217986987
1592262271.380762,-7.340970608067907,7.327921145531712,0.770732616714926,0.08666666666666667,-0.7777777777777778,-0.10444444444444445,-0.13107250648714724,-0.12492061201702988,-0.4231149624724673
1592262271.390762,-7.1441173169803,7.274116515361029,0.8782350347702359,0.08666666666666667,-0.7777777777777778,-0.10444444444444445,-0.11280478765057331,-0.16015959718671277,-0.29651379477116035
1592262271.400762,-6.51817191708631,7.002748565405785,1.0957504781980716,0.09787684393610147,-0.7969952245253803,-0.10444444444444445,-0.08052696195773208,-0.1791701802661717,-0.17260245662292217
1592262271.410762,-6.719248434237996,7.169874739039666,1.138830897703549,0.10222222222222223,-0.8044444444444444,-0.10444444444444445,-0.07353429220628509,-0.18358067196114156,-0.12519731335809012
1592262271.420762,-7.4728476583031345,7.587121358820438,0.899982295499184,0.10222222222222223,-0.8044444444444444,-0.10444444444444445,-0.0942805325948116,-0.19307801413259665,-0.06747450299425885
1592262271.430762,-7.148712899956566,7.344719849428117,0.894185608802664,0.10222222222222223,-0.8044444444444444,-0.10444444444444445,-0.10212162898633863,-0.1930569912397651,-0.048690030318933666
1592262271.440762,-6.646112608501878,7.194617457925677,0.9338873914981218,0.10222222222222223,-0.8044444444444444,-0.10444444444444445,-0.1353752740482648,-0.19913274631495534,-0.0026709484468890148
1592262271.450762,-6.53528507295174,7.260949494949495,0.8132278338945006,0.10957101883027809,-0.7919514902107495,-0.09489100885397182,-0.16042117424822794,-0.21670596135419185,0.06251905030532241
1592262271.460762,-6.4425065590312816,7.11998385469223,0.9100181634712411,0.11333333333333333,-0.7855555555555556,-0.09,-0.1535339373045375,-0.2067103418819818,0.10063183649197527
1592262271.470762,-6.492381493128348,7.063671383647799,1.0235391917074306,0.11333333333333333,-0.7855555555555556,-0.09,-0.1357825782321018,-0.1659770626896792,0.16891519748862033
1592262271.480762,-6.861475261224295,7.157386325683477,1.3784068896416812,0.11333333333333333,-0.7855555555555556,-0.09,-0.12042529304696918,-0.12760258382413456,0.20553471180964353
1592262271.490762,-6.978595041322314,7.134703230653644,1.4852441773102931,0.11333333333333333,-0.7855555555555556,-0.09,-0.1128981175377906,-0.11095822537988743,0.21635001749552546
1592262271.500762,-6.791744787025485,6.931744787025486,1.4676118338977011,0.10177389651280223,-0.7810602190142379,-0.09449533654131766,-0.0844745501300263,-0.05569302562005119,0.25778580706405063
1592262271.510762,-6.741013821667908,7.308294862248697,1.4989401061057335,0.09333333333333334,-0.7777777777777778,-0.09777777777777778,-0.04776029575236181,-0.010350328183033723,0.32771672640362826
1592262271.520762,-6.820688648964108,7.1324190253866355,1.0358681062153487,0.09333333333333334,-0.7777777777777778,-0.09777777777777778,-0.0012982064039719285,0.0032159932334265957,0.37265001298057293
1592262271.530762,-6.735778159931213,7.236999140154772,0.9528052450558899,0.09333333333333334,-0.7777777777777778,-0.09777777777777778,0.03723057985616397,0.032709681858199294,0.397677462683931
1592262271.540762,-6.448976833976834,7.238234663234663,0.9685757185757186,0.09333333333333334,-0.7777777777777778,-0.09777777777777778,0.06560193618372616,0.04246471801633458,0.43223596497001837
1592262271.550762,-6.618270142180095,7.3879441216939306,1.041516969882281,0.09807865769759976,-0.7777777777777778,-0.10184519866143471,0.08048124831565562,0.046775811221179624,0.4876724864123223
1592262271.560762,-6.773326814862115,7.459668755238058,1.0852021391228002,0.10111111111111111,-0.7777777777777778,-0.10444444444444445,0.07963064712224129,0.05017821599483697,0.507236313860852
1592262271.570762,-6.582453011422637,7.332764797507788,1.0012058670820354,0.10111111111111111,-0.7777777777777778,-0.10444444444444445,0.08339979030730653,0.08347231412957999,0.6171696567585884
1592262271.580762,-6.47381299734748,7.31445623342175,1.0163859416445624,0.10111111111111111,-0.7777777777777778,-0.10444444444444445,0.09080623742342099,0.10931527764034943,0.7457607870329418
1592262271.590762,-6.394262043352498,7.2245218369460416,0.9812161197014606,0.10111111111111111,-0.7777777777777778,-0.10444444444444445,0.1031833092696217,0.12250530636757162,0.8102129178898451
1592262271.600762,-6.354291333303536,7.3810123809949495,0.9704049523979797,0.09719597530753836,-0.7816929135813505,-0.1010886137556678,0.13430470660941268,0.13689558208212887,0.8914811522666544
1592262271.610762,-6.247869725522327,7.551302744776731,0.9873945104465384,0.09333333333333334,-0.7855555555555556,-0.09777777777777778,0.15287763274183536,0.1337977019391034,0.9462092327970713
1592262271.6207619,-6.1853928456896305,7.642134923180082,0.9028095390804932,0.09333333333333334,-0.7855555555555556,-0.09777777777777778,0.136206669453951,0.12766399614161184,1.0241186934957642
1592262271.6307619,-5.979958885117369,7.738421379738969,0.9363967108093895,0.09333333333333334,-0.7855555555555556,-0.09777777777777778,0.09052998507128725,0.1134860878655271,1.0640458985964492
1592262271.6407619,-5.869906719797139,7.807227253516875,0.9328660266859868,0.09333333333333334,-0.7855555555555556,-0.09777777777777778,0.07058458232123796,0.10424741083589086,1.0766533740878912
1592262271.6507618,-5.582153566560654,7.7543071331213085,0.7445782220202938,0.06993807528564458,-0.7815612432059502,-0.09777777777777778,0.029863124043546393,0.09210127309199896,1.0915979819745587
1592262271.6607618,-5.609226016129679,7.651534726959033,0.6459964691249047,0.04777777777777778,-0.7777777777777778,-0.09777777777777778,0.00525277717491994,0.09267015196570683,1.1001615589691147
1592262271.6707618,-6.150353763883175,7.993273549979432,0.9217688194158782,0.04777777777777778,-0.7777777777777778,-0.09777777777777778,0.005010103668813628,0.10690141668465267,1.1112380681086784
1592262271.6807618,-5.9761535064830795,7.932688370599333,0.7264232668299144,0.04777777777777778,-0.7777777777777778,-0.09777777777777778,0.003724045758797764,0.10205711385433602,1.1157996455687917
1592262271.6907618,-5.509550214183722,8.083226241472314,0.500485284785023,0.04777777777777778,-0.7777777777777778,-0.09777777777777778,-0.02678880424821105,0.07136493873873029,1.0907638278464515
1592262271.7007618,-5.950412501983183,8.219834999206727,0.8998349992067269,0.034554444973293144,-0.788797221781515,-0.08620736157385372,-0.10053737179343405,0.05894985924091826,1.0554552769417076
1592262271.7107618,-5.726263517811705,8.24,0.8531782760814249,0.021111111111111112,-0.8,-0.07444444444444444,-0.15195309230592985,0.04886897618639219,1.0483975864920683
1592262271.7207618,-5.23589393199935,7.795049075429749,0.7163654357138983,0.021111111111111112,-0.8,-0.07444444444444444,-0.18746430680522075,0.023066034216595248,1.0632149765502097
1592262271.7307618,-5.569562749934149,7.97145326979718,0.9731802399367832,0.021111111111111112,-0.8,-0.07444444444444444,-0.1557825781708418,0.029683704701988813,1.1058210401799557
1592262271.7407618,-5.572855165100592,8.237896550708415,1.0684724145041091,0.021111111111111112,-0.8,-0.07444444444444444,-0.128397553197505,0.03560133137053369,1.134784492933391
1592262271.7507617,-4.8934428373595935,8.275704339129097,1.0322299584551469,-0.008375091894479495,-0.7896539638576875,-0.07444444444444444,-0.04349748589358897,0.02764632485950877,1.2029251848065368
1592262271.7607617,-4.7618802415296875,8.343578497148608,0.9166034887621604,-0.042222222222222223,-0.7777777777777778,-0.07444444444444444,0.00543430232913762,0.024780630858993624,1.2316926778848178
1592262271.7707617,-4.3451424523847,8.225622015845532,0.8651424523847001,-0.042222222222222223,-0.7777777777777778,-0.07444444444444444,0.0606711164102124,0.022792977595393574,1.2589536531425616
1592262271.7807617,-4.2953025367918025,8.934821093174198,0.8893949264163953,-0.042222222222222223,-0.7777777777777778,-0.07444444444444444,0.05903686883294292,0.018317014932160362,1.2404066062766046
1592262271.7907617,-4.1682458257533455,8.887486085844486,0.7151173472144672,-0.042222222222222223,-0.7777777777777778,-0.07444444444444444,0.028486835947271593,0.025955068765943654,1.2332216779479053
1592262271.8007617,-4.241627856047887,8.468961238046573,0.6950697131177458,-0.06362962422236822,-0.7777777777777778,-0.07444444444444444,-0.007218084381411508,0.042160183731028256,1.2409476993849031
1592262271.8107617,-4.495376801702333,8.508900309150038,0.9848677078732886,-0.09,-0.7777777777777778,-0.07444444444444444,-0.02009262388367102,0.057007569111173134,1.2514028518037454
1592262271.8207617,-3.847545095828636,8.71488444193912,1.0821505073280722,-0.09,-0.7777777777777778,-0.07444444444444444,-0.057873676672933444,0.049266320814204366,1.230295404225452
1592262271.8307617,-4.043627266893258,8.970788391605067,1.0095793026406485,-0.09,-0.7777777777777778,-0.07444444444444444,-0.040630302987394076,0.05692851737668352,1.1414162354152269
1592262271.8407617,-3.7541795560934803,8.876663759500204,0.9183318797501024,-0.09,-0.7777777777777778,-0.07444444444444444,-0.03419632087305169,0.06972022725087813,1.0739185077177202
1592262271.8507617,-2.678472701404944,8.457636492975281,0.6838424328650187,-0.10494279447507261,-0.7739353449127591,-0.07230975951943407,-0.005405150914854932,0.08223145309211805,1.0356281102920053
1592262271.8607616,-2.66,8.55,0.69,-0.1288888888888889,-0.7677777777777778,-0.06888888888888889,0.05235987755982988,0.08290313946973066,1.01883595085169
1592262271.8707616,-3.6395900516080126,9.43419366125317,0.8638708924978861,-0.1288888888888889,-0.7677777777777778,-0.06888888888888889,0.037548916431793776,0.09223758746902375,0.9422698839905986
1592262271.8807616,-3.086640764947955,8.873359235052046,0.6222130234809973,-0.1288888888888889,-0.7677777777777778,-0.06888888888888889,-0.02484337400415022,0.07253808174615316,0.8963222661485621
1592262271.8907616,-3.372456451859789,8.595924383897138,0.3613004745140058,-0.1288888888888889,-0.7677777777777778,-0.06888888888888889,-0.04216086855073016,0.06663525090773245,0.8821510969255626
1592262271.9007616,-3.3468312398462574,8.918869120735428,0.604535008122994,-0.14691797316990485,-0.7647729303976084,-0.06330845804000299,-0.09222467038554485,0.06002136778013517,0.8625246586243006
1592262271.9107616,-3.070471026354559,8.825219757734489,0.8389196267801604,-0.17555555555555555,-0.76,-0.05444444444444444,-0.09399576716296039,0.03823389569646524,0.8668219674071548
1592262271.9207616,-3.4494497914661535,9.437986846326595,0.4909752967597048,-0.17555555555555555,-0.76,-0.05444444444444444,-0.08977411353714938,0.019555162805369574,0.8541603983345083
1592262271.9307616,-3.0727613941018768,9.187050938337801,0.416970509383378,-0.17555555555555555,-0.76,-0.05444444444444444,-0.1076120651568957,0.02629691795230062,0.8509942343127177
1592262271.9407616,-2.8344827723086694,9.093990155604954,0.6035467608764687,-0.17555555555555555,-0.76,-0.05444444444444444,-0.0957190588429201,0.034740007315995525,0.8479086734475283
1592262271.9507616,-2.8429486003595406,9.288415452911178,0.6719936163187439,-0.1822921736720027,-0.7510178425114038,-0.06118106256089159,-0.10110272881001345,0.041440123955660206,0.8168720151809739
1592262271.9607615,-2.7618971000227153,9.58425191186492,1.047616794124328,-0.19555555555555557,-0.7333333333333333,-0.07444444444444444,-0.1040958332804095,0.03786608403155932,0.7840453003095479
1592262271.9707615,-2.817233632509223,8.90235394526733,0.7642783987665878,-0.19555555555555557,-0.7333333333333333,-0.07444444444444444,-0.06339564218345407,0.017380194063784594,0.748832838040981
1592262271.9807615,-2.9575910089814634,9.047056181922416,0.864696636728454,-0.19555555555555557,-0.7333333333333333,-0.07444444444444444,-0.006603325276910935,0.009246812868775794,0.7827733062281298
1592262271.9907615,-2.86,9.14,1.19,-0.19555555555555557,-0.7333333333333333,-0.07444444444444444,0.014180800172453926,-0.00545415391248228,0.7984881327874057
1592262272.0007615,-2.4898792735416593,9.692560450712111,1.1662319347727195,-0.2064734265707076,-0.7333333333333333,-0.06898550893686842,0.06197974005350056,-0.03282504767066259,0.758612211757439
1592262272.0107615,-2.178740129969953,9.25832017329327,0.8433901660727179,-0.23555555555555555,-0.7333333333333333,-0.05444444444444444,0.0648967965307018,-0.02255290673711065,0.7124499314712577
1592262272.0207615,-2.245150261109469,9.797475613360923,0.9401202088875751,-0.23555555555555555,-0.7333333333333333,-0.05444444444444444,0.06436557254503573,-0.0005945882243344556,0.6699667917851689
1592262272.0307615,-2.0762806448535724,9.758044929886484,0.6684911284937518,-0.23555555555555555,-0.7333333333333333,-0.05444444444444444,0.051510173137224675,0.002596667371373861,0.5989716135096091
1592262272.0407615,-2.019646410474535,9.550974590376152,0.664956910899878,-0.23555555555555555,-0.7333333333333333,-0.05444444444444444,0.040795142733673725,0.002596780029360483,0.5454925325159771
1592262272.0507615,-2.1131093157932366,9.889915993422465,1.0166386644741545,-0.24003733625668278,-0.728851552632206,-0.05145659064369295,0.044751553170567324,0.014584119782926539,0.5005355463326684
1592262272.0607615,-2.06,9.87,1.01,-0.24888888888888888,-0.72,-0.04555555555555556,0.05126904677733343,0.02399827721492203,0.4636030825609938
1592262272.0707614,-2.2230644643143975,9.993871071371206,0.9738721422069925,-0.24888888888888888,-0.72,-0.04555555555555556,0.09583468521041245,0.016943036957953666,0.37334575667804865
1592262272.0807614,-2.165629383097587,10.029412575775586,0.7883216450731012,-0.24888888888888888,-0.72,-0.04555555555555556,0.12216389363351199,0.005087241640010096,0.2899771559934067
1592262272.0907614,-1.9059725920403308,9.945416977313878,0.7949309475627507,-0.24888888888888888,-0.72,-0.04555555555555556,0.11242376930512574,-0.02399068667161357,0.20477326246770744
1592262272.1007614,-1.4552889451916986,9.540562241514214,0.4340031297738366,-0.24888888888888888,-0.72,-0.043979987663060806,0.08607739648798668,-0.038635056766221205,0.10317635901196125
1592262272.1107614,-1.02,9.09,0.35,-0.24888888888888888,-0.72,-0.03888888888888889,0.061086523819801536,-0.04363323129985824,0.006544984694978735
1592262272.1207614,-1.9163395621406458,10.208824082264485,0.7537931225121628,-0.24888888888888888,-0.72,-0.03888888888888889,0.018271174379309557,-0.02727173447243572,-0.1491592893585924
1592262272.1307614,-1.5320887690401572,9.681998396618322,0.4254770060491218,-0.24888888888888888,-0.72,-0.03888888888888889,0.0252694158623483,-0.022328839447875674,-0.28872027424270896
1592262272.1407614,-1.9399051622132348,9.719812267099941,0.44364427882662527,-0.24888888888888888,-0.72,-0.03888888888888889,0.021561800137503417,-0.02716880097488065,-0.4127212197383539
1592262272.1507614,-2.3264187541956685,9.952454863442037,0.6365728014698089,-0.2540040121384855,-0.7189343493230007,-0.040167669701288045,0.005574132579970231,-0.039928345547117564,-0.5098254326930093
1592262272.1607614,-1.89,9.71,0.58,-0.27555555555555555,-0.7144444444444444,-0.04555555555555556,0.015271630954950384,-0.061086523819801536,-0.5988660995905543
1592262272.1707613,-2.1626360878101014,9.483501695520257,1.061318043905051,-0.27555555555555555,-0.7144444444444444,-0.04555555555555556,0.04698583731270497,-0.07117724394690889,-0.7301048407519026
1592262272.1807613,-1.9,8.82,0.93,-0.27555555555555555,-0.7144444444444444,-0.04555555555555556,0.044724062082354694,-0.0839939702522271,-0.7821256710499589
1592262272.1907613,-2.5148366269599856,9.696601448279921,0.6252501128402378,-0.27555555555555555,-0.7144444444444444,-0.04555555555555556,0.11071338401202102,-0.04414894463426023,-0.809790926741064
1592262272.2007613,-2.416946654282599,9.393825869240398,1.330067439324799,-0.27278152440693326,-0.7144444444444444,-0.044515293874822205,0.11078520244443876,-0.042295275343117736,-0.8617653485930059
1592262272.2107613,-2.13,9.09,1.06,-0.2577777777777778,-0.7144444444444444,-0.03888888888888889,0.11999138607461016,-0.07635815477475191,-0.9621127501618743
1592262272.2207613,-2.4821409477521263,9.478584582152019,0.5343086269744837,-0.2577777777777778,-0.7144444444444444,-0.03888888888888889,0.15209191312023038,-0.012001082574833628,-1.051794091503195
1592262272.2307613,-2.7669372624023043,9.097127340558664,0.4052022384359282,-0.2577777777777778,-0.7144444444444444,-0.03888888888888889,0.1778113416356091,0.045037420616978484,-1.0632525784881075
1592262272.2407613,-3.1828366949784477,9.129671716712439,1.1954629612789407,-0.2577777777777778,-0.7144444444444444,-0.03888888888888889,0.18314571303296828,0.034102235469751205,-1.0559600076081144
1592262272.2507613,-3.380966866168939,9.267099401493182,1.0791713457148147,-0.25488643453103255,-0.7144444444444444,-0.03583691546176892,0.214446684005781,0.01036992592645224,-1.0572118987295207
1592262272.2607613,-3.198188953791593,9.448455721289246,0.420769010117868,-0.23777777777777778,-0.7144444444444444,-0.017777777777777778,0.19559766749891494,-0.045711151864961594,-1.0918931961528517
1592262272.2707613,-3.28,8.58,1.22,-0.23777777777777778,-0.7144444444444444,-0.017777777777777778,0.1461713248545251,-0.08072147790473774,-1.1159198904938745
1592262272.2807612,-3.2838667647940687,9.516395726006488,0.8228168015918446,-0.23777777777777778,-0.7144444444444444,-0.017777777777777778,0.15151864651030855,-0.08718056268610587,-1.119929147797874
1592262272.2907612,-3.3584995877988457,9.267422185582118,0.9093216085005038,-0.23777777777777778,-0.7144444444444444,-0.017777777777777778,0.1077450044802288,-0.08386425361562028,-1.1085591758051114
1592262272.3007612,-3.098096479791395,9.106571056062581,0.5074054758800521,-0.2284687816891207,-0.7144444444444444,-0.01450239026510213,0.11570343977835616,-0.061331142978327466,-1.0764067853698862
1592262272.3107612,-3.36,8.38,0.82,-0.17777777777777778,-0.7144444444444444,0.0033333333333333335,0.11017390903214205,-0.056723200689815706,-1.0275625971116615
1592262272.3207612,-3.642143436833088,9.069570170428928,0.5577588746280321,-0.17777777777777778,-0.7144444444444444,0.0033333333333333335,0.15300340306994445,-0.06298961679757842,-0.9547576345049212
1592262272.3307612,-4.19,9.73,0.16,-0.17777777777777778,-0.7144444444444444,0.0033333333333333335,0.1308996938995747,-0.07199483164476608,-0.9424777960769379
1592262272.3407612,-3.6216118752773183,8.896465652857891,0.5846746803275382,-0.17777777777777778,-0.7144444444444444,0.0033333333333333335,0.08776921894358337,-0.12594829633095933,-0.9750978649774018
1592262272.3507612,-3.961976429675425,8.974387557959815,0.3042291344667697,-0.17588055984887516,-0.7149714494246951,0.0033333333333333335,0.09953725516363768,-0.1399928306407599,-1.003810051869767
1592262272.3607612,-3.79,8.73,0.44,-0.15777777777777777,-0.72,0.0033333333333333335,0.07090400086226964,-0.13308135546456762,-1.0373800741541295
1592262272.3707612,-4.061122803965907,8.883080970603583,0.8039689511219342,-0.15777777777777777,-0.72,0.0033333333333333335,0.07158470279864222,-0.14425169795827936,-1.1249598019516025
1592262272.3807611,-3.8555076318500947,8.81,0.11237557807969713,-0.15777777777777777,-0.72,0.0033333333333333335,0.06741001233547672,-0.12461384457415173,-1.197925465967723
1592262272.3907611,-3.97888541458763,8.735378661876567,0.024366974918501767,-0.15777777777777777,-0.72,0.0033333333333333335,0.04683370796332809,-0.1086179396630392,-1.245523931039037
1592262272.4007611,-4.6190525897565555,8.13393989742108,0.4632420718052445,-0.1545857914549672,-0.7212634945861125,0.004197829629094528,0.03767582008820572,-0.10393632380855815,-1.2620912153483996
1592262272.410761,-4.29,8.51,0.2,-0.10444444444444445,-0.7411111111111112,0.017777777777777778,0.04690572364734761,-0.0916297857297023,-1.2620912153483996
1592262272.420761,-4.47344672710638,8.486481188832515,0.21881504893398765,-0.10444444444444445,-0.7411111111111112,0.017777777777777778,0.04100506371382849,-0.09983939955025065,-1.258756059733802
1592262272.430761,-5.031939798525088,8.358099725261484,0.570641538535692,-0.10444444444444445,-0.7411111111111112,0.017777777777777778,0.008606584945476508,-0.14389812540972663,-1.2494201329707402
1592262272.440761,-4.96,8.26,1.12,-0.10444444444444445,-0.7411111111111112,0.017777777777777778,-0.016362461737446838,-0.17671458676442586,-1.2522737383059315
1592262272.450761,-4.96,8.26,1.12,-0.10444444444444445,-0.7411111111111112,0.017777777777777778,-0.016362461737446838,-0.17671458676442586,-1.2522737383059315
1592262272.460761,-5.489293704058805,7.829792265899648,1.158255033557047,-0.08444444444444445,-0.7266666666666667,0.03111111111111111,-0.043470077318967106,-0.16679740451141317,-1.2216806237907583
1592262272.470761,-5.3326751715206795,7.809575400214918,0.7759129859752569,-0.08444444444444445,-0.7266666666666667,0.03111111111111111,-0.00712861658362162,-0.14312927362817204,-1.2157228069381139
1592262272.480761,-5.347802224371373,7.958051916652013,0.8719480833479867,-0.08444444444444445,-0.7266666666666667,0.03111111111111111,-0.015856823211596923,-0.125151325451045,-1.2441595215051937
1592262272.490761,-5.336907781649245,7.989896399535424,0.7924743321718932,-0.08444444444444445,-0.7266666666666667,0.03111111111111111,-0.015091726226594406,-0.07468250693162785,-1.2611690895914516
1592262272.500761,-5.624322067363531,7.73171068524971,0.8460600464576075,-0.08444444444444445,-0.7266666666666667,0.03111111111111111,-0.028376486827711957,-0.05342688996983977,-1.2712655076483008
1592262272.510761,-5.888028442515278,7.4876594894054485,0.9137163744360044,-0.07534118961042258,-0.7252293106402422,0.03111111111111111,-0.025158698378596654,-0.029176997756599758,-1.2807204420176157
1592262272.520761,-5.99,7.37,1.0,-0.042222222222222223,-0.72,0.03111111111111111,0.02617993877991494,-0.004363323129985824,-1.2849986617808251
1592262272.530761,-6.319919062668619,7.454991906266862,0.7449433438680336,-0.042222222222222223,-0.72,0.03111111111111111,0.058082766165972737,0.008723114702670726,-1.2364822957501644
1592262272.540761,-6.3756297278328,7.420331435701474,0.8127485767761053,-0.042222222222222223,-0.72,0.03111111111111111,0.07438954676156141,0.014729830966358015,-1.178982253132178
1592262272.550761,-6.160658519373877,7.310221003335899,0.7173928663074159,-0.03751165426396373,-0.7193960810309925,0.03268130043053061,0.0975341487671006,0.014750078361805266,-1.1444945415391485
1592262272.560761,-6.74,7.64,0.86,0.0011111111111111111,-0.7144444444444444,0.04555555555555556,0.06544984694978735,0.028361600344907853,-1.1104657365813921
1592262272.570761,-6.758211721970767,7.410114452100211,0.8382117219707671,0.0011111111111111111,-0.7144444444444444,0.04555555555555556,0.04729586539173747,0.03975524248723246,-1.0685740859525246
1592262272.580761,-6.57,7.47,0.65,0.0011111111111111111,-0.7144444444444444,0.04555555555555556,0.08835729338221293,0.04908738521234052,-1.0013826583317464
1592262272.590761,-7.305749452309722,7.445582907352006,0.6794369979505783,0.0011111111111111111,-0.7144444444444444,0.04555555555555556,0.1598841195373178,0.08196455886711905,-0.7348990528462565
1592262272.600761,-6.911518041829464,7.274422546541025,0.4116501953573891,0.007576100002553692,-0.7133920043923492,0.04751008708087541,0.25662966218424066,0.07349607152653782,-0.4347554219587738
1592262272.610761,-6.429685889978395,7.65438282010494,0.6006208599444431,0.04888888888888889,-0.7066666666666667,0.06,0.37820910187144835,0.06401798101109267,-0.16516328988850948
1592262272.620761,-6.488403427913006,7.30635772240626,0.5759371549282251,0.04888888888888889,-0.7066666666666667,0.06,0.4643059506742918,0.07361125548180834,0.01751163355848096
1592262272.630761,-6.51,7.04,0.18,0.04888888888888889,-0.7066666666666667,0.06,0.4941463444708945,0.08617563181722002,0.11017390903214205
1592262272.640761,-6.7469237092686045,7.2426374078049,0.5054942570730482,0.04888888888888889,-0.7066666666666667,0.06,0.49533292465461765,0.07598634121801169,0.15601273924729986
1592262272.650761,-7.056109239653513,7.2729857435033685,0.4088194778633301,0.04888888888888889,-0.7050926371511068,0.0627545516522297,0.42911340039506,-0.004552728992213689,0.1478604261891998
1592262272.6607609,-7.55,7.37,0.4,0.04888888888888889,-0.6933333333333334,0.08333333333333333,0.358883327441334,0.002181661564992912,0.19307704850187268
1592262272.6707609,-7.183876055213324,7.42786704312115,0.48071098562628334,0.04888888888888889,-0.6933333333333334,0.08333333333333333,0.27745880125763106,-0.05099385030511225,0.2781468546575989
1592262272.6807609,-6.87,7.67,0.4,0.04888888888888889,-0.6933333333333334,0.08333333333333333,0.23343778745424157,-0.09599310885968812,0.33488505022641196
1592262272.6907609,-6.50819143016138,7.19867000556483,0.4966889259877574,0.04888888888888889,-0.6933333333333334,0.08333333333333333,0.20829647497864018,-0.1001069431462649,0.3983954401088225
1592262272.7007608,-6.564328349173679,7.440205218233549,0.37412313094012956,0.04839914980056635,-0.6926803478822366,0.08409514969294617,0.18684394671661797,-0.08809018214574595,0.4492930520573245
1592262272.7107608,-6.26,7.25,0.26,0.03888888888888889,-0.68,0.09888888888888889,0.15053464798451094,-0.08290313946973066,0.4679664056909796
1592262272.7207608,-6.512112091606261,7.472328500892951,0.33857390482193506,0.03888888888888889,-0.68,0.09888888888888889,0.08921773071075317,-0.04582079451263963,0.48221613481770087
1592262272.7307608,-6.899580829326923,7.377904146634615,0.16001201923076924,0.03888888888888889,-0.68,0.09888888888888889,0.03922287264785071,-0.04245357385208037,0.5190551769483692
1592262272.7407608,-6.814987545961333,7.166996402166607,0.35300083026924445,0.03888888888888889,-0.68,0.09888888888888889,0.01188942155093664,-0.07875894855837705,0.5477073736585782
1592262272.7507608,-6.441873443245167,7.059207883604159,0.3778751037836556,0.03888888888888889,-0.68,0.09888888888888889,-0.0071041147182925105,-0.10770148001625005,0.5847899920889781
1592262272.7607608,-6.645519724873527,7.363642684476786,0.31297679866424105,0.03888888888888889,-0.68,0.10666666666666667,-0.019470950244360005,-0.12767452969503962,0.6341700398662609
1592262272.7707608,-6.5,7.67,0.29,0.03888888888888889,-0.68,0.10666666666666667,-0.001090830782496456,-0.13853550937704992,0.667588438887831
1592262272.7807608,-5.9139881077667855,7.426773837086929,0.23322616291307094,0.03888888888888889,-0.68,0.10666666666666667,-0.021775058004879267,-0.1403652511605502,0.673125708090413
1592262272.7907608,-5.9330694458362565,7.3828419681330795,0.35215953502354946,0.03888888888888889,-0.68,0.10666666666666667,-0.03298530617094604,-0.12404469857235227,0.6559115539277094
1592262272.8007607,-6.239133174493699,7.643120571822685,0.45722615837983577,0.038638472631512946,-0.6796725325865084,0.10682076897889803,-0.04995128160795859,-0.09589855286515546,0.6468626540203983
1592262272.8107607,-6.19,7.82,0.3,0.024444444444444446,-0.6611111111111111,0.11555555555555555,-0.0370882466048795,-0.09053895494720585,0.6468626540203983
1592262272.8207607,-6.150998036822836,7.847796466281106,0.09259882209370192,0.024444444444444446,-0.6611111111111111,0.11555555555555555,-0.052327002731769295,-0.10387612220802034,0.6539314944702651
1592262272.8307607,-5.976999976366601,7.46259612884929,-0.004711554368633741,0.024444444444444446,-0.6611111111111111,0.11555555555555555,-0.036924620698503094,-0.09802792732357499,0.694695582543866
1592262272.8407607,-6.242977650881166,7.853708969183814,0.26814925667027667,0.024444444444444446,-0.6611111111111111,0.11555555555555555,-0.05692549357766747,-0.1117491000419752,0.7176050654374239
1592262272.8507607,-5.367530570050212,7.539869449640642,0.2020777788717141,0.024444444444444446,-0.6611111111111111,0.11555555555555555,-0.039808203143587954,-0.13877640072736394,0.7167041554145775
1592262272.8607607,-5.671827649581377,7.748704587224089,0.4488707371860323,0.006009575023256872,-0.6611111111111111,0.12058324721587943,-0.044205832915056226,-0.13962634015954636,0.7224344029695526
1592262272.8707607,-5.4913432760364005,7.784862992922144,0.1983114256825076,0.0,-0.6611111111111111,0.12222222222222222,-0.0706043808601815,-0.16214206914768112,0.7384081181997246
1592262272.8807607,-6.040534741706552,8.211594086718694,0.36159408671869475,0.0,-0.6611111111111111,0.12222222222222222,-0.06994817045176582,-0.1689243271578183,0.7610715541671217
1592262272.8907607,-5.654221407743399,8.111208083589826,0.2645705086667747,0.0,-0.6611111111111111,0.12222222222222222,-0.08436075393000439,-0.16432010372668132,0.7753647246556348
1592262272.9007607,-5.4588769641989305,8.19614045034829,0.37498258545277824,0.0,-0.6611111111111111,0.12222222222222222,-0.08714015913271675,-0.13652605169955784,0.7985264346782377
1592262272.9107606,-5.31394318526645,8.174142993861022,0.2698001914054294,0.0,-0.6666666666666666,0.1288888888888889,-0.07946547312336044,-0.14303131290108181,0.8318301607847098
1592262272.9207606,-5.5249682325760485,8.264968232576049,0.4024205814401232,0.0,-0.6666666666666666,0.1288888888888889,-0.0903688145375659,-0.1561312199994923,0.8374732047522799
1592262272.9307606,-5.496135968824827,8.275236396074934,0.4730564815249542,0.0,-0.6666666666666666,0.1288888888888889,-0.1318923965174032,-0.1423351589264847,0.8566771101331699
1592262272.9407606,-5.082845497286064,8.122845497286063,0.43509675336467646,0.0,-0.6666666666666666,0.1288888888888889,-0.16261564457296637,-0.09468670478709763,0.9015003379071762
1592262272.9507606,-5.192867693052725,8.232867693052725,1.0783034363082389,0.0,-0.6666666666666666,0.1288888888888889,-0.18200277961837139,-0.09284031097324953,0.9522761677879988
1592262272.9607606,-4.62,8.42,0.48,-0.057777777777777775,-0.6611111111111111,0.12444444444444444,-0.1538071403320003,-0.07199483164476608,0.9959285044192642
1592262272.9707606,-4.026449044585987,8.16279458598726,0.5195700636942675,-0.057777777777777775,-0.6611111111111111,0.12444444444444444,-0.16891462557206866,-0.052570922050392495,0.9819001252677723
1592262272.9807606,-5.192768752243091,8.443644694341428,0.8703419069266659,-0.057777777777777775,-0.6611111111111111,0.12444444444444444,-0.138212527419079,-0.03652418308361348,0.9863794090716499
1592262272.9907606,-3.9284933599717946,8.3864155599953,0.600285579974145,-0.057777777777777775,-0.6611111111111111,0.12444444444444444,-0.09032787810111577,-0.04802770637251025,0.9572096523216167
1592262273.0007606,-3.731323304736162,8.353553884122693,0.41954636267481493,-0.057777777777777775,-0.6611111111111111,0.12444444444444444,-0.09839334681252408,-0.028312116189067725,0.922259287905514
1592262273.0107605,-4.85,8.33,0.9,-0.06555555555555556,-0.6411111111111111,0.10777777777777778,-0.11780972450961724,-0.042542400517361786,0.8759371183446542
1592262273.0207605,-4.2011825422626785,8.349367685305591,0.6191685630689207,-0.06555555555555556,-0.6411111111111111,0.10777777777777778,-0.10302091738768668,0.006049394311838686,0.9266415999055589
1592262273.0307605,-4.84121875,8.86603125,1.0456093750000002,-0.06555555555555556,-0.6411111111111111,0.10777777777777778,-0.10453397300201585,0.01868388599644711,0.9802086101896317
1592262273.0407605,-3.795036229297544,8.646048864934324,0.5472333666476299,-0.06555555555555556,-0.6411111111111111,0.10777777777777778,-0.11533711373623609,-0.021016734075820897,0.9422381255714533
1592262273.0507605,-4.086972444317533,8.833187464306112,0.981394917190177,-0.06555555555555556,-0.6411111111111111,0.10777777777777778,-0.137383860573342,0.0010300127612850214,0.926723748167564
1592262273.0607605,-3.47,8.6,0.59,-0.09888888888888889,-0.6411111111111111,0.11555555555555555,-0.1287180323345818,0.05563236990731925,0.9457502884244272
1592262273.0707605,-3.7149764977990003,9.186193762590465,0.9924613892412146,-0.09888888888888889,-0.6411111111111111,0.11555555555555555,-0.1411250421997076,0.053723599158838356,0.9677011520319575
1592262273.0807605,-2.991700865852212,7.427084568853043,0.7398493654370775,-0.09888888888888889,-0.6411111111111111,0.11555555555555555,-0.1675982379404785,0.01782164683589246,0.950745778462642
1592262273.0907605,-4.289319187503332,10.860192283769614,2.263103552451529,-0.09888888888888889,-0.6411111111111111,0.11555555555555555,-0.20215295989323065,0.015663621309713244,0.9606724991655109
1592262273.1007605,-3.640842885322813,9.839028451600292,0.5114721615041493,-0.09888888888888889,-0.6411111111111111,0.11555555555555555,-0.08100432896385176,0.09046680282315524,0.998074089922232
1592262273.1107605,-3.3,10.02,0.41,-0.13333333333333333,-0.6266666666666667,0.10111111111111111,-0.11562806294462433,0.08290313946973066,1.014472627721704
1592262273.1207604,-3.4973342048966005,8.46706560494414,1.4481495127169004,-0.13333333333333333,-0.6266666666666667,0.10111111111111111,-0.003319423740793817,0.058569600975567376,0.9648696454066787
1592262273.1307604,-3.201446680512784,9.968528491966865,0.4304822268375946,-0.13333333333333333,-0.6266666666666667,0.10111111111111111,-0.011473110728866911,0.05923430674451624,0.8970034672020003
1592262273.1407604,-3.215333720150133,9.1466154738808,0.44338452611920004,-0.13333333333333333,-0.6266666666666667,0.10111111111111111,-0.0012138956249960109,0.08738952744221602,0.8591887092797091
1592262273.1507604,-2.9187340211419555,9.078169389494297,0.5118306105057026,-0.13333333333333333,-0.6266666666666667,0.10111111111111111,-0.0037026654846675777,0.0898782973018876,0.8293234709636503
1592262273.1607604,-3.52,9.78,1.4,-0.14666666666666667,-0.6222222222222222,0.12222222222222222,-0.042542400517361786,0.09053895494720585,0.8028514559173915
1592262273.1707604,-2.929756475704292,9.54214066931367,1.0035677821894498,-0.14666666666666667,-0.6222222222222222,0.12222222222222222,-0.03389359119014002,0.09918776427442759,0.7845928584488123
1592262273.1807604,-2.67,8.95,0.61,-0.14666666666666667,-0.6222222222222222,0.12222222222222222,-0.05781403147231216,0.08944812416470939,0.7864889941799448
1592262273.1907604,-3.136102763940222,9.020355134179656,0.7595046601317692,-0.14666666666666667,-0.6222222222222222,0.12222222222222222,-0.03479036765136094,0.09040744349058236,0.7874483135058177
1592262273.2007604,-2.973034406387815,9.166179356167312,0.6816482427680531,-0.14666666666666667,-0.6222222222222222,0.12222222222222222,0.005503065719565638,0.10291800775119345,0.772724961597656
1592262273.2107604,-3.01,9.31,0.76,-0.18666666666666668,-0.6222222222222222,0.10777777777777778,0.015271630954950384,0.10253809355466686,0.7537640707050511
1592262273.2207603,-2.769562715765247,9.49891500904159,0.9918502383692257,-0.18666666666666668,-0.6222222222222222,0.10777777777777778,0.030258853292271407,0.0912976768016761,0.7359667441794824
1592262273.2307603,-2.9387218401707376,9.545902300213422,0.17058264168840406,-0.18666666666666668,-0.6222222222222222,0.10777777777777778,-0.0020750358954304176,0.06910577265485189,0.7052139008991817
1592262273.2407603,-2.55,9.06,0.88,-0.18666666666666668,-0.6222222222222222,0.10777777777777778,-0.03599741582238304,0.044724062082354694,0.6861325621902707
1592262273.2507603,-2.5843634525232098,8.985545852866379,0.9200906946104115,-0.18666666666666668,-0.6222222222222222,0.10777777777777778,-0.032248944641865764,0.03847661011482589,0.6823840910097535
1592262273.2607603,-2.53,9.5,0.8,-0.2,-0.6,0.10777777777777778,-0.05235987755982988,0.03381575425739013,0.681769239060285
1592262273.2707603,-2.6550190260214475,9.41963062612907,0.6928408348387594,-0.2,-0.6,0.10777777777777778,-0.019240331364220646,0.028945232758035833,0.6924843863588643
1592262273.2807603,-2.2113745900470554,9.08246280716764,0.7984535861970626,-0.2,-0.6,0.10777777777777778,-0.02934622043022555,0.04252990514122311,0.6968846778135018
1592262273.2907603,-2.45,9.51,0.53,-0.2,-0.6,0.10777777777777778,-0.01090830782496456,0.04036073895236887,0.6697701004528239
1592262273.3007603,-2.3248089688293416,9.368479703894039,0.6715202961059619,-0.2,-0.6,0.10777777777777778,-0.010314558996732264,0.05104821786055017,0.6697701004528239
1592262273.3107603,-2.71,9.92,0.53,-0.21444444444444444,-0.6077777777777778,0.10777777777777778,-0.007635815477475192,0.05017821599483697,0.6664976081053345
1592262273.3207603,-2.619636192271442,9.97750424128181,0.8750254476908577,-0.21444444444444444,-0.6077777777777778,0.10777777777777778,-0.01211634379992529,0.049282110330346955,0.6629131854473745
1592262273.3307602,-2.187113001664509,9.292024359956669,0.5666049301170442,-0.21444444444444444,-0.6077777777777778,0.10777777777777778,-0.0012940448131810844,0.02978496317761552,0.6514107171782794
1592262273.3407602,-2.243386902282344,9.207557825963034,0.9946530442217887,-0.21444444444444444,-0.6077777777777778,0.10777777777777778,0.006811384556552218,0.028464654210023223,0.6462870925634788
1592262273.3507602,-2.3639625641122697,9.769812820561349,0.683866987149157,-0.21444444444444444,-0.6077777777777778,0.10777777777777778,0.05969224979031655,0.03302337058187872,0.6310095508208275
1592262273.3607602,-1.92,9.44,0.54,-0.24888888888888888,-0.6,0.12222222222222222,0.05781403147231216,0.028361600344907853,0.607592745850526
1592262273.3707602,-1.742389140271493,9.491803167420814,0.6658076923076923,-0.24888888888888888,-0.6,0.12222222222222222,0.050548654231155336,-0.0031217010334383885,0.5890256706786808
1592262273.3807602,-1.8031784266017843,9.415247364152474,0.43521735604217354,-0.24888888888888888,-0.6,0.12222222222222222,0.039727827077431346,0.017860518318145335,0.5990410925579329
1592262273.3907602,-1.904770793855582,9.822929887513608,0.6501576422206992,-0.24888888888888888,-0.6,0.12222222222222222,0.03557780462632617,0.03661863038524893,0.5984800889556323
1592262273.4007602,-1.5607300283799286,9.849267556306986,0.9102445504498521,-0.24888888888888888,-0.6,0.12222222222222222,0.005507243074410431,0.04248917962054051,0.5746814833693112
1592262273.4107602,-1.5725533032244512,9.971722508139901,0.833292721352799,-0.2600956948966612,-0.5959247978153555,0.10897781512212769,-0.021638686839382228,0.035450339151190884,0.5109486443948769
1592262273.4207602,-1.4539356395816574,9.740548672566373,0.9787417538213998,-0.2611111111111111,-0.5955555555555555,0.10777777777777778,-0.023525876402196493,0.06644651349820346,0.4708949748014132
1592262273.4307601,-1.5231397422032562,9.577337854032093,0.835734077689767,-0.2611111111111111,-0.5955555555555555,0.10777777777777778,0.009798825184760204,0.11439573311168742,0.3823381182178135
1592262273.4407601,-1.5212487348787893,9.636253795363633,0.6599898790303147,-0.2611111111111111,-0.5955555555555555,0.10777777777777778,0.03456714945517463,0.14228696523333167,0.3456549341538242
1592262273.4507601,-1.487223055139097,9.646555388972182,0.7745523904714309,-0.2611111111111111,-0.5955555555555555,0.10777777777777778,0.043863317912684656,0.14899523734699685,0.34075136845354664
1592262273.46076,-1.6569599968029411,9.802967270111498,0.7295236382528074,-0.25072444462205884,-0.5728937377612596,0.12571838353159537,0.04428852316424247,0.15811453348181015,0.3503724671532026
1592262273.47076,-1.4629677987062404,9.730105831430746,0.8189754566210046,-0.24888888888888888,-0.5688888888888889,0.1288888888888889,0.03868015702407494,0.14143022685166273,0.344413423905102
1592262273.48076,-1.2124504249291783,9.517733711048159,0.7962889518413598,-0.24888888888888888,-0.5688888888888889,0.1288888888888889,0.05104964455195878,0.1322717303512133,0.33257978177388403
1592262273.49076,-1.2795910663730734,9.58045847750865,0.7808674111355772,-0.24888888888888888,-0.5688888888888889,0.1288888888888889,0.07337492645671978,0.12293000665381734,0.3185671962277901
1592262273.50076,-1.2760743250549689,9.743182424395343,0.745185812637422,-0.24888888888888888,-0.5688888888888889,0.1288888888888889,0.09349598986875104,0.13660407479182873,0.3235079796653006
1592262273.51076,-1.16,9.73,0.63,-0.2611111111111111,-0.5866666666666667,0.12222222222222222,0.11344640137963141,0.148352986419518,0.3403392041388943
1592262273.52076,-1.0815490218510468,9.672944743164399,0.5943404644777485,-0.2611111111111111,-0.5866666666666667,0.12222222222222222,0.11266843099888746,0.16080051251142127,0.34345108566187005
1592262273.53076,-0.9517993671870947,9.748200632812905,0.3300347528398776,-0.2611111111111111,-0.5866666666666667,0.12222222222222222,0.10066972261899512,0.19502089888481092,0.35444073391732994
1592262273.54076,-1.1298077888546223,9.832307729087475,0.3813461952234096,-0.2611111111111111,-0.5866666666666667,0.12222222222222222,0.06870134623552746,0.23599706334734533,0.3654702721814737
1592262273.55076,-1.1432720046839238,9.732352074942781,0.5043759203732946,-0.2611111111111111,-0.5866666666666667,0.12222222222222222,0.04636817552209098,0.2759443836860327,0.37972953083029126
1592262273.56076,-1.4499137756137148,9.974020761479679,0.5282139717319267,-0.28230179662316,-0.57077365253263,0.11692455084421,0.014550680847603532,0.29863445720476417,0.3887545853603542
1592262273.57076,-1.2761070215175538,9.61838193657984,0.4353690071725179,-0.2877777777777778,-0.5666666666666667,0.11555555555555555,0.0013411988896153103,0.2999784651865254,0.38481068474476204
1592262273.58076,-1.3349819930707514,9.693435220641867,0.27464031728665206,-0.2877777777777778,-0.5666666666666667,0.11555555555555555,0.0,0.2603377610771159,0.38044881729569385
1592262273.59076,-1.4028662827895073,9.661413947536788,0.18856046065259116,-0.2877777777777778,-0.5666666666666667,0.11555555555555555,0.033667099774554725,0.2377983189507469,0.39363707054816444
1592262273.60076,-1.351188054766953,9.741485248140295,0.07544543069680525,-0.2877777777777778,-0.5666666666666667,0.11555555555555555,0.04853657975990735,0.16861428521436647,0.39383311137159005
1592262273.61076,-1.0800270673152361,9.941094068727445,-0.10443040954024792,-0.2937030353749325,-0.5538286085394982,0.11555555555555555,0.015639506062322187,0.10108726122764103,0.4014247437633404
1592262273.62076,-0.925422685029672,10.059661851976262,-0.08262680550890159,-0.29444444444444445,-0.5522222222222222,0.11555555555555555,-0.034615770115116226,0.08281519879529357,0.3964013840925247
1592262273.63076,-0.648226611391302,10.019113305695651,-0.02637110189855034,-0.29444444444444445,-0.5522222222222222,0.11555555555555555,-0.12637336975566937,0.03749305597926109,0.3734402771527127
1592262273.64076,-0.47790809382755584,9.969517252421744,0.04604595308622207,-0.29444444444444445,-0.5522222222222222,0.11555555555555555,-0.16735349285135706,0.02001361410198085,0.36480390735728385
1592262273.65076,-0.46397155803697865,9.862019460290488,0.3679356313468463,-0.29444444444444445,-0.5522222222222222,0.11555555555555555,-0.21554310058744638,0.004582795617802099,0.36062849340191366
1592262273.66076,-0.7370726328519599,9.896711958454862,0.5636487159422352,-0.2988238362855991,-0.5583533707998388,0.11380379881909368,-0.24713218744566914,-0.016966892338916916,0.3559056395430659
1592262273.67076,-0.8555396944653143,9.802028549962435,0.6311703815009599,-0.3,-0.56,0.11333333333333333,-0.25102867454070565,-0.0437410486173702,0.34498764215159117
1592262273.68076,-1.0787951219512195,9.65,0.7426576757532282,-0.3,-0.56,0.11333333333333333,-0.2123950512954586,-0.09693163024225265,0.3237973891623167
1592262273.69076,-1.0762107803700725,9.610579243765084,0.8626307320997586,-0.3,-0.56,0.11333333333333333,-0.176955921008341,-0.12035294865094849,0.31503772200683045
1592262273.70076,-0.9003841118256384,9.639846355269745,0.9200768223651277,-0.3,-0.56,0.11333333333333333,-0.12269485615728037,-0.1524512152806319,0.30326771757414783
1592262273.7107599,-0.6567219535590104,9.72214060189441,1.0685624075776348,-0.3,-0.5703010360186332,0.0955406347556941,-0.046113878417241565,-0.18861894634142656,0.291532711885733
1592262273.7207599,0.23686581703060317,9.642281435181427,1.2754371296371458,-0.3,-0.5722222222222222,0.09222222222222222,-0.02811738317645869,-0.21333998959139247,0.15451185473921664
1592262273.7307599,-2.0497854249926233,9.37481801357187,1.1259957621436043,-0.3,-0.5722222222222222,0.09222222222222222,0.010013682048165634,-0.024196852128979457,-0.02103410701924308
1592262273.7407598,-1.5173059304197103,9.4725215632867,1.2014291609921175,-0.3,-0.5722222222222222,0.09222222222222222,0.050490010555505976,-0.04475183817879316,-0.01037655539201304
1592262273.7507598,-0.3725097416654639,9.638246500216482,1.1843137537884254,-0.3,-0.5722222222222222,0.09222222222222222,0.13009302382748467,-0.09782338720826711,0.0014269433125339709
1592262273.7607598,-0.6196591516187626,9.708156498201376,0.8211618050361507,-0.3164997051758458,-0.5522488949040931,0.108721927398068,0.1775409560611349,-0.06967544186365501,-0.004702146197056793
1592262273.7707598,-0.620056346607782,9.740028173303891,0.7299154800883271,-0.3211111111111111,-0.5466666666666666,0.11333333333333333,0.18763518751224198,-0.07200405133690477,0.0011031237053480115
1592262273.7807598,-0.5776651720598563,9.75,0.692208146507482,-0.3211111111111111,-0.5466666666666666,0.11333333333333333,0.19113625835514214,-0.07696724272072368,0.009703950733652836
1592262273.7907598,-0.5277162456081647,9.685432491216329,0.794922201773465,-0.3211111111111111,-0.5466666666666666,0.11333333333333333,0.20234062368305977,-0.072166568597473,0.011788710651593788
1592262273.8007598,-0.5563367799113738,9.685140324963072,0.8018316100443131,-0.3211111111111111,-0.5466666666666666,0.11333333333333333,0.21300364272215877,-0.06760089435692587,0.012990070559064147
1592262273.8107598,-0.5657229331841959,9.726189755567985,0.7228614665920978,-0.316984607399122,-0.5549196740906449,0.11333333333333333,0.24678567048152517,-0.05999569303730508,0.015946828545918928
1592262273.8207598,-0.52,9.768772252445533,0.6147010446198248,-0.31444444444444447,-0.56,0.11333333333333333,0.2648040271815296,-0.05407453773090137,0.015516582407960595
1592262273.8307598,-0.52,9.843027710442511,0.27486144778744237,-0.31444444444444447,-0.56,0.11333333333333333,0.2629565062928214,-0.0343123288008266,0.014412223871188321
1592262273.8407598,-0.5592083149049093,9.856435607735916,0.20782196132041333,-0.31444444444444447,-0.56,0.11333333333333333,0.25207901579276537,-0.024397837684084617,0.013791985292198565
1592262273.8507597,-0.6562222986088645,9.855244459721773,0.24,-0.31444444444444447,-0.56,0.11333333333333333,0.22480322746321452,-0.02270869448764485,0.01308996938995747
1592262273.8607597,-0.6198977853492333,9.839965928449745,0.28006814310051104,-0.3322525080446716,-0.5548059814499338,0.1326254022335794,0.20432914456322884,-0.051306213073159544,0.01163305059357379
1592262273.8707597,-0.5730161083506972,9.832426270235615,0.2757372976438532,-0.3411111111111111,-0.5522222222222222,0.14222222222222222,0.19509055707679254,-0.0685293152254902,0.009320317669166505
1592262273.8807597,-0.5384888199422275,9.821511180057772,0.1260447202310902,-0.3411111111111111,-0.5522222222222222,0.14222222222222222,0.17628313267189463,-0.09776910788055376,0.004363323129985824
1592262273.8907597,-0.457662635629272,9.882550786291286,-0.01893289039720855,-0.3411111111111111,-0.5522222222222222,0.14222222222222222,0.1532739258108397,-0.10650676546373994,0.0014854820034092076
1592262273.9007597,-0.43973111258207054,9.934865556291035,-0.015492960266203913,-0.3411111111111111,-0.5522222222222222,0.14222222222222222,0.12290911496797849,-0.09501960234619303,-0.003243161280239029
1592262273.9107597,-0.47571452330464425,9.927141906781422,0.08571618643715437,-0.33285679967106935,-0.5522222222222222,0.13396791078218045,0.07401951988897315,-0.059371428146436464,-0.007168342487778673
1592262273.9207597,-0.5275674194684723,9.887801870914712,0.15805393557477787,-0.32666666666666666,-0.5522222222222222,0.12777777777777777,0.04307310726230017,-0.029397439149328637,-0.00590621529747083
1592262273.9307597,-0.558006839799081,9.853089665491076,0.1614620070535428,-0.32666666666666666,-0.5522222222222222,0.12777777777777777,0.004305383309648032,0.02104101479538718,0.004243712957618467
1592262273.9407597,-0.5265711567645927,9.840286529706223,0.17914041088133364,-0.32666666666666666,-0.5522222222222222,0.12777777777777777,-0.01869936328084074,0.04921136964837683,0.008352617485017937
1592262273.9507596,-0.49642780461621044,9.82520397208803,0.25316425120772945,-0.32666666666666666,-0.5522222222222222,0.12777777777777777,-0.03350425561203956,0.06723101025647239,0.010819308212007253
1592262273.9607596,-0.5604452777126787,9.84511131942817,0.3602671666276072,-0.32387652006353673,-0.5594766033903601,0.12777777777777777,-0.04419078975700021,0.085666645623653,0.013637813394384446
1592262273.9707596,-0.5273978201634877,9.786251254840098,0.41302093790334143,-0.3211111111111111,-0.5666666666666667,0.12777777777777777,-0.046144426070548666,0.08315328121951007,0.022555073517242258
1592262273.9807596,-0.6014257523433646,9.795999013320177,0.2720029600394672,-0.3211111111111111,-0.5666666666666667,0.12777777777777777,-0.035779464926028307,0.08355753030915625,0.02187904109184801
1592262273.9907596,-0.7530430927044387,9.74973276771163,0.3277586041606749,-0.3211111111111111,-0.5666666666666667,0.12777777777777777,-0.03333052227284565,0.06318073382292476,0.016847693721991328
1592262274.0007596,-0.7197343360157431,9.714721509646134,0.4377720771690621,-0.3211111111111111,-0.5666666666666667,0.12777777777777777,-0.03027125378421658,0.020306081236074695,0.011666373311651488
1592262274.0107596,-0.6122928135694093,9.724426796607649,0.519841169468829,-0.31815991337267935,-0.5602724049000645,0.1317127080956868,-0.019294444788450927,-0.029508181815365554,0.004738483872991412
1592262274.0207596,-0.5650670489225932,9.773632664385463,0.4889679089984278,-0.31444444444444447,-0.5522222222222222,0.13666666666666666,-0.001800027157318437,-0.058337505154951036,-0.0023088730342177366
1592262274.0307596,-0.5806302541077569,9.8,0.39711764424914026,-0.31444444444444447,-0.5522222222222222,0.13666666666666666,0.004363323129985824,-0.06727767627156603,-0.004363323129985824
1592262274.0407596,-0.556488726710326,9.756488726710327,0.4445907542108697,-0.31444444444444447,-0.5522222222222222,0.13666666666666666,0.005719421309699888,-0.06710097372034506,0.0003830204990133996
1592262274.0507596,-0.5442985112517453,9.710935318331007,0.5281293633379875,-0.31444444444444447,-0.5522222222222222,0.13666666666666666,0.011224161560161459,-0.05921094446287706,0.0006729496446100771
1592262274.0607595,-0.5512619413454473,9.707476117309106,0.5743690293272763,-0.31444444444444447,-0.5522222222222222,0.12355957868483755,0.023987856425163396,-0.04711741871202475,-0.0007519000610460573
1592262274.0707595,-0.5340997295072327,9.718199459014466,0.603601081971069,-0.31444444444444447,-0.5522222222222222,0.10666666666666667,0.042826429607382616,-0.03456816194165942,-0.00019640855321675574
1592262274.0807595,-0.4573150481838399,9.734228317272054,0.48674425500370644,-0.31444444444444447,-0.5522222222222222,0.10666666666666667,0.05965898292771907,-0.028561087338267288,-0.0017515556397076156
1592262274.0907595,-0.34967966573816156,9.804288300835655,0.33967966573816155,-0.31444444444444447,-0.5522222222222222,0.10666666666666667,0.07575257657154427,-0.006872993561191806,-0.002181661564992912
1592262274.1007595,-0.4090018782371132,9.84,0.262284998766814,-0.31444444444444447,-0.5522222222222222,0.10666666666666667,0.07821249881036722,0.026601068294666127,-0.0032101786726691887
1592262274.1107595,-0.5616241179295821,9.84,0.2043909557764067,-0.31444444444444447,-0.556269011465376,0.11360401965493036,0.06566308024753696,0.05306031126137747,-0.0026606405375414165
1592262274.1207595,-0.6271775988346214,9.83547040019423,0.19226479990288511,-0.31444444444444447,-0.56,0.12,0.05312005591681422,0.05573499530971088,0.00014442594263458096
1592262274.1307595,-0.7260810378816133,9.80175688635516,0.19391896211838672,-0.31444444444444447,-0.56,0.12,0.025811494976535097,0.03312306595853649,0.002373308136748576
1592262274.1407595,-0.688988157576734,9.793154757109482,0.197886892773705,-0.31444444444444447,-0.56,0.12,0.017339666144226874,0.017628609317742412,0.001262896090812581
1592262274.1507595,-0.4897037828115339,9.802118486875386,0.3109336181215221,-0.31444444444444447,-0.56,0.12,0.009618698255617814,0.00710900877278127,-0.0008274274301494954
1592262274.1607594,-0.5044201987426485,9.778315149056986,0.4277899006286757,-0.31444444444444447,-0.5625966335428919,0.11177732711417562,0.011884547176649178,0.02273555928620782,-0.004604407572647482
1592262274.1707594,-0.4667331454584869,9.76,0.43834164318231084,-0.31444444444444447,-0.5666666666666667,0.09888888888888889,0.019448616634988838,0.03616199813858021,-0.003634289680509003
1592262274.1807594,-0.614563238322315,9.790651891188903,0.22565405874065242,-0.31444444444444447,-0.5666666666666667,0.09888888888888889,0.022883742999902486,0.060137913632443606,-0.011026824987580001
1592262274.1907594,-0.8443769291599704,9.801717303130022,0.08484809060993342,-0.31444444444444447,-0.5666666666666667,0.09888888888888889,0.01383928423679976,0.05856334631915445,-0.01569768411968606
1592262274.2007594,-0.8025328130542746,9.810352962043277,0.10563320326356863,-0.31444444444444447,-0.5666666666666667,0.09888888888888889,0.0071594718473747525,0.04574543414705827,-0.014749239484084752
1592262274.2107594,-0.5071904144535988,9.944737150265569,-0.010175233156287902,-0.31783618882987374,-0.5666666666666667,0.11358644789241586,-0.02545229246730491,-0.01146328070226243,-0.014238145088751784
1592262274.2207594,-0.63,9.92095139494333,-0.004918991572217377,-0.3211111111111111,-0.5666666666666667,0.12777777777777777,-0.05568538979931941,-0.018908486461588797,-0.016466242826496467
1592262274.2307594,-0.5872115361977635,9.88395432607416,0.008605768098881694,-0.3211111111111111,-0.5666666666666667,0.12777777777777777,-0.09254230837510934,-0.05007595141153148,-0.0106801771636128
1592262274.2407594,-0.6126826454453418,9.864776446212888,0.03701198408400631,-0.3211111111111111,-0.5666666666666667,0.12777777777777777,-0.12067419226168077,-0.07124540395580495,-0.010484822109978944
1592262274.2507594,-0.5690414373061269,9.894947194778648,0.0722339567158559,-0.3211111111111111,-0.5666666666666667,0.12777777777777777,-0.1450051719629864,-0.09548269448483332,-0.01520782915809353
1592262274.2607594,-0.5059634458932353,9.888932352613395,0.12397563059549017,-0.32272665733826994,-0.5589120447763042,0.12616223155061893,-0.1705029013445329,-0.12851728283807423,-0.02520557026083447
1592262274.2707593,-0.770191570881226,9.788306513409962,0.29811494252873566,-0.32666666666666666,-0.54,0.12222222222222222,-0.213701691204798,-0.14662437488066538,-0.044744959223781834
1592262274.2807593,-0.6923652706362602,9.815275738901754,0.34149507398830314,-0.32666666666666666,-0.54,0.12222222222222222,-0.22700442484388691,-0.15075789215375912,-0.04450081791310649
1592262274.2907593,-0.4697684445863941,9.757297987863302,0.5372516767805813,-0.32666666666666666,-0.54,0.12222222222222222,-0.22451969708217098,-0.15054475149543153,-0.031039553334259184
1592262274.3007593,-0.4855170387779083,9.76539365452409,0.5821210340775559,-0.32666666666666666,-0.54,0.12222222222222222,-0.20742320375181436,-0.15989579628600517,-0.02668241312390861
1592262274.3107593,-0.447902990926403,9.75048392517083,0.6734838131511146,-0.31873119002277733,-0.5479354766438894,0.1279533997983645,-0.19482589695701882,-0.179814662596389,-0.026577559858243997
1592262274.3207593,-0.8334541482949719,9.659577686986772,0.7721115650661381,-0.30666666666666664,-0.56,0.13666666666666666,-0.19379934165662713,-0.17116829844500808,-0.03347025023138199
1592262274.3307593,-0.53,9.64,0.8502504312983471,-0.30666666666666664,-0.56,0.13666666666666666,-0.15947983677979266,-0.16851286753301714,-0.01799187845696308
1592262274.3407593,-0.6046697462935643,9.611280866810167,0.9276450528454301,-0.30666666666666664,-0.56,0.13666666666666666,-0.1205051558440816,-0.17518203639426072,-0.016664460430634662
1592262274.3507593,-0.6547745716862038,9.594180342651036,0.9989549143372407,-0.30666666666666664,-0.56,0.13666666666666666,-0.10300973770273453,-0.1792382518128038,-0.015309631341993167
1592262274.3607593,-0.46842999083926434,9.675358325699387,1.015034176590797,-0.30435722171329244,-0.5549962026010226,0.12627416437648276,-0.04694108282992447,-0.17284267940447032,-0.015606697643760336
1592262274.3707592,-0.39,9.61,1.1,-0.3,-0.5455555555555556,0.10666666666666667,-0.030543261909900768,-0.14289883250703572,-0.014180800172453926
1592262274.3807592,-0.3360451147540984,9.672090229508198,0.9797744262295083,-0.3,-0.5455555555555556,0.10666666666666667,0.03844399547826474,-0.05140478189161968,-0.005885564969229337
1592262274.3907592,-0.46492588041517424,9.724996470495961,0.7900494130565505,-0.3,-0.5455555555555556,0.10666666666666667,0.07525885379061878,0.027791159357914885,-0.002182431583323519
1592262274.4007592,-0.57,9.73,0.72,-0.3,-0.5455555555555556,0.10666666666666667,0.08726646259971647,0.06326818538479445,-0.001090830782496456
1592262274.4107592,-0.6899418996295049,9.789298164365107,0.45,-0.30951274278657237,-0.5530864769282586,0.11657577373601288,0.09864679630808028,0.06405278260137282,0.001090830782496456
1592262274.4207592,-0.752696779802224,9.780238707574165,0.446587097475278,-0.32666666666666666,-0.5666666666666667,0.13444444444444445,0.09014062607705166,0.048558861557228675,0.0012769757390777869
1592262274.4307592,-0.635362548729668,9.80439575211722,0.424879150423444,-0.32666666666666666,-0.5666666666666667,0.13444444444444445,0.07675856108402532,0.00747762375168447,0.002181661564992912
1592262274.4407592,-0.648848608936529,9.78,0.420767594042314,-0.32666666666666666,-0.5666666666666667,0.13444444444444445,0.07069467205981539,0.000986166381269328,0.0020979300440112096
1592262274.4507592,-0.5740889680361978,9.792728825571041,0.4663644127855209,-0.32666666666666666,-0.5666666666666667,0.13444444444444445,0.05860719356151304,-0.005751822605777864,-0.001487411827096892
1592262274.4607592,-0.5417700956267756,9.818229904373224,0.4782299043732245,-0.3231264754131157,-0.5641098618724354,0.1370012492386757,0.05370149510967018,-0.0066026839825576705,-0.00019308747976490702
1592262274.4707592,-0.5552438665358195,9.836219332679097,0.3913420019627085,-0.30666666666666664,-0.5522222222222222,0.14888888888888888,0.0390038910457798,0.010708714695036725,5.320342481852187e-05
1592262274.4807591,-0.560242611739803,9.859757388260196,0.3175738826019702,-0.30666666666666664,-0.5522222222222222,0.14888888888888888,0.03339231689103476,0.01750622219073772,0.0010379011117020338
1592262274.4907591,-0.57,9.858655846657676,0.21134415334232326,-0.30666666666666664,-0.5522222222222222,0.14888888888888888,0.006920397754683977,0.02199547008062692,-0.001090830782496456
1592262274.5007591,-0.5864284182688871,9.863428632692445,0.2591423057679937,-0.30666666666666664,-0.5522222222222222,0.14888888888888888,-0.014414466090196896,0.023655458048984147,-0.0018076557567136252
1592262274.510759,-0.6184210145713562,9.851578985428644,0.39263188342914995,-0.3089474233969298,-0.5522222222222222,0.14555547520619652,-0.035480772931978405,0.014869604771127615,-0.0032724923474893677
1592262274.520759,-0.6643732775068899,9.785854621581514,0.5440314288742845,-0.3211111111111111,-0.5522222222222222,0.12777777777777777,-0.059883823333884964,-0.01959766418379617,-0.004890093570664033
1592262274.530759,-0.7190538225568702,9.710264929684078,0.6298864587068245,-0.3211111111111111,-0.5522222222222222,0.12777777777777777,-0.06979252769015978,-0.02296937360126576,-0.0065408562170560566
1592262274.540759,-0.5344990887577183,9.715500911242282,0.6829273998313522,-0.3211111111111111,-0.5522222222222222,0.12777777777777777,-0.05883091969544237,-0.026706052552034863,-0.004951599687768778
1592262274.550759,-0.61,9.64,0.78,-0.3211111111111111,-0.5522222222222222,0.12777777777777777,-0.05235987755982988,-0.011999138607461015,-0.004363323129985824
1592262274.560759,-0.5152291746641074,9.741692130518235,0.7266157389635316,-0.3211111111111111,-0.5535383237364043,0.130221966304116,-0.024854527036053987,0.010572474317263155,0.0003691656114583016
1592262274.570759,-0.59,9.75,0.71,-0.3211111111111111,-0.56,0.14222222222222222,-0.007635815477475192,0.019634954084936207,0.002181661564992912
