time,acc_x,acc_y,acc_z,mag_x,mag_y,mag_z,gyr_x,gyr_y,gyr_z
1592262551.7304947,-0.514852033115309,9.764260165576545,0.7060357681928372,-0.3233333333333333,-0.5777777777777777,0.15444444444444444,-0.03768208404591105,-0.019796360917547287,0.014180800172453926
1592262551.7404947,-0.47236313123059326,9.74376368687694,0.7550547475077627,-0.3233333333333333,-0.5777777777777777,0.15444444444444444,-0.03885935361976793,-0.03945851725107543,0.015823018372871863
1592262551.7504947,-0.42084525635993864,9.741866057730046,0.7935565704499233,-0.3284547043921932,-0.5777777777777777,0.15052810187002216,-0.038179077387375956,-0.06800032117738906,0.018839881789476914
1592262551.7604947,-0.4958785480737336,9.740390465810549,0.83,-0.3422222222222222,-0.5777777777777777,0.14,-0.03261844044347906,-0.08350179637668619,0.018522826696156826
1592262551.7704947,-0.5541031256221381,9.792907293118322,0.7030718694007565,-0.3422222222222222,-0.5777777777777777,0.14,-0.022142728376397136,-0.08668843593582144,0.02001731311295043
1592262551.7804947,-0.5743237266543277,9.83,0.5643237266543278,-0.3422222222222222,-0.5777777777777777,0.14,-0.0154191709115186,-0.08915304425157296,0.02668060973613853
1592262551.7904947,-0.5926824205099817,9.836341210254991,0.5636587897450092,-0.3422222222222222,-0.5777777777777777,0.14,-0.017293534477445714,-0.09266736383136623,0.035784405099052945
1592262551.8004947,-0.6386259693776098,9.85882282759992,0.5529409425333068,-0.3415686794370429,-0.5777777777777777,0.13934645721482072,-0.02538844116103851,-0.09479534238902886,0.046648904469285206
1592262551.8104947,-0.8507370007137381,9.955276375267651,0.58,-0.33555555555555555,-0.5777777777777777,0.13333333333333333,-0.049843835658221446,-0.09325598261513114,0.07657923911770045
1592262551.8204947,-0.8947639328303724,9.970952786566075,0.5780944268678511,-0.33555555555555555,-0.5777777777777777,0.13333333333333333,-0.061779409763416955,-0.09324028096991031,0.0894659108919976
1592262551.8304946,-1.0770517683239365,10.009262942080984,0.5524202972834444,-0.33555555555555555,-0.5777777777777777,0.13333333333333333,-0.09351265694607086,-0.12322910155143255,0.14397769825685897
1592262551.8404946,-1.13482697740113,10.03482697740113,0.6493079096045198,-0.33555555555555555,-0.5777777777777777,0.13333333333333333,-0.11672784917051522,-0.15458703426803833,0.1890137808731456
1592262551.8504946,-1.1575444479101684,10.04526668746101,0.7549111041796631,-0.3371925902821099,-0.5777777777777777,0.14206418520829,-0.14195949654858997,-0.19418361569225762,0.24078269203994057
1592262551.8604946,-1.15,10.0,0.77,-0.3422222222222222,-0.5777777777777777,0.1688888888888889,-0.16253378659197193,-0.23780111058422737,0.2901609881440573
1592262551.8704946,-0.8773593839132915,9.924775242441529,0.7712920707358814,-0.3422222222222222,-0.5777777777777777,0.1688888888888889,-0.19402693623118294,-0.327443319244693,0.38449949400850403
1592262551.8804946,-0.6004776062146351,9.87,0.6948208976695118,-0.3422222222222222,-0.5777777777777777,0.1688888888888889,-0.21099109593442847,-0.38099137704660396,0.45073942368127273
1592262551.8904946,-0.56,9.87,0.71,-0.3422222222222222,-0.5777777777777777,0.1688888888888889,-0.2181661564992912,-0.4025165587411922,0.4777838827334477
1592262551.9004946,-0.5104909053750256,9.851773554056816,0.7735471081136317,-0.3410398528510116,-0.574230669664146,0.1649476576515203,-0.22703271802578537,-0.4248600191295631,0.5276079855840138
1592262551.9104946,-0.42,9.86,0.79,-0.33555555555555555,-0.5577777777777778,0.14666666666666667,-0.23780111058422737,-0.4374231437810788,0.5563236990731926
1592262551.9204946,-0.3131970673183737,9.808959120195512,0.8873605865363253,-0.33555555555555555,-0.5577777777777778,0.14666666666666667,-0.24973941859262005,-0.4369689742884331,0.6026981849788756
1592262551.9304945,-0.25,9.79,0.9,-0.33555555555555555,-0.5577777777777778,0.14666666666666667,-0.2552544031041707,-0.42869649752110717,0.6261368691529657
1592262551.9404945,-0.2693185401322446,9.808783443537191,0.9133821210909006,-0.33555555555555555,-0.5577777777777778,0.14666666666666667,-0.24384445737576993,-0.41225970004358203,0.6705823005521193
1592262551.9504945,-0.0978076923076923,9.794451923076924,1.011849358974359,-0.3404871794871795,-0.5577777777777778,0.1442008547008547,-0.2289174825866465,-0.39355076880967327,0.7234826781079996
1592262551.9604945,0.0,9.77,1.02,-0.3622222222222222,-0.5577777777777778,0.13333333333333333,-0.21380283336930533,-0.38288160465625604,0.7919431480924269
1592262551.9704945,0.09265469280473113,9.732743401598949,0.9646019055963202,-0.3622222222222222,-0.5577777777777778,0.13333333333333333,-0.20984497291326465,-0.3741743116529665,0.8046083015517572
1592262551.9804945,0.15,9.72,0.92,-0.3622222222222222,-0.5577777777777778,0.13333333333333333,-0.20289452554434081,-0.358883327441334,0.8268497331323136
1592262551.9904945,0.2678096157559374,9.671777563236146,1.1768576945356246,-0.3622222222222222,-0.5577777777777778,0.13333333333333333,-0.1797619201803669,-0.30184490424735066,0.8899102415231823
1592262552.0004945,0.2930413319946452,9.618479334002677,1.3312893239625168,-0.36526355421686746,-0.5555812602260896,0.13434711066488175,-0.1559941866875025,-0.2744421914077447,0.9195902003552883
1592262552.0104945,0.31,9.61,1.45,-0.38222222222222224,-0.5433333333333333,0.14,-0.11344640137963141,-0.2476185876266955,0.9501136115544131
1592262552.0204945,0.3098750667378537,9.64,1.487035771489589,-0.38222222222222224,-0.5433333333333333,0.14,-0.04569317175778134,-0.2310272436161461,1.009759633047772
1592262552.0304945,0.2583637836163979,9.644262642624044,1.3801615016316906,-0.38222222222222224,-0.5433333333333333,0.14,0.0030235404471749758,-0.24522320835164246,1.0621849960609793
1592262552.0404944,0.31,9.65,1.34,-0.38222222222222224,-0.5433333333333333,0.14,0.02617993877991494,-0.2596177262341565,1.0941032748439452
1592262552.0504944,0.5256632536973834,9.656953356086461,1.2458661357603338,-0.3842758606160199,-0.5433333333333333,0.13685914128007418,0.0569134859230157,-0.2817432244571953,1.1535307596283733
1592262552.0604944,0.9,9.55,1.13,-0.4011111111111111,-0.5433333333333333,0.1111111111111111,0.07635815477475191,-0.3021601267515183,1.1846422297911512
1592262552.0704944,1.187289168751258,9.545658012018746,0.9770528192299951,-0.4011111111111111,-0.5433333333333333,0.1111111111111111,0.08774010001443452,-0.3057369188273432,1.2162935103057633
1592262552.0804944,1.329185737857809,9.51,0.9077035655355478,-0.4011111111111111,-0.5433333333333333,0.1111111111111111,0.09520667352404226,-0.29391552038034197,1.2316557400514379
1592262552.0904944,1.4,9.51,0.89,-0.4011111111111111,-0.5433333333333333,0.1111111111111111,0.10035643198967394,-0.28361600344907856,1.2380929381334775
1592262552.1004944,1.4813157894736841,9.494736842105263,1.0078947368421052,-0.4065204678362573,-0.5398245614035088,0.1121345029239766,0.1061550587808393,-0.2666794202471599,1.2553739942140791
1592262552.1104944,1.49,9.46,1.06,-0.44222222222222224,-0.5166666666666667,0.11888888888888889,0.11562806294462433,-0.26289021858164585,1.2686362000433782
1592262552.1204944,1.5515519799155542,9.441918007531667,1.0438360150633346,-0.44222222222222224,-0.5166666666666667,0.11888888888888889,0.13925261578242093,-0.2620086099648097,1.3042199640695458
1592262552.1304944,1.6217005730659027,9.427800382043936,1.0156007640878701,-0.44222222222222224,-0.5166666666666667,0.11888888888888889,0.16577403327306373,-0.2587668365492808,1.345889627875818
1592262552.1404943,1.64,9.44,1.04,-0.44222222222222224,-0.5166666666666667,0.11888888888888889,0.1810779098944117,-0.2574360646691636,1.371174293598045
1592262552.1504943,1.707648754612546,9.414900830258302,1.0884986162361625,-0.4439219454694547,-0.5144003690036901,0.12011646678966789,0.20474863598414683,-0.2520529807972845,1.4214174160370434
1592262552.1604943,1.79,9.36,1.18,-0.4622222222222222,-0.49,0.13333333333333333,0.2247111411942699,-0.24107360293171679,1.457349925415265
1592262552.1704943,1.998595191170674,9.241027197477335,1.0348640126133228,-0.4622222222222222,-0.49,0.13333333333333333,0.26540226815344614,-0.23501800869658723,1.4795793110893158
1592262552.1804943,2.148280609185754,9.27,0.8831027701163209,-0.4622222222222222,-0.49,0.13333333333333333,0.30532051429260404,-0.23042830318581292,1.4805203799267515
1592262552.1904943,2.29306366769454,9.254080899691639,0.8434681661527299,-0.4622222222222222,-0.49,0.13333333333333333,0.32163934114682946,-0.22818415012347193,1.4672783652552708
1592262552.2004943,2.4449836569890406,9.212214958661797,0.7655700826764084,-0.46542160695592727,-0.48901557392809075,0.13290264692687304,0.3274908492579612,-0.23900918312934938,1.444931526908898
1592262552.2104943,2.53,9.25,0.69,-0.52,-0.4722222222222222,0.12555555555555556,0.33161255787892263,-0.2596177262341565,1.4191708480278893
1592262552.2204943,2.7,9.271119564918834,0.5911195649188343,-0.52,-0.4722222222222222,0.12555555555555556,0.3264845416066599,-0.2889480317739141,1.343158246344975
1592262552.2304943,2.7,9.15,0.47,-0.52,-0.4722222222222222,0.12555555555555556,0.32070425005395803,-0.3021601267515183,1.2762720155208536
1592262552.2404943,3.2213492753330235,9.239607648925634,0.2926411432960725,-0.52,-0.4722222222222222,0.12555555555555556,0.3272429725763058,-0.2982561031141524,1.1285067251827947
1592262552.2504942,3.3644572613805903,9.379208180197228,0.38772679305702124,-0.5202199499452147,-0.47125444246327763,0.1261274254131137,0.3060052050324712,-0.2463773165885438,1.0282229861705892
1592262552.2604942,3.23,9.36,0.09,-0.5255555555555556,-0.4477777777777778,0.14,0.29343348049154666,-0.18980455615438332,0.9119345341670373
1592262552.2704942,3.5134570616317116,9.325606393820737,0.1327104006865848,-0.5255555555555556,-0.4477777777777778,0.14,0.28689885234049867,-0.1515237856972236,0.7726551674849464
1592262552.2804942,3.7229172081829125,9.536602647412755,0.04727484957882071,-0.5255555555555556,-0.4477777777777778,0.14,0.23725895062058516,-0.08454264107108135,0.6812794547262717
1592262552.2904942,3.81,9.55,-0.08,-0.5255555555555556,-0.4477777777777778,0.14,0.19853120241435498,-0.04581489286485115,0.631591023065448
1592262552.3004942,3.4625120440468,9.173554714384034,0.1130488644184446,-0.5255555555555556,-0.4477777777777778,0.14,0.14483237323678083,-0.014227346289807527,0.5936859671753957
1592262552.3104942,3.76,9.33,0.37,-0.5511111111111111,-0.41333333333333333,0.13111111111111112,0.1112647398146385,0.00545415391248228,0.5606870222031783
1592262552.3204942,3.4463345716207914,9.225116857284933,0.1585362857226431,-0.5511111111111111,-0.41333333333333333,0.13111111111111112,0.0642248440129516,0.07194250290918548,0.5358904126929961
1592262552.3304942,3.3392307692307694,9.101538461538462,0.15615384615384614,-0.5511111111111111,-0.41333333333333333,0.13111111111111112,0.02962025124778838,0.10044034204986599,0.5332484325203829
1592262552.3404942,3.54,9.15,0.17,-0.5511111111111111,-0.41333333333333333,0.13111111111111112,0.025089107997418484,0.10799224746714915,0.5377795757707527
1592262552.3504941,3.19958134342244,8.972487750418656,0.19,-0.5482047041148945,-0.41139572866918894,0.12804323705954918,0.0013702534167277008,0.16322429201690272,0.5476534785945645
1592262552.3604941,3.55,9.34,0.19,-0.5311111111111111,-0.4,0.11,-0.009817477042468103,0.18653206380689397,0.5672320068981571
1592262552.3704941,3.239693779904306,9.233766985645934,0.23462583732057415,-0.5311111111111111,-0.4,0.11,-0.04058428097349003,0.17220935124699469,0.597705695725136
1592262552.380494,3.6610451727192204,9.238595842234147,0.2817472516021466,-0.5311111111111111,-0.4,0.11,-0.06838709908623336,0.12682566002519807,0.6255344484329599
1592262552.390494,3.5426514131897715,8.901945501004544,0.22106169660795444,-0.5311111111111111,-0.4,0.11,-0.09804925477551205,0.07277703308479838,0.6383870390587647
1592262552.400494,4.0575777777777775,9.103343492063491,0.251671746031746,-0.533958377425044,-0.39985763668430335,0.1105694532627866,-0.10249549920982652,0.030430785135883355,0.629704197477667
1592262552.410494,3.73,8.86,0.13,-0.5755555555555556,-0.3977777777777778,0.11888888888888889,-0.11780972450961724,0.044724062082354694,0.6021385919380438
1592262552.420494,4.122611981771701,9.0088835167278,0.0874913860175614,-0.5755555555555556,-0.3977777777777778,0.11888888888888889,-0.09912877753950523,0.0053098131270469095,0.5059785909396308
1592262552.430494,4.357479816142322,9.170296029912596,-0.03721069803996284,-0.5755555555555556,-0.3977777777777778,0.11888888888888889,-0.09545503252619443,-0.01090830782496456,0.4355369409907491
1592262552.440494,4.38,8.84,-0.36,-0.5755555555555556,-0.3977777777777778,0.11888888888888889,-0.08726646259971647,-0.01090830782496456,0.41015237421866746
1592262552.450494,4.3787104270510575,8.522817593964705,0.4723215007409403,-0.5770260227221699,-0.3966622509617256,0.11751983325100664,-0.08588128531885812,0.01151000614625403,0.4010729309761983
1592262552.460494,4.77,9.0,0.73,-0.6077777777777778,-0.37333333333333335,0.08888888888888889,-0.10253809355466686,0.04690572364734761,0.370882466048795
1592262552.470494,4.373263380388012,8.821516569789386,0.23109005812636824,-0.6077777777777778,-0.37333333333333335,0.08888888888888889,-0.10609566600852013,0.08871327296043685,0.335026849170132
1592262552.480494,4.5004699140401145,8.554295128939827,0.454797994269341,-0.6077777777777778,-0.37333333333333335,0.08888888888888889,-0.1378106851407722,0.11350484990579957,0.30532650533091094
1592262552.490494,4.47,8.6,0.63,-0.6077777777777778,-0.37333333333333335,0.08888888888888889,-0.14944381720201447,0.14508049407202864,0.2945243112740431
1592262552.500494,4.655879200231073,8.958763760069322,0.4749449597227125,-0.6081440710905712,-0.37321886667308535,0.08888888888888889,-0.1475543368273908,0.14214513386727304,0.2640035248403246
1592262552.510494,4.46,8.9,0.71,-0.6255555555555555,-0.36777777777777776,0.08888888888888889,-0.16144295580947549,0.15817046346198613,0.2650718801466388
1592262552.520494,4.23146480904432,8.728300584584483,0.41414076382271897,-0.6255555555555555,-0.36777777777777776,0.08888888888888889,-0.17096853146745902,0.17495694208879972,0.23553643789507395
1592262552.530494,4.282317875586546,8.804666946286734,0.34201011875114684,-0.6255555555555555,-0.36777777777777776,0.08888888888888889,-0.1919738930787163,0.14315167351101596,0.1658734210653769
1592262552.540494,4.394627654231704,8.241768617288415,0.5881648888085337,-0.6255555555555555,-0.36777777777777776,0.08888888888888889,-0.22335340430817946,0.156560327191561,0.14361831757265991
1592262552.550494,4.242661677921762,8.268845288069599,0.45089493216523696,-0.6255555555555555,-0.3676141902077292,0.08846356120676252,-0.20122552856502562,0.1446320701748863,0.17344335533954203
1592262552.560494,4.66,8.89,0.81,-0.6255555555555555,-0.3622222222222222,0.07444444444444444,-0.18216874067690814,0.16580627893946132,0.20943951023931953
1592262552.570494,4.190592851370024,8.445886539614673,1.075879239773705,-0.6255555555555555,-0.3622222222222222,0.07444444444444444,-0.14148664218541449,0.2071295039309576,0.24075284060943458
1592262552.580494,4.554404380791913,8.756859309182813,0.8531406908171861,-0.6255555555555555,-0.3622222222222222,0.07444444444444444,-0.09668620454305697,0.20871884511747144,0.24844162726342997
1592262552.590494,4.493376716275558,8.63350686510223,1.0035068651022314,-0.6255555555555555,-0.3622222222222222,0.07444444444444444,-0.08556632977007321,0.21723110295036324,0.254871863463813
1592262552.600494,4.509788032264115,8.699152129056461,1.0692581129244045,-0.6256222861390747,-0.3622025955800107,0.07433846057650222,-0.06104027963356177,0.20720004344152693,0.24753380661858926
1592262552.610494,4.45,8.46,0.86,-0.6444444444444445,-0.3566666666666667,0.044444444444444446,-0.04799655442984406,0.1908953869368798,0.22362031041177347
1592262552.620494,4.180776586336502,8.148154156533275,1.2610692571302233,-0.6444444444444445,-0.3566666666666667,0.044444444444444446,-0.028806657133598857,0.18291029096399214,0.18677577030826756
1592262552.6304939,4.30714776471688,8.393528779416233,0.9763810146993527,-0.6444444444444445,-0.3566666666666667,0.044444444444444446,0.009432546921281487,0.1492710320125176,0.1634321523138751
1592262552.6404939,4.7990498644347515,8.567808951235804,0.6711682187905222,-0.6444444444444445,-0.3566666666666667,0.044444444444444446,-0.009578470698674624,0.155335777928612,0.1501364898196082
1592262552.6504939,4.527110102558057,8.287628590514363,0.7453336083932571,-0.6444444444444445,-0.3566666666666667,0.044444444444444446,0.02098446551391646,0.129267391159049,0.14024848104494636
1592262552.6604939,4.818714238111106,8.372904746037037,0.9090346075117818,-0.6496416538402543,-0.3566666666666667,0.02573449061952894,0.04535777936086123,0.12354532283782431,0.14166727951667688
1592262552.6704938,4.721705224494271,8.358491858998958,0.7371808014911463,-0.65,-0.3566666666666667,0.024444444444444446,0.048078810761258126,0.12150424775123375,0.14356763239540504
1592262552.6804938,4.573477142981654,8.279162417745239,0.6014720878546215,-0.65,-0.3566666666666667,0.024444444444444446,0.05260074737178393,0.1313122196994834,0.14976497695128654
1592262552.6904938,5.037680805176133,8.608144644140905,0.6947680805176132,-0.65,-0.3566666666666667,0.024444444444444446,0.06231873129062902,0.1149263866319381,0.15048925813139022
1592262552.7004938,4.715154018288809,8.454589330607508,0.8524537945133575,-0.65,-0.3566666666666667,0.024444444444444446,0.044621027288163036,0.15962527618196334,0.17114395742651195
1592262552.7104938,4.948977076510866,8.705087228341768,0.6722476927657041,-0.6444444444444445,-0.35888888888888887,0.03111111111111111,0.0868201280276822,0.15055666594433625,0.1729517239252516
1592262552.7204938,4.892786692467997,8.374188300089312,0.7346814528133373,-0.6444444444444445,-0.35888888888888887,0.03111111111111111,0.062302447789978135,0.14510829255817978,0.15933079045986043
1592262552.7304938,5.061480267470827,8.501534023862593,0.741318998295529,-0.6444444444444445,-0.35888888888888887,0.03111111111111111,0.04624653404769818,0.13576659840954874,0.13750489096631574
1592262552.7404938,5.157220085827342,8.689748648498021,0.7676085381485817,-0.6444444444444445,-0.35888888888888887,0.03111111111111111,0.027243351366852915,0.13418714162645962,0.11480059274562977
1592262552.7504938,4.795390827805019,8.363080473031438,0.9180862417075282,-0.6454712687882576,-0.35910281062718324,0.030041502419639137,-0.009314694351256873,0.15216900636342004,0.10047992523516858
1592262552.7604938,4.923677377323809,8.449032318108843,1.077999720793876,-0.6711111111111111,-0.36444444444444446,0.0033333333333333335,-0.02325932241764,0.10914640272909668,0.047757266577232865
1592262552.7704937,4.7915809931432065,8.639407127571298,0.20264794514565226,-0.6711111111111111,-0.36444444444444446,0.0033333333333333335,-0.008325653872485399,0.06347516072368407,0.01954872428555993
1592262552.7804937,4.864853474254269,8.611929947154648,0.7888277940341528,-0.6711111111111111,-0.36444444444444446,0.0033333333333333335,-0.04029680503482028,0.02251212329694252,0.015552330390268073
1592262552.7904937,5.03433061354244,8.593886192645968,0.7333767086997987,-0.6711111111111111,-0.36444444444444446,0.0033333333333333335,-0.03353077659381413,-0.0024317539122440863,0.011443377835791739
1592262552.8004937,5.185444526862351,8.380548903253151,0.5022613118575818,-0.6711111111111111,-0.36444444444444446,0.0033333333333333335,-0.061650491541302026,-0.011158561999395503,-0.007949529024544745
1592262552.8104937,5.03,8.1,0.86,-0.6711111111111111,-0.3711111111111111,-0.008888888888888889,-0.08944812416470939,0.011999138607461015,0.017453292519943295
1592262552.8204937,5.262316480311133,8.248682547399124,0.6462688381137579,-0.6711111111111111,-0.3711111111111111,-0.008888888888888889,-0.04586023366791554,-0.0011785957287789844,0.05597282365664484
1592262552.8304937,5.080217850755974,8.351539587059015,1.0072476020159324,-0.6711111111111111,-0.3711111111111111,-0.008888888888888889,-0.037843191596114656,0.07481776196435293,0.12652448885405854
1592262552.8404937,4.864557364776343,8.472252479880218,0.4414196144488115,-0.6711111111111111,-0.3711111111111111,-0.008888888888888889,-0.010762026661637083,0.0686200547713492,0.1394303458583679
1592262552.8504937,4.943058206999813,8.338801048100319,0.8103735728991204,-0.6711111111111111,-0.3711111111111111,-0.008888888888888889,-0.02703194233999621,0.048068582335527146,0.15484395018523445
1592262552.8604937,5.22,8.58,0.61,-0.67,-0.36444444444444446,-0.008888888888888889,-0.02617993877991494,-0.02399827721492203,0.1810779098944117
1592262552.8704937,4.603437031028189,7.766479415939972,0.8754646116406408,-0.67,-0.36444444444444446,-0.008888888888888889,-0.07288590168976625,-0.026800634989513107,0.20910148764032244
1592262552.8804936,5.013363941875326,7.919925687508875,0.558072135182468,-0.67,-0.36444444444444446,-0.008888888888888889,-0.0628769175441281,-0.13131218252178156,0.18975400835601802
1592262552.8904936,5.688523105102833,8.334918669241643,0.914916080992295,-0.67,-0.36444444444444446,-0.008888888888888889,-0.12042033860582022,-0.09565343909167003,0.18864218622765086
1592262552.9004936,5.396249029406494,8.460178987397217,0.5307844386485356,-0.67,-0.36444444444444446,-0.008888888888888889,-0.07578532038848304,-0.11478273261338597,0.18682034874939218
1592262552.9104936,5.23,8.22,1.2,-0.67,-0.3655555555555556,-0.04555555555555556,-0.10144726277217041,-0.05126904677733343,0.1810779098944117
1592262552.9204936,5.050638580931264,7.877582745414231,0.8005132029832694,-0.67,-0.3655555555555556,-0.04555555555555556,-0.07654597732149823,-0.048601051907618556,0.15973395093669268
1592262552.9304936,5.300976787549903,8.242511295450742,0.46465181324854776,-0.67,-0.3655555555555556,-0.04555555555555556,-0.09091944577810651,-0.05261869268536543,0.13779984857035135
1592262552.9404936,5.322928335832084,8.014106946526736,0.8938122938530735,-0.67,-0.3655555555555556,-0.04555555555555556,-0.06939532901122351,-0.09272061651219875,0.149027960453329
1592262552.9504936,5.121702548725637,7.846418790604698,0.7177397301349324,-0.67,-0.3655555555555556,-0.04555555555555556,-0.057505567859134854,-0.09272061651219875,0.1682344976990107
1592262552.9604936,5.22,8.07,0.75,-0.6755555555555556,-0.36,-0.013333333333333334,-0.04145156973486533,-0.10690141668465267,0.1810779098944117
1592262552.9704936,5.518089306698002,8.385623971797884,0.89027732079906,-0.6755555555555556,-0.36,-0.013333333333333334,-0.052927981205896195,-0.10116321094913724,0.1638632926878654
1592262552.9804935,5.081962792945156,8.280027542884755,0.6850413143271322,-0.6755555555555556,-0.36,-0.013333333333333334,-0.052496606965473556,-0.09831149983032471,0.16655528620784857
1592262552.9904935,5.189842917051674,8.092865638401213,0.5208342218115478,-0.6755555555555556,-0.36,-0.013333333333333334,-0.05846167590519246,-0.11444623267898124,0.12011665574084468
1592262553.0004935,5.486375643522357,8.215651620615853,0.954635867574186,-0.6755555555555556,-0.36,-0.013333333333333334,-0.0630152223510115,-0.10576319871373742,0.10109952536154984
1592262553.0104935,5.629502681784235,8.29960214542739,0.6148737185144952,-0.6821559131267869,-0.3588999404047947,-0.04853524037990058,-0.06975892107792793,-0.1306175990899794,0.07223352725288518
1592262553.0204935,5.39,7.85,1.08,-0.6822222222222222,-0.35888888888888887,-0.04888888888888889,-0.0839939702522271,-0.09053895494720585,0.04036073895236887
1592262553.0304935,5.330212460636983,7.798753537688842,0.7896033802367761,-0.6822222222222222,-0.35888888888888887,-0.04888888888888889,-0.046726491196857296,-0.08308545913613188,0.018000251519146984
1592262553.0404935,5.301656884118732,8.028460506456483,0.9417742746939459,-0.6822222222222222,-0.35888888888888887,-0.04888888888888889,-0.03135658299978493,-0.020784140564165256,0.015181261944963255
1592262553.0504935,5.38502239360527,8.2045861701914,0.5735345745214999,-0.6822222222222222,-0.35888888888888887,-0.04888888888888889,-0.00019033837115802615,-0.014428494189985307,0.016957904484880534
1592262553.0604935,5.39,8.54,0.78,-0.6966666666666667,-0.35888888888888887,-0.021111111111111112,0.007635815477475192,0.008726646259971648,0.03490658503988659
1592262553.0704935,5.041504206854094,8.145649497229632,1.1101539092961215,-0.6966666666666667,-0.35888888888888887,-0.021111111111111112,0.07266146289251377,-0.0442942662476752,0.0809247355182216
1592262553.0804935,5.32517639512508,8.306985246953175,0.48009942270686334,-0.6966666666666667,-0.35888888888888887,-0.021111111111111112,0.07531665277363199,-0.08346779658421086,0.1033493945760297
1592262553.0904934,5.043085128537381,8.003957470439873,0.6421489228775713,-0.6966666666666667,-0.35888888888888887,-0.021111111111111112,0.08152683546720424,-0.09859949702710757,0.13701298553689012
1592262553.1004934,5.198169605373636,8.16617768182,0.4818303946263644,-0.6966666666666667,-0.35888888888888887,-0.021111111111111112,0.09840967565016287,-0.1499312477255913,0.12805296182151601
1592262553.1104934,5.58,8.1,0.67,-0.7022222222222222,-0.36,-0.04888888888888889,0.11235557059713495,-0.1636246173744684,0.11344640137963141
1592262553.1204934,5.529381705251271,8.280779624102605,0.3807526014358313,-0.7022222222222222,-0.36,-0.04888888888888889,0.12970916873322985,-0.14942621889948163,0.11817920087129366
1592262553.1304934,5.321974699828473,8.077363314751286,0.43922277015437394,-0.7022222222222222,-0.36,-0.04888888888888889,0.11071587464765233,-0.10091786837333233,0.11486379144172923
1592262553.1404934,5.415613724012589,7.971988563322842,0.33558513231969506,-0.7022222222222222,-0.36,-0.04888888888888889,0.11292330162321283,-0.08953426783415473,0.09053583607733258
1592262553.1504934,5.486625399593141,8.243126997965707,0.3341563498982854,-0.7022222222222222,-0.36,-0.04888888888888889,0.09337156447173908,-0.07677565670458272,0.06410318924445607
1592262553.1604934,5.467793350512224,8.300910690717114,0.5341505876437684,-0.6909671156921486,-0.3487448934699265,-0.04513718671219771,0.08508480103472357,-0.08856934414019556,0.03796702662939333
1592262553.1704934,5.230908527772042,8.188181567898685,0.3578782664555945,-0.6888888888888889,-0.3466666666666667,-0.044444444444444446,0.08323368970202959,-0.11384312172203015,0.005288803716782781
1592262553.1804934,5.275096802157581,8.272116162589096,0.4561548834521286,-0.6888888888888889,-0.3466666666666667,-0.044444444444444446,0.06433789721263075,-0.11502493817105226,-0.0204217664828099
1592262553.1904933,5.298511438569762,8.366602947127861,0.25870259718618327,-0.6888888888888889,-0.3466666666666667,-0.044444444444444446,0.07037106301502573,-0.14146239582827805,-0.05278034872011704
1592262553.2004933,5.208954081632653,8.134876373626373,0.38808477237048666,-0.6888888888888889,-0.3466666666666667,-0.044444444444444446,0.06359119630527858,-0.14769925855261373,-0.06850956735893264
1592262553.2104933,5.700341276671514,8.330790574828619,0.5391554144285842,-0.6888888888888889,-0.3677747771809558,-0.054998499701588995,0.05913224141070544,-0.12331288924812853,-0.07740292056026074
1592262553.2204933,5.286530008753045,8.2943495540678,0.5186962693099288,-0.6888888888888889,-0.37333333333333335,-0.057777777777777775,0.05439932416794129,-0.10410338708389227,-0.08755089251347949
1592262553.2304933,5.628777641129518,8.495218114736309,0.5183414116569004,-0.6888888888888889,-0.37333333333333335,-0.057777777777777775,0.030703036830272208,-0.07778968439963412,-0.11401560939772784
1592262553.2404933,5.285696455792683,8.055584508384147,0.611871903582317,-0.6888888888888889,-0.37333333333333335,-0.057777777777777775,0.009780842338692378,-0.03846534771801492,-0.11707843346531119
1592262553.2504933,5.3364766395199315,8.1578911273039,0.39116588084012005,-0.6888888888888889,-0.37333333333333335,-0.057777777777777775,-0.015041588629623227,-0.004836967185994787,-0.11671889372712078
1592262553.2604933,5.252186352741285,8.125525349676872,0.7856782669377106,-0.6837024451254251,-0.36209603851249533,-0.0638286288351521,-0.03866718601871362,0.030548822138410713,-0.10483807545848756
1592262553.2704933,5.320408643822512,8.480676739679659,0.6667178493463171,-0.6822222222222222,-0.35888888888888887,-0.06555555555555556,-0.0379102025429278,0.04542620295886067,-0.08847710844375525
1592262553.2804933,4.814277927120669,8.247041517323776,0.6645527180406213,-0.6822222222222222,-0.35888888888888887,-0.06555555555555556,-0.05555604759226555,0.07314944083994883,-0.05312798794505551
1592262553.2904932,5.259484629294756,8.531779765870372,0.6253083658513372,-0.6822222222222222,-0.35888888888888887,-0.06555555555555556,-0.05488897085734629,0.06953301333983156,-0.060787627672204
1592262553.3004932,5.094494885959635,8.323994421046875,0.7703367426935769,-0.6822222222222222,-0.35888888888888887,-0.06555555555555556,-0.06795906203421939,0.06872233929727672,-0.0830490569058038
1592262553.3104932,5.327568681318682,8.346634942438515,0.9284108451072737,-0.6750779115064829,-0.37049839380196525,-0.05930428367928368,-0.08119040385336194,0.09064081005853589,-0.10236474364715278
1592262553.3204932,5.140051166502371,8.363128197906398,0.9668718020936018,-0.6733333333333333,-0.37333333333333335,-0.057777777777777775,-0.08106271136174176,0.08771118237373805,-0.13508681890147667
1592262553.3304932,5.153909784651615,8.216202984533865,0.8262029845338648,-0.6733333333333333,-0.37333333333333335,-0.057777777777777775,-0.0850786504297816,0.10883292894744816,-0.16163159906225338
1592262553.3404932,5.028727091444307,7.975939132086221,0.7115150508023929,-0.6733333333333333,-0.37333333333333335,-0.057777777777777775,-0.07247742404963277,0.1273793019442409,-0.15319890195437053
1592262553.3504932,5.187110866160005,8.199770261646458,0.9125445263096826,-0.6733333333333333,-0.37333333333333335,-0.057777777777777775,-0.03889773343924286,0.14893317651140914,-0.09326258291129952
1592262553.3604932,5.071037530958278,8.395224995237188,0.8814875214326539,-0.6792041658728647,-0.35572083571473934,-0.057777777777777775,0.03005647165939215,0.1707886469798873,0.003274528952874861
1592262553.3704932,4.823301680058437,8.22973703433163,0.983827611395179,-0.68,-0.35333333333333333,-0.057777777777777775,0.0590379292677209,0.1971150081771329,0.049144755421500305
1592262553.3804932,5.270423798551679,8.481660631994734,0.5730743910467413,-0.68,-0.35333333333333333,-0.057777777777777775,0.11914723098255973,0.18172933838260924,0.08579017860951431
1592262553.3904932,5.464222813754582,8.407331558736253,0.6613990225170187,-0.68,-0.35333333333333333,-0.057777777777777775,0.1183325292959743,0.2021710813903706,0.08617563181722002
1592262553.4004931,5.302858189655172,8.27824224137931,0.6927474137931035,-0.68,-0.35333333333333333,-0.057777777777777775,0.1394104308943212,0.19046396806425928,0.07131165184865947
1592262553.4104931,5.159718399188178,8.196941713705842,0.7575049153294857,-0.6924390604849792,-0.35907443817255447,-0.07021683826275694,0.12704999591890415,0.20456256196001846,0.0418137501843084
1592262553.4204931,5.174039046961886,8.262117140885659,0.8613483784551691,-0.6944444444444444,-0.36,-0.07222222222222222,0.13113063814447065,0.20257972232708424,0.025067811183424056
1592262553.430493,5.069372401603226,8.318228733600538,0.38668998481416017,-0.6944444444444444,-0.36,-0.07222222222222222,0.11429432142625118,0.1955579152639466,-0.022339966762485362
1592262553.440493,5.125077104025092,8.15642577104025,0.8327940407736539,-0.6944444444444444,-0.36,-0.07222222222222222,0.10295634989494974,0.19525871006686563,-0.0525406372869869
1592262553.450493,5.242627221468846,8.595486403540075,0.7923952608664621,-0.6944444444444444,-0.36,-0.07222222222222222,0.10186448939149798,0.17437698100863,-0.05470238820030903
1592262553.460493,5.10452339052647,8.213350197976244,0.3316750989881214,-0.6743955614215184,-0.36,-0.08141129360773003,0.09406615844199394,0.15734234229271077,-0.04688972671550281
1592262553.470493,5.212249087412175,8.008324371001295,0.41423833261373005,-0.6677777777777778,-0.36,-0.08444444444444445,0.10042485243126556,0.1475935109545919,-0.046722940878164525
1592262553.480493,5.291458235981308,8.07767961448598,0.4560990070093458,-0.6677777777777778,-0.36,-0.08444444444444445,0.10329743793845199,0.13390339713164578,-0.0551104659973059
1592262553.490493,5.172008593936501,8.377948436380997,0.3919942707089998,-0.6677777777777778,-0.36,-0.08444444444444445,0.08792299221748447,0.14202476170146694,-0.07417336836626653
1592262553.500493,5.195382371547058,8.107970408378435,0.4766618050186266,-0.6677777777777778,-0.36,-0.08444444444444445,0.07286267735499184,0.15942813530603542,-0.08046962534180774
1592262553.510493,5.396355965463108,8.216630690737833,0.45702511773940346,-0.6549396040467469,-0.36,-0.08444444444444445,0.04114140219094119,0.18144672885795984,-0.10171312066696253
1592262553.520493,5.440113596603765,8.50289776305661,0.8223297800377878,-0.6466666666666666,-0.36,-0.08444444444444445,0.002547324348115689,0.2001488613872736,-0.1396945313959787
1592262553.530493,5.2699401804235615,8.179850451058902,0.7058743788894785,-0.6466666666666666,-0.36,-0.08444444444444445,-0.015274893606719148,0.2119513574256533,-0.18643831519195753
1592262553.540493,5.271320176577512,7.938019735133731,0.6413201765775124,-0.6466666666666666,-0.36,-0.08444444444444445,-0.017707999099953894,0.21656591255677354,-0.2344125386587928
1592262553.550493,5.331011521638633,8.173645496248355,0.9880921731090644,-0.6466666666666666,-0.36,-0.08444444444444445,-0.010423250625016943,0.2241053676117211,-0.2532934213272942
1592262553.560493,5.004391524874996,8.158712183891508,1.032131371632073,-0.6481576875267295,-0.36,-0.10010016347510502,-0.0017946381466051086,0.22395114225202772,-0.27718340191036694
1592262553.570493,4.9508804330520615,8.067252825983124,0.9061534787454226,-0.6488888888888888,-0.36,-0.10777777777777778,0.00131860097374691,0.22249352962577806,-0.2807869813138332
1592262553.580493,5.273217031831336,8.266658123191402,0.8567829681686647,-0.6488888888888888,-0.36,-0.10777777777777778,0.023348107796896653,0.21823145302566796,-0.26094250617331244
1592262553.590493,5.126871387283237,8.296799132947976,0.7369436416184971,-0.6488888888888888,-0.36,-0.10777777777777778,0.0388971025628487,0.2210619023771033,-0.27594866107037513
1592262553.600493,5.204265167081216,8.220217728272232,0.7147006236256804,-0.6488888888888888,-0.36,-0.10777777777777778,0.050130715054522795,0.21494710270965528,-0.3123716099379832
1592262553.610493,5.23436374333998,8.193778642173047,0.8756362566600203,-0.6585849704180695,-0.36612384096579825,-0.11135001834116011,0.07293301814328035,0.19806210916509787,-0.35887641013437477
1592262553.620493,5.323193718695005,8.519474752944362,1.0756493840530663,-0.67,-0.37333333333333335,-0.11555555555555555,0.11870545503086632,0.20105737571828985,-0.40770671004463876
1592262553.630493,5.218125691524674,8.411021686213763,0.8408342553662315,-0.67,-0.37333333333333335,-0.11555555555555555,0.1738305595592847,0.19956069659542805,-0.4507993506443455
1592262553.640493,5.229847273765344,8.393385669426205,0.4515358264344847,-0.67,-0.37333333333333335,-0.11555555555555555,0.20685520973576882,0.2048077611502952,-0.501027328713208
1592262553.650493,5.09777658412236,8.326779861616897,0.7092332483612528,-0.67,-0.37333333333333335,-0.11555555555555555,0.22885701320614266,0.19653592752203045,-0.5305416195686633
1592262553.660493,5.0203929944468175,8.49003766844006,0.8573243757523981,-0.6554069097640222,-0.36238851565634994,-0.11555555555555555,0.23240715124834127,0.1683358914208235,-0.5720933225984908
1592262553.670493,4.91558793408435,8.758194767712503,0.8373633739875245,-0.6433333333333333,-0.35333333333333333,-0.11555555555555555,0.21637833552404978,0.1398420486207718,-0.6292998823473472
1592262553.6804929,4.794692326254826,8.536969353281853,0.4256925675675676,-0.6433333333333333,-0.35333333333333333,-0.11555555555555555,0.18530195730841803,0.14309517678325775,-0.6787031464272153
1592262553.6904929,4.893846962924008,8.375961083355245,0.5330791480410203,-0.6433333333333333,-0.35333333333333333,-0.11555555555555555,0.16645653226155424,0.1371718991903583,-0.7310247091631179
1592262553.7004929,4.791344694613758,8.35,0.66,-0.6433333333333333,-0.35333333333333333,-0.11555555555555555,0.16999510171041113,0.12902741088714953,-0.7635023034165106
1592262553.7104928,4.77728171530673,8.887026801667659,1.0180178677784395,-0.6467626232545827,-0.36842220898683076,-0.10663940176030706,0.1803371324922661,0.13150559550038246,-0.7889532712246196
1592262553.7204928,4.703424657534247,9.117397260273973,1.1373972602739726,-0.6488888888888888,-0.37777777777777777,-0.10111111111111111,0.18805623832490273,0.1325982021042838,-0.7984134183502484
1592262553.7304928,4.496108943876534,8.515031749195591,0.34721176571086876,-0.6488888888888888,-0.37777777777777777,-0.10111111111111111,0.19229729349849017,0.13071304843210635,-0.809718574102654
1592262553.7404928,4.637061759648452,8.684840943828812,0.44308798242262126,-0.6488888888888888,-0.37777777777777777,-0.10111111111111111,0.1780585605234584,0.13263154928643944,-0.8050950420326805
1592262553.7504928,4.481562282843041,8.777749942091479,0.67978137305561,-0.6488888888888888,-0.37777777777777777,-0.10111111111111111,0.17971778736893126,0.10779450122441231,-0.8109167970699446
1592262553.7604928,4.23528504233302,8.54220507996237,0.6960075258701788,-0.6372538935925578,-0.39070555032925686,-0.10822138601442458,0.1875233549977609,0.08681022236839199,-0.8225652207305458
1592262553.7704928,4.190436470636316,8.468989333442314,0.6824655686787364,-0.6288888888888889,-0.4,-0.11333333333333333,0.19710878475212462,0.08549574051541556,-0.8244308607865914
1592262553.7804928,4.192637982767638,8.6411688275938,0.6679301896660885,-0.6288888888888889,-0.4,-0.11333333333333333,0.24466838687467324,0.0744970131473362,-0.8084331091417487
1592262553.7904928,4.21367055400539,8.687052061720445,0.365895876559109,-0.6288888888888889,-0.4,-0.11333333333333333,0.25050644967394853,0.08732164020315247,-0.78059503236379
1592262553.8004928,4.206423080260304,8.73025874186551,0.5181433405639913,-0.6288888888888889,-0.4,-0.11333333333333333,0.24868119405003009,0.08958924596051869,-0.754187436092479
1592262553.8104928,4.165379361728548,8.750758723457096,0.8361380851856451,-0.6254712529492115,-0.4159489677184946,-0.11675096927301075,0.24812262107282354,0.07504662028494792,-0.7267766308814602
1592262553.8204927,4.1850916821684825,8.864012755779962,0.7399787403667286,-0.6222222222222222,-0.4311111111111111,-0.12,0.24375067502216446,0.06765151046109763,-0.7097331195450851
1592262553.8304927,4.157807079167792,8.989448797622265,0.5108268035666036,-0.6222222222222222,-0.4311111111111111,-0.12,0.2520570693218087,0.06367144792913697,-0.6650773764899502
1592262553.8404927,4.143985302879841,8.945740218470705,0.608245084409136,-0.6222222222222222,-0.4311111111111111,-0.12,0.2608561387304636,0.057887822329217485,-0.6444676359202312
1592262553.8504927,4.144054351817847,8.975451095605338,0.42249275717142043,-0.6222222222222222,-0.4311111111111111,-0.12,0.2493400055759454,0.0518996339440869,-0.618211153610758
1592262553.8604927,4.054567024654797,8.745144325115067,0.30086595069040567,-0.6092737558624025,-0.4311111111111111,-0.12,0.24394237073834069,0.06345150193617555,-0.6157897201470697
1592262553.8704927,4.053861414027605,8.715058548951752,0.25532855820691325,-0.5955555555555555,-0.4311111111111111,-0.12,0.23929204287501143,0.07763847960127224,-0.6152285613280012
1592262553.8804927,3.989015463311383,8.589061030103482,0.10892432972718721,-0.5955555555555555,-0.4311111111111111,-0.12,0.2528380666900977,0.0889588922027572,-0.6267533796713539
1592262553.8904927,3.7832428605145147,8.790681142317679,0.0829837148926127,-0.5955555555555555,-0.4311111111111111,-0.12,0.2568534987275462,0.08232057352811324,-0.671889303781368
1592262553.9004927,3.6987388750445,9.03628515485938,0.21456479174083304,-0.5955555555555555,-0.4311111111111111,-0.12,0.2562801879072908,0.0709765222750967,-0.724476875781973
1592262553.9104927,3.4954409865433487,9.03647044119485,0.1716910386201725,-0.5955555555555555,-0.4384395469084883,-0.12,0.24913451656939992,0.05280101801750989,-0.7863205727792894
1592262553.9204926,3.213536191974823,8.819053107789143,-0.07241542092840283,-0.5955555555555555,-0.44555555555555554,-0.12,0.23801717403780215,0.046792950110903835,-0.8167129027191399
1592262553.9304926,3.3121700198356474,8.991957495041088,-0.030425049589118736,-0.5955555555555555,-0.44555555555555554,-0.12,0.21080884443213882,0.047355965675623134,-0.8621833773416808
1592262553.9404926,3.171493490954341,9.103417966880444,0.050354168660859566,-0.5955555555555555,-0.44555555555555554,-0.12,0.17845707590947235,0.04009286048271302,-0.8518531941545868
1592262553.9504926,3.1329495472186286,9.169831824062095,0.012613195342820184,-0.5955555555555555,-0.44555555555555554,-0.12,0.15885064514007574,0.038680041071446125,-0.8401556108142787
1592262553.9604926,3.033839900423976,9.332442335368937,0.41784939126375975,-0.5955555555555555,-0.460355042116682,-0.10979345754405072,0.11377646371799696,0.015246470013100434,-0.7539801662815128
1592262553.9704926,2.845436768712935,9.316731848052573,0.3807605385478442,-0.5955555555555555,-0.4777777777777778,-0.09777777777777778,0.0948193161912653,-0.0011491401375153,-0.7222129398985802
1592262553.9804926,2.742725780880594,9.378177342641782,0.258682724668317,-0.5955555555555555,-0.4777777777777778,-0.09777777777777778,0.09323846758987377,-0.03752927562205104,-0.7180639914517573
1592262553.9904926,2.7955972425719984,9.333647587250498,0.0503775850887517,-0.5955555555555555,-0.4777777777777778,-0.09777777777777778,0.1109696891230791,-0.06536747066222295,-0.7225278680581224
1592262554.0004926,2.87146875,9.393276785714287,0.008022321428571429,-0.5955555555555555,-0.4777777777777778,-0.09777777777777778,0.12302558384044701,-0.07830152175809232,-0.7286749627076325
1592262554.0104926,2.9418942731277533,9.385947136563876,0.2188638998377,-0.5865656799855733,-0.48189813741401966,-0.1048947626040137,0.1258876388064302,-0.07086682207139855,-0.7121266070158303
1592262554.0204926,2.784338360060225,9.301928160026767,0.09861530005018762,-0.5688888888888889,-0.49,-0.11888888888888889,0.14648681930114155,-0.0609287765964933,-0.6384247026457209
1592262554.0304925,2.6337739707239223,9.49382160045884,0.04914017106805317,-0.5688888888888889,-0.49,-0.11888888888888889,0.14612442846119267,-0.0506228884668818,-0.5656913080455146
1592262554.0404925,2.330423984731718,9.585397047810016,-0.0673014760949919,-0.5688888888888889,-0.49,-0.11888888888888889,0.1256187847764078,-0.04786955920019532,-0.529768651329007
1592262554.0504925,2.2506528735632183,9.558433103448277,-0.08052229885057471,-0.5688888888888889,-0.49,-0.11888888888888889,0.11408144043103235,-0.050619764234335764,-0.5254017809606321
1592262554.0604925,2.2890290861324827,9.414401200975792,-0.15291274160255208,-0.5656382477429578,-0.5017835741540001,-0.10791797502137153,0.06925889130461013,-0.09875377660808682,-0.6071551034761636
1592262554.0704925,2.27,9.37,-0.21,-0.56,-0.5222222222222223,-0.08888888888888889,0.05126904677733343,-0.12435470920459597,-0.6555893002803701
1592262554.0804925,2.4513224510296334,9.742785786037167,0.12138648920140632,-0.56,-0.5222222222222223,-0.08888888888888889,0.02633257838614473,-0.1288664806522701,-0.6346983019410831
1592262554.0904925,2.3151366430260047,9.461005200945626,-0.0009238770685579198,-0.56,-0.5222222222222223,-0.08888888888888889,0.02675800173075278,-0.10531556018818927,-0.5806597985871855
1592262554.1004925,2.4334302736723004,9.326719291422107,-0.026636199702991296,-0.56,-0.5222222222222223,-0.08888888888888889,0.03527351873090137,-0.08837088923296005,-0.527617824788515
1592262554.1104925,2.25304286718201,9.279564300773014,-0.10156008432888265,-0.5610400562192551,-0.5213555087061763,-0.09096900132739909,0.030163809178111768,-0.05410076069900729,-0.477312441460619
1592262554.1204925,2.4473831028888298,9.691476620577767,-0.049799016877739306,-0.5666666666666667,-0.5166666666666667,-0.10222222222222223,0.042784011994406,-0.03419651619481141,-0.44998604250164304
1592262554.1304924,2.2110251630941287,9.499568965517241,-0.030668685927306618,-0.5666666666666667,-0.5166666666666667,-0.10222222222222223,0.038264981582269667,-0.024745491217843647,-0.4442987833800715
1592262554.1404924,2.0210093622759926,9.426719572603025,0.03671957260302394,-0.5666666666666667,-0.5166666666666667,-0.10222222222222223,0.023265285550862193,-0.03157904052033005,-0.4615952342257956
1592262554.1504924,2.0815951403650224,9.564063805614602,0.08059627647878033,-0.5666666666666667,-0.5166666666666667,-0.10222222222222223,0.0011906750205410545,-0.03514563153493671,-0.4820125610611375
1592262554.1604924,2.169431189427313,9.600284405286343,0.06440775330396474,-0.5554502202643171,-0.5177883113069016,-0.09997893294175234,-0.02009508284742784,-0.03635413190452523,-0.4930865374925029
1592262554.1704924,2.05,9.66,0.29,-0.5333333333333333,-0.52,-0.09555555555555556,-0.04036073895236887,-0.03490658503988659,-0.4996004983833768
1592262554.1804924,1.7896367715551516,9.438687095308417,-0.07671333636260365,-0.5333333333333333,-0.52,-0.09555555555555556,-0.03327439710857366,-0.0090293106001111,-0.5123878034331949
1592262554.1904924,1.7114458528121836,9.431445852812184,-0.21927707359390813,-0.5333333333333333,-0.52,-0.09555555555555556,-0.023958847696059802,0.004997454938674062,-0.5308567511396902
1592262554.2004924,1.79,9.51,-0.18,-0.5333333333333333,-0.52,-0.09555555555555556,-0.02181661564992912,0.009817477042468103,-0.5399612373357456
1592262554.2104924,1.775788282533309,9.883291111516701,-0.004165723672202956,-0.5390154732209852,-0.5218079536006165,-0.09555555555555556,-0.04109256515976081,0.013874515435130958,-0.5539650437929889
1592262554.2204924,1.96,9.63,-0.15,-0.5577777777777778,-0.5277777777777778,-0.09555555555555556,-0.06872233929727672,0.0272707695624114,-0.5497787143782138
1592262554.2304924,1.9751494718790192,9.809029894375804,0.03268659625053592,-0.5577777777777778,-0.5277777777777778,-0.09555555555555556,-0.11030413527397806,0.05268954595003442,-0.5311043648339381
1592262554.2404923,1.73,9.76,0.0,-0.5577777777777778,-0.5277777777777778,-0.09555555555555556,-0.13526301702956053,0.07853981633974483,-0.5061454830783556
1592262554.2504923,1.5030615640599,9.48620632279534,0.1554242928452579,-0.5577777777777778,-0.5277777777777778,-0.09555555555555556,-0.18427054108644375,0.10153256900640889,-0.5328336292111806
1592262554.2604923,1.48016115815351,9.815722480196667,0.25208413001912044,-0.5497562900239765,-0.5323232875049319,-0.09689247018118911,-0.20721702818342197,0.10803306795805381,-0.5658554326793279
1592262554.2704923,1.67,9.96,-0.12,-0.5244444444444445,-0.5466666666666666,-0.10111111111111111,-0.210530341021816,0.10471975511965977,-0.5890486225480862
1592262554.2804923,0.8053194892509556,9.471748312413586,0.3713720280857755,-0.5244444444444445,-0.5466666666666666,-0.10111111111111111,-0.23477876971528433,0.13694437563746084,-0.5902091550725065
1592262554.2904923,0.75,9.65,0.23,-0.5244444444444445,-0.5466666666666666,-0.10111111111111111,-0.23343778745424157,0.13962634015954636,-0.5781403147231217
1592262554.3004923,0.9625764902409003,9.815152980481802,0.3804464128714612,-0.5244444444444445,-0.5466666666666666,-0.10111111111111111,-0.22707646206544188,0.13143954676353398,-0.5525489248973553
1592262554.3104923,1.1630668580937775,10.003286781740464,0.5062436780108983,-0.5286802043339388,-0.5537262664824906,-0.10111111111111111,-0.23467027994960832,0.12563842059564623,-0.5518067192561562
1592262554.3204923,1.32,9.86,0.67,-0.5377777777777778,-0.5688888888888889,-0.10111111111111111,-0.24434609527920614,0.13308135546456762,-0.5585053606381855
1592262554.3304923,1.1266937682811957,9.666683605175747,0.36337737345694315,-0.5377777777777778,-0.5688888888888889,-0.10111111111111111,-0.24071960073538431,0.11344972724811209,-0.5632315549471189
1592262554.3404922,1.1446747033162907,9.714130118673483,0.3546216989539847,-0.5377777777777778,-0.5688888888888889,-0.10111111111111111,-0.257691030182986,0.11498197634156683,-0.569869976400591
1592262554.3504922,0.978358684117439,9.796467397712535,0.2364673977125339,-0.5377777777777778,-0.5688888888888889,-0.10111111111111111,-0.2501598079055746,0.10365471275502566,-0.5831453900272929
1592262554.3604922,0.7658172603125439,9.96099957764325,0.42009010277347597,-0.5341717896976239,-0.5695252397265631,-0.10514133308304785,-0.24268996136980986,0.09546758120409149,-0.5738167670644391
1592262554.3704922,0.96,10.05,0.59,-0.5188888888888888,-0.5722222222222222,-0.12222222222222222,-0.25416357232167425,0.0839939702522271,-0.5508695451607102
1592262554.3804922,0.4463734305386796,9.5758347509113,0.713967598217902,-0.5188888888888888,-0.5722222222222222,-0.12222222222222222,-0.24774980542434696,0.08233912384521264,-0.5036994419506872
1592262554.3904922,0.44,9.92,1.09,-0.5188888888888888,-0.5722222222222222,-0.12222222222222222,-0.22689280275926282,0.062177354602297986,-0.48214720586343357
1592262554.4004922,0.7073050384931112,9.635179153817141,0.7897470769640361,-0.5188888888888888,-0.5722222222222222,-0.12222222222222222,-0.23943160891977974,0.07253909746837586,-0.465775547584879
1592262554.4104922,0.5042249915796564,9.741550016840687,0.5537083192994274,-0.5124743834437334,-0.5740549380636952,-0.12038950638074922,-0.23305539045915152,0.06790522657909817,-0.45299465216434637
1592262554.4204922,0.7,9.35,0.88,-0.4955555555555556,-0.5788888888888889,-0.11555555555555555,-0.23780111058422737,0.05999569303730508,-0.45378560551852565
1592262554.4304922,0.8147083391340666,10.652320757343729,0.5905610469163302,-0.4955555555555556,-0.5788888888888889,-0.11555555555555555,-0.23234695667174513,0.05487153707698273,-0.4906314790301483
1592262554.4404922,0.52,9.59,0.57,-0.4955555555555556,-0.5788888888888889,-0.11555555555555555,-0.23234695667174513,0.02945243112740431,-0.5661411761156606
1592262554.4504921,0.3676382654697018,9.437429063802501,1.3978474671369028,-0.4955555555555556,-0.5788888888888889,-0.11555555555555555,-0.23999418233013695,0.031118842147250414,-0.687798973210117
1592262554.4604921,0.325313044109112,10.240862957051654,0.6013366947185143,-0.49478473431353587,-0.5813555168633521,-0.11863884052363448,-0.18811386340646877,0.02990648231824684,-0.6840136566330056
1592262554.4704921,0.11,10.06,0.92,-0.49,-0.5966666666666667,-0.13777777777777778,-0.15053464798451094,0.032724923474893676,-0.6708609312353204
1592262554.480492,0.18252257676098735,9.513577879074568,0.9616817178406583,-0.49,-0.5966666666666667,-0.13777777777777778,-0.17461295260611304,0.04938594779599619,-0.6634436509348208
1592262554.490492,0.03,9.47,0.86,-0.49,-0.5966666666666667,-0.13777777777777778,-0.16035212502697901,0.05017821599483697,-0.6784967467127956
1592262554.500492,0.4067404363565209,9.375110654534781,0.5614084727521769,-0.49,-0.5966666666666667,-0.13777777777777778,-0.16119174775783277,0.05464589430916142,-0.724575419771563
1592262554.510492,0.24430251307665082,9.13337239941794,1.1608137019703464,-0.49,-0.5968604676568652,-0.1379715787679763,-0.16755666186928542,0.08188841415811746,-0.7664862112859031
1592262554.520492,0.64,9.78,0.63,-0.49,-0.6022222222222222,-0.14333333333333334,-0.12544553998709243,0.0839939702522271,-0.7864889941799448
1592262554.530492,0.4098081342229851,10.461431656468895,1.3347645283645726,-0.49,-0.6022222222222222,-0.14333333333333334,-0.14127685631708709,0.1306293645345833,-0.7600539473510874
1592262554.540492,0.74,12.3,1.74,-0.49,-0.6022222222222222,-0.14333333333333334,-0.11671889372712078,0.1265363707695889,-0.729765793490129
1592262554.550492,-1.1593096246792767,10.061721463094457,1.3539674204904828,-0.49,-0.6022222222222222,-0.14333333333333334,0.020246467612089033,0.12851117869016546,-0.30188603590927876
1592262554.560492,-0.9327130352867292,9.250394080935747,1.9250319896377124,-0.48919613769282094,-0.6025906591130126,-0.14360128743572634,0.10986087908941598,0.1334658458059272,0.1329454137236081
1592262554.570492,-1.02,10.55,0.8,-0.4633333333333333,-0.6144444444444445,-0.15222222222222223,0.20507618710933373,0.00545415391248228,-0.04690572364734761
1592262554.580492,-0.36373745664433793,9.235382986046758,1.1335182292356165,-0.4633333333333333,-0.6144444444444445,-0.15222222222222223,0.2046326228328747,-0.008450768804004954,-0.025388755045749146
1592262554.590492,0.24,9.932321662031425,0.5053566759371508,-0.4633333333333333,-0.6144444444444445,-0.15222222222222223,0.2096840519472214,-0.07693436152196806,-0.04145156973486533
1592262554.600492,0.22257029611460666,9.70987949237496,0.9477510575521666,-0.4633333333333333,-0.6144444444444445,-0.15222222222222223,0.19085156912790674,-0.032479601909877726,-0.039821896232466604
1592262554.610492,0.17038569549607196,9.79933880772102,0.7613774839145426,-0.4633333333333333,-0.6144444444444445,-0.15222222222222223,0.22337989411475317,-0.0121493987930987,-0.034942647484439635
1592262554.620492,-0.42,9.69,0.76,-0.48333333333333334,-0.6,-0.15777777777777777,0.19853120241435498,0.04036073895236887,-0.03490658503988659
1592262554.630492,-0.27074729280583254,9.910539294521282,0.5992527071941675,-0.48333333333333334,-0.6,-0.15777777777777777,0.20178100566869497,0.05364988115486965,-0.03169292059886186
1592262554.640492,-0.3635738158899923,9.863934539724982,0.5578356569900688,-0.48333333333333334,-0.6,-0.15777777777777777,0.178860545287908,0.04554674245023679,-0.030114070205204332
1592262554.650492,-0.35,9.83,0.68,-0.48333333333333334,-0.6,-0.15777777777777777,0.16035212502697901,0.019634954084936207,-0.03381575425739013
1592262554.660492,-0.22165934893056516,9.958340651069436,0.6997447155491437,-0.48333333333333334,-0.6,-0.15777777777777777,0.1592752178513469,-0.029902775994141546,-0.03381575425739013
1592262554.670492,-0.15629985662913953,9.607726044139422,0.5666423014548617,-0.4622222222222222,-0.6222222222222222,-0.16666666666666666,0.16351437288332366,-0.05307464643625404,-0.02971824854233188
1592262554.680492,-0.27525344687753445,9.860202757502028,0.36257603406326033,-0.4622222222222222,-0.6222222222222222,-0.16666666666666666,0.17023595430682525,-0.07300825148365472,-0.028653660776433925
1592262554.690492,-0.15912830044800305,9.808758221332571,0.33124177866742927,-0.4622222222222222,-0.6222222222222222,-0.16666666666666666,0.1467131530127168,-0.09758539843126901,-0.022907446432425576
1592262554.700492,-0.07572759171825914,9.850221189352048,0.296519207098635,-0.4622222222222222,-0.6222222222222222,-0.16666666666666666,0.13180766077800046,-0.0982611222671622,-0.022907446432425576
1592262554.710492,-0.12966564400271896,9.919570113717782,0.2502865908548123,-0.4622222222222222,-0.6222222222222222,-0.16666666666666666,0.11247540907892595,-0.08733419739377225,-0.022907446432425576
1592262554.720492,0.06,9.86,0.22,-0.4622222222222222,-0.6133333333333333,-0.11555555555555555,0.07744898555724837,-0.06981317007977318,-0.020725784867432664
1592262554.7304919,0.006260973146541681,10.024681098997851,0.10030427014009374,-0.4622222222222222,-0.6133333333333333,-0.11555555555555555,0.025971218562086874,-0.02535782574436643,-0.016259697608003276
1592262554.7404919,0.1,9.97,0.03,-0.4622222222222222,-0.6133333333333333,-0.11555555555555555,-0.009817477042468103,0.008726646259971648,-0.011999138607461015
1592262554.7504919,-0.23975957023178934,9.879200195349187,0.155520117209512,-0.4622222222222222,-0.6133333333333333,-0.11555555555555555,-0.06689420705947856,0.05386525600361092,-0.01090830782496456
1592262554.7604918,-0.0664348773432511,9.95798414666216,0.20279048799729515,-0.4622222222222222,-0.6133333333333333,-0.11555555555555555,-0.10728598791115773,0.06675624989244469,-0.01090830782496456
1592262554.7704918,-0.36,9.83,0.35,-0.4688888888888889,-0.6255555555555555,-0.13777777777777778,-0.15926129424448257,0.09926560120717749,-0.0032724923474893677
1592262554.7804918,-0.2662499296844237,9.794523822917252,0.4779166901051921,-0.4688888888888889,-0.6255555555555555,-0.13777777777777778,-0.20025835626680072,0.10396006391739294,-0.002655651685901607
1592262554.7904918,-0.08,9.83,0.54,-0.4688888888888889,-0.6255555555555555,-0.13777777777777778,-0.21380283336930533,0.08944812416470939,0.002181661564992912
1592262554.8004918,-0.262711544198071,9.703615392264094,0.6663269364621657,-0.4688888888888889,-0.6255555555555555,-0.13777777777777778,-0.23185398402518587,0.08131933604067494,0.008825240789283498
1592262554.8104918,-0.28773471214079743,9.73697961618773,0.7247143283285273,-0.4688888888888889,-0.6255555555555555,-0.13777777777777778,-0.2273046437139351,0.07676999572942418,0.009735108851533648
1592262554.8204918,-0.24,9.72,0.72,-0.4688888888888889,-0.6133333333333333,-0.15777777777777777,-0.2203478180642841,0.044724062082354694,0.006544984694978735
1592262554.8304918,-0.0002996726265424316,9.761760261898766,0.854119869050617,-0.4688888888888889,-0.6133333333333333,-0.15777777777777777,-0.2131287213722652,0.01398878538601096,0.0007537747839763977
1592262554.8404918,-0.09,9.69,0.89,-0.4688888888888889,-0.6133333333333333,-0.15777777777777777,-0.20725784867432664,0.02181661564992912,-0.002181661564992912
1592262554.8504918,-0.03667460452457901,9.710556217043715,0.8838935193060045,-0.4688888888888889,-0.6133333333333333,-0.15777777777777777,-0.18719817751826706,0.032240831365430635,-0.004241975395379142
1592262554.8604918,-0.1317996257866984,9.718483302148892,0.9393831150422407,-0.4688888888888889,-0.6133333333333333,-0.15777777777777777,-0.18114520160452996,0.04088793981362644,-0.00251255370573998
1592262554.8704917,-0.1288423755565502,9.772926099554759,0.9317684751113101,-0.4688888888888889,-0.64,-0.15777777777777777,-0.16375089461221692,0.03580450511343346,0.00128374149144604
1592262554.8804917,-0.17,9.74158796044275,0.9209444746869896,-0.4688888888888889,-0.64,-0.15777777777777777,-0.15700943927244143,0.031788632001675775,0.0028745400179286482
1592262554.8904917,-0.17572587491746064,9.73854825016508,0.8417583246863503,-0.4688888888888889,-0.64,-0.15777777777777777,-0.14483065564736103,0.014647034893281344,0.007294499968981583
1592262554.9004917,-0.21516271049638624,9.654031074586346,1.0156435044208827,-0.4688888888888889,-0.64,-0.15777777777777777,-0.1415796664334385,0.007530922514899589,0.012914080580144508
1592262554.9104917,-0.1689987893018307,9.69250100891514,1.0695014124811975,-0.4688888888888889,-0.64,-0.15777777777777777,-0.12899040986349808,-0.014290455539663828,0.011235513037485784
1592262554.9204917,-0.21,9.72,1.18,-0.47555555555555556,-0.62,-0.15222222222222223,-0.11453723216212788,-0.022907446432425576,-0.002181661564992912
1592262554.9304917,-0.3610900751959895,9.614549624020052,1.3034595488240628,-0.47555555555555556,-0.62,-0.15222222222222223,-0.08455221312934491,-0.014795995923341881,-0.011265034098670936
1592262554.9404917,-0.3740657847693958,9.57,1.2439013228459064,-0.47555555555555556,-0.62,-0.15222222222222223,-0.043471771184036445,-0.01090830782496456,-0.014402554331527035
1592262554.9504917,-0.3942272185824896,9.57422721858249,1.2143637085566805,-0.47555555555555556,-0.62,-0.15222222222222223,0.0016312110703710393,-0.011369425840376625,-0.014964218944675672
1592262554.9604917,-0.41504466944609886,9.595044669446098,1.1866071074052014,-0.47555555555555556,-0.62,-0.15222222222222223,0.031152022150043215,-0.01364025746188987,-0.013450331197000176
1592262554.9704916,-0.4324072427082621,9.66,1.0815185514583476,-0.4622222222222222,-0.6255555555555555,-0.16666666666666666,0.07338872487562528,-0.016459402914601035,-0.00915488397223993
1592262554.9804916,-0.39219116799262077,9.66219116799262,1.075757408047965,-0.4622222222222222,-0.6255555555555555,-0.16666666666666666,0.08905910772169526,-0.011266836849360315,-0.004976115213287937
1592262554.9904916,-0.41230502919657486,9.682305029196575,0.95846331386895,-0.4622222222222222,-0.6255555555555555,-0.16666666666666666,0.10530518887194797,-0.013845547265496999,-0.0011746440092356878
1592262555.0004916,-0.4385890204755255,9.709294510237763,0.9410582346433558,-0.4622222222222222,-0.6255555555555555,-0.16666666666666666,0.1260227174491308,-0.010202262017160355,-0.0021431830675236866
1592262555.0104916,-0.4081619180616261,9.694080959030813,0.9638785614537804,-0.4622222222222222,-0.6255555555555555,-0.16666666666666666,0.13846927492485095,-0.018499967000973783,-0.001313412569142344
1592262555.0204916,-0.37506010794896955,9.726072129538764,0.8839278704612366,-0.45666666666666667,-0.62,-0.14333333333333334,0.15469029577415885,-0.020933460207770555,-0.0013116196430360968
1592262555.0304916,-0.4109725697903253,9.78,0.8080762409193615,-0.45666666666666667,-0.62,-0.14333333333333334,0.16211175521656257,-0.011964552388865863,-0.0032724923474893677
1592262555.0404916,-0.3599347684279191,9.782838505265119,0.6585807473674402,-0.45666666666666667,-0.62,-0.14333333333333334,0.15926129424448257,-0.0031247915621974705,-0.0034273087934629117
1592262555.0504916,-0.415395744374178,9.8,0.65,-0.45666666666666667,-0.62,-0.14333333333333334,0.15855814931708448,0.00556871443409682,-0.004162424579300657
1592262555.0604916,-0.3776113002900744,9.8,0.65,-0.45666666666666667,-0.62,-0.14333333333333334,0.1527878484581806,0.015460658763646325,-0.002513767191042407
1592262555.0704916,-0.39,9.8,0.63,-0.4622222222222222,-0.6255555555555555,-0.16666666666666666,0.13962634015954636,0.015271630954950384,-0.002181661564992912
1592262555.0804915,-0.4168095720069404,9.782126951995373,0.647873048004627,-0.4622222222222222,-0.6255555555555555,-0.16666666666666666,0.1269536340482318,0.018196101596022973,-0.002181661564992912
1592262555.0904915,-0.3915280319815047,9.769694393603698,0.550305606396301,-0.4622222222222222,-0.6255555555555555,-0.16666666666666666,0.11539470753953532,0.015504986360039393,-0.001124167268937743
1592262555.1004915,-0.4396994837101656,9.76210361402884,0.5590984511304967,-0.4622222222222222,-0.6255555555555555,-0.16666666666666666,0.10776277877343403,0.022874665190466274,-0.002050536597155702
1592262555.1104915,-0.432232330425494,9.814373687021542,0.5366969912764822,-0.4622222222222222,-0.6255555555555555,-0.16666666666666666,0.10206099831105656,0.02206012512441235,0.0012076236670599898
1592262555.1204915,-0.45372982523159205,9.79418011651227,0.55,-0.4688888888888889,-0.6133333333333333,-0.15222222222222223,0.08423771691666661,0.020383799884982064,0.0012048257766466561
1592262555.1304915,-0.4029402797110095,9.826079627051987,0.5431393473409779,-0.4688888888888889,-0.6133333333333333,-0.15222222222222223,0.06581401153129288,0.017239469345415367,0.002181661564992912
1592262555.1404915,-0.4297337588112021,9.790266241188798,0.4813312059439893,-0.4688888888888889,-0.6133333333333333,-0.15222222222222223,0.04873887631116952,0.015184503729657635,0.0022397463818547444
1592262555.1504915,-0.42056384830423543,9.799812050565256,0.5301879494347452,-0.4688888888888889,-0.6133333333333333,-0.15222222222222223,0.035833398999204784,0.011835121784282759,0.00442482943867767
1592262555.1604915,-0.44268685057228757,9.792437716475904,0.5375622835240959,-0.4688888888888889,-0.6133333333333333,-0.15222222222222223,0.029398078499143415,0.0053998012842213835,0.006838074626200686
1592262555.1704915,-0.4294669822485207,9.799733491124261,0.5498667455621302,-0.4688888888888889,-0.6322222222222222,-0.15777777777777777,0.012668431066032746,0.0009454727397637922,0.00541054649966248
