time,acc_x,acc_y,acc_z,mag_x,mag_y,mag_z,gyr_x,gyr_y,gyr_z
1592289066.3276334,-0.35234943714821765,9.82673358348968,0.28071622889305814,-0.4955555555555556,-0.5733333333333334,-0.19555555555555557,-0.028083418029502916,0.06505920468785675,-0.051625357545124484
1592289066.3376334,-0.3067809759904513,9.782190240095487,0.24,-0.4955555555555556,-0.5733333333333334,-0.19555555555555557,-0.04097373347142222,0.03548818117944101,0.039675382936703155
1592289066.3476334,-0.38164396024821534,9.782565436476462,0.25953926188587695,-0.4955555555555556,-0.5733333333333334,-0.19555555555555557,-0.002526627320778893,-0.043087230617050325,0.030658640689535888
1592289066.3576334,-0.40476609672140396,9.764454225683277,0.32585764535485207,-0.4955555555555556,-0.5733333333333334,-0.19555555555555557,0.004091164307138486,-0.016602796198545357,0.03429203219737297
1592289066.3676333,-0.4067248568803449,9.741149904586896,0.4022998091737932,-0.5023693861364368,-0.5733333333333334,-0.2005110687052874,-0.01795503304807157,0.06384609672450703,0.021789709158792546
1592289066.3776333,-0.3924979551774906,9.75,0.48875511205627353,-0.5077777777777778,-0.5733333333333334,-0.20444444444444446,-0.0488166850165206,0.03858468157003823,-0.04349921953515108
1592289066.3876333,-0.39930738563416446,9.75,0.45564204788611845,-0.5077777777777778,-0.5733333333333334,-0.20444444444444446,-0.062490596525086636,-0.03449739757560531,-0.09291584910443959
1592289066.3976333,-0.28697995902314954,9.731546993853472,0.46920801639074017,-0.5077777777777778,-0.5733333333333334,-0.20444444444444446,-0.0793714710921773,-0.06058430443356397,-0.18549132651816547
1592289066.4076333,-0.27899856938483547,9.730615164520744,0.5318454935622318,-0.5077777777777778,-0.5733333333333334,-0.20444444444444446,-0.07439497147807017,-0.08553736316193955,-0.12877889413789706
1592289066.4176333,-0.4301390324409029,9.624106958290268,0.7917860834194645,-0.49561616228971944,-0.5826333922359661,-0.20730600102986996,0.03864457077533889,-0.08098981216650744,-0.0859376297287108
1592289066.4276333,-0.2324613355712744,9.580628222035728,0.906247851976182,-0.4888888888888889,-0.5877777777777777,-0.2088888888888889,0.12118875845613236,-0.05719915043538164,-0.09360398760984924
1592289066.4376333,-0.026398768363645908,9.719899538136367,0.5203616627090781,-0.4888888888888889,-0.5877777777777777,-0.2088888888888889,0.13493812747103393,-0.06615222777563301,-0.04183125274005073
1592289066.4476333,-0.0003845787493451658,9.714481592608468,0.2428427870648188,-0.4888888888888889,-0.5877777777777777,-0.2088888888888889,0.04749672669452956,-0.08308190542308448,-0.1360127586325323
1592289066.4576333,0.05329965556831229,9.790202066590126,0.23896747034060467,-0.4888888888888889,-0.5877777777777777,-0.2088888888888889,-0.03841294015214998,-0.08994273431055777,-0.05416440306324327
1592289066.4676332,0.09205697847710809,9.791914532284338,0.34157834540602366,-0.4932269704286479,-0.591392845727577,-0.21973409273828642,-0.04741229286561503,-0.10374888434384759,0.04122718819068911
1592289066.4776332,0.1131378332387975,9.761436944602004,0.36170088863679334,-0.4955555555555556,-0.5933333333333334,-0.22555555555555556,-0.0463267109154927,-0.1050908314561823,0.008736257285584116
1592289066.4876332,0.09,9.805547774144546,0.24452225855454568,-0.4955555555555556,-0.5933333333333334,-0.22555555555555556,-0.04517425201033006,-0.026271611368654843,-0.03486347308409133
1592289066.4976332,0.11401051939513478,9.870026298487836,0.18199211045364894,-0.4955555555555556,-0.5933333333333334,-0.22555555555555556,-0.05456735760488189,0.07201491268481205,-0.07334026132784521
1592289066.5076332,0.1111820644661912,9.919408967766904,0.1747044838834522,-0.4955555555555556,-0.5933333333333334,-0.22555555555555556,-0.10510139813351711,0.045061980193391776,-0.040964323541920714
1592289066.5176332,0.09441064511820489,9.934410645118204,0.1755893548817951,-0.4980059139545583,-0.5933333333333334,-0.22555555555555556,-0.15389423050165935,0.03232673454360439,0.041455722089253084
1592289066.5276332,0.1654587524200784,9.880492043254474,0.17595079567455257,-0.5011111111111111,-0.5933333333333334,-0.22555555555555556,-0.19962203319685143,0.0553321171504995,0.023322309308292148
1592289066.5376332,0.05919099756690996,9.80519792251544,0.16839930750514692,-0.5011111111111111,-0.5933333333333334,-0.22555555555555556,-0.2198690611515096,0.010994667813921324,0.012434715525757138
1592289066.5476332,-0.05566691074001465,9.78,0.25067057184023434,-0.5011111111111111,-0.5933333333333334,-0.22555555555555556,-0.23700127450748512,0.016072265759856135,-0.007854460870872573
1592289066.5576332,0.03936760708953796,9.757416452934196,0.3425835470658041,-0.5011111111111111,-0.5933333333333334,-0.22555555555555556,-0.2369211551013369,-0.014995697493604576,-0.024245606798994554
1592289066.5676332,0.15670213821501217,9.753085032494916,0.36670213821501213,-0.5011111111111111,-0.5915011878972289,-0.22299055194500947,-0.24927799575782017,-0.09245363166001608,-0.052522281845104074
1592289066.5776331,0.13435352396928157,9.870409142138234,0.32479542893088353,-0.5011111111111111,-0.5877777777777777,-0.21777777777777776,-0.2792526803190927,-0.0622541499128053,-0.11912728158113939
1592289066.5876331,0.07578565967489945,10.011103945750092,0.26066881627497257,-0.5011111111111111,-0.5877777777777777,-0.21777777777777776,-0.3175926101929612,0.024588964096112984,-0.15344587493007852
1592289066.5976331,0.0015297141521925385,10.08420671391853,0.24210335695926474,-0.5011111111111111,-0.5877777777777777,-0.21777777777777776,-0.39892894127708317,-0.05904241619490223,-0.1349253344261621
1592289066.607633,0.030249406175771966,10.289339158466237,0.4423939599592806,-0.5011111111111111,-0.5877777777777777,-0.21777777777777776,-0.23388798186863294,0.017129596721065402,-0.37437936157303653
1592289066.617633,0.16106290921621932,10.212523643603783,0.7956928437416242,-0.4957073511080479,-0.5877777777777777,-0.20549650504354336,-0.23120846965297237,-0.030083740515061158,-0.43993806486338
1592289066.627633,0.5278517243391492,10.10006739802766,1.0499663009861704,-0.4888888888888889,-0.5877777777777777,-0.19,-0.21179302045956394,0.04874644091761294,-0.559624676381595
1592289066.637633,0.6584505287143518,10.039908854630255,1.079361982411792,-0.4888888888888889,-0.5877777777777777,-0.19,-0.25309262637417757,0.15728558830449693,-0.7287644444651314
1592289066.647633,0.5738288176024495,10.03493110691779,1.044517748424538,-0.4888888888888889,-0.5877777777777777,-0.19,-0.2541786024606291,0.10895965245740101,-0.7336513368541636
1592289066.657633,0.48285593715509967,10.02859670194118,1.0085967019411803,-0.4888888888888889,-0.5877777777777777,-0.19,-0.25418287060046607,0.06193540021884028,-0.7399118724173458
1592289066.667633,-0.09947969489069758,9.892976946350194,0.8975433587591085,-0.48397560640710596,-0.5877777777777777,-0.19873472441205856,-0.18975091407303502,0.10860076435357097,-0.886738142006922
1592289066.677633,-0.2237932816537468,9.84249354005168,0.861405684754522,-0.4688888888888889,-0.5877777777777777,-0.22555555555555556,-0.26042217870269524,0.0881752063833776,-0.9899419010628192
1592289066.687633,-0.4405529715762274,10.050916318823296,0.6779936394355,-0.4688888888888889,-0.5877777777777777,-0.22555555555555556,-0.3495449399828461,0.3318986760066472,-0.9235545380684212
1592289066.697633,-0.6189931605293155,9.811480646280419,0.4711845170243346,-0.4688888888888889,-0.5877777777777777,-0.22555555555555556,-0.346922952062849,0.17227473734348384,-0.9683734711776951
1592289066.707633,-0.3229693149457652,9.938105781844943,0.2929181198604934,-0.4688888888888889,-0.5877777777777777,-0.22555555555555556,-0.21556939076841886,0.18457378294160914,-1.0047891790990606
1592289066.717633,-0.7868653818495613,9.53488925643607,0.9068143247519056,-0.46108650143023794,-0.589945107627403,-0.23119061316458123,-0.34007532130038437,0.23309028419187577,-1.0384950654343255
1592289066.727633,-0.6163242967554632,9.482213503864413,0.98,-0.4488888888888889,-0.5933333333333334,-0.24,-0.33367361992470823,0.2415910082501044,-1.0517118163082173
1592289066.737633,-0.9511602132039821,9.696027806762741,0.970264812882484,-0.4488888888888889,-0.5933333333333334,-0.24,-0.4067890690318445,0.20168399531812922,-1.1008903655841664
1592289066.747633,-1.1113344630880493,9.657314127503163,1.0846790939685418,-0.4488888888888889,-0.5933333333333334,-0.24,-0.31350143948718523,0.16020840624235527,-1.1596305268565381
1592289066.757633,-1.4423223113259365,9.51,1.16257717236076,-0.4488888888888889,-0.5933333333333334,-0.24,-0.2689739698720515,0.21002740607793619,-1.2041029481342715
1592289066.767633,-1.8242744901967787,9.390914967322596,1.1836645119817149,-0.42771821641290586,-0.5990670571289121,-0.24044105567658297,-0.2309229279433649,0.2240946490285256,-1.1987312865796982
1592289066.777633,-1.77,9.21,1.25,-0.39555555555555555,-0.6077777777777778,-0.2411111111111111,-0.210530341021816,0.17344209441693648,-1.1737339219661866
1592289066.787633,-1.7666968284984217,9.384615361491056,1.1144343905005263,-0.39555555555555555,-0.6077777777777778,-0.2411111111111111,-0.29631108980032195,0.2514537604310271,-1.1730527634808712
1592289066.797633,-1.6941075432988215,9.273232262989646,1.0361613149482323,-0.39555555555555555,-0.6077777777777778,-0.2411111111111111,-0.2599409835455781,0.17786407331732518,-1.067684315100787
1592289066.807633,-1.7079254136823907,9.24344988180503,1.032062943231133,-0.39555555555555555,-0.6077777777777778,-0.2411111111111111,-0.2858714056829937,0.11724904911042139,-0.9554596945909383
1592289066.817633,-1.817617802084572,9.278687829429716,1.047503269527999,-0.37560936516114257,-0.6242717429116192,-0.23382308000546023,-0.325690089859248,0.12457280619257578,-0.9200233169864455
1592289066.827633,-1.87,9.39,0.91,-0.3377777777777778,-0.6555555555555556,-0.22,-0.35997415822383044,0.23671027980173093,-0.9850201965942997
1592289066.837633,-2.125151683366177,9.475151683366178,1.1767914735352076,-0.3377777777777778,-0.6555555555555556,-0.22,-0.24375104162245226,0.12652653091823826,-1.1556468219134008
1592289066.847633,-2.003940982194141,9.291399339460082,1.2016944284893738,-0.3377777777777778,-0.6555555555555556,-0.22,-0.29876717936788016,0.22434562516455203,-1.0320100351368513
1592289066.8576329,-2.1853562812803804,9.33242393691715,1.2557966370215676,-0.3377777777777778,-0.6555555555555556,-0.22,-0.3258736874308728,0.2530727415391778,-0.9948247908910558
1592289066.8676329,-2.5095902865692254,9.385735988030843,1.366312579123029,-0.32676670801311153,-0.6619490799350392,-0.23136626556352646,-0.31566116111928155,0.22622186671231592,-1.0988517176920158
1592289066.8776329,-2.53,9.1,1.55,-0.30333333333333334,-0.6755555555555556,-0.25555555555555554,-0.27707101875409984,0.16907877128695067,-1.2064588454410803
1592289066.8876328,-2.6534442233718,8.984774373259054,1.6304512534818942,-0.30333333333333334,-0.6755555555555556,-0.25555555555555554,-0.20975820819415794,0.2852354219772463,-1.2192845498965434
1592289066.8976328,-2.84,9.1,1.4,-0.30333333333333334,-0.6755555555555556,-0.25555555555555554,-0.20616701789183017,0.34688418883387295,-1.3144510929082294
1592289066.9076328,-2.898716609760996,9.029197964785432,1.529037289951128,-0.30333333333333334,-0.6755555555555556,-0.25555555555555554,-0.21489366415180183,0.2513986299466258,-1.3028894696798898
1592289066.9176328,-2.950578313253012,8.980349397590361,1.568843373493976,-0.28065060240963857,-0.6755555555555556,-0.2527202141900937,-0.19262494514141634,0.20688328629720434,-1.2627930269602707
1592289066.9276328,-3.0979445039895204,9.154583779921401,1.2747961573577866,-0.25,-0.6755555555555556,-0.24888888888888888,-0.1595815588019572,0.273305615176522,-1.2523271734687118
1592289066.9376328,-3.161473450310321,8.827976400275842,1.3695088498965595,-0.25,-0.6755555555555556,-0.24888888888888888,-0.14359317737872823,0.3058655189712634,-1.3298898881850703
1592289066.9476328,-3.6531117374005304,8.906841843501326,1.3055023209549073,-0.25,-0.6755555555555556,-0.24888888888888888,-0.20787885545600646,0.2813140828538535,-1.3348638426157646
1592289066.9576328,-3.9118387578381606,8.72180889817856,1.4502388772767991,-0.25,-0.6755555555555556,-0.24888888888888888,-0.16686453788611136,0.26468049696710827,-1.3495582553132583
1592289066.9676328,-4.002303864948911,8.505470457574411,1.7460675255442026,-0.235204402981391,-0.6802278493509057,-0.2535611826842391,-0.12843841911312448,0.29527039882301315,-1.3066758100388385
1592289066.9776328,-4.554922075778653,8.493025251691698,1.5857979864664138,-0.20777777777777778,-0.6888888888888889,-0.26222222222222225,-0.10237045544747539,0.28378364155627006,-1.197637835232768
1592289066.9876328,-4.561967372489508,8.289068598392335,1.405832404619069,-0.20777777777777778,-0.6888888888888889,-0.26222222222222225,-0.07295485998809331,0.29702598228681176,-1.0541285544010013
1592289066.9976327,-4.47840230624449,8.069807495294594,1.429586162533057,-0.20777777777777778,-0.6888888888888889,-0.26222222222222225,-0.053886411724704375,0.27327253769465404,-0.9435654822063317
1592289067.0076327,-4.476541207008436,8.179097988319274,1.472031148604802,-0.20777777777777778,-0.6888888888888889,-0.26222222222222225,-0.07529209951294812,0.3118795635192455,-0.8996154374066312
1592289067.0176327,-4.6187835809465465,8.221756777454434,1.5210813294532088,-0.18061564643215738,-0.6949699630707442,-0.2597897925494801,-0.10666557402382071,0.390561661516976,-0.8053869817184586
1592289067.0276327,-4.93,8.19,1.14,-0.13333333333333333,-0.7055555555555556,-0.25555555555555554,-0.08726646259971647,0.3621558197888234,-0.6806784082777886
1592289067.0376327,-5.260956675161733,8.467037835718488,1.8812919035483238,-0.13333333333333333,-0.7055555555555556,-0.25555555555555554,-0.1487344885006734,0.12457112182013928,-0.5114469506197924
1592289067.0476327,-5.193261256556929,8.310424627946167,1.5467119223374712,-0.13333333333333333,-0.7055555555555556,-0.25555555555555554,-0.08595195596974459,0.21406094478538157,-0.38626739779186353
1592289067.0576327,-4.939730680077004,8.121938081954976,1.4686315954897262,-0.13333333333333333,-0.7055555555555556,-0.25555555555555554,-0.06650690667753163,0.4015030628169449,-0.41547245104385
1592289067.0676327,-5.487227329030576,8.251221722406937,1.704974248647239,-0.12913923115370407,-0.70380801298071,-0.26114769179506125,-0.10956985944178252,0.24102645378191595,-0.34280255165013324
1592289067.0776327,-4.98,8.45,1.28,-0.12,-0.7,-0.2733333333333333,-0.15817046346198613,0.04363323129985824,-0.3457933580513765
1592289067.0876327,-5.531517551479229,8.056281743395841,1.2936457002708088,-0.12,-0.7,-0.2733333333333333,-0.1149744897109851,0.2250890387317144,-0.1641443100941044
1592289067.0976326,-5.795771778497904,8.033293938238659,1.2375517060617613,-0.12,-0.7,-0.2733333333333333,-0.1206080974255512,0.13077844138336364,-0.09460942660877791
1592289067.1076326,-5.65,7.94,1.36,-0.12,-0.7,-0.2733333333333333,-0.074176493209759,0.05890486225480862,-0.04690572364734761
1592289067.1176326,-5.4826579925650565,7.661635687732342,1.1325278810408923,-0.1117306897976043,-0.7017719950433705,-0.26919867823213545,-0.14807318224110813,-0.021293503490293273,0.29084833319102066
1592289067.1276326,-5.49,7.97,1.25,-0.08888888888888889,-0.7066666666666667,-0.2577777777777778,-0.2617993877991494,0.028361600344907853,0.38615409700374537
1592289067.1376326,-5.8337047880126685,7.980126154419397,1.1498107683709047,-0.08888888888888889,-0.7066666666666667,-0.2577777777777778,-0.01669090419991676,0.07133794671982624,0.623163003091074
1592289067.1476326,-5.691979892824963,7.875998482477356,1.2420083463745437,-0.08888888888888889,-0.7066666666666667,-0.2577777777777778,-0.045815306704954525,-0.07111500758498045,0.8154927191752595
1592289067.1576326,-5.6761758979656705,7.843811784806103,1.1364415130324221,-0.08888888888888889,-0.7066666666666667,-0.2577777777777778,-0.07207906676975742,-0.16560231161339534,1.0386011909081847
1592289067.1676326,-5.151726676482399,7.732758666845135,1.0548253245884085,-0.082451999583575,-0.7054405925132735,-0.2577777777777778,-0.12439208742442186,-0.13545122220673064,1.180468425916376
1592289067.1776326,-5.55,7.74,0.7,-0.06555555555555556,-0.7022222222222222,-0.2577777777777778,-0.08726646259971647,-0.15598880189699318,1.4071717094204281
1592289067.1876326,-4.990815554955441,8.031582500675128,1.1727896300297056,-0.06555555555555556,-0.7022222222222222,-0.2577777777777778,-0.15638383405452164,-0.20372317987627775,1.2396144452875673
1592289067.1976326,-4.4059451970443355,8.568796182266011,1.589017857142857,-0.06555555555555556,-0.7022222222222222,-0.2577777777777778,-0.15861848324765432,-0.22391518400383995,1.433826199892359
1592289067.2076325,-4.2,8.634458843147891,1.569512185321359,-0.06555555555555556,-0.7022222222222222,-0.2577777777777778,-0.22376331306091637,-0.2368416449939091,1.4917443527681293
1592289067.2176325,-4.143379435107376,8.694146241830067,1.1413241129785245,-0.07637637462392365,-0.7024738691773005,-0.2645722455648926,-0.10640730904379497,-0.19553593742784672,1.5417203010372926
1592289067.2276325,-3.873031087467642,8.676651863110648,1.2093214904885172,-0.11333333333333333,-0.7033333333333334,-0.2877777777777778,-0.1694889435571021,-0.14657665267229744,1.580880119187403
1592289067.2376325,-3.6024610060209548,8.692947186270327,1.3975389939790452,-0.11333333333333333,-0.7033333333333334,-0.2877777777777778,-0.23997819534533982,-0.27214591234102203,1.5399112784799553
1592289067.2476325,-3.17769768769626,8.599276334570368,1.6364254448567894,-0.11333333333333333,-0.7033333333333334,-0.2877777777777778,-0.20238014625585843,-0.2658565018884687,1.5125541735638626
1592289067.2576325,-2.787571070234114,8.699429256943434,1.6815717245892103,-0.11333333333333333,-0.7033333333333334,-0.2877777777777778,-0.22589524062590233,-0.27529451271131017,1.398709780365944
1592289067.2676325,-2.6285116119437135,9.037023223887427,1.821418601990619,-0.11664340464477747,-0.702860466003127,-0.28722609922587045,-0.12864190754596233,-0.2736209434980768,1.3061886830641012
1592289067.2776325,-2.74,9.26,1.84,-0.16,-0.6966666666666667,-0.28,-0.27052603405912107,-0.3141592653589793,1.3122694313432366
1592289067.2876325,-2.3942134801144026,8.938365171874157,1.5354101235767093,-0.16,-0.6966666666666667,-0.28,-0.18639479019053318,-0.36917452207713974,1.104167102694505
1592289067.2976325,-2.1618582279686644,9.31565635640641,1.9165738028906827,-0.16,-0.6966666666666667,-0.28,-0.10706481922418372,-0.37060244017394456,0.8473917518310636
1592289067.3076324,-1.801381338814274,9.905486374428577,2.0206031397285518,-0.16,-0.6966666666666667,-0.28,0.020747006955373078,-0.2425061131956437,0.5319731506608188
1592289067.3176324,-1.6304523547964136,9.97980332400156,1.730767036393919,-0.16,-0.6966666666666667,-0.28,0.023989695605590933,-0.25304485130885174,0.31147032244600453
1592289067.3276324,-1.68,10.1,1.56,-0.2,-0.6788888888888889,-0.28,-0.08944812416470939,-0.210530341021816,-0.016362461737446838
1592289067.3376324,-1.442231879259443,10.073198962558287,1.7598946003366167,-0.2,-0.6788888888888889,-0.28,-0.08107043058780106,-0.015317620233863679,-0.16778441988664552
1592289067.3476324,-1.520747756493737,9.720654701299932,1.7755134610375771,-0.2,-0.6788888888888889,-0.28,-0.0648176078028182,-0.04147187122884023,-0.5044931067735837
1592289067.3576324,-1.5182882171321892,9.68543889567028,1.8908558914339053,-0.2,-0.6788888888888889,-0.28,-0.06812546445143669,-0.02866882973704847,-0.736472754063488
1592289067.3676324,-1.5785208587635529,9.933898542399655,1.8607395706182237,-0.2,-0.6788888888888889,-0.28,0.04521327936299466,0.07809955211712599,-0.8843058981692681
1592289067.3776324,-1.82,9.64,2.06,-0.22666666666666666,-0.6644444444444444,-0.2733333333333333,-0.12326387842209952,0.017453292519943295,-1.0635600129340446
1592289067.3876324,-1.844293529902963,9.66853782141726,1.8071358230873333,-0.22666666666666666,-0.6644444444444444,-0.2733333333333333,-0.061392392406859904,0.08352084450496275,-1.200060230392404
1592289067.3976324,-1.9564031220640312,9.288265279082653,1.7094642383946423,-0.22666666666666666,-0.6644444444444444,-0.2733333333333333,-0.007418784535492629,0.030777032010382288,-1.1766086687830006
1592289067.4076324,-2.0834499613635957,9.309853541071396,1.6962571207791974,-0.22666666666666666,-0.6644444444444444,-0.2733333333333333,-0.06688017668680168,0.06669689155343705,-1.3372072065888287
1592289067.4176323,-2.29449530073499,9.47567487914892,1.8168544575628516,-0.22666666666666666,-0.6644444444444444,-0.2733333333333333,-0.1877429218483842,0.11438423318181654,-1.2278551990616826
1592289067.4276323,-2.37,9.54,1.63,-0.2,-0.6766666666666666,-0.28888888888888886,-0.3359758810089084,0.0,-1.4420782944603148
1592289067.4376323,-2.4440263913398477,8.896890984275817,1.7183493560197012,-0.2,-0.6766666666666666,-0.28888888888888886,-0.297351903717222,0.1218177310676555,-1.422803455028309
1592289067.4476323,-2.9560867706774956,9.139346726508514,1.834783073306262,-0.2,-0.6766666666666666,-0.28888888888888886,-0.2821218520310363,0.238156872023443,-1.4282295538400165
1592289067.4576323,-2.9904381494354304,8.767341749356193,2.0964848997820957,-0.2,-0.6766666666666666,-0.28888888888888886,-0.21346719010633045,0.23701405993860583,-1.422423165634007
1592289067.4676323,-3.420979128023195,9.258309531956275,2.26265861081597,-0.2,-0.6766666666666666,-0.28888888888888886,-0.27855866528704065,0.14061276125325012,-1.2897683871011671
1592289067.4776323,-3.81,8.65,2.1,-0.14,-0.6888888888888889,-0.3111111111111111,-0.3141592653589793,0.12980886311707826,-1.1519173063162573
1592289067.4876323,-3.581889411904904,8.782960138235119,2.255192456652565,-0.14,-0.6888888888888889,-0.3111111111111111,-0.2157593156906613,0.06360099829200848,-1.075030147684106
1592289067.4976323,-3.960148401826484,8.422580384322679,2.014938165905632,-0.14,-0.6888888888888889,-0.3111111111111111,-0.06489229046250107,0.16655357896611164,-1.09604393046408
1592289067.5076323,-4.208487154921581,8.508893974877582,1.9640630544319069,-0.14,-0.6888888888888889,-0.3111111111111111,-0.07259058503305628,0.09748027637475759,-1.140925237302828
1592289067.5176322,-4.483820878574977,8.464245262933789,2.060801930310127,-0.14,-0.6888888888888889,-0.3111111111111111,-0.1626933353992053,0.16485440502692306,-1.166900804975952
1592289067.5276322,-4.7,8.31,2.06,-0.12,-0.6844444444444444,-0.29444444444444445,-0.04799655442984406,-0.061086523819801536,-0.978475211899321
1592289067.5376322,-4.249124275038232,7.78554462301988,2.172665550970944,-0.12,-0.6844444444444444,-0.29444444444444445,-0.07644452230994453,-0.08055031658681594,-0.9418447069359523
1592289067.5476322,-4.959006809774029,8.073442116920758,1.6152312731214213,-0.12,-0.6844444444444444,-0.29444444444444445,0.06732723049684411,0.03148272478839097,-0.7419874986930715
1592289067.5576322,-5.051197717617363,7.871197717617362,1.5686511900741242,-0.12,-0.6844444444444444,-0.29444444444444445,-0.08461486174104306,0.06267201631714711,-0.5215109816732098
1592289067.5676322,-5.334510727553904,8.154510727553903,1.747585722665624,-0.12,-0.6844444444444444,-0.29444444444444445,-0.12283904058068428,-0.05118723980093311,-0.5572953193103206
1592289067.5776322,-5.08,8.19,2.04,-0.07444444444444444,-0.6822222222222222,-0.3022222222222222,-0.17344209441693648,0.004363323129985824,-0.47342055960346185
1592289067.5876322,-5.402013572174295,7.904778284521128,1.7485529424693664,-0.07444444444444444,-0.6822222222222222,-0.3022222222222222,-0.049739611991819345,0.03715675693975468,-0.45758604102400335
1592289067.5976322,-5.638334722453743,7.583757292882147,1.692510418403067,-0.07444444444444444,-0.6822222222222222,-0.3022222222222222,-0.15907964064359678,-0.005639444222094531,-0.3682891290559688
1592289067.6076322,-5.718394042705904,7.785905257491477,1.9502942759734434,-0.07444444444444444,-0.6822222222222222,-0.3022222222222222,-0.1594685775386982,-0.08917174643908854,-0.3076833750954058
1592289067.6176322,-5.951703391351158,7.959005741970214,2.048133680244034,-0.07444444444444444,-0.6822222222222222,-0.3022222222222222,-0.14469109899600163,-0.10887505116268395,-0.30275754891450696
1592289067.6276321,-6.31,7.38,2.01,-0.035555555555555556,-0.6911111111111111,-0.30333333333333334,-0.16907877128695067,-0.10253809355466686,-0.0818123086872342
1592289067.6376321,-6.6481265953402495,7.591799543800576,2.4434182371150817,-0.035555555555555556,-0.6911111111111111,-0.30333333333333334,-0.1692670140942815,-0.19863428423489177,0.05325885174703417
1592289067.6476321,-6.211807119895226,7.24867508036671,2.3658645076794858,-0.035555555555555556,-0.6911111111111111,-0.30333333333333334,-0.019122722080392097,-0.15205053781986538,0.4100121078482547
1592289067.657632,-6.312498934507742,7.158748401761614,2.021039210115073,-0.035555555555555556,-0.6911111111111111,-0.30333333333333334,0.09410751665255279,-0.1359895143599119,0.49516798134170115
1592289067.667632,-6.580638585026282,7.5609578775394235,2.639250071032817,-0.035555555555555556,-0.6911111111111111,-0.30333333333333334,-0.06595223891498209,-0.31798639378695664,0.7511010930359828
1592289067.677632,-5.63,7.46,2.01,-0.021111111111111112,-0.7233333333333334,-0.3322222222222222,-0.14289883250703572,-0.27270769562411395,0.7821256710499589
1592289067.687632,-6.014929631771737,7.400647773279352,3.046028532870638,-0.021111111111111112,-0.7233333333333334,-0.3322222222222222,-0.05961778231508682,-0.16097272299095572,1.061089397928691
1592289067.697632,-5.772196224283226,7.635191375170661,2.4575083564803917,-0.021111111111111112,-0.7233333333333334,-0.3322222222222222,-0.01008339304415195,-0.3173577808813575,1.27584050543894
1592289067.707632,-5.062903322358576,7.793894043699491,2.669009278659084,-0.021111111111111112,-0.7233333333333334,-0.3322222222222222,-0.07979161077856298,-0.2156452632123546,1.373227641335585
1592289067.717632,-4.959517228022607,7.756970438579502,2.6025467894431045,-0.021111111111111112,-0.7233333333333334,-0.3322222222222222,0.031374027202568794,-0.12784052016928676,1.5109763666600307
1592289067.727632,-4.46,7.78,2.76,-0.035555555555555556,-0.6966666666666667,-0.29444444444444445,0.09817477042468103,0.10471975511965977,1.3297227238631797
1592289067.737632,-4.345862211066572,7.732442587944405,2.436609598021953,-0.035555555555555556,-0.6966666666666667,-0.29444444444444445,0.24758078676228126,0.07151841815574861,1.424139025854302
1592289067.747632,-4.473170709085007,8.051529935537728,2.293015350368687,-0.035555555555555556,-0.6966666666666667,-0.29444444444444445,0.15062413829913487,-0.16115268140285466,1.447319573729531
1592289067.757632,-4.349802478907698,8.132084405188078,1.6406539063483783,-0.035555555555555556,-0.6966666666666667,-0.29444444444444445,0.11596544360704786,-0.03718781442208051,1.3384292956499553
1592289067.767632,-4.115901347388872,8.690429041716888,2.033004191476731,-0.035555555555555556,-0.6966666666666667,-0.29444444444444445,-0.10955118827710522,-0.07175605726563683,1.4396648639775131
1592289067.777632,-3.94,8.76,2.4,-0.10111111111111111,-0.6977777777777778,-0.3111111111111111,-0.04581489286485115,-0.08508480103472357,1.4398966328953218
1592289067.787632,-3.190270900087387,8.532234197494901,2.6467462860471893,-0.10111111111111111,-0.6977777777777778,-0.3111111111111111,-0.05409669115060345,0.11471358260905054,1.2670140936802428
1592289067.797632,-3.8472020997375327,9.088800047721307,2.136798138869005,-0.10111111111111111,-0.6977777777777778,-0.3111111111111111,-0.050046800947811804,0.1919871286971235,1.1402246726788436
1592289067.807632,-3.381660608241857,9.049028612560734,2.4636033831203887,-0.10111111111111111,-0.6977777777777778,-0.3111111111111111,-0.12172941302228402,0.03661779761201806,0.9367145505412563
1592289067.817632,-2.7325517365484977,8.792404174914523,2.327743386719453,-0.10111111111111111,-0.6977777777777778,-0.3111111111111111,0.07175426782904726,0.14118131875295029,0.8889611314375235
1592289067.827632,-3.29,8.87,1.9,-0.13444444444444445,-0.6977777777777778,-0.29444444444444445,0.02181661564992912,0.14726215563702155,0.7341291166201148
1592289067.837632,-2.6045775759968417,9.08933517568101,2.1193351756810106,-0.13444444444444445,-0.6977777777777778,-0.29444444444444445,-0.053948278767157146,0.1492559686479975,0.8198630760920809
1592289067.847632,-2.8270640281609745,9.596620683093901,1.7852216725335364,-0.13444444444444445,-0.6977777777777778,-0.29444444444444445,-0.05084131782004496,0.12324130628860196,0.4839967716712208
1592289067.857632,-2.609296717897156,9.462263896868716,1.741406564205688,-0.13444444444444445,-0.6977777777777778,-0.29444444444444445,-0.1503023058850288,0.06837456060213185,0.2725856783199099
1592289067.867632,-2.6017660155127835,9.37942617064062,1.7564679689744327,-0.13444444444444445,-0.6977777777777778,-0.29444444444444445,-0.04268944801655353,0.14641441936171315,0.1427930711197641
1592289067.877632,-2.88,10.07,2.12,-0.16666666666666666,-0.6966666666666667,-0.3111111111111111,-0.02181661564992912,0.09381144729469522,-0.12217304763960307
1592289067.887632,-2.087352373290426,9.344811745776349,2.077837892196299,-0.16666666666666666,-0.6966666666666667,-0.3111111111111111,-0.06780834069713991,0.11036846831169109,-0.1700044416887023
1592289067.897632,-2.1072425719981744,9.209971416904859,2.0715675065452883,-0.16666666666666666,-0.6966666666666667,-0.3111111111111111,0.12699378973533298,0.16583310887536012,-0.36242977858741543
1592289067.9076319,-2.292080601826975,9.663360558839333,2.0791203653949486,-0.16666666666666666,-0.6966666666666667,-0.3111111111111111,0.0048864647062233785,0.08201283163763293,-0.4631569028771484
1592289067.9176319,-2.081727028479312,9.468032240730789,1.9514056958624395,-0.16666666666666666,-0.6966666666666667,-0.3111111111111111,0.164689071270768,0.1483923759029053,-0.8548781640969039
1592289067.9276319,-2.14,9.15,1.91,-0.17333333333333334,-0.6911111111111111,-0.3088888888888889,0.14726215563702155,0.13199052468207118,-1.0570150282390658
1592289067.9376318,-2.116294782220901,9.44236435260889,1.8941965214806005,-0.17333333333333334,-0.6911111111111111,-0.3088888888888889,0.15070993980491804,0.1457816613536571,-1.1647582834858308
1592289067.9476318,-2.1391354952640875,9.45201717771713,1.8705763364906085,-0.17333333333333334,-0.6911111111111111,-0.3088888888888889,0.2194268549746792,0.21300760739670682,-1.2473980977166113
1592289067.9576318,-1.9464781929251314,9.101660747265237,1.9087043614149737,-0.17333333333333334,-0.6911111111111111,-0.3088888888888889,0.18766272176812343,0.27927902514549197,-1.5002097036059545
1592289067.9676318,-2.3377191328934965,9.334750235626768,1.9635391140433553,-0.17333333333333334,-0.6911111111111111,-0.3088888888888889,0.12562700241226737,0.31313834644567207,-1.6412752018055523
1592289067.9776318,-2.43,8.94,2.15,-0.14666666666666667,-0.6911111111111111,-0.31555555555555553,0.07199483164476608,0.24107360293171679,-1.578432142272372
1592289067.9876318,-2.462663413073046,9.029824385950876,2.084673173853908,-0.14666666666666667,-0.6911111111111111,-0.31555555555555553,0.007860370050110074,0.22503998753305277,-1.5374573473646749
1592289067.9976318,-2.839051456001567,8.923992554676593,1.7650589013249738,-0.14666666666666667,-0.6911111111111111,-0.31555555555555553,0.06971848946227256,0.23971091267865421,-1.682742077789193
1592289068.0076318,-2.81,8.74,1.92,-0.14666666666666667,-0.6911111111111111,-0.31555555555555553,0.0,0.33161255787892263,-1.7704183599917482
1592289068.0176318,-3.004188523856414,8.53367469340256,2.0413678274102587,-0.14666666666666667,-0.6911111111111111,-0.31555555555555553,0.03971752864314819,0.2826276058857065,-1.7929249595561987
1592289068.0276318,-3.8,8.66,1.96,-0.10777777777777778,-0.7111111111111111,-0.2788888888888889,0.032724923474893676,0.15598880189699318,-1.578432142272372
1592289068.0376318,-3.761967934966693,8.355743479733544,1.9828192390199841,-0.10777777777777778,-0.7111111111111111,-0.2788888888888889,0.05595738994062717,0.22817539412980795,-1.6356835774915006
1592289068.0476317,-4.121654720362161,8.359714703385833,1.7605705932283315,-0.10777777777777778,-0.7111111111111111,-0.2788888888888889,0.1383799042126129,0.25325946773650226,-1.5778470668540887
1592289068.0576317,-4.408447844949543,8.310267612939734,1.8594647741205321,-0.10777777777777778,-0.7111111111111111,-0.2788888888888889,0.11141070003086663,0.2856225127545977,-1.4764428591307226
1592289068.0676317,-4.357092566086279,8.098370264345116,1.8146507709310964,-0.10777777777777778,-0.7111111111111111,-0.2788888888888889,0.18794065911244545,0.34186177804902707,-1.5055750497362108
1592289068.0776317,-5.033500477996731,8.302133098960743,2.028240663644494,-0.06095918010711238,-0.7218403730773053,-0.2662088520197503,0.22994852162902046,0.300603925967324,-1.4395147899800933
1592289068.0876317,-5.197533846427392,7.809376920927633,1.7898646142904315,-0.05444444444444444,-0.7233333333333334,-0.2644444444444444,0.19867015733762505,0.39863504760736657,-1.5521191226357338
1592289068.0976317,-5.358406405624451,7.89890440386681,1.0671711746899717,-0.05444444444444444,-0.7233333333333334,-0.2644444444444444,0.16720131953689868,0.35607801445250387,-1.336302432787735
1592289068.1076317,-5.5575176546115985,7.574095869890863,1.9389535630216135,-0.05444444444444444,-0.7233333333333334,-0.2644444444444444,0.13673294243880088,0.2952825005275309,-1.4956798002957918
1592289068.1176317,-5.770102715530515,8.04273110994366,1.7924229633521132,-0.05444444444444444,-0.7233333333333334,-0.2644444444444444,0.23703220738053657,0.23477211413177473,-1.1604790859756535
1592289068.1276317,-6.43,7.81,1.09,0.01,-0.7377777777777778,-0.28555555555555556,0.14944381720201447,0.1112647398146385,-1.1453723216212788
1592289068.1376317,-6.1587617121393485,6.963407768192512,1.6078185495521526,0.01,-0.7377777777777778,-0.28555555555555556,0.23103361027744787,0.010846532952566601,-1.2197893856351356
1592289068.1476316,-6.635014088876251,7.480382079983455,1.6713623555567043,0.01,-0.7377777777777778,-0.28555555555555556,0.16700404119902074,0.14507468503081689,-0.8624009807505589
1592289068.1576316,-7.1739567167366705,7.3059419567641966,0.9907968486746873,0.01,-0.7377777777777778,-0.28555555555555556,0.12661224046948916,0.1346259031013295,-0.7566808219110429
1592289068.1676316,-6.959863556026865,7.184931778013432,1.236095263343938,0.01,-0.7377777777777778,-0.28555555555555556,0.15211853119598517,-0.023512261781978377,-0.7396430753591666
1592289068.1776316,-7.02,6.97,1.34,0.07111111111111111,-0.7355555555555555,-0.28555555555555556,0.09381144729469522,-0.33161255787892263,-0.39269908169872414
1592289068.1876316,-7.2151769739401015,7.232738234150136,1.3625204200700118,0.07111111111111111,-0.7355555555555555,-0.28555555555555556,0.046317243563597094,-0.21287704855117728,-0.27314470678940816
1592289068.1976316,-7.117657287215459,7.835676852374426,1.2745042865973286,0.07111111111111111,-0.7355555555555555,-0.28555555555555556,0.030543261909900768,0.015104997017792443,0.21240837350743788
1592289068.2076316,-7.5312830511698685,7.534463096823282,0.456157742058208,0.07111111111111111,-0.7355555555555555,-0.28555555555555556,-0.1543205746895121,-0.2976856870371636,0.19166064923968498
1592289068.2176316,-7.385296488506055,6.904152087457422,1.4368651579191412,0.07111111111111111,-0.7355555555555555,-0.28555555555555556,-0.019584004682918155,-0.27292028633249626,0.4593000466386651
1592289068.2276316,-6.942336452167272,7.087356119915983,1.6114141684170327,0.0887795811851569,-0.7377641143148113,-0.2590528504444869,0.04792948406284695,-0.23900596099061894,0.6691329319663514
1592289068.2376316,-6.894484279756176,6.836412415784408,2.039148219441771,0.08888888888888889,-0.7377777777777778,-0.2588888888888889,0.038066564683951955,-0.23321766151192835,0.7555935832566056
1592289068.2476315,-6.778918681800734,7.237379777375665,1.3227542907276417,0.08888888888888889,-0.7377777777777778,-0.2588888888888889,0.12512442768485896,-0.21426860621041408,1.0223271835715864
1592289068.2576315,-6.999352903516468,6.968905935076945,1.6428352263296422,0.08888888888888889,-0.7377777777777778,-0.2588888888888889,0.08713736729145197,-0.23672978247903637,1.1930354423466873
1592289068.2676315,-6.985209053244803,7.065247408318709,1.5756271597344091,0.08888888888888889,-0.7377777777777778,-0.2588888888888889,0.02066344096639769,-0.35578113123883703,1.3203119524593723
1592289068.2776315,-6.888337503655802,6.72802001754785,1.8484837357423716,0.07255638962004932,-0.7532029159761263,-0.2588888888888889,0.0647189871352255,-0.4246958748287291,1.1776707388739973
1592289068.2876315,-6.744077010753754,7.035757966202488,1.821060508449378,0.06888888888888889,-0.7566666666666667,-0.2588888888888889,0.2416296947231604,-0.29624156294496656,1.3140140362217494
1592289068.2976315,-6.195962250627165,6.9985366145024495,2.2173169274877553,0.06888888888888889,-0.7566666666666667,-0.2588888888888889,0.052271266290913665,-0.21330621933130584,1.4199867232553662
1592289068.3076315,-6.257298087204466,7.405054770108115,2.007357966021148,0.06888888888888889,-0.7566666666666667,-0.2588888888888889,0.11420442315066881,-0.4325442777197908,1.3817443751932177
1592289068.3176315,-5.392140056123184,7.65415347532019,1.8030669880558354,0.06888888888888889,-0.7566666666666667,-0.2588888888888889,0.031958151376613106,-0.1816562707613365,1.5250930443324564
1592289068.3276315,-6.004661016949152,7.966755215123859,1.6116223924380706,0.0360471896276981,-0.7500983268144286,-0.2446574858757062,-0.13235416457216187,-0.18885212363853837,1.622737898482625
1592289068.3376315,-6.057594744820617,7.869747347145022,1.8167710965133905,0.035555555555555556,-0.75,-0.24444444444444444,-0.050102701180687395,-0.3289607201353195,1.540453702785364
1592289068.3476315,-4.371104633741044,7.642633958974638,2.2571146040480534,0.035555555555555556,-0.75,-0.24444444444444444,0.11434523952583406,-0.36223810234723497,1.2480619351345377
1592289068.3576314,-5.436231161798884,7.78202889522486,1.552866760907588,0.035555555555555556,-0.75,-0.24444444444444444,0.15730270191610482,0.03126675372102916,1.1061920593191965
1592289068.3676314,-5.25971742369888,7.88007064407528,1.6034510734588001,0.035555555555555556,-0.75,-0.24444444444444444,0.1496768055086683,0.0411800510622532,1.1227325408248694
1592289068.3776314,-5.368563439356868,8.556371897937785,1.2699126179657463,-0.010591867645345455,-0.7452910792652142,-0.23314303468095848,0.08180277678595407,-0.04068215466353438,1.1002128422884483
1592289068.3876314,-4.964948762233736,8.462753022452505,1.2457489925158318,-0.01888888888888889,-0.7444444444444445,-0.2311111111111111,0.012086681388739078,-0.04968410795818285,1.0032528333865964
1592289068.3976314,-4.900766727290131,8.580803101368813,1.3334306499473534,-0.01888888888888889,-0.7444444444444445,-0.2311111111111111,-0.07025108951136025,-0.11110153808083531,0.6049451814472542
1592289068.4076314,-4.702371898469437,8.69607210761479,1.9122770700636944,-0.01888888888888889,-0.7444444444444445,-0.2311111111111111,0.0044171439471847734,-0.20858465107442653,0.5736217512013309
1592289068.4176314,-3.9748153955808982,8.615601924447612,1.5260723449750535,-0.01888888888888889,-0.7444444444444445,-0.2311111111111111,-0.02863582416314485,-0.0011931884963351236,0.3929214463486129
1592289068.4276314,-4.547309264862212,8.579100089950119,1.9161063864584185,-0.07247830748403158,-0.7495000499722881,-0.22403326337213,-0.10596383206164015,0.06023510671137658,0.32718411851120494
1592289068.4376314,-4.008289414917374,8.771990471936878,1.769429804972458,-0.07777777777777778,-0.75,-0.22333333333333333,-0.10586011744728968,0.10385871822688084,0.10893221003512432
1592289068.4476314,-3.9052671957671956,8.730585978835979,1.5393174603174602,-0.07777777777777778,-0.75,-0.22333333333333333,-0.152875749763083,0.09664775161897204,-0.17279235751037808
1592289068.4576313,-3.6177537044548904,8.819786203440788,1.8451339807678542,-0.07777777777777778,-0.75,-0.22333333333333333,-0.08506723175895498,0.09878144402410902,-0.3780459413079409
1592289068.4676313,-3.478869801084991,8.783832939212687,1.6129239115315064,-0.07777777777777778,-0.75,-0.22333333333333333,-0.11624449082804231,0.11737553167554941,-0.6455573442684961
1592289068.4776313,-3.3670756250483787,9.048890781020203,1.786084062233919,-0.07253407986514264,-0.7456302517394707,-0.23469467881070946,-0.16692277831533794,0.17739108929785427,-0.885624437042729
1592289068.4876313,-3.2902319014719135,8.848738359867829,1.9643784920396514,-0.07111111111111111,-0.7444444444444445,-0.23777777777777778,-0.15234898563626303,0.19012836479940076,-0.928041999054097
1592289068.4976313,-3.766822048794207,8.838102017858398,1.9482472052309638,-0.07111111111111111,-0.7444444444444445,-0.23777777777777778,-0.18448450317863696,0.30659013604935764,-1.0998256306298995
1592289068.5076313,-3.3774880840047423,8.540352277951174,2.125728387892865,-0.07111111111111111,-0.7444444444444445,-0.23777777777777778,-0.21807296437974424,0.4132932468832962,-1.1938073619967904
1592289068.5176313,-3.2710118951213807,8.43,2.37227374975256,-0.07111111111111111,-0.7444444444444445,-0.23777777777777778,-0.14821665465568498,0.5232650032469017,-1.37326889521018
1592289068.5276313,-3.713941788592442,8.372930913074093,2.2943345591111806,-0.07654626224691165,-0.73266828365021,-0.23777777777777778,0.07492379892382982,0.5184722720554281,-1.3829179861111465
1592289068.5376313,-3.7968857552581263,8.491142447418738,2.118857552581262,-0.07777777777777778,-0.73,-0.23777777777777778,0.060313765110595156,0.6317589234057749,-1.4004583029554944
1592289068.5476313,-3.717960685905479,8.621225428690924,1.7638820577164367,-0.07777777777777778,-0.73,-0.23777777777777778,-0.08196642104119795,0.6973326706712306,-1.5311682830481694
1592289068.5576313,-3.9908335915711186,8.311087697551907,1.5322683607065386,-0.07777777777777778,-0.73,-0.23777777777777778,-0.14924437804438417,0.8784169245486808,-1.490983818203494
1592289068.5676312,-4.408152071855014,8.46809963328432,1.580039328928021,-0.07777777777777778,-0.73,-0.23777777777777778,-0.06802751369477066,0.7842444108471376,-1.4516670230489692
1592289068.5776312,-4.478525884867587,8.226845632721082,1.4504434300619498,-0.054375732106413555,-0.7440412274028185,-0.23777777777777778,-0.027988229000016844,0.8414802545055359,-1.374266897465227
1592289068.5876312,-4.533692824842931,8.025640881988075,1.428410500620273,-0.044444444444444446,-0.75,-0.23777777777777778,-0.06669743363848032,0.8225252170200411,-1.331400854551543
1592289068.5976312,-5.165413782023194,7.900314900826688,1.54,-0.044444444444444446,-0.75,-0.23777777777777778,-0.029673509734857953,0.5457566960859962,-1.3537060245797587
1592289068.6076312,-5.480523097986451,7.934941812430659,1.1946514647215731,-0.044444444444444446,-0.75,-0.23777777777777778,-0.014941829933723966,0.5849135439724532,-1.2404142398404217
1592289068.6176312,-5.434151232596756,7.991933835738919,1.3516030144335165,-0.044444444444444446,-0.75,-0.23777777777777778,-0.014407214787546117,0.5398482390263059,-1.1441581819561013
1592289068.6276312,-5.0703729530450685,7.934392272298591,1.605607727701409,-0.01812799481771503,-0.7484146717092331,-0.23777777777777778,-0.021491776212541988,0.48060708659997514,-1.1319358152652947
1592289068.6376312,-4.441066131290904,7.7545903232259725,1.7854096767740275,0.037144456193497384,-0.7450850059856662,-0.23777777777777778,-0.043720239636686205,0.4498795048077758,-1.1907758655056764
1592289068.6476312,-5.167517279733058,7.677624136013347,1.5233689520934297,0.04777777777777778,-0.7444444444444445,-0.23777777777777778,0.014663861329332867,0.4948155150347339,-1.3007086356370121
1592289068.6576312,-6.451341325375592,7.644726281127804,1.3298996707141386,0.04777777777777778,-0.7444444444444445,-0.23777777777777778,0.08990396526449516,0.39614073251392523,-1.2934655089210099
1592289068.6676311,-6.283739196656277,7.2178023165202605,1.5708405355624822,0.04777777777777778,-0.7444444444444445,-0.23777777777777778,0.22755563933030726,0.3415637613785394,-1.2487337930441447
1592289068.6776311,-6.6243136662385735,6.977295459696306,1.3567636171337916,0.06507474839045436,-0.748047979988752,-0.23345353512460862,0.38969087085908893,0.3467661810012421,-1.1810171972844474
1592289068.6876311,-6.935327593696932,6.968732672485289,1.2425777023024367,0.07444444444444444,-0.75,-0.2311111111111111,0.39875786457658446,0.3202989095526939,-1.0704039303251942
1592289068.6976311,-7.332393108988664,6.855620815852896,1.0180808711952154,0.07444444444444444,-0.75,-0.2311111111111111,0.4199723828687715,0.35028481947554835,-0.8055403153352833
1592289068.707631,-7.380503227630401,6.8202516138152,0.7453145172690006,0.07444444444444444,-0.75,-0.2311111111111111,0.4695408965433668,0.20914463693209706,-0.8394165426900306
1592289068.717631,-7.579140099648096,6.876090031706212,0.6928249886763528,0.07444444444444444,-0.75,-0.2311111111111111,0.3885457076730382,0.036585873820550105,-0.6556284852055209
1592289068.727631,-7.7537836262180395,6.664728075289414,0.6896622803364704,0.0962914225960782,-0.7449023717646188,-0.22164408724540313,0.3814005295474322,-0.020224386092668113,-0.3363361449772594
1592289068.737631,-7.893602218883625,6.673602218883624,0.7118155552987403,0.10777777777777778,-0.7422222222222222,-0.21666666666666667,0.386284573122997,-0.048259019434947224,-0.19859410829213908
1592289068.747631,-7.761138952164009,6.87371298405467,0.5936674259681094,0.10777777777777778,-0.7422222222222222,-0.21666666666666667,0.27570934388209967,-0.27063288081002623,0.01547290041595771
1592289068.757631,-7.8288685477021795,6.690796451825989,0.44205435500613377,0.10777777777777778,-0.7422222222222222,-0.21666666666666667,0.18955287348351385,-0.34425433653310683,0.1679858817505003
1592289068.767631,-7.728099741740137,6.8924411790898565,0.5101387478849407,0.10777777777777778,-0.7422222222222222,-0.21666666666666667,0.10216739177659165,-0.289731281056757,0.2763508897496786
1592289068.777631,-7.47969355683604,7.173338696400509,0.669096759709646,0.1301702462022001,-0.7537383488404966,-0.19427419824224434,-0.016070387162892302,-0.2094043274160571,0.46368046844603505
1592289068.787631,-7.480795847750866,7.218075259515571,0.7527205882352941,0.14666666666666667,-0.7622222222222222,-0.17777777777777778,-0.06326818538479445,-0.18669625459941505,0.625814621132012
1592289068.797631,-7.444101585787529,7.139812209371646,0.8389543340884703,0.14666666666666667,-0.7622222222222222,-0.17777777777777778,-0.06326818538479445,-0.20248808150054667,0.879168641132529
1592289068.807631,-7.434955575616478,6.809735116643703,1.348051978904357,0.14666666666666667,-0.7622222222222222,-0.17777777777777778,-0.04473375397936267,-0.21989411289632793,1.054282742536037
1592289068.817631,-7.456906570451956,6.646978731484999,1.5232377516141284,0.14666666666666667,-0.7622222222222222,-0.17777777777777778,-0.028926694605190862,-0.23578413008115714,1.1337733890661883
1592289068.827631,-7.076700321248279,6.652736346948141,1.5251709499770536,0.1335412523583703,-0.7580773545459181,-0.1639615521900974,0.016039818121421613,-0.20249291058552588,1.1226075492471421
1592289068.837631,-6.85212723959915,6.79787276040085,1.6012226692985119,0.12555555555555556,-0.7555555555555555,-0.15555555555555556,0.06007556748991044,-0.17122030929332535,1.0896333282222754
1592289068.847631,-6.958196492228718,6.89,1.3099335519749038,0.12555555555555556,-0.7555555555555555,-0.15555555555555556,0.13991419007343314,-0.32924866084483334,1.1716739269972394
1592289068.857631,-7.127452114545799,6.754422529869145,1.23,0.12555555555555556,-0.7555555555555555,-0.15555555555555556,0.13418801187855678,-0.25275240179582564,1.3028716955595747
1592289068.867631,-7.29369506334644,6.8188300567933595,1.3291000436871996,0.12555555555555556,-0.7555555555555555,-0.15555555555555556,0.08292220160660259,-0.2736911112653371,1.5458862122627055
1592289068.877631,-7.238756101223999,6.861649020049561,1.4741754899752195,0.11682953284440106,-0.7588278140722385,-0.1697353424611816,0.009997357225569568,-0.4095285684197561,1.7586390749414111
1592289068.887631,-6.946567508499272,6.765879876962926,1.5127897846851222,0.10777777777777778,-0.7622222222222222,-0.18444444444444444,0.016516762109181706,-0.4464216589077581,1.7230494261869633
1592289068.897631,-6.15533065834448,7.1885644226482395,1.7263144598008617,0.10777777777777778,-0.7622222222222222,-0.18444444444444444,0.18472163162099406,0.017521864584291058,1.4778425976856953
1592289068.907631,-6.30324156916724,7.09686285212521,1.1870147376415026,0.10777777777777778,-0.7622222222222222,-0.18444444444444444,0.17708993279084959,0.03969599412400082,1.5380289474621276
1592289068.917631,-6.2090639978930735,7.0515612325520145,0.8787495391098235,0.10777777777777778,-0.7622222222222222,-0.18444444444444444,0.1850092866344819,0.0005224802694496246,1.4599643377752807
1592289068.927631,-5.769401869158878,7.3940497116723005,1.037263074169815,0.0730815934248028,-0.7588094827776674,-0.17363743620335387,0.23576265173997502,0.027244783973279747,1.4491701044491239
1592289068.937631,-5.5190280646337015,7.614760053456445,1.1218442473575507,0.04,-0.7555555555555555,-0.16333333333333333,0.2372914112537109,0.008259753191482398,1.5843640564777588
1592289068.947631,-5.145745020589966,7.894681065635767,0.8964896209765527,0.04,-0.7555555555555555,-0.16333333333333333,0.001694321751584127,-0.2561709613160708,1.6042409840687126
1592289068.9576309,-4.724929939611248,7.771336337044725,0.5460360445367051,0.04,-0.7555555555555555,-0.16333333333333333,0.05065101569283636,-0.145235555081071,1.3507848259208188
1592289068.9676309,-4.815857027824998,8.080078017357073,0.4888598013778294,0.04,-0.7555555555555555,-0.16333333333333333,0.018066664024088755,-0.15306554716890844,1.2627216075994778
1592289068.9776309,-4.828853687490725,8.414439827867636,0.5933350645496365,0.016787109858040262,-0.7585189032332526,-0.15987609437602018,-0.017688649094768923,-0.2375493243723008,1.1709355420036107
1592289068.9876308,-4.475218648638087,8.3684602758998,0.6152350619406777,-0.012222222222222223,-0.7622222222222222,-0.15555555555555556,0.04621441086452119,-0.1475308881882294,1.0646649538806352
1592289068.9976308,-4.163067238146263,8.427147066702384,0.8106134476292526,-0.012222222222222223,-0.7622222222222222,-0.15555555555555556,-0.10915106645271574,-0.1493099836905268,0.8318757951357798
1592289069.0076308,-4.121789142707415,8.608927133703341,0.8339286820228198,-0.012222222222222223,-0.7622222222222222,-0.15555555555555556,-0.1292636166212848,-0.16011806191059952,0.5280432724822334
1592289069.0176308,-3.9587854251012145,8.811120107962214,1.0498110661268556,-0.012222222222222223,-0.7622222222222222,-0.15555555555555556,-0.11477178776898046,-0.09183440850806533,0.3004382530602092
1592289069.0276308,-4.0289117647058825,8.90310294117647,1.1041911764705883,-0.03661437908496732,-0.7622222222222222,-0.15911274509803922,-0.038865659115182555,0.004177240231795252,0.013330593827272863
1592289069.0376308,-4.1447754127382765,8.789529416608342,0.9004545267404997,-0.06555555555555556,-0.7622222222222222,-0.16333333333333333,0.035324252555108175,0.007375649034929102,-0.1785281619901977
1592289069.0476308,-3.803418530351438,8.664345047923323,1.0510543130990415,-0.06555555555555556,-0.7622222222222222,-0.16333333333333333,0.026521476852389862,0.053900283968339256,-0.4165231047950365
1592289069.0576308,-3.7113478974798313,8.620673948739915,0.7404162204611979,-0.06555555555555556,-0.7622222222222222,-0.16333333333333333,0.08424154296997939,0.18615474709802016,-0.6641483540620142
1592289069.0676308,-3.8884384140396486,8.535487487812803,1.3857637309067274,-0.06555555555555556,-0.7622222222222222,-0.16333333333333333,0.07579909070455468,0.14815906882509955,-1.0151004669533585
1592289069.0776308,-4.072645511623961,8.486881045307992,1.5597692177159341,-0.07295982050266796,-0.7622222222222222,-0.16333333333333333,0.17842237648092207,0.07128661535869255,-1.3464678000970494
1592289069.0876307,-3.649106466035723,8.425453348766483,1.1063337191620708,-0.08444444444444445,-0.7622222222222222,-0.16333333333333333,0.21244400496486374,0.16411914416415466,-1.4000390362681991
1592289069.0976307,-4.04220739994966,8.50169141706519,1.4295595268059402,-0.08444444444444445,-0.7622222222222222,-0.16333333333333333,0.10516893688662785,0.16667251883847373,-1.3698588719320646
1592289069.1076307,-4.141503303573543,8.485734956307576,1.2458128685438226,-0.08444444444444445,-0.7622222222222222,-0.16333333333333333,0.12964730639475053,0.10177644686437094,-1.4557671396887313
1592289069.1176307,-4.277872265036762,8.379319160244485,1.094031889449907,-0.08444444444444445,-0.7622222222222222,-0.16333333333333333,0.14139487939948964,0.07941943816446108,-1.5005166572154567
1592289069.1276307,-4.7472363016352785,8.092910950941642,1.380253429435015,-0.06916780765885626,-0.7525738200418507,-0.1528808976379309,0.19989717144234742,0.16396531706085613,-1.5109986284636758
1592289069.1376307,-4.76,7.71,1.61,-0.042222222222222223,-0.7355555555555555,-0.13444444444444445,0.31197760379398637,0.2530727415391778,-1.5806138038373647
1592289069.1476307,-4.921849580096879,7.922330533979191,1.267909942961965,-0.042222222222222223,-0.7355555555555555,-0.13444444444444445,0.36617953433273687,0.1841109691216523,-1.5220828799630959
1592289069.1576307,-5.112182171737532,7.837754748749081,0.9789629822855652,-0.042222222222222223,-0.7355555555555555,-0.13444444444444445,0.31658486285508136,0.16581709179409582,-1.3896131597102745
1592289069.1676307,-5.524709627898051,8.037121225337124,0.6742803063342812,-0.042222222222222223,-0.7355555555555555,-0.13444444444444445,0.23872596564868862,0.03217260987247969,-1.2618701490887785
1592289069.1776307,-5.77726585914086,8.15803665084915,0.6465503246753247,-0.033545343545343546,-0.7385382326007326,-0.127665632978133,0.1469499448286447,-0.08209850192824632,-1.2076458118160776
1592289069.1876307,-5.887975510204082,7.995028571428572,0.33693877551020407,-0.006666666666666667,-0.7477777777777778,-0.10666666666666667,0.14657292867730543,-0.038908375681959304,-1.2044615120164766
1592289069.1976306,-6.1433286357802555,7.885151621914085,0.153635402773234,-0.006666666666666667,-0.7477777777777778,-0.10666666666666667,0.027368468602472426,-0.0035694326442974843,-0.9335165238840071
1592289069.2076306,-6.301110955253191,7.8263809790994525,0.2107301164258662,-0.006666666666666667,-0.7477777777777778,-0.10666666666666667,-0.025390390899751987,-0.09095446216979935,-0.7992118850108886
1592289069.2176306,-6.7089590674979664,7.647613445378151,0.22893683925182975,-0.006666666666666667,-0.7477777777777778,-0.10666666666666667,0.01274932502524185,-0.18142097898464005,-0.69248782689879
1592289069.2276306,-6.826807160661682,7.488735554044867,0.17747110808973487,0.004330891054208524,-0.7502610972631367,-0.10382858725482791,0.07708809433983509,-0.13381005910082405,-0.51368934545112
1592289069.2376306,-6.82,7.55,0.3,0.027777777777777776,-0.7555555555555555,-0.09777777777777778,0.12980886311707826,-0.06326818538479445,-0.5181446216858165
1592289069.2476306,-7.014532249018508,7.34677061132922,0.535807347167695,0.027777777777777776,-0.7555555555555555,-0.09777777777777778,-0.04469004627107774,-0.2592563694188556,-0.22790651676097765
1592289069.2576306,-7.2545021830935505,7.4561255457733875,0.53,0.027777777777777776,-0.7555555555555555,-0.09777777777777778,0.06736026478574207,-0.338388654098931,-0.18872122088080673
1592289069.2676306,-7.364190320200147,7.486418042081391,0.6486457639626343,0.027777777777777776,-0.7555555555555555,-0.09777777777777778,0.18327349177879101,-0.36187321178142123,0.01850776162189864
1592289069.2776306,-7.046191778875191,7.348373894198316,0.7856567307350695,0.04226931624842592,-0.7555555555555555,-0.09566442841747493,0.1655606899008895,-0.3832363659090706,0.26817454904975047
1592289069.2876306,-7.17,7.21,0.64,0.0811111111111111,-0.7555555555555555,-0.09,0.056723200689815706,-0.4134248665661568,0.39051742013373125
1592289069.2976305,-6.908534487451685,7.4124138494202185,0.9487930752898905,0.0811111111111111,-0.7555555555555555,-0.09,-0.051776842194673905,-0.5884374390098722,0.48977835967089806
1592289069.3076305,-6.900123738815915,7.604659718256235,0.9147834570721493,0.0811111111111111,-0.7555555555555555,-0.09,-0.06420379134149305,-0.7617462088624251,0.573864727364239
1592289069.3176305,-6.591274811128076,7.3176544189090045,1.176855505542226,0.0811111111111111,-0.7555555555555555,-0.09,-0.128591950110728,-0.7932249515896953,0.6540812885317613
1592289069.3276305,-6.522725923176842,7.092756541102245,1.488575802560772,0.06841755840085771,-0.7454007133873528,-0.07646021044239637,-0.17271932709200905,-0.743341869787521,0.8027941041412351
1592289069.3376305,-7.08,7.52,1.47,0.04777777777777778,-0.7288888888888889,-0.05444444444444444,-0.1538071403320003,-0.6643159465403417,0.8257589023498172
1592289069.3476305,-6.475185277431852,6.798056454960565,1.9219435450394353,0.04777777777777778,-0.7288888888888889,-0.05444444444444444,0.012605457585361711,-0.5591716322917202,0.8126892794368875
1592289069.3576305,-6.35253658076088,6.887928348909657,1.9104115925611254,0.04777777777777778,-0.7288888888888889,-0.05444444444444444,0.18630458856866733,-0.4964482311787709,0.8665165644826951
1592289069.3676305,-6.23659488293984,6.842054726859627,2.0253073199644374,0.04777777777777778,-0.7288888888888889,-0.05444444444444444,0.2636565910527626,-0.5463187883585843,0.9123828060286577
1592289069.3776305,-6.22288200198873,7.111831289360292,1.890939675174014,0.03165248775457592,-0.7288888888888889,-0.05943560564210216,0.17765771970978284,-0.5452902909993901,0.9561618108681688
1592289069.3876305,-6.02,7.21,2.12,0.0011111111111111111,-0.7288888888888889,-0.06888888888888889,0.1112647398146385,-0.4996004983833768,0.9490227807719166
1592289069.3976305,-6.260714618440883,7.21668803945746,1.6877920263049733,0.0011111111111111111,-0.7288888888888889,-0.06888888888888889,0.27825328264698557,-0.3713292000363328,0.7886706557449377
1592289069.4076304,-6.320964512976953,7.205177435115232,1.5099499511427823,0.0011111111111111111,-0.7288888888888889,-0.06888888888888889,0.17148177590783564,-0.4028436077948829,0.8463293519155168
1592289069.4176304,-6.068770014556041,7.348068089923985,1.4318971373119846,0.0011111111111111111,-0.7288888888888889,-0.06888888888888889,0.2161914405121518,-0.3118396400754174,0.8799593252983572
1592289069.4276304,-5.710045607367344,7.530060809823126,1.479847975442187,-0.0025982231317708583,-0.7262923549188716,-0.06963075573746529,0.28405810802846015,-0.2100285365381855,0.8097423620126843
1592289069.4376304,-5.77,7.61,1.28,-0.01,-0.7211111111111111,-0.07111111111111111,0.38724492778624187,-0.028361600344907853,0.7864889941799448
1592289069.4476304,-5.243882034721647,7.61,1.6116461041649417,-0.01,-0.7211111111111111,-0.07111111111111111,0.2834364413396472,-0.31037268464486667,0.7214626115274666
1592289069.4576304,-5.217263501441265,7.900073849965458,1.1828610905972319,-0.01,-0.7211111111111111,-0.07111111111111111,0.2779312982656072,-0.09643809983854486,0.6428929727584177
1592289069.4676304,-5.213629270862886,8.22861427471325,1.1834493170672395,-0.01,-0.7211111111111111,-0.07111111111111111,0.2486191163837695,-0.09662391879786586,0.6390167896211203
1592289069.4776304,-5.020484230646703,8.044705320165658,1.387368588722523,-0.012891225089377368,-0.7211111111111111,-0.06388304838766769,0.2999899329838565,-0.017407421330618823,0.7804722231802175
1592289069.4876304,-4.98,7.93,1.05,-0.01888888888888889,-0.7211111111111111,-0.04888888888888889,0.3294308963139297,0.10035643198967394,0.7363107781851077
1592289069.4976304,-5.38236798221234,8.10608671484158,0.9740578098943858,-0.01888888888888889,-0.7211111111111111,-0.04888888888888889,0.28032774589850695,-0.1983150372259392,0.897274108008505
1592289069.5076303,-5.1181516947143875,8.224004740459826,0.9378672671249112,-0.01888888888888889,-0.7211111111111111,-0.04888888888888889,0.19059551835628263,-0.20808242263297505,0.8996743097752279
1592289069.5176303,-5.023258701485961,8.106634557616054,0.7499947931269275,-0.01888888888888889,-0.7211111111111111,-0.04888888888888889,0.10872505314261763,-0.11998428630282518,0.832300479154339
1592289069.5276303,-4.5842765963792536,8.053668167854694,0.7384046646186883,-0.032373931687660104,-0.7211111111111111,-0.04659356245505549,0.13106291672267664,-0.06657656267824383,0.801617085351055
1592289069.5376303,-4.97,8.61,0.82,-0.07111111111111111,-0.7211111111111111,-0.04,0.07199483164476608,-0.06981317007977318,0.7886706557449377
1592289069.5476303,-4.1220325334192305,8.547432758898372,0.9075390562087293,-0.07111111111111111,-0.7211111111111111,-0.04,0.0589164574926319,-0.2678016802269142,0.7822713142644362
1592289069.5576303,-4.121415214619635,8.642348066298343,0.6491733956651083,-0.07111111111111111,-0.7211111111111111,-0.04,0.02546137196611575,-0.10831467535037323,0.6899187139117534
1592289069.5676303,-3.8368441566110905,8.954792228499437,0.9883636148894707,-0.07111111111111111,-0.7211111111111111,-0.04,-0.008709639941597257,-0.08490060886424947,0.7117642404562297
1592289069.5776303,-3.878393562686711,8.823002473418779,1.1039529729208826,-0.07418371826582291,-0.7170143015714954,-0.0351350386717063,-0.09184444087645548,-0.2560104265201594,0.7984303517986698
1592289069.5876303,-4.04,9.0,0.85,-0.08444444444444445,-0.7033333333333334,-0.01888888888888889,-0.17998707911191522,-0.0545415391248228,0.7363107781851077
1592289069.5976303,-4.174487751428348,9.070692650857008,1.1885622603114974,-0.08444444444444445,-0.7033333333333334,-0.01888888888888889,-0.31635996545136497,-0.12711606404760023,0.8260046103401142
1592289069.6076303,-4.0416530985213495,8.476900529276339,0.7773139819144139,-0.08444444444444445,-0.7033333333333334,-0.01888888888888889,-0.1567009888565003,-0.0024250809990951985,0.57751825146603
1592289069.6176302,-4.508268835372433,8.20755593103027,0.7883299065610814,-0.08444444444444445,-0.7033333333333334,-0.01888888888888889,-0.17673124134755136,0.03061545397622196,0.5757864669747222
1592289069.6276302,-4.461903083700441,9.01861013215859,1.0912687224669604,-0.09314537444933921,-0.6973514439549682,-0.018616984826235927,-0.2250076357285432,0.11684071117353613,0.6342207902272153
1592289069.6376302,-4.19,8.86,0.91,-0.12,-0.6788888888888889,-0.017777777777777778,-0.10471975511965977,-0.017453292519943295,0.5312345910757741
1592289069.6476302,-4.290880162869175,8.626454806592855,0.7477995928270631,-0.12,-0.6788888888888889,-0.017777777777777778,-0.2029025568722985,-0.15371112945686966,0.5754812758917949
1592289069.6576302,-4.27968935369369,8.702771041284512,1.1384591562045883,-0.12,-0.6788888888888889,-0.017777777777777778,-0.3319141559459987,-0.2267233714825666,0.6815845537714077
1592289069.6676302,-4.120107892903355,8.556400517567432,1.2262516173982283,-0.12,-0.6788888888888889,-0.017777777777777778,-0.33215867899328083,-0.20275563923629167,0.7248725917345937
1592289069.6776302,-3.502661229874374,8.6232875603394,1.1439333793062094,-0.12152206864616542,-0.6799760807790071,-0.016690585887659613,-0.2655009452692836,0.0853153757061654,0.8178391693230106
1592289069.6876302,-4.5,9.13,1.53,-0.12777777777777777,-0.6844444444444444,-0.012222222222222223,-0.3076142806640006,-0.039269908169872414,0.830122225479803
1592289069.6976302,-3.1152813309066674,8.997725513316757,1.5,-0.12777777777777777,-0.6844444444444444,-0.012222222222222223,-0.24479100078227709,0.01567367050765947,0.6455380038791766
1592289069.7076302,-3.5388693989723983,8.827710359660653,1.3015074680368024,-0.12777777777777777,-0.6844444444444444,-0.012222222222222223,-0.20834557732124853,0.013611597397073107,0.6983055768001036
1592289069.7176301,-3.9366292993630574,8.561447917687408,1.0573252327290543,-0.12777777777777777,-0.6844444444444444,-0.012222222222222223,-0.13529324602958898,0.0996912015838152,0.7335214581358095
1592289069.7276301,-4.096068576477385,9.00964114588643,1.5648516668365786,-0.13139712962019007,-0.6826347685232382,-0.01101577160808479,-0.27130544779591964,-0.06984378911081073,0.7096101305323301
1592289069.7376301,-3.88,8.88,1.15,-0.15444444444444444,-0.6711111111111111,-0.0033333333333333335,-0.2901609881440573,-0.028361600344907853,0.8104872713948669
1592289069.7476301,-4.156497037488233,8.680724846337005,1.258714491389335,-0.15444444444444444,-0.6711111111111111,-0.0033333333333333335,-0.23966278344163547,-0.05490767627461527,0.6740948558074831
1592289069.75763,-4.54,9.24,1.81,-0.15444444444444444,-0.6711111111111111,-0.0033333333333333335,-0.3294308963139297,-0.16907877128695067,0.8126689329598598
1592289069.76763,-3.1632701103331673,8.47498103309995,1.8535735807339648,-0.15444444444444444,-0.6711111111111111,-0.0033333333333333335,-0.2527992121677535,-0.34420098581856184,0.817413797405311
1592289069.77763,-3.2194000182365277,8.501470775964256,2.1110230692076226,-0.15670820542435387,-0.6696813673343263,-0.0019035895565484332,-0.14450638307753885,-0.15469675376490338,0.82711102723878
1592289069.78763,-4.38,8.93,1.62,-0.17555555555555555,-0.6577777777777778,0.01,-0.24870941840919195,-0.08944812416470939,0.7112216701876892
1592289069.79763,-3.6815730368311326,8.716590965948575,2.024982070882557,-0.17555555555555555,-0.6577777777777778,0.01,-0.08145739070782847,-0.23762299967341755,0.7306680826241039
1592289069.80763,-3.3584366737333555,8.479842786022248,1.987069864938901,-0.17555555555555555,-0.6577777777777778,0.01,-0.08048330932961179,-0.25369484845884455,0.6981402754900503
1592289069.81763,-3.4866868114916243,8.727644507359212,2.047515108618718,-0.17555555555555555,-0.6577777777777778,0.01,0.01120007501743716,-0.22950459227858144,0.6638359501128284
1592289069.82763,-3.3344463802834796,8.895108981688173,1.9333347852126095,-0.17555555555555555,-0.6577777777777778,0.01,0.0045573330693420115,-0.13899723323578503,0.581632018505151
1592289069.83763,-3.75,8.54,1.47,-0.21777777777777776,-0.6311111111111111,-0.012222222222222223,0.09599310885968812,-0.05235987755982988,0.6010477611555471
1592289069.84763,-3.878199850816366,9.456469873193912,1.7589275354311131,-0.21777777777777776,-0.6311111111111111,-0.012222222222222223,-0.07611652477187719,-0.22521320602937756,0.6069134515259065
1592289069.85763,-3.1920279967895757,8.935804022472972,1.877482649544403,-0.21777777777777776,-0.6311111111111111,-0.012222222222222223,-0.02849890051327269,-0.2896574683593225,0.672195951345762
1592289069.86763,-3.212415466499687,9.032739120225422,1.704859893550407,-0.21777777777777776,-0.6311111111111111,-0.012222222222222223,-0.05966001667370264,-0.32771507482010936,0.6375321062165478
1592289069.87763,-3.394821563661481,8.846476334572246,1.5165477091076538,-0.21820679245834657,-0.6311111111111111,-0.01179320754165342,-0.1435026410535158,-0.274151755662068,0.7918015693578372
1592289069.88763,-3.82,9.3,1.8,-0.22555555555555556,-0.6311111111111111,-0.0044444444444444444,-0.004363323129985824,-0.29888763440402893,0.6959500392327389
1592289069.89763,-3.123852717849825,8.916493431360733,1.9911257080872602,-0.22555555555555556,-0.6311111111111111,-0.0044444444444444444,0.015337735537020915,-0.2286164389801481,0.633928532624845
1592289069.90763,-3.289230448709602,9.049486965806402,1.6192304487096016,-0.22555555555555556,-0.6311111111111111,-0.0044444444444444444,0.031345100230345174,-0.17467283357214566,0.6021106102635011
1592289069.91763,-3.0847683807904804,8.974547386315342,1.5886457005241534,-0.22555555555555556,-0.6311111111111111,-0.0044444444444444444,0.056525710713894124,-0.2397378413105382,0.6274780393415599
1592289069.92763,-2.7416610108411663,8.904426859665456,1.9691939697888823,-0.2266998675302228,-0.6295266791461872,-0.0030360604756232254,0.1144212337297179,-0.37013429090114985,0.7548238135145576
1592289069.93763,-1.25,6.98,1.03,-0.24,-0.6111111111111112,0.013333333333333334,0.30325095753401476,-0.1712604328519436,0.8432121948697604
1592289069.94763,-3.757757158451591,11.057519523049793,2.1971089092283145,-0.24,-0.6111111111111112,0.013333333333333334,0.5234894085688001,0.10730636780476495,0.989904890856536
1592289069.95763,-2.895659769456576,9.17423211856519,1.9746359275434955,-0.24,-0.6111111111111112,0.013333333333333334,0.5737785536047095,-0.24897839680218384,1.0453186855751673
1592289069.96763,-2.4877287357264395,9.452880542856558,1.8996724000082001,-0.24,-0.6111111111111112,0.013333333333333334,0.6377731951030287,-0.1899143794384367,1.0230077373439406
1592289069.97763,-3.112120882873374,9.437191816968305,2.298109458914103,-0.24076408075414688,-0.6102833569607854,0.014606801256911462,0.5316629249337753,-0.14933125638740488,1.11604189910249
1592289069.98763,-2.16,9.72,1.28,-0.25333333333333335,-0.5966666666666667,0.035555555555555556,0.30543261909900765,-0.21925698728178766,0.9206611804270088
1592289069.99763,-1.7860152122310422,9.623648893539906,1.4068549478036703,-0.25333333333333335,-0.5966666666666667,0.035555555555555556,0.33812755649072546,-0.19069887646793315,0.911628102568677
1592289070.0076299,-2.079565611507359,9.436630089931061,1.5139440853033086,-0.25333333333333335,-0.5966666666666667,0.035555555555555556,0.3556516622090789,-0.15460661279118354,0.9379331318595922
1592289070.0176299,-1.662414893179105,9.870945128226237,1.4617581196229366,-0.25333333333333335,-0.5966666666666667,0.035555555555555556,0.14724206150393104,-0.15161674511586526,1.0267836856487473
1592289070.0276299,-1.8040617435137984,10.069531227750407,1.1224996440064932,-0.2543750494435426,-0.5956770363619679,0.03618058522168111,0.09970851336125296,-0.03327026120040682,0.895554768503812
1592289070.0376298,-1.48,10.06,0.97,-0.27555555555555555,-0.5755555555555556,0.04888888888888889,-0.002181661564992912,0.0,0.7843073326149518
1592289070.0476298,-1.4217150052582055,9.908790889466983,0.7404873526318703,-0.27555555555555555,-0.5755555555555556,0.04888888888888889,0.03773630285129151,0.028584361189100065,0.7242605002809858
1592289070.0576298,-1.272706215231153,9.746270381737963,0.8389435066180702,-0.27555555555555555,-0.5755555555555556,0.04888888888888889,-0.15203953620243127,-0.14098014841871698,0.6511757043524762
1592289070.0676298,-1.2946247931930985,9.949244268494446,1.2046247931930985,-0.27555555555555555,-0.5755555555555556,0.04888888888888889,-0.09767318420692002,0.02618225914792309,0.5168024177024375
1592289070.0776298,-1.1046206570550698,9.67662963838336,1.0146206570550698,-0.27555555555555555,-0.5755555555555556,0.04888888888888889,-0.05982527489804009,-0.02067705713926158,0.5095932921197939
1592289070.0876298,-0.94,9.43,1.25,-0.3233333333333333,-0.59,0.057777777777777775,-0.13853550937704992,-0.039269908169872414,0.4777838827334477
1592289070.0976298,-1.0394668286253328,9.463115033727032,1.1729933062827902,-0.3233333333333333,-0.59,0.057777777777777775,-0.11495258403245377,-0.14956013715158106,0.6527188813988813
1592289070.1076298,-1.0990560980279531,9.445116791116217,0.8540139766417768,-0.3233333333333333,-0.59,0.057777777777777775,-0.21296993404696268,-0.1362162147495134,0.7154993642499318
1592289070.1176298,-0.884760273367828,9.71619863316086,1.251190068341957,-0.3233333333333333,-0.59,0.057777777777777775,-0.15624843453312942,-0.17165361891339015,0.6548627026099128
1592289070.1276298,-0.9143878361912162,9.568060819043918,1.258596959047804,-0.3233333333333333,-0.59,0.057777777777777775,-0.15786436741003443,-0.1062083373987389,0.6435511724715779
1592289070.1376297,-0.6,9.48,1.53,-0.3233333333333333,-0.5577777777777778,0.057777777777777775,-0.20616701789183017,-0.10035643198967394,0.667588438887831
1592289070.1476297,-0.8415357049535257,9.615259994773973,1.7039057075665385,-0.3233333333333333,-0.5577777777777778,0.057777777777777775,-0.03016599709225809,-0.21733914641334162,0.6444026756687257
1592289070.1576297,-0.6575387605976861,9.583655440535857,1.9642388402267086,-0.3233333333333333,-0.5577777777777778,0.057777777777777775,0.15163342406592903,-0.2592517826272316,0.49620072796763137
1592289070.1676297,-0.8955538143742432,9.8023520193746,2.038755609373887,-0.3233333333333333,-0.5577777777777778,0.057777777777777775,0.024640545699010336,-0.09249388781191209,0.5217233298687514
1592289070.1776297,-0.7685805612935395,9.735130885390697,1.8520302371963815,-0.3233333333333333,-0.5577777777777778,0.057777777777777775,0.06863667500938568,-0.19596626600483188,0.4956515495366771
1592289070.1876297,-0.84,10.73,1.96,-0.3322222222222222,-0.5422222222222223,0.04888888888888889,0.017453292519943295,-0.5148721293383272,-0.044724062082354694
1592289070.1976297,0.2174429045481162,11.25872145227406,1.0416943197345305,-0.3322222222222222,-0.5422222222222223,0.04888888888888889,0.15607461193122044,0.1458557653738185,0.13639430415573733
1592289070.2076297,-1.0664210304054054,9.645021818693694,1.6345699605855855,-0.3322222222222222,-0.5422222222222223,0.04888888888888889,0.13576712703222607,-0.1736686598476197,0.1219257527388133
1592289070.2176297,0.01231277888285576,9.460517176495888,1.5730202677275416,-0.3322222222222222,-0.5422222222222223,0.04888888888888889,0.28470818303583273,-0.04693686343260138,-0.009621607206785173
1592289070.2276297,-0.17559378528036126,9.67848879092522,1.3926299661308532,-0.3322222222222222,-0.5422222222222223,0.04888888888888889,0.11089000680565231,-0.012501187009641118,-0.053896048322019795
1592289070.2376297,-0.4189241954114103,9.737090344936924,1.4004402871832038,-0.3388888888888889,-0.5222222222222223,0.06333333333333334,0.19579744256620013,-0.10884837409740869,0.1412103708358434
1592289070.2476296,-0.4068991869521693,9.628759674780868,1.5625580486852064,-0.3388888888888889,-0.5222222222222223,0.06333333333333334,0.1775009426706985,-0.10771320764225435,-0.03768854044980681
1592289070.2576296,-0.3653618056611561,9.61,1.452297916711924,-0.3388888888888889,-0.5222222222222223,0.06333333333333334,0.11843195279555974,-0.12157892365509736,0.06705124710729019
1592289070.2676296,-0.4291423543979319,9.61,1.4796324375991137,-0.3388888888888889,-0.5222222222222223,0.06333333333333334,0.2555917021148381,-0.14046323696717192,0.04717302256826435
1592289070.2776296,-0.40000163117353876,9.595000815586769,1.3900048935206162,-0.3388888888888889,-0.5222222222222223,0.06333333333333334,0.23698409958129735,-0.1276279132858084,-0.07744222408687929
1592289070.2876296,-0.4657690574985181,9.642832246591583,1.3043006520450504,-0.3466666666666667,-0.5222222222222223,0.08666666666666667,0.3185073802257735,-0.0187119056210184,-0.016801173574618265
1592289070.2976296,-0.6726580319516202,9.555980571891146,1.3480388562177092,-0.3466666666666667,-0.5222222222222223,0.08666666666666667,0.25897241130230514,-0.06674754107321819,0.0850299751072016
1592289070.3076296,-0.7093519089400047,9.645184728479963,1.1793519089400046,-0.3466666666666667,-0.5222222222222223,0.08666666666666667,0.21925698728178766,-0.11626432485491756,0.01802809334559788
1592289070.3176296,-0.6964358477484044,9.72,1.1695544809685505,-0.3466666666666667,-0.5222222222222223,0.08666666666666667,0.22644957821244502,-0.12238382898282613,0.16006637076325725
1592289070.3276296,-0.6367825205781436,9.72,1.1620978150722678,-0.3466666666666667,-0.5222222222222223,0.08666666666666667,0.34683219649040253,-0.07113987660774963,0.02748281144361489
1592289070.3376296,-0.5779088872292756,9.649790888722928,1.2158177744585512,-0.3466666666666667,-0.5155555555555555,0.09333333333333334,0.38383964573184665,0.06866449838199871,-0.0595916212911376
1592289070.3476295,-0.48,9.64,1.02,-0.3466666666666667,-0.5155555555555555,0.09333333333333334,0.42869649752110717,-0.08726646259971647,0.1636246173744684
1592289070.3576295,-0.5643572218710493,9.78059536978508,0.823166482300885,-0.3466666666666667,-0.5155555555555555,0.09333333333333334,0.23238832825641628,-0.005471392072761927,-0.09300741640385149
1592289070.3676295,-0.6703066832771508,9.750153341638576,0.74,-0.3466666666666667,-0.5155555555555555,0.09333333333333334,0.27334332078658063,0.025169165672097527,0.04721396368085972
1592289070.3776295,-0.6856749230543748,9.757837461527187,0.74,-0.3466666666666667,-0.5155555555555555,0.09333333333333334,0.30519520392796745,0.08384368724833635,-0.04666527084112239
1592289070.3876295,-0.84,9.73,0.82,-0.3211111111111111,-0.5222222222222223,0.11666666666666667,0.23234695667174513,-0.006544984694978735,0.1265363707695889
1592289070.3976295,-0.7357910542121068,9.796991465149361,0.7530085348506401,-0.3211111111111111,-0.5222222222222223,0.11666666666666667,0.16089452326338394,-0.04876687716355581,0.052648058949579024
1592289070.4076295,-0.8789615251852049,9.782323889434693,0.6358097235867343,-0.3211111111111111,-0.5222222222222223,0.11666666666666667,0.1507382392213386,0.008653771661613643,0.09097307437494427
1592289070.4176295,-0.7599815450744037,9.742851870021259,0.6578610974840564,-0.3211111111111111,-0.5222222222222223,0.11666666666666667,0.135416549289811,-0.08416360747322085,0.06045830293814934
1592289070.4276295,-0.7708292569714714,9.767772342628628,0.6808292569714713,-0.3211111111111111,-0.5222222222222223,0.11666666666666667,0.11978209628242446,-0.056790620552153746,0.12370549604724095
1592289070.4376295,-0.8397424479480081,9.789957074658,0.660128776025996,-0.3211111111111111,-0.5288602719942231,0.07241300151999394,0.0873788408822796,0.001994364427387714,-0.1209930756726903
1592289070.4476295,-0.78,9.77,0.7,-0.3211111111111111,-0.5288888888888889,0.07222222222222222,0.04145156973486533,-0.06763150851478027,-0.04908738521234052
1592289070.4576294,-0.9206354944966658,9.753454647706274,0.6255459146782357,-0.3211111111111111,-0.5288888888888889,0.07222222222222222,0.003550392597452913,-0.06943632647370467,-0.06894038276050893
1592289070.4676294,-0.9136000580186627,9.759099985495334,0.691899869458009,-0.3211111111111111,-0.5288888888888889,0.07222222222222222,0.021445692046327243,-0.059886625781191236,0.0758125020514667
1592289070.4776294,-0.7201004365262449,9.73965361819924,0.7542570181353586,-0.3211111111111111,-0.5288888888888889,0.07222222222222222,0.001803817634227909,-0.04558818650639215,0.08314080175364114
1592289070.4876294,-0.35796146723927347,9.758141917182144,0.78,-0.3158996449662696,-0.5142967836833326,0.12121000398373236,0.10792601799487353,0.07328968014620627,0.05302565352025905
1592289070.4976294,-0.62,9.68,0.91,-0.31555555555555553,-0.5133333333333333,0.12444444444444444,0.08290313946973066,0.1112647398146385,-0.10144726277217041
1592289070.5076294,-0.7709601759100904,9.713546705757798,0.8345199120449548,-0.31555555555555553,-0.5133333333333333,0.12444444444444444,0.13321958599617154,0.03624749226612663,-0.013622192471473574
1592289070.5176294,-0.7194445491822595,9.72,0.864753028232078,-0.31555555555555553,-0.5133333333333333,0.12444444444444444,-0.03772769647325391,-0.03481224208443197,0.007177930811928063
1592289070.5276294,-0.2647761794395387,9.741543088091635,0.8915430880916352,-0.31555555555555553,-0.5133333333333333,0.12444444444444444,0.0006281256341756636,-0.07435137883140927,0.056202200334278155
1592289070.5376294,0.0784225464866635,9.690556748298825,0.989164877551763,-0.33536997278928066,-0.5078293285461875,0.1310492501890195,-0.08407260406395617,-0.04187669246258765,0.17361182595603458
1592289070.5476294,0.061125575488172726,9.639668201301793,1.0654976980473092,-0.33555555555555555,-0.5077777777777778,0.13111111111111112,0.0027607595387455913,0.07315943507583271,0.03933311712932808
1592289070.5576293,-0.1313335480282226,9.58136838715344,1.1481754837954152,-0.33555555555555555,-0.5077777777777778,0.13111111111111112,0.07119873626911624,0.08970450468764411,-0.09866092895739596
1592289070.5676293,-0.5730160356453573,9.589622578569896,1.2173580499892778,-0.33555555555555555,-0.5077777777777778,0.13111111111111112,0.12972615865545412,0.011690907240270332,-0.05106355919920631
1592289070.5776293,-0.5828892843299622,9.618442862680151,1.170224990309736,-0.33555555555555555,-0.5077777777777778,0.13111111111111112,0.1940432249897275,-0.019197068878473694,0.0036574100491673436
1592289070.5876293,-0.58,9.64,1.07,-0.35555555555555557,-0.5077777777777778,0.11888888888888889,0.08290313946973066,0.03490658503988659,-0.00545415391248228
1592289070.5976293,-0.5331021911387225,9.710346713291917,0.8745924630780104,-0.35555555555555557,-0.5077777777777778,0.11888888888888889,0.16901838825788346,-0.041829775266388224,-0.003748901461231728
1592289070.6076293,-0.5011002541063055,9.720550127053153,0.7538508893720692,-0.35555555555555557,-0.5077777777777778,0.11888888888888889,0.2240016854051771,-0.10037774966875976,-0.11563200642949545
1592289070.6176293,-0.37689040477265706,9.72,0.7594699688636418,-0.35555555555555557,-0.5077777777777778,0.11888888888888889,0.19067951792123874,-0.04882139911680108,0.050340182574312026
1592289070.6276293,-0.34172596692949825,9.727068508267626,0.76,-0.35555555555555557,-0.5077777777777778,0.11888888888888889,0.17175052328164253,-0.1144387558662942,0.06770623944196161
1592289070.6376293,-0.3012494356659142,9.777917607223475,0.5587460496613996,-0.34490719839478307,-0.5269448206671683,0.1252779031853524,0.15844304803901177,-0.13244483231044724,0.11062920160930592
1592289070.6476293,-0.3323327425786442,9.799399645547187,0.45300177226406735,-0.34444444444444444,-0.5277777777777778,0.12555555555555556,0.14406264310705852,-0.12916896061108565,0.1638491148926206
1592289070.6576293,-0.3862154603423202,9.8552693254279,0.20081496811723906,-0.34444444444444444,-0.5277777777777778,0.12555555555555556,0.07808406287012531,-0.21256282028100265,0.06063229573163201
1592289070.6676292,-0.4209207365892714,9.884736589271418,0.1428951160928743,-0.34444444444444444,-0.5277777777777778,0.12555555555555556,0.08278820485725945,-0.23088285040771223,-0.003013627460434161
1592289070.6776292,-0.536270297029703,9.932090099009901,0.06865584158415843,-0.34444444444444444,-0.5277777777777778,0.12555555555555556,0.04324169865107545,-0.17230132302515028,-0.06181964850807736
1592289070.6876292,-0.5706458417849898,9.95,0.03032292089249493,-0.33584259634888436,-0.5277777777777778,0.12555555555555556,-0.07121757599106354,-0.1722444374474645,-0.12072881423523982
1592289070.6976292,-0.5208183956525265,9.999181604347473,-0.000738502717170901,-0.33555555555555555,-0.5277777777777778,0.12555555555555556,-0.10971882847980444,-0.16002989242824012,-0.00213383984077041
1592289070.7076292,-0.26736605182257356,9.923135704874836,-0.011094642072902942,-0.33555555555555555,-0.5277777777777778,0.12555555555555556,-0.08050506033513177,0.04557356392032649,0.05365718531520995
1592289070.7176292,-0.20832413984681933,9.916335172030637,0.08502758045954206,-0.33555555555555555,-0.5277777777777778,0.12555555555555556,-0.18751034408998607,0.024203205701145224,0.04021208571584786
1592289070.7276292,-0.2920291663417297,9.849854948140061,0.3376815097871013,-0.33555555555555555,-0.5277777777777778,0.12555555555555556,-0.2454211033583146,-0.02722338652054518,0.056075065328992146
1592289070.7376292,-0.35858565810269416,9.732729077075753,0.6302988201565773,-0.3412793276240183,-0.5277777777777778,0.13604913768107063,-0.23732740287315318,0.12806398291513588,0.07996093947296742
1592289070.7476292,-0.3655995923863595,9.742398369545437,0.604004076136405,-0.3422222222222222,-0.5277777777777778,0.13777777777777778,-0.20739088262825703,0.1511022357014142,0.004848891106865191
1592289070.7576292,-0.31838270893371756,9.846028818443804,0.37073659942363113,-0.3422222222222222,-0.5277777777777778,0.13777777777777778,-0.27350114141518633,0.11817086180152846,0.13674554094029634
1592289070.7676291,-0.31874696408781156,9.833759107736565,0.3574939281756231,-0.3422222222222222,-0.5277777777777778,0.13777777777777778,-0.3528612388056203,0.2174482900957284,-0.0028041519742738885
1592289070.7776291,-0.38094269932117664,9.817811460135765,0.46969685877811795,-0.3422222222222222,-0.5277777777777778,0.13777777777777778,-0.3608262563410641,0.26359169769408886,0.009957006974849188
1592289070.7876291,-0.4381950738916256,9.785739901477832,0.6067152709359607,-0.33413552271483304,-0.5230605363984675,0.12969107827038862,-0.28256794612977754,0.31140284881617447,-0.013818837800488606
1592289070.797629,-0.3964998065533764,9.698666408737834,0.7837504836165591,-0.3288888888888889,-0.52,0.12444444444444444,-0.4268791496087191,0.3547200813957363,-0.007762945424329634
1592289070.807629,-0.2155128153380424,9.69,0.812463370332997,-0.3288888888888889,-0.52,0.12444444444444444,-0.3696203164943634,0.3401184402420855,0.0749012187266063
1592289070.817629,-0.16028452463566967,9.60619245894055,1.1636109183437426,-0.3288888888888889,-0.52,0.12444444444444444,-0.36732837130637946,0.2892061642530171,0.060921751092304376
1592289070.827629,-0.28303874411966806,9.571160209313389,1.3681584650351497,-0.3288888888888889,-0.52,0.12444444444444444,-0.2749515701186652,0.28006427364296926,0.053197589935689654
1592289070.837629,-0.5038749562580194,9.551901318091684,1.4742960457249503,-0.33608771725183717,-0.5146008787277888,0.10104825226486255,-0.18662393127743665,0.256283522358671,-0.10603516496795655
1592289070.847629,-0.54,9.536118317231823,1.5401539586620994,-0.3377777777777778,-0.5133333333333333,0.09555555555555556,-0.17594906127821447,0.19486358253158698,-0.08291464355480835
1592289070.857629,-0.37785850860420656,9.52,1.5775717017208413,-0.3377777777777778,-0.5133333333333333,0.09555555555555556,-0.06071735164293371,0.10239417897724382,-0.06505981758778574
1592289070.867629,-0.31474934036939317,9.511583113456464,1.5868337730870714,-0.3377777777777778,-0.5133333333333333,0.09555555555555556,-0.05326938290882429,0.015196798236362233,0.06027199845978436
1592289070.877629,-0.2849268050028425,9.541341493746447,1.5774634025014214,-0.3377777777777778,-0.5133333333333333,0.09555555555555556,-0.05945826198165926,-0.035555796793966164,-0.016389166626913143
1592289070.887629,-0.3559229874837563,9.57432049791396,1.5198782573011422,-0.3465291931696418,-0.5133333333333333,0.10032905486020868,0.03732728783510443,-0.04891258071720413,-0.02902314172705655
1592289070.897629,-0.37270799599043875,9.614584008019122,1.3530179659187294,-0.35,-0.5133333333333333,0.10222222222222223,-0.0009787113104424983,-0.08542645842068244,0.0033863781428089927
1592289070.907629,-0.364921875,9.645390625,1.21828125,-0.35,-0.5133333333333333,0.10222222222222223,0.01239115591992068,-0.09606128578359414,-0.027782096491706612
1592289070.917629,-0.3442587973037525,9.677870601348124,1.0549057905631336,-0.35,-0.5133333333333333,0.10222222222222223,0.08344991543225369,-0.012784390871300483,0.048181534226568026
1592289070.927629,-0.34649363162807506,9.689740447442112,1.02701273674385,-0.35,-0.5133333333333333,0.10222222222222223,0.035075410736855425,0.02507521436515821,0.0639904243440644
1592289070.937629,-0.344701916669933,9.717649041665034,1.0382452083251676,-0.34065117129829237,-0.5243819490717151,0.10222222222222223,0.08275584546096253,0.0345163948732632,0.07437894230453895
1592289070.947629,-0.32562844669117647,9.724790517769609,1.0260474111519609,-0.3377777777777778,-0.5277777777777778,0.10222222222222223,0.034453784991959224,0.012684667603354353,0.05900228173186062
1592289070.957629,-0.3169566498109873,9.736956649810988,0.9582601011340762,-0.3377777777777778,-0.5277777777777778,0.10222222222222223,-0.05055716040138344,-0.0013279120272365911,-0.1018290990665
1592289070.967629,-0.34859631717763206,9.732850920705593,0.9828944757664481,-0.3377777777777778,-0.5277777777777778,0.10222222222222223,-0.022113349496006143,-0.07642467045631339,-0.025908042733976566
1592289070.977629,-0.3914515624456881,9.719516145851438,1.0,-0.3377777777777778,-0.5277777777777778,0.10222222222222223,-0.03356940827407895,-0.024561418748574135,-0.012755618323182342
1592289070.987629,-0.4146572277445622,9.731371089021751,0.9893144554891244,-0.34430783275664617,-0.5236222882457706,0.10993955992452123,-0.06649678522711569,-0.0034399400540787994,-0.05957789400451969
1592289070.997629,-0.3414985712278072,9.729449571368342,0.9594495713683421,-0.35,-0.52,0.11666666666666667,-0.040370805643901726,-0.029255645192922,0.04635180011325561
1592289071.007629,-0.27572153786931,9.713144307573863,0.91572153786931,-0.35,-0.52,0.11666666666666667,-0.008355495049162658,0.002800246916341228,0.18377152497865581
1592289071.017629,-0.2941332513712881,9.723653300548516,0.934133251371288,-0.35,-0.52,0.11666666666666667,-0.021543134242287917,0.04883422664034824,0.12497744421675218
1592289071.027629,-0.3621340961851317,9.719573180762975,1.0334145538962107,-0.35,-0.52,0.11666666666666667,-0.021444145600081132,0.016542096784506827,0.01479944341477639
1592289071.037629,-0.44488763423004535,9.692556182884978,1.1332584228200302,-0.33837078858998487,-0.5245224711038948,0.0953464457483056,-0.029581121706822047,0.005889254467041645,-0.023158709052608716
1592289071.0476289,-0.47766923134758527,9.687669231347584,1.1423307686524147,-0.33,-0.5277777777777778,0.08,0.06061160057593473,0.04058226226834012,-0.04277231673201293
1592289071.0576289,-0.4603720268347225,9.682148810733889,1.1203720268347226,-0.33,-0.5277777777777778,0.08,0.05822894190005172,0.040207503727586386,-0.03803493426710299
1592289071.0676289,-0.3776229269711958,9.6830942682572,1.116188536514402,-0.33,-0.5277777777777778,0.08,-0.013452098549930836,0.03204985886204237,0.001531193805689307
1592289071.0776289,-0.3247677341785987,9.674860640507159,1.1552322658214011,-0.33,-0.5277777777777778,0.08,0.0024248897643909598,0.06247125534323731,0.07312298126373883
1592289071.0876288,-0.277666919000757,9.66,1.196749810749432,-0.344888720666162,-0.5277777777777778,0.09240726722180168,0.07099442173333956,0.04996054529516547,0.07009570433581494
1592289071.0976288,-0.32013606793464766,9.66,1.1648979490490141,-0.3566666666666667,-0.5277777777777778,0.10222222222222223,0.048961222184459786,-0.027367247171967257,-0.00441527261205436
1592289071.1076288,-0.36269985817720385,9.671349929088603,1.1159502127341943,-0.3566666666666667,-0.5277777777777778,0.10222222222222223,0.025590921098301196,-0.027419937435333212,-0.011999138607461015
1592289071.1176288,-0.4319493581320126,9.702779743252805,1.0536101283735975,-0.3566666666666667,-0.5277777777777778,0.10222222222222223,0.0620630119841388,-0.06012547246023021,-0.05521480433840041
1592289071.1276288,-0.44040819865436637,9.705204099327183,1.05,-0.3566666666666667,-0.5277777777777778,0.10222222222222223,0.06529409504815949,-0.0675648117446637,-0.015806150901051946
1592289071.1376288,-0.39715661987338285,9.714075734339978,1.0218485313200425,-0.3478041672674208,-0.5241285133192648,0.10587148668073523,0.06806559319563688,-0.0015305345437080162,0.002269893994688757
1592289071.1476288,-0.3529911539314491,9.73,0.9689734617943474,-0.3377777777777778,-0.52,0.11,0.09970386343295194,0.11320696317618467,-0.058690555923861076
1592289071.1576288,-0.34133865074063885,9.715564417901065,0.9484515343208518,-0.3377777777777778,-0.52,0.11,0.08146029920954595,0.1016422759370896,-0.042989173535189884
1592289071.1676288,-0.32623219093927275,9.692464381878544,0.9511609546963636,-0.3377777777777778,-0.52,0.11,0.04442415704642247,-0.046228206888888575,0.00026882236129438454
1592289071.1776288,-0.36289127837514934,9.68590373783922,1.031083802696706,-0.3377777777777778,-0.52,0.11,0.05017821599483697,-0.03829767428248608,0.024668340363275806
1592289071.1876287,-0.3741301850164415,9.678623271661186,1.0827534566776278,-0.3430475549040582,-0.5118557989866575,0.10377208157803222,0.1052064175118666,-0.026037928956560746,0.03809990453394173
1592289071.1976287,-0.34,9.696515423496622,1.0469691530067553,-0.35,-0.5011111111111111,0.09555555555555556,0.14653362969801004,-0.0874327487225903,0.007932780747423093
1592289071.2076287,-0.34614005374522955,9.70614005374523,0.9294790325858682,-0.35,-0.5011111111111111,0.09555555555555556,0.08627342551246449,-0.0775840492426452,0.04663559627655394
1592289071.2176287,-0.35594071240736314,9.721881424814727,0.86,-0.35,-0.5011111111111111,0.09555555555555556,0.12046782591195679,0.013199495789347482,-0.06665150801738087
1592289071.2276287,-0.36445712143124964,9.73445712143125,0.8911998500187477,-0.35,-0.5011111111111111,0.09555555555555556,0.12704144020468983,0.05183634422589833,-0.0031797638429191255
1592289071.2376287,-0.3742887498524377,9.74,0.93,-0.34142250029512455,-0.5063529164863128,0.08888416689620798,0.05483333732493341,0.05455544654124467,0.07798854180546702
1592289071.2476287,-0.38,9.74,0.9173424088601754,-0.33,-0.5133333333333333,0.08,0.031260582567518416,0.11178788051178176,-0.08791502115078635
1592289071.2576287,-0.3621820670773443,9.728121378051563,0.8743641341546886,-0.33,-0.5133333333333333,0.08,0.015946288514884534,0.04104953276337439,0.06471381615896944
1592289071.2676287,-0.3384647540787808,9.71423237703939,0.8615352459212192,-0.33,-0.5133333333333333,0.08,0.006291500667266304,-0.0422843564870949,0.03456739902130798
1592289071.2776287,-0.36424391278227375,9.722841467293353,0.8914024454889211,-0.33,-0.5133333333333333,0.08,-0.02737986420546419,-0.03182298447718828,-0.07307768271308872
1592289071.2876287,-0.41,9.725460895975703,0.92,-0.3352502320087742,-0.5133333333333333,0.0880772800134987,0.002741157535817773,0.008328248684891317,-0.07071051713349882
1592289071.2976286,-0.4219288354022553,9.735786506206765,0.9140355822988724,-0.34444444444444444,-0.5133333333333333,0.10222222222222223,0.06895830006376434,0.006162992355670895,-0.008328321952158699
1592289071.3076286,-0.4417449015678416,9.75412754921608,0.8512754921607922,-0.34444444444444444,-0.5133333333333333,0.10222222222222223,-0.014575957899037869,-0.06918318090499932,0.0437868451690991
1592289071.3176286,-0.4048046423452166,9.744350580293153,0.8269482591205438,-0.34444444444444444,-0.5133333333333333,0.10222222222222223,0.020839826038155575,-0.022906286349751268,0.013160230049319266
