time,acc_x,acc_y,acc_z,mag_x,mag_y,mag_z,gyr_x,gyr_y,gyr_z
1592289342.2773702,-0.3345738781976609,9.724573878197662,0.7725567308140348,-0.3288888888888889,-0.5288888888888889,0.19666666666666666,0.034637041419385284,-0.042923614387578614,0.05082897348555512
1592289342.2873702,-0.3759577498219796,9.722808450035604,0.7687661998575837,-0.3288888888888889,-0.5288888888888889,0.19666666666666666,0.01811208906468196,-0.04635323973476965,0.03312868362733255
1592289342.2973702,-0.40616669052902854,9.736166690529029,0.78,-0.3288888888888889,-0.5288888888888889,0.19666666666666666,0.016289760509119528,0.018507850777672794,0.10763481277610598
1592289342.3073702,-0.45881633142720035,9.7435306114288,0.8058775542848002,-0.3288888888888889,-0.5461405917454224,0.19091609904782214,0.03683001018178281,0.07122457171925234,0.14207068749141227
1592289342.3173702,-0.487785301170828,9.755570602341656,0.7888587953166878,-0.3288888888888889,-0.5555555555555556,0.18777777777777777,-0.02309102114303614,0.0006582838323486856,0.08444021221431482
1592289342.3273702,-0.49,9.745470749849225,0.7073537492461301,-0.3288888888888889,-0.5555555555555556,0.18777777777777777,0.05998173145589003,0.024742115186019258,0.03187838381851818
1592289342.3373702,-0.45502779217108674,9.74,0.7009833246973479,-0.3288888888888889,-0.5555555555555556,0.18777777777777777,0.07833741479222711,-0.1058026470752734,0.09800080991716105
1592289342.3473701,-0.44,9.745267128727168,0.6941986138184969,-0.3288888888888889,-0.5555555555555556,0.18777777777777777,0.08475159007228457,-0.13518004899625174,0.08079688549077776
1592289342.3573701,-0.4785615670334291,9.75,0.6910175905809798,-0.31787129830790917,-0.5518830253618956,0.2006316334555875,0.05370696069238087,-0.057848279996424466,0.014586431129908983
1592289342.3673701,-0.5449450496712579,9.784945049671258,0.7279560397370063,-0.3088888888888889,-0.5488888888888889,0.2111111111111111,-0.005418189006422144,-0.01353589234457209,0.07667220640714605
1592289342.37737,-0.6288423616478138,9.813768472329564,0.684926110681749,-0.3088888888888889,-0.5488888888888889,0.2111111111111111,0.06282755095924586,-0.0784941383276344,0.05310142994099863
1592289342.38737,-0.7655121052631579,9.82,0.7353657894736843,-0.3088888888888889,-0.5488888888888889,0.2111111111111111,0.0850209587278743,-0.09099658716653633,0.14483296160262163
1592289342.39737,-0.8117406266327946,9.82,0.7541296866836027,-0.3088888888888889,-0.5488888888888889,0.2111111111111111,0.043581070787872475,-0.09661113427788864,0.09937347952303652
1592289342.40737,-0.8269769659624413,9.854884829812207,0.7569769659624414,-0.3274941314553991,-0.5488888888888889,0.18475368414188836,0.06920597935371808,-0.11385258220797297,0.13092794091147475
1592289342.41737,-0.8536711189314564,9.88479444933216,0.7304111013356794,-0.33555555555555555,-0.5488888888888889,0.17333333333333334,0.042569533875224407,-0.09908936524935594,0.20341437799715256
1592289342.42737,-0.9873129241877256,9.92,0.624857761732852,-0.33555555555555555,-0.5488888888888889,0.17333333333333334,-0.014375086192256248,-0.045341322660591606,0.3676271749607206
1592289342.43737,-1.0575965033137753,9.92,0.6851930066275507,-0.33555555555555555,-0.5488888888888889,0.17333333333333334,0.022391506301055478,0.006121681094654198,0.37325893640830554
1592289342.44737,-1.1319136960600376,9.92,0.7550281425891182,-0.33555555555555555,-0.5488888888888889,0.17333333333333334,-0.06039068429625784,-0.12246775614369215,0.4602548665006482
1592289342.45737,-1.3048676324667594,9.92,0.8871192696963683,-0.33555555555555555,-0.5404102224868249,0.1833535754448634,0.08274073795097123,-0.18458515058493322,0.5893249778917923
1592289342.46737,-1.3508894044856923,9.960997679814385,0.8890023201856149,-0.33555555555555555,-0.5366666666666666,0.18777777777777777,0.1617103907344959,-0.14464517413098596,0.6359045712409348
1592289342.47737,-1.311863247863248,9.981863247863249,0.7415213675213674,-0.33555555555555555,-0.5366666666666666,0.18777777777777777,0.04456276829998557,-0.1785102620525354,0.6801059552004785
1592289342.48737,-1.227581047381546,9.998967581047381,0.6348229426433916,-0.33555555555555555,-0.5366666666666666,0.18777777777777777,-0.04047662272128246,-0.21602312285726946,0.7433111371269441
1592289342.49737,-1.1174544134990474,10.070533430100697,0.565975687199492,-0.33555555555555555,-0.5366666666666666,0.18777777777777777,0.018913143350333186,-0.22143864884678055,0.8553159336892416
1592289342.50737,-0.9366960158485582,10.101116002641426,0.5111160026414264,-0.33975199941301637,-0.5366666666666666,0.19826888742142978,-0.0291411653769363,-0.29216272545935823,1.020711148914872
1592289342.51737,-0.8557647691480371,10.068647153722056,0.5035588077129907,-0.3422222222222222,-0.5366666666666666,0.20444444444444446,-0.09070580169284236,-0.38309634337332965,1.098148868473137
1592289342.52737,-0.7352896914973663,10.009704933892293,0.5032349779640976,-0.3422222222222222,-0.5366666666666666,0.20444444444444446,-0.14338280585485408,-0.4265768642785845,1.2081623964486583
1592289342.53737,-0.711239346590909,9.978760653409092,0.5991169507575758,-0.3422222222222222,-0.5366666666666666,0.20444444444444446,-0.17743870833500353,-0.5105011879535868,1.3661569626658168
1592289342.54737,-0.6251987832861946,9.980533468523756,0.6610669370475124,-0.3422222222222222,-0.5366666666666666,0.20444444444444446,-0.1460908955610116,-0.5472478984808972,1.4473801081114281
1592289342.55737,-0.3419662603922835,9.835286140931471,0.8037710872548228,-0.3504736280392104,-0.5318533466067569,0.21269585026143262,-0.11697819606423049,-0.5680547305103653,1.5634962396065213
1592289342.56737,-0.14145335782812818,9.702297611757501,0.901993059808124,-0.35555555555555557,-0.5288888888888889,0.21777777777777776,-0.15448123323074078,-0.5973661014992366,1.6242764713138806
1592289342.57737,0.1489060242229987,9.553941097653889,0.9764235609384442,-0.35555555555555557,-0.5288888888888889,0.21777777777777776,-0.14877830811363119,-0.633693128466917,1.621834356917271
1592289342.58737,0.3761085012519375,9.457709312030524,1.0730542506259688,-0.35555555555555557,-0.5288888888888889,0.21777777777777776,-0.07754031515966509,-0.6638054788337551,1.6861530802114073
1592289342.59737,0.601404114515897,9.330804200834413,1.11,-0.35555555555555557,-0.5288888888888889,0.21777777777777776,-0.07114489069842732,-0.6809192981139462,1.701542855560862
1592289342.60737,0.8789924023154848,9.284477568740956,1.0432836468885673,-0.38088305997748834,-0.5251824248271426,0.19800996944846438,-0.022988903550192313,-0.6764290619676235,1.6670173892942266
1592289342.61737,1.0118532972284167,9.318099713284486,0.974797706275884,-0.4011111111111111,-0.5222222222222223,0.18222222222222223,0.032175946116292604,-0.6762453227140384,1.670173825903305
1592289342.6273699,1.3830533333333332,9.288353333333333,0.7601199999999999,-0.4011111111111111,-0.5222222222222223,0.18222222222222223,0.049353911533530484,-0.6917747026076033,1.8091184908828966
1592289342.6373699,1.7070293601479865,9.179824503154201,0.66992980126168,-0.4011111111111111,-0.5222222222222223,0.18222222222222223,0.094746696415997,-0.7087772220389892,1.7463588228211044
1592289342.6473699,2.0028754928144474,9.185832379498919,0.6601513417270762,-0.4011111111111111,-0.5222222222222223,0.18222222222222223,0.13332135765885975,-0.6521364594631813,1.7173397244153703
1592289342.6573699,2.2123428442369946,9.178557178348266,0.6755857110592487,-0.4259364935966607,-0.5005000125473663,0.1772571457251123,0.07323216864693985,-0.6815260748694416,1.7176361683990198
1592289342.6673698,2.3089625494301,9.10487555245406,0.6566701558501977,-0.44555555555555554,-0.48333333333333334,0.17333333333333334,0.06513863412012187,-0.731757403355636,1.7602602362115498
1592289342.6773698,2.681748939779474,8.90775742154368,0.6028702290076337,-0.44555555555555554,-0.48333333333333334,0.17333333333333334,0.16831565234767748,-0.5082633046738894,1.9613775868980867
1592289342.6873698,2.813474944757288,8.875994725212061,0.6270026373939697,-0.44555555555555554,-0.48333333333333334,0.17333333333333334,0.20866701014493633,-0.45891567484183937,2.069563598101131
1592289342.6973698,2.8365053355181646,8.835631669397706,0.6961156628432117,-0.44555555555555554,-0.48333333333333334,0.17333333333333334,0.4013709052214355,-0.47601497207502463,2.0307888906916234
1592289342.7073698,2.8889544086154992,8.7603485304615,0.7955817634461997,-0.4732302604581553,-0.4609300007931335,0.18189931342223326,0.5354709931107107,-0.47089615352892567,1.9930496067087065
1592289342.7173698,2.97403709319958,8.71596290680042,0.8093168474668533,-0.4922222222222222,-0.44555555555555554,0.18777777777777777,0.5441279742579913,-0.4503640724085769,2.0309370745346476
1592289342.7273698,3.199286480686695,8.620502503576537,0.6207135193133048,-0.4922222222222222,-0.44555555555555554,0.18777777777777777,0.5284466523162177,-0.3989206405286494,2.0665038155348037
1592289342.7373698,3.5288107702058733,8.636468461700979,0.2851111528439635,-0.4922222222222222,-0.44555555555555554,0.18777777777777777,0.5187204965530098,-0.3888264646952901,1.9116786801093002
1592289342.7473698,3.8460464003826833,8.700239177230328,0.10982061707725425,-0.4922222222222222,-0.44555555555555554,0.18777777777777777,0.5553437515919544,-0.5309068983078201,1.5852273318753662
1592289342.7573698,4.167963201649803,8.805761422955468,-0.04604272733131402,-0.5202317171847365,-0.42728849362348104,0.18473326745576535,0.610242072027271,-0.657770961845363,1.254383413615767
1592289342.7673697,4.322505065461346,8.851520417705736,-0.1316275716957606,-0.5433333333333333,-0.4122222222222222,0.18222222222222223,0.6642129585810996,-0.6664040986087054,1.1031038189204072
1592289342.7773697,4.778946854928318,8.891710344453779,-0.3113152117943576,-0.5433333333333333,-0.4122222222222222,0.18222222222222223,0.8358777406486002,-0.7853549724228086,0.3712132125404227
1592289342.7873697,5.191817024241405,8.946022871969824,-0.8177541263243879,-0.5433333333333333,-0.4122222222222222,0.18222222222222223,0.8473679553589617,-0.8172741242226484,-0.1960657408699359
1592289342.7973697,5.526433680687004,8.86958038614039,-0.969860128713463,-0.5433333333333333,-0.4122222222222222,0.18222222222222223,0.7460214086251977,-0.6798392408006084,-0.6453295269892458
1592289342.8073697,5.689858523933035,8.80498231549163,-0.87473473237444,-0.5516961408472845,-0.3932665251905997,0.20285048075663498,0.6501235718842253,-0.46709111751535226,-0.96071763906443
1592289342.8173697,5.816652879792722,8.75833678005182,-1.0261717654329792,-0.56,-0.37444444444444447,0.22333333333333333,0.6689371651031333,-0.31767018003752134,-1.1176007225510607
1592289342.8273697,5.9830389837725315,8.600349150778257,-1.4628745801201684,-0.56,-0.37444444444444447,0.22333333333333333,0.5714520414030967,-0.19503924855848853,-1.3002388636802549
1592289342.8373697,5.745039964579498,8.52718500221378,-1.385039964579498,-0.56,-0.37444444444444447,0.22333333333333333,0.3993258666280858,-0.10073658192913831,-1.46971177612478
1592289342.8473697,5.174075222030161,8.934072837813673,-1.1049385070831097,-0.56,-0.37444444444444447,0.22333333333333333,0.30486708019776465,0.1294984820867762,-1.4860483480206244
1592289342.8573697,4.401206407847384,9.171511831586994,-1.1460626134590273,-0.5589225417653075,-0.3717507988577131,0.22279460421598704,0.20990121733506714,0.3784855208196269,-1.3275724333672208
1592289342.8673697,4.062002390698011,9.034004781396023,-1.284666932299779,-0.5577777777777778,-0.3688888888888889,0.2222222222222222,0.09729975873639965,0.3650628184304377,-1.0634786560107585
1592289342.8773696,3.8871576319543513,9.259653741408378,-1.2211214498767995,-0.5577777777777778,-0.3688888888888889,0.2222222222222222,0.047526398016197714,0.4262504392848024,-0.8194027724200611
1592289342.8873696,3.610184086773637,9.550368173547275,-0.7519833636599949,-0.5577777777777778,-0.3688888888888889,0.2222222222222222,-0.10417110463936449,0.5703788334360506,-0.6432034460881791
1592289342.8973696,3.3730530709600477,9.449984496124031,-0.423073742794673,-0.5577777777777778,-0.3688888888888889,0.2222222222222222,-0.15850068315623023,0.5135247549299413,-0.509747067646412
1592289342.9073696,3.201408957371545,9.222187181485701,-0.2330442472570298,-0.553819373663489,-0.3896705104889049,0.23063383096508583,-0.12831826597220938,0.43764452768891204,-0.5614480007732208
1592289342.9173696,3.406555620953502,9.304852266038846,-0.18796350794585048,-0.5488888888888889,-0.41555555555555557,0.2411111111111111,-0.2586201200718004,0.45443214265682697,-0.8440650845763339
1592289342.9273696,3.2064902020178483,9.277907356059371,-0.4067548989910758,-0.5488888888888889,-0.41555555555555557,0.2411111111111111,-0.26189622740306656,0.3699925329642936,-0.9647581743024765
1592289342.9373696,3.167920710999783,9.253960355499892,-0.4366054095715215,-0.5488888888888889,-0.41555555555555557,0.2411111111111111,-0.26181864594514453,0.32617766211243543,-0.9839502003408266
1592289342.9473696,3.0423338216622717,9.276327766383437,-0.4149377868932513,-0.5488888888888889,-0.41555555555555557,0.2411111111111111,-0.2585460933915962,0.4920236190899896,-1.0590473890658432
1592289342.9573696,2.4976930406886257,9.290768986437126,-0.4933030524409999,-0.5479638040988611,-0.41833080992563887,0.22492212728562505,-0.219326006591216,0.5210769721855859,-1.1789955355661723
1592289342.9673696,2.2,9.39,-0.54,-0.5466666666666666,-0.4222222222222222,0.20222222222222222,-0.2530727415391778,0.34470252726888007,-1.1955505376161157
1592289342.9773695,2.0137857221066464,9.425047629475529,-0.7293214168400306,-0.5466666666666666,-0.4222222222222222,0.20222222222222222,-0.2723064125055886,0.29638910280006053,-1.0895698415922066
1592289342.9873695,1.9850330876292301,9.556158067023055,-0.7598676494830794,-0.5466666666666666,-0.4222222222222222,0.20222222222222222,-0.3448035876814355,0.3150985055226426,-1.0679955220729984
1592289342.9973695,1.9365912717958822,9.627290907299773,-0.7687585459560634,-0.5466666666666666,-0.4222222222222222,0.20222222222222222,-0.3021624264046308,0.25873117772114346,-1.034464500864958
1592289343.0073695,1.8519938823685873,9.44797552947435,-0.6258592944775078,-0.5391053333481102,-0.4409031633621852,0.19644002615509082,-0.3223101580972523,0.2000503575490569,-0.98000938196051
1592289343.0173695,1.84,9.4,-0.35,-0.5277777777777778,-0.4688888888888889,0.18777777777777777,-0.4766930519509512,0.18435040224190105,-0.9937468428542713
1592289343.0273695,2.0708398950131235,9.569370078740157,-0.28721409823772026,-0.5277777777777778,-0.4688888888888889,0.18777777777777777,-0.33891748392893634,0.36475998911471574,-0.9180590561532022
1592289343.0373695,1.73456248811109,9.60715450827468,-0.029239585314818337,-0.5277777777777778,-0.4688888888888889,0.18777777777777777,-0.28603136259230744,0.36980053185556994,-0.8478457616254557
1592289343.0473695,1.8691125292322326,9.52,-0.06807879820841095,-0.5277777777777778,-0.4688888888888889,0.18777777777777777,-0.3312793721795323,0.28738827434565334,-0.7831252281481298
1592289343.0573695,2.1132373790297723,9.439535844171855,-0.014165690686063007,-0.524933085400015,-0.4859570431554652,0.18412031614922572,-0.25113206730849214,0.2982922262440705,-0.74987566206787
1592289343.0673695,1.72,9.3,0.1,-0.52,-0.5155555555555555,0.17777777777777778,-0.08508480103472357,0.35779249665883756,-0.7733990247899873
1592289343.0773695,1.7559185905924348,9.640353503368068,0.003251194657147821,-0.52,-0.5155555555555555,0.17777777777777778,-0.12726671052257704,0.22935199217432495,-0.9333544212745614
1592289343.0873694,1.6683932848030731,9.444417518317406,-0.13831313873805515,-0.52,-0.5155555555555555,0.17777777777777778,-0.1877674575382765,0.20921605715013958,-0.831712624842508
1592289343.0973694,1.501628239215842,9.573258264216834,-0.016511171078217382,-0.52,-0.5155555555555555,0.17777777777777778,-0.21842019596304293,0.16628803836556563,-0.8690870135746555
1592289343.1073694,1.4255310753041763,9.790443932916803,-0.010348569549490295,-0.509941905075085,-0.5222609521721656,0.16688150827578646,-0.30097244483081925,0.18177452067363173,-0.8396785631570434
1592289343.1173694,1.22,9.56,-0.11,-0.49333333333333335,-0.5333333333333333,0.14888888888888888,-0.35124751196385884,0.26398104936414235,-0.9599310885968813
1592289343.1273694,0.9891546317309676,9.651777388075098,0.18,-0.49333333333333335,-0.5333333333333333,0.14888888888888888,-0.32258090885064516,0.03763523736552684,-1.0479132190093352
1592289343.1373694,1.029160048651356,10.002992058381627,0.2537707185614462,-0.49333333333333335,-0.5333333333333333,0.14888888888888888,-0.3484559310624411,0.07364011799634859,-0.9701351210422045
1592289343.1473694,0.9351290653060406,9.9989634599546,0.1962172314738555,-0.49333333333333335,-0.5333333333333333,0.14888888888888888,-0.39257453052121244,0.03496290040339908,-0.8322415018930761
1592289343.1573694,0.7017424425634825,9.766950725513906,0.18566928657799275,-0.4867627636705629,-0.5426094316807739,0.14154531103049844,-0.37070070488576234,-0.038791960728472685,-0.8134836595663633
1592289343.1673694,0.78,9.63,0.59,-0.47444444444444445,-0.56,0.12777777777777777,-0.5585053606381855,0.04799655442984406,-1.0133817969392076
1592289343.1773694,0.7999173838209983,9.659917383820998,0.1751325301204819,-0.47444444444444445,-0.56,0.12777777777777777,-0.30151201180122955,-0.024678685262386257,-0.9274438573372441
1592289343.1873693,0.9542970992149142,9.685682977158987,-0.2585244657384787,-0.47444444444444445,-0.56,0.12777777777777777,-0.382405257189722,0.039139378977071135,-0.8089211798110687
1592289343.1973693,0.8830490007343164,9.723022605037015,-0.023928394228670102,-0.47444444444444445,-0.56,0.12777777777777777,-0.31595721912654495,0.062239985309697946,-0.7595927532169179
1592289343.2073693,0.67,10.188474581593242,0.009753194963418844,-0.4734592129731389,-0.563612515394787,0.1261357253256019,-0.2776730359561332,-0.01333648269236043,-0.6068768742345441
1592289343.2173693,0.67,10.59,-0.11,-0.4711111111111111,-0.5722222222222222,0.12222222222222222,-0.32070425005395803,0.14726215563702155,-0.3217950808364545
1592289343.2273693,0.09630820257685929,10.278137517540502,0.28895777522643196,-0.4711111111111111,-0.5722222222222222,0.12222222222222222,-0.3117478599973412,0.06857720133246695,0.013662032835147275
1592289343.2373693,0.06128555772621146,10.578449516367275,0.011776337732882253,-0.4711111111111111,-0.5722222222222222,0.12222222222222222,-0.5264709449512303,0.006375853167545398,0.42349510532279466
1592289343.2473693,0.03689173251562684,10.655811416440619,0.3482421276093879,-0.4711111111111111,-0.5722222222222222,0.12222222222222222,-0.5483348655903901,0.004864675596006424,0.7918984419128166
1592289343.2573693,0.02625235966219574,10.464378539493293,0.5280496770988574,-0.4674654744162941,-0.5749564497433349,0.11827278246950378,-0.39718129617181963,-0.049239657169559345,0.9904264471579629
1592289343.2673693,-0.09,10.29,0.39,-0.4577777777777778,-0.5822222222222222,0.10777777777777778,-0.4177881896961426,-0.10471975511965977,1.2511829075234349
1592289343.2773693,-0.05106884057971012,10.013876811594203,1.155235507246377,-0.4577777777777778,-0.5822222222222222,0.10777777777777778,-0.2852621303364328,-0.01667469228750923,1.3702672440886867
1592289343.2873693,0.21674363684072423,9.605211230648123,0.8276935187614799,-0.4577777777777778,-0.5822222222222222,0.10777777777777778,-0.1886527579206479,-0.09569371001463658,1.705575325232696
1592289343.2973692,0.2818166484770314,9.27036253596587,0.9313632304792142,-0.4577777777777778,-0.5822222222222222,0.10777777777777778,-0.17584174897350638,-0.22090341771752586,1.8599852320019334
1592289343.3073692,1.282719920927307,9.945083116182946,1.120539131997484,-0.46117191321971623,-0.584202134563353,0.10410079771567776,-0.22716607405242487,-0.041769928831059816,2.099733400255277
1592289343.3173692,0.91,9.55,0.8,-0.4711111111111111,-0.59,0.09333333333333334,-0.004363323129985824,-0.09381144729469522,2.2591105505501603
1592289343.3273692,1.6853400075557234,9.189278428409521,0.9778711749149981,-0.4711111111111111,-0.59,0.09333333333333334,-0.06650647336698452,0.04369257381314856,2.352033096447861
1592289343.3373692,1.6535347603712824,8.688643682515627,1.4164652396287176,-0.4711111111111111,-0.59,0.09333333333333334,0.030833791949717023,-0.011631946658134213,2.517000800871896
1592289343.3473692,2.0062890462307372,8.833710953769263,1.2282174094127447,-0.4711111111111111,-0.59,0.09333333333333334,0.10049818092934029,-0.06782959357149349,2.5401291864092626
1592289343.3573692,2.3406383925261363,8.538233113368427,1.3234967005264329,-0.47385960142688843,-0.5865643871052783,0.08960323933334982,0.2753177389819068,-0.10670867925196274,2.4049806372309326
1592289343.3673692,2.76,8.52,1.05,-0.5022222222222222,-0.5511111111111111,0.051111111111111114,0.36979163526629855,-0.10471975511965977,2.3005621202850257
1592289343.3773692,3.1652637244348765,8.655778256189452,0.914221743810549,-0.5022222222222222,-0.5511111111111111,0.051111111111111114,0.33242134608450236,-0.13016863766148828,2.1390947411383316
1592289343.3873692,3.5944209849801245,8.839981909499892,0.5715862512199186,-0.5022222222222222,-0.5511111111111111,0.051111111111111114,0.24944431602260267,-0.11955386974114832,1.9790177090440155
1592289343.3973691,3.9628288142452446,8.823083419844105,0.3360632027167315,-0.5022222222222222,-0.5511111111111111,0.051111111111111114,0.18351106541085976,-0.10272427163061246,1.7947483796669426
1592289343.4073691,4.4640633829706,9.214773195876289,0.02154868270332188,-0.5026954308260151,-0.5506379025073184,0.051125450765771505,0.16933217390171618,-0.08592243745575398,1.5555948772018593
1592289343.4173691,3.55,8.41,0.26,-0.5755555555555556,-0.4777777777777778,0.05333333333333334,0.2083486794568231,-0.21489366415180183,1.3984450631604564
1592289343.427369,4.135956485616367,8.94149288607332,-0.07054392979540972,-0.5755555555555556,-0.4777777777777778,0.05333333333333334,0.0013469704023141415,-0.09461546627600927,1.19840896967593
1592289343.437369,4.254504739336492,8.925770142180095,0.19493838862559243,-0.5755555555555556,-0.4777777777777778,0.05333333333333334,-0.05263594563464179,-0.02914250077000781,0.9339538065310604
1592289343.447369,4.495035364041605,9.243286775631502,-0.20069836552748888,-0.5755555555555556,-0.4777777777777778,0.05333333333333334,-0.07406964690191033,-0.23124860515398746,0.6606540616413115
1592289343.457369,4.7837369066717,9.25543455695008,0.33311125790318014,-0.5806733561909555,-0.4719776037243245,0.05111561972466002,-0.06825273752038244,-0.24227066541823666,0.40839419834200047
1592289343.467369,5.08,9.12,0.24,-0.6088888888888889,-0.44,0.03888888888888889,-0.20398535632683729,0.04581489286485115,0.17016960206944715
1592289343.477369,4.75265001204916,9.308171205183816,0.2279848448335877,-0.6088888888888889,-0.44,0.03888888888888889,-0.2350089144154772,-0.03155724647211853,-0.05087900328603673
1592289343.487369,5.080620897810569,9.150788578546448,0.19298663344991135,-0.6088888888888889,-0.44,0.03888888888888889,-0.26317028192488345,-0.12944821427742853,-0.29308939819039415
1592289343.497369,4.992070641928763,9.024113503323743,0.3674779243972616,-0.6088888888888889,-0.44,0.03888888888888889,-0.32288591161895097,-0.054319238655803286,-0.31342883407104716
1592289343.507369,4.369292634415501,8.774161106120879,0.59,-0.6087262429245619,-0.436096496856153,0.04295503799706289,-0.3525858898063893,-0.26631881885036957,-0.39481428979085803
1592289343.517369,4.89,9.09,0.59,-0.6077777777777778,-0.41333333333333333,0.06666666666666667,-0.5257804371632917,-0.1908953869368798,-0.6806784082777886
1592289343.527369,4.583801427371957,8.722225020990765,0.7839735516372796,-0.6077777777777778,-0.41333333333333333,0.06666666666666667,-0.43540909097611685,-0.09421009053405843,-0.5664344914457147
1592289343.537369,4.7290689785148885,8.317063937052394,0.9939540143234075,-0.6077777777777778,-0.41333333333333333,0.06666666666666667,-0.40461226033239484,0.2118175562945084,-0.5683479189764441
1592289343.547369,4.4248223645894,8.33785789167152,1.2176785090273734,-0.6077777777777778,-0.41333333333333333,0.06666666666666667,-0.2505987093707458,0.18086533448391473,-0.47468749888503114
1592289343.557369,4.5272199339726455,8.42473761987109,1.1927093224335796,-0.6086966060542542,-0.41333333333333333,0.06524665933029397,-0.2217512359164763,0.3832761969578634,-0.565879726561975
1592289343.567369,4.37,8.36,0.98,-0.62,-0.41333333333333333,0.04777777777777778,-0.14508049407202864,0.3076142806640006,-0.48214720586343357
1592289343.577369,4.040115797037364,8.555589487066106,1.2415473690028742,-0.62,-0.41333333333333333,0.04777777777777778,-0.19579493069278495,-0.08991660499491044,-0.45303464943871175
1592289343.587369,4.025341668257301,8.787939492269517,1.25,-0.62,-0.41333333333333333,0.04777777777777778,-0.05817195056280871,0.0068332042999931925,-0.4279769635496218
1592289343.597369,3.647412568144693,8.952760425892032,1.276897325382299,-0.62,-0.41333333333333333,0.04777777777777778,-0.0009394571065722904,0.20152226552943903,-0.5712946221741265
1592289343.607369,3.5124215747462473,9.166687580067668,1.339360115625924,-0.6194479300112778,-0.4145294849755645,0.04602955614682449,0.09553324214935867,0.27268580232818046,-0.5959617801002127
1592289343.617369,3.65,9.13,1.0,-0.6133333333333333,-0.42777777777777776,0.02666666666666667,-0.0545415391248228,0.15162547876700738,-0.5879577917655897
1592289343.627369,3.5383290342550557,8.999751599257118,0.7711225753198514,-0.6133333333333333,-0.42777777777777776,0.02666666666666667,-0.01472762243377863,0.02604904358799961,-0.6711413767163651
1592289343.637369,3.474787412752869,9.304645687921449,0.8898582751685792,-0.6133333333333333,-0.42777777777777776,0.02666666666666667,-0.031649552473273015,-0.022886876406786168,-0.7506599325322743
1592289343.647369,3.4170227945635503,9.32084043805515,0.9211782542004067,-0.6133333333333333,-0.42777777777777776,0.02666666666666667,-0.05068034136198763,0.1099237413333346,-0.7058232388051016
1592289343.657369,3.3646557628509255,9.68740966004352,1.168051403702779,-0.6133333333333333,-0.42777777777777776,0.02666666666666667,-0.11433231956266918,-0.0671593262249717,-0.6136094755143706
1592289343.667369,2.54,9.37,1.13,-0.5877777777777777,-0.4622222222222222,0.012222222222222223,-0.008726646259971648,0.032724923474893676,-0.5159629601208237
1592289343.6773689,2.994621827339351,9.30245380719278,0.43356639597068564,-0.5877777777777777,-0.4622222222222222,0.012222222222222223,-0.07562996712243149,-0.07200585076107156,-0.5204414129533848
1592289343.6873689,3.1610209051672173,9.003277795192052,0.3864374412268223,-0.5877777777777777,-0.4622222222222222,0.012222222222222223,0.019562254828002293,0.16749324888925415,-0.479661859196936
1592289343.6973689,2.9788538764358,9.028710610990275,0.5605730617820999,-0.5877777777777777,-0.4622222222222222,0.012222222222222223,-0.05574176475795196,0.29481186737451426,-0.1709259932440584
1592289343.7073689,3.340749941579335,9.435843684276753,0.37962502921033237,-0.5877777777777777,-0.4622222222222222,0.012222222222222223,-0.021199620064697257,0.3762326370086146,-0.10430899990706723
1592289343.7173688,2.85,9.34,0.74,-0.5811111111111111,-0.4811111111111111,-0.0011111111111111111,-0.1090830782496456,0.34470252726888007,0.05563236990731925
1592289343.7273688,2.597555651029779,9.752303912354662,0.9157369565801133,-0.5811111111111111,-0.4811111111111111,-0.0011111111111111111,-0.12718048260619633,0.2262120770165272,0.3124406378964461
1592289343.7373688,1.73,9.23,0.96,-0.5811111111111111,-0.4811111111111111,-0.0011111111111111111,-0.10690141668465267,0.296705972839036,0.4254240051736178
1592289343.7473688,2.076456588895212,9.596342980245508,1.0731611251117796,-0.5811111111111111,-0.4811111111111111,-0.0011111111111111111,-0.10598299853111881,0.2810399455012588,0.6086103062538633
1592289343.7573688,2.3066128770018697,9.545197138444028,1.3970847898544834,-0.5811111111111111,-0.4811111111111111,-0.0011111111111111111,-0.12365029376513897,0.1229641460389731,0.8364254290083337
1592289343.7673688,2.31,9.68,1.06,-0.5811111111111111,-0.4888888888888889,-0.0011111111111111111,-0.18216874067690814,0.11999138607461016,0.96647607329186
1592289343.7773688,2.0695210053252935,9.031197486686764,1.3468865346144094,-0.5811111111111111,-0.4888888888888889,-0.0011111111111111111,-0.07447714708579463,-0.032410991897524236,1.279348784715348
1592289343.7873688,2.2078599883404584,9.074678876797513,1.2093577535950253,-0.5811111111111111,-0.4888888888888889,-0.0011111111111111111,-0.027034044868211454,-0.20053607562478085,1.2285091651208777
1592289343.7973688,2.9801883640757723,9.042823506415042,1.1628705974339837,-0.5811111111111111,-0.4888888888888889,-0.0011111111111111111,-0.13106385933826686,-0.23383824722492777,1.449436934166405
1592289343.8073688,3.1888822546824467,9.005556740235278,1.177777303905889,-0.5811111111111111,-0.4888888888888889,-0.0011111111111111111,0.032356118227927444,-0.33221544765034816,1.4876495657366096
1592289343.8173687,3.26,8.51,1.61,-0.6,-0.4811111111111111,-0.024444444444444446,0.0916297857297023,-0.11344640137963141,1.6515178046996344
1592289343.8273687,3.8763893916738805,8.3211064767451,1.5304658849453057,-0.6,-0.4811111111111111,-0.024444444444444446,0.1707966988559535,-0.1600789666457794,1.7285157613018787
1592289343.8373687,4.493136575173331,8.417515433564441,0.9316563776237059,-0.6,-0.4811111111111111,-0.024444444444444446,0.18544314967075293,-0.15563608716634364,1.635290855039641
1592289343.8473687,4.32513712820873,8.180149594409523,1.096165853144643,-0.6,-0.4811111111111111,-0.024444444444444446,0.3002654513234943,-0.09696084434704982,1.6333375278763722
1592289343.8573687,4.649169154054149,8.53363907714998,0.8973280191031359,-0.6,-0.4811111111111111,-0.024444444444444446,0.33400520711642284,-0.12829061758334062,1.5264949678654318
1592289343.8673687,5.2,8.79,0.43,-0.62,-0.43,0.0,0.21925698728178766,-0.19307704850187268,1.296997800388286
1592289343.8773687,4.8747931891810445,8.550877344986061,0.6404279364122655,-0.62,-0.43,0.0,0.16917525552854268,-0.15134227204083522,1.216658355700789
1592289343.8873687,5.324762347666404,8.748382103932652,0.4298583386992917,-0.62,-0.43,0.0,0.15491240938413697,-0.1731554102161516,0.8078115348442744
1592289343.8973687,5.391247509960159,8.996474103585658,0.6324228087649403,-0.62,-0.43,0.0,-0.06280262662951583,0.009511631559128708,0.6667991076493014
1592289343.9073687,5.26442782441662,9.175513659647127,0.44592327120091063,-0.62,-0.43,0.0,-0.04489995621785044,-0.04419637967586745,0.4991650119764347
1592289343.9173687,4.99,8.75,0.26,-0.64,-0.39555555555555555,-0.027777777777777776,-0.1778054175469223,-0.1407171709420428,0.34143003492139073
1592289343.9273686,5.253420087542884,8.506092511534366,0.5429326866201349,-0.64,-0.39555555555555555,-0.027777777777777776,-0.14587800196695683,-0.06728411510812222,0.17860021546356677
1592289343.9373686,5.345075951131137,8.52030380452455,0.4386170855205091,-0.64,-0.39555555555555555,-0.027777777777777776,-0.047663432231482394,-0.2018979459466561,0.09416286233053917
1592289343.9473686,5.322824470096706,8.381508761187849,0.5135788506906301,-0.64,-0.39555555555555555,-0.027777777777777776,-0.1457770432244672,0.02461837058019573,0.04925585510718267
1592289343.9573686,5.451231428622882,8.396615462190928,0.6495391597183454,-0.64,-0.39555555555555555,-0.027777777777777776,-0.21828400291943553,-0.03470550553386931,-0.036434188168689055
1592289343.9673686,5.39,8.19,0.81,-0.6733333333333333,-0.3622222222222222,0.0,-0.19307704850187268,0.14726215563702155,0.05126904677733343
1592289343.9773686,5.547282540479477,8.122593196937366,0.7650621312915777,-0.6733333333333333,-0.3622222222222222,0.0,-0.1734692043071002,0.08435365551212647,-0.025528342985525504
1592289343.9873686,5.510674455910168,8.050258098498814,1.0714487514066129,-0.6733333333333333,-0.3622222222222222,0.0,-0.10310303143998734,0.02493744629430462,-0.010133545568571775
1592289343.9973686,5.441445387004777,8.141126046756645,1.2533781402699316,-0.6733333333333333,-0.3622222222222222,0.0,-0.13771418122797943,-0.061346852148450204,-0.0557937029299907
1592289344.0073686,5.662394506911773,8.049698824726162,0.9790964741784891,-0.6733333333333333,-0.3622222222222222,0.0,-0.21916167754965182,0.048357938815435056,-0.05745589673247382
1592289344.0173686,5.41,7.88,1.16,-0.6533333333333333,-0.3622222222222222,-0.027777777777777776,-0.12762720155208535,0.3010692959690219,-0.25634523388666713
1592289344.0273685,5.780710894552724,8.250710894552723,1.1509582708645676,-0.6533333333333333,-0.3622222222222222,-0.027777777777777776,-0.20258597470831233,0.4085759574694,-0.25634523388666713
1592289344.0373685,5.559061512509206,8.24402504217254,1.1901321010240205,-0.6533333333333333,-0.3622222222222222,-0.027777777777777776,-0.19825365467385855,0.2800803733474328,-0.2711842542445154
1592289344.0473685,5.303259615902844,8.592398541221277,1.606832725508866,-0.6533333333333333,-0.3622222222222222,-0.027777777777777776,-0.06469982852268669,0.193018022177081,-0.41459416395040155
1592289344.0573685,4.866219930654115,8.501976537376713,1.5691568905736306,-0.6533333333333333,-0.3622222222222222,-0.027777777777777776,-0.0038748469773439154,0.14041263273246024,-0.5452856783518814
1592289344.0673685,5.14,8.78,1.83,-0.6533333333333333,-0.3622222222222222,-0.044444444444444446,-0.18435040224190105,-0.004363323129985824,-0.9828385350293068
1592289344.0773685,5.088692463722889,8.549116086753003,1.5563598065220783,-0.6533333333333333,-0.3622222222222222,-0.044444444444444446,-0.03603562638731836,-0.0528687844157613,-1.03320959097992
1592289344.0873685,4.6239509620618655,8.586676922348708,0.8699846164769365,-0.6533333333333333,-0.3622222222222222,-0.044444444444444446,-0.08726646259971647,-0.07890398596126035,-1.3010103269198634
1592289344.0973685,5.048811954006493,7.9857635388451405,1.7660997004323102,-0.6533333333333333,-0.3622222222222222,-0.044444444444444446,-0.07872347712372445,-0.04844065896353268,-1.2247639905680734
1592289344.1073685,4.800526126966473,8.113668358835453,1.457623369867437,-0.6533333333333333,-0.3622222222222222,-0.044444444444444446,0.1108629989712669,-0.1067118269407811,-1.4373306455836699
1592289344.1173685,4.64,8.65,1.17,-0.64,-0.3688888888888889,-0.057777777777777775,0.23889194136672384,0.002181661564992912,-1.4780757102826978
1592289344.1273685,4.348996796155387,8.425511814177014,1.2448293952743292,-0.64,-0.3688888888888889,-0.057777777777777775,0.11282479820765937,0.06385479634784459,-1.4871452889272347
1592289344.1373684,4.60474708994709,8.308567195767196,1.4394941798941798,-0.64,-0.3688888888888889,-0.057777777777777775,0.3126761972220995,-0.06405866254866066,-1.3646230755843094
1592289344.1473684,4.434922048997773,7.9533407572383075,1.1106681514476615,-0.64,-0.3688888888888889,-0.057777777777777775,0.26789735052535457,0.05158244804891927,-1.1951618228606604
1592289344.1573684,4.143959618825075,8.144763408667712,1.1489526817335427,-0.64,-0.3688888888888889,-0.057777777777777775,0.3672907775529863,0.25705121316486396,-1.2978962054186327
1592289344.1673684,3.93,8.58,1.27,-0.62,-0.4222222222222222,-0.044444444444444446,0.28579766501407144,0.26616271092913524,-1.1039207518864134
1592289344.1773684,3.389327588983733,8.87051054920277,0.9956289257529394,-0.62,-0.4222222222222222,-0.044444444444444446,0.3192479935946066,0.3603517940374842,-0.9577956322977599
1592289344.1873684,3.29982205547367,8.780711778105319,0.7508007503684846,-0.62,-0.4222222222222222,-0.044444444444444446,0.441276935072959,0.19174945935122836,-0.6556922298042926
1592289344.1973684,3.968240504213718,9.418319287607133,1.0691596438035669,-0.62,-0.4222222222222222,-0.044444444444444446,0.1415078129683658,0.6674245551502931,-0.6327391467484027
1592289344.2073684,3.0117582921018875,9.02903738317757,0.7940263881253435,-0.62,-0.4222222222222222,-0.044444444444444446,0.2636420462627981,0.5340472633666431,-0.29651994990955255
1592289344.2173684,3.24,9.47,0.95,-0.6077777777777778,-0.45444444444444443,-0.06555555555555556,0.3337942194439155,0.6250460383704692,-0.17235126363444003
1592289344.2273684,2.9166694748666107,9.23804549283909,1.434995787700084,-0.6077777777777778,-0.45444444444444443,-0.06555555555555556,0.329193799143008,0.5223033183168674,-0.1432152683953589
1592289344.2373683,2.899598303177214,9.169899575794304,0.643347473523216,-0.6077777777777778,-0.45444444444444443,-0.06555555555555556,0.37182358421762013,0.3810285805359076,-0.1308996938995747
1592289344.2473683,3.398664727342092,9.678638021888933,1.2284243782636688,-0.6077777777777778,-0.45444444444444443,-0.06555555555555556,0.08802678510225437,0.08805009000654673,0.009441685460753996
1592289344.2573683,3.3629768289876623,9.487479510735843,0.6746524348149329,-0.6077777777777778,-0.45444444444444443,-0.06555555555555556,0.18338517736173127,0.24557963985479964,-0.009567809968358404
1592289344.2673683,2.78,9.32,0.14,-0.5544444444444444,-0.4688888888888889,-0.051111111111111114,0.2530727415391778,0.36760997370130566,0.3523383427463553
1592289344.2773683,2.8154716137684397,9.029132767098794,0.4805274921770228,-0.5544444444444444,-0.4688888888888889,-0.051111111111111114,0.17336407344009275,0.33742902170262296,0.5303285724821762
1592289344.2873683,2.577742888806797,9.346598846295928,0.5908934102469381,-0.5544444444444444,-0.4688888888888889,-0.051111111111111114,0.05922456981329427,0.26156684503167227,0.4667028571931562
1592289344.2973683,2.6858334513524995,9.31173606193646,0.8120141150922909,-0.5544444444444444,-0.4688888888888889,-0.051111111111111114,0.06935867012762695,0.14695145708033966,0.539378024191849
1592289344.3073683,3.064972205064855,9.618800639465174,0.5773709261345057,-0.5544444444444444,-0.4688888888888889,-0.051111111111111114,0.1002900063677772,0.02500159739291491,0.7169836965529722
1592289344.3173683,2.678332041093235,9.27022484977709,0.631469276991665,-0.5711456785337382,-0.45611735693825245,-0.051111111111111114,0.003241410330620406,0.034629384195565424,0.833955674226975
1592289344.3273683,2.9983666185739235,9.56923912218088,0.533490014427823,-0.5733333333333334,-0.45444444444444443,-0.051111111111111114,-0.027853998322344385,-0.1799015123871587,0.7859570391882831
1592289344.3373682,3.2604531393893597,9.10799216038159,0.6359609435878061,-0.5733333333333334,-0.45444444444444443,-0.051111111111111114,-0.10191598334996652,-0.05098184369757158,0.8158306396171199
1592289344.3473682,3.40413802101867,9.310369605959243,0.38130524517827913,-0.5733333333333334,-0.45444444444444443,-0.051111111111111114,-0.10262944251351232,-0.2820202173595137,0.7198327199039888
1592289344.3573682,3.7997405597982326,9.142845200091713,0.39125857598899455,-0.5733333333333334,-0.45444444444444443,-0.051111111111111114,-0.11181389718700097,-0.04498788618014077,0.7565531260271507
1592289344.3673682,3.35,8.56,1.15,-0.5733333333333334,-0.44222222222222224,-0.08,-0.0370882466048795,-0.16035212502697901,0.7646723785300156
1592289344.3773682,4.012885325334564,8.724080526072912,1.1565632210429164,-0.5733333333333334,-0.44222222222222224,-0.08,-0.008450792421112366,-0.14030590709834204,0.9078596494488513
1592289344.3873682,4.22400867988793,8.964123496127012,0.9696121518431027,-0.5733333333333334,-0.44222222222222224,-0.08,0.1420320645875703,0.0017223896253646676,1.0045955843551244
1592289344.3973682,4.919052704510704,9.265462777140671,0.6921626529051987,-0.5733333333333334,-0.44222222222222224,-0.08,-0.015778814103320132,0.18503026899034775,0.9716796978581999
1592289344.4073682,4.22072187974627,8.537624408112212,0.870173322612347,-0.5733333333333334,-0.44222222222222224,-0.08,0.14188206867662517,0.17251586768979932,1.002540441740668
1592289344.4173682,4.747939021044794,8.836488615432849,0.9214249323980092,-0.5808340409226094,-0.42293468842122683,-0.08107152965561085,-0.04478792935472409,0.06041480598128733,1.03247272498119
1592289344.4273682,4.42039909782484,8.514229901754653,0.7747765587369547,-0.5811111111111111,-0.4222222222222222,-0.0811111111111111,0.11820537428462113,0.17968279407732382,0.9251442243099496
1592289344.4373682,4.287144078209306,8.975265772744269,0.4566552700464768,-0.5811111111111111,-0.4222222222222222,-0.0811111111111111,-0.005099556695136759,0.13385599158785014,0.9688176969540778
1592289344.4473681,4.454438361381543,8.98518721287282,0.7862831163266764,-0.5811111111111111,-0.4222222222222222,-0.0811111111111111,-0.12284282412753471,0.0604828291757073,0.6964587525861623
1592289344.4573681,4.305988655214856,8.98,0.7379943276074276,-0.5811111111111111,-0.4222222222222222,-0.0811111111111111,-0.03731804470946706,-0.045349109035247685,0.6772246264349188
1592289344.4673681,4.574798029155469,8.861783532860981,0.7985137226158482,-0.5997192587163268,-0.39595189619132937,-0.0887732895367882,-0.15572233500782487,-0.11742061800034657,0.7999610075295183
1592289344.477368,4.609424307036248,8.624605543710022,0.9294669509594883,-0.6,-0.39555555555555555,-0.08888888888888889,-0.0638054602478151,-0.09213217261460471,0.6059692919354246
1592289344.487368,4.815164086687306,8.953770897832817,0.9141919504643963,-0.6,-0.39555555555555555,-0.08888888888888889,-0.1930682678206514,-0.15016045587707869,0.3546003813163742
1592289344.497368,4.643049954931448,8.814097680155605,0.8194295270174108,-0.6,-0.39555555555555555,-0.08888888888888889,-0.08937694252699774,-0.2130853762808035,0.31385828941937116
1592289344.507368,4.70021232632704,8.823421802636267,0.8434218026362665,-0.6,-0.39555555555555555,-0.08888888888888889,-0.040635564577371185,-0.13248806321104523,0.18911861906347327
1592289344.517368,4.610307983099844,8.433631680379511,0.7994770587799274,-0.6345845378400415,-0.37249919699552786,-0.08216411764221415,-0.014566807596339337,-0.059267421385244774,0.12683173841086526
1592289344.527368,5.034717467050447,8.574329647023179,1.0123587335252235,-0.64,-0.3688888888888889,-0.0811111111111111,-0.011778857220842659,-0.10501935763574312,0.08654744961158709
1592289344.537368,5.182614420581903,8.467247280958427,0.8825683210953459,-0.64,-0.3688888888888889,-0.0811111111111111,0.02502912525246368,-0.13853550937704992,-0.11685430658056543
1592289344.547368,4.8968149916109365,8.377362998322187,0.8224543327740624,-0.64,-0.3688888888888889,-0.0811111111111111,0.08604738824742728,-0.20360931266932233,-0.2674384960057549
1592289344.557368,5.124323556241667,8.344212335976422,0.9876198161532524,-0.64,-0.3688888888888889,-0.0811111111111111,0.10506343838493301,-0.15645204713561986,-0.2833003353452953
1592289344.567368,5.121205407586763,8.548815577078289,0.7649055690072639,-0.6224947538337369,-0.35235615639852924,-0.0811111111111111,0.1618671824539839,0.09796901808096078,-0.4792063648119622
1592289344.577368,5.007830261277437,8.57029792223973,0.6035750668767635,-0.62,-0.35,-0.0811111111111111,0.18707042391458067,0.05837141886031212,-0.47072384235183823
1592289344.587368,5.2741145230677935,8.328290758047768,0.8275638629283489,-0.62,-0.35,-0.0811111111111111,0.05000018127789549,0.07281655523377618,-0.3028831075807777
1592289344.597368,5.024458196993408,8.511306017925737,0.548757528334993,-0.62,-0.35,-0.0811111111111111,0.0641784266921785,0.054249678391914136,-0.5413789500698993
1592289344.607368,4.976301718538803,8.701241244931277,0.7798790527849456,-0.62,-0.35,-0.0811111111111111,0.054122149376402875,0.15317041547059682,-0.4654792303173829
1592289344.617368,4.891440857726869,8.661186702148175,1.1029657911990434,-0.62,-0.35,-0.0811111111111111,0.07700519004162668,-0.03188318864917003,-0.5362724631959463
1592289344.627368,4.913929876911601,8.679421111525551,1.15647370384185,-0.62,-0.35,-0.0811111111111111,0.10305482428714374,-0.05089773302421658,-0.6735326325595221
1592289344.637368,4.753007725510681,8.580463805570066,1.2931201715558245,-0.62,-0.35,-0.0811111111111111,0.16168212704886759,-0.03715110590491284,-0.6676965232949494
1592289344.647368,4.751671568050817,8.383313727796729,0.9032843194918245,-0.62,-0.35,-0.0811111111111111,0.2094440013671148,-0.01781412255880696,-0.6497717499702839
1592289344.657368,4.7223068744931975,8.431668438598072,0.7697424993242634,-0.62,-0.35,-0.0811111111111111,0.1691057005269186,0.05817918803500135,-0.6364295391707803
1592289344.667368,4.4395770261747085,8.395992589088616,0.7904044465468307,-0.6097324275552752,-0.35466707838396583,-0.10071284032376748,0.04816292246427638,0.01604959179210451,-0.6778029803991407
1592289344.677368,4.474634464751958,8.718537859007833,0.8394960835509139,-0.6077777777777778,-0.35555555555555557,-0.10444444444444445,0.0293123035177468,0.05293121086262046,-0.7420010414236187
1592289344.687368,4.374248004590745,8.893177526214199,0.854214095675309,-0.6077777777777778,-0.35555555555555557,-0.10444444444444445,0.0025319747945326994,-0.06805420615432244,-0.8376885587523938
1592289344.697368,4.484597549255166,8.528258049014896,0.6140353195579049,-0.6077777777777778,-0.35555555555555557,-0.10444444444444445,0.1207851345188174,-0.08996287468292732,-0.7898084011622412
1592289344.707368,4.457214945054945,8.453488058608059,0.7344029304029305,-0.6077777777777778,-0.35555555555555557,-0.10444444444444445,0.18863409872048179,-0.08280187201423032,-0.8893466492095601
1592289344.717368,3.767787576833505,8.572936662467072,0.9696506700263429,-0.6035949384271455,-0.37145034508795816,-0.0868765191717889,0.3209328859870664,-0.20994759009067132,-1.151017005478018
1592289344.7273679,3.9094413407821227,8.538382317221277,0.8254117075540441,-0.6022222222222222,-0.37666666666666665,-0.0811111111111111,0.19451002797284714,-0.20047007442213938,-1.2640611757243678
1592289344.7373679,3.7843469932824343,8.366002643861117,0.26917878436344994,-0.6022222222222222,-0.37666666666666665,-0.0811111111111111,0.19469061992130993,-0.14802559298451456,-1.2367876904010993
1592289344.7473679,3.645301071878941,8.424580706179066,0.5024196090794452,-0.6022222222222222,-0.37666666666666665,-0.0811111111111111,0.1989112049410443,-0.12842830190133675,-1.1471187857224479
1592289344.7573678,3.573113176171378,8.681643157585835,0.9501651178714663,-0.6022222222222222,-0.37666666666666665,-0.0811111111111111,0.24561791668806182,-0.12113625155418734,-1.1380238162254772
1592289344.7673678,3.4199055438204935,9.11028336853852,0.2662400860866446,-0.5970891731873756,-0.3971988628060526,-0.08709966831843202,0.133746087944914,-0.2962715708152544,-1.1445015177245268
1592289344.7773678,3.4505534640015525,9.116738986997865,0.3679056860081506,-0.5955555555555555,-0.4033333333333333,-0.08888888888888889,0.12106181008679172,-0.23406277654840857,-1.1068040761161964
1592289344.7873678,3.2801114018060598,9.05294286437674,0.5763456831800152,-0.5955555555555555,-0.4033333333333333,-0.08888888888888889,0.15906805820663464,-0.20990515477454336,-0.9778316134521581
1592289344.7973678,3.087521754678746,8.87192394802718,0.15173918226248656,-0.5955555555555555,-0.4033333333333333,-0.08888888888888889,0.10943286187164053,-0.19520773788105816,-0.9619728367130762
1592289344.8073678,3.2377249024476766,8.752669386307202,-0.014529797800638525,-0.5955555555555555,-0.4033333333333333,-0.08888888888888889,0.11756154986529156,-0.12653859577029813,-0.8945573753670145
1592289344.8173678,3.022517372786371,9.07752970186057,0.47795337368303076,-0.5680836384467857,-0.4248653764726394,-0.08369149916560811,-0.004319797490155208,0.00021567199062136333,-0.8410305333047675
1592289344.8273678,2.713110717734149,9.440444962986804,0.8340002413904087,-0.5544444444444444,-0.43555555555555553,-0.0811111111111111,-0.07199483164476608,0.06753460819422377,-0.8556234670416898
1592289344.8373678,2.366999306999307,9.904501039501039,0.5613259413259414,-0.5544444444444444,-0.43555555555555553,-0.0811111111111111,-0.03759674660928648,-0.0344726717556503,-0.77223360728732
1592289344.8473678,1.9910826389044036,9.549547597238668,0.6168854583230937,-0.5544444444444444,-0.43555555555555553,-0.0811111111111111,-0.033394711755453374,-0.0014131743128036472,-0.663850404205764
1592289344.8573678,1.9153408626518558,9.63413809116915,0.8733521566296393,-0.5544444444444444,-0.43555555555555553,-0.0811111111111111,-0.07866581080059787,-0.03042958726767086,-0.6701130290883139
1592289344.8673677,2.0984908004036953,9.796186631472711,0.7124423569598634,-0.5409190970335291,-0.4535893521034426,-0.070591396458177,-0.058857099770426344,0.06466693175809571,-0.636196884768609
1592289344.8773677,2.1628761927107774,9.785752385421555,0.6879239011418739,-0.5344444444444445,-0.4622222222222222,-0.06555555555555556,-0.051549560746741246,0.10717566004069326,-0.5868856448514936
1592289344.8873677,2.106345913074584,9.693909855124307,0.6263661837476897,-0.5344444444444445,-0.4622222222222222,-0.06555555555555556,-0.08120156571469354,-0.11553772943500246,-0.41215642540585085
1592289344.8973677,2.0152125759199713,9.520425151839943,0.4907979040133381,-0.5344444444444445,-0.4622222222222222,-0.06555555555555556,-0.08595517929395022,-0.12244559295122359,-0.3563535145726504
1592289344.9073677,2.116452341899034,9.544096227446692,0.6841029706579187,-0.5344444444444445,-0.4622222222222222,-0.06555555555555556,-0.14539808149230166,-0.03837036540977765,-0.1909086272011616
1592289344.9173677,1.9848441361715696,9.66040899306386,1.0136171569799888,-0.5407255928494866,-0.46564830317042705,-0.0689816365037604,-0.1595629837912003,-0.14143317268263864,-0.029877353331285175
1592289344.9273677,2.268716900112463,9.834565995297003,0.9803207749718843,-0.5466666666666666,-0.4688888888888889,-0.07222222222222222,-0.09134782141870684,-0.04860785350218416,-0.13181556907527828
1592289344.9373677,2.328161172161172,9.768300366300366,1.0681062271062272,-0.5466666666666666,-0.4688888888888889,-0.07222222222222222,-0.06306760038376397,0.011430947628446379,-0.16251860286679431
1592289344.9473677,2.5664289987774103,9.721666883437818,0.7476185521421325,-0.5466666666666666,-0.4688888888888889,-0.07222222222222222,0.07137159705571862,0.05880100874015219,0.08659141475444965
1592289344.9573677,2.682171036510659,9.74032345013477,0.6019051703013967,-0.5466666666666666,-0.4688888888888889,-0.07222222222222222,0.12510480572098429,0.03522847501043826,0.2596283512093107
1592289344.9673676,2.561693948509591,9.377538383404305,0.6323823104270031,-0.534897362104066,-0.4799658814183954,-0.07222222222222222,0.20353260849571475,0.11176129645321523,0.47415047911131825
1592289344.9773676,2.6102041457286433,9.247437185929648,0.5402229899497487,-0.5277777777777778,-0.4866666666666667,-0.07222222222222222,0.22162296635965212,0.2129175611513497,0.48502673875504243
1592289344.9873676,2.8975477536782286,9.639739781134836,0.9846327397530031,-0.5277777777777778,-0.4866666666666667,-0.07222222222222222,0.18395104162628206,0.14655586364923245,0.6395041262732699
1592289344.9973676,2.6326284934915773,9.565074894716693,0.7248281967840735,-0.5277777777777778,-0.4866666666666667,-0.07222222222222222,0.16789663771738558,0.23530229059565785,0.7506168390994549
1592289345.0073676,2.5008561308580886,9.412546143851342,0.6420369150810744,-0.5277777777777778,-0.4866666666666667,-0.07222222222222222,0.23096553150444143,0.2756670325742254,0.737176989041244
1592289345.0173676,2.8876797819554127,9.289120134181285,0.41834020546509193,-0.5420177665960041,-0.47598667505299697,-0.06450889494568297,0.2699108265383477,0.18181539658040446,0.7193876161607603
1592289345.0273676,3.1171188959182294,9.462027602044262,0.5506709142895738,-0.5544444444444444,-0.4666666666666667,-0.057777777777777775,0.16362623825907663,0.09148179405319729,0.6427969351280308
1592289345.0373676,3.11,9.48683273023801,0.5435571581468834,-0.5544444444444444,-0.4666666666666667,-0.057777777777777775,0.14178201103136273,0.14393531911289031,0.6395392550141652
1592289345.0473676,2.9317880999358166,9.622483419307295,0.3440397461192859,-0.5544444444444444,-0.4666666666666667,-0.057777777777777775,0.13735799194454548,0.2445953161566296,0.47630297499131324
1592289345.0573676,2.9320960074346782,9.44292597490796,0.09989098187797116,-0.5544444444444444,-0.4666666666666667,-0.057777777777777775,0.15555530807564724,0.19081923893966007,0.41178622249081
1592289345.0673676,3.153647434692727,9.439670362713775,0.2193944747227964,-0.5427807638497358,-0.4519335964417716,-0.07005533629852367,0.12393846736644885,0.14607517758202165,0.38556315003632874
1592289345.0773675,3.20986818015379,9.493657268399854,0.36476931526913214,-0.5333333333333333,-0.44,-0.08,0.08509918034932257,0.10729225444396163,0.36994888904845485
1592289345.0873675,3.391877252404823,9.024770898252271,0.14475978864652486,-0.5333333333333333,-0.44,-0.08,0.13344213802875005,0.16069715328125572,0.32180356392640375
1592289345.0973675,3.603245920330649,8.907016318677405,0.14675407966935083,-0.5333333333333333,-0.44,-0.08,0.17692563255466873,0.2345607220714969,0.28527195500323815
1592289345.1073675,3.987825325192461,9.027204672152907,0.07130448632864349,-0.5333333333333333,-0.44,-0.08,0.08005771302031024,0.25376372651746104,0.2924442906978095
1592289345.1173675,4.1062502736227655,9.10796059832178,0.19210507114191902,-0.5589473428189226,-0.4309283716405205,-0.07306287243098626,0.062098318121669084,0.21218103344050945,0.2669808539144166
1592289345.1273675,3.81,9.026355274734064,0.40381828361193317,-0.5866666666666667,-0.4211111111111111,-0.06555555555555556,0.1618188095254632,0.11497546642754254,0.2451529418821436
1592289345.1373675,3.836041135729919,9.174159445926904,0.44292027703654846,-0.5866666666666667,-0.4211111111111111,-0.06555555555555556,0.13076062957291218,0.12394974812916434,0.16373957765391778
1592289345.1473675,4.151139823431162,9.23983249821045,0.16230517776187067,-0.5866666666666667,-0.4211111111111111,-0.06555555555555556,0.13955325371628102,0.14162684729251407,0.05903198269245388
1592289345.1573675,4.056518241982013,9.040301035126422,0.20468589852367217,-0.5866666666666667,-0.4211111111111111,-0.06555555555555556,0.03420695768106704,0.2550959151835914,-0.057381438304368135
1592289345.1673675,3.6248129232398894,8.972962584647977,0.4113346952672795,-0.5866666666666667,-0.4211111111111111,-0.06555555555555556,0.027748361384975294,0.24962267400699192,-0.16050543476696216
1592289345.1773674,3.730053501180173,8.978579071597167,0.48499108313663786,-0.5866666666666667,-0.4211111111111111,-0.06555555555555556,0.05624653081050924,0.09502420623861313,-0.2035300853834161
1592289345.1873674,3.9001339477486625,8.937767797867771,0.43620533447885346,-0.5866666666666667,-0.4211111111111111,-0.06555555555555556,0.02694936064086902,0.012378993259998246,-0.2358044987680986
1592289345.1973674,3.859910678253383,8.773121149344885,0.3695924022707095,-0.5866666666666667,-0.4211111111111111,-0.06555555555555556,0.08309498646117998,0.06639754819621248,-0.3206737869704145
1592289345.2073674,3.76,8.889401420358471,0.43484612783226245,-0.5866666666666667,-0.4211111111111111,-0.06555555555555556,0.1298641977864643,0.05475918882440781,-0.41740638047737905
1592289345.2173674,3.629399380342678,9.304134159543096,0.7103258800253835,-0.5888164711054703,-0.4114369911364946,-0.06824281110406012,0.047296751606745624,0.10868296987423742,-0.6137878291339555
1592289345.2273674,3.424901287553648,9.383474834178697,0.6467374170893484,-0.5911111111111111,-0.4011111111111111,-0.07111111111111111,0.056210088871096346,0.19334015875928173,-0.6385796605141039
1592289345.2373674,3.2494849246231157,9.028299309045225,0.6704907349246231,-0.5911111111111111,-0.4011111111111111,-0.07111111111111111,0.12154600836835176,-0.10076138236181931,-0.6621788226643326
1592289345.2473674,3.217455908501129,9.24683213993945,0.7152318708251237,-0.5911111111111111,-0.4011111111111111,-0.07111111111111111,0.14354114831163609,-0.01076509336498184,-0.7847316290421481
1592289345.2573674,3.153393280047365,9.330125074008288,0.6103049141503848,-0.5911111111111111,-0.4011111111111111,-0.07111111111111111,0.1671751456318836,0.048765835552284025,-0.923079947528428
1592289345.2673674,3.4651763090128758,8.895422489270386,0.5927378540772532,-0.5886345827372437,-0.4128746208869814,-0.07111111111111111,0.15533778659531583,-0.0976475012141751,-0.899109472798525
1592289345.2773674,3.6550950885929776,8.931121215401825,0.629449316156039,-0.5866666666666667,-0.4222222222222222,-0.07111111111111111,0.2047835904796092,-0.033587558015965,-0.8553893792940173
1592289345.2873673,3.4816491740010354,9.115360756812727,0.3298969266249353,-0.5866666666666667,-0.4222222222222222,-0.07111111111111111,0.27725091573070204,-0.04390307676476159,-0.9619664811874621
1592289345.2973673,3.2768803137585216,8.95603090205575,0.2645405490774131,-0.5866666666666667,-0.4222222222222222,-0.07111111111111111,0.2878394948844325,-0.07272092279340052,-0.9240187490190965
1592289345.3073673,3.24,8.85,0.2,-0.5866666666666667,-0.4222222222222222,-0.07111111111111111,0.31197760379398637,-0.11999138607461016,-0.9250245035569946
1592289345.3173673,2.6192884371029224,9.55079751849914,0.4397361536736677,-0.577226997533448,-0.42694205678883157,-0.0659979569972843,0.16108559641642053,-0.19572181783609946,-0.9492543346565336
1592289345.3273673,2.18,9.68,0.64,-0.56,-0.43555555555555553,-0.056666666666666664,0.13853550937704992,-0.16471544815696484,-0.9337511498169663
1592289345.3373673,1.7528555861436108,9.11,-0.04212950217939895,-0.56,-0.43555555555555553,-0.056666666666666664,-0.034798415366628026,-0.22224694970189954,-1.197372530325375
1592289345.3473673,2.164389976656662,9.358779953313325,-0.22873588680863227,-0.56,-0.43555555555555553,-0.056666666666666664,-0.009824986215355089,-0.22096668823667942,-1.0018957764845915
1592289345.3573673,2.26,9.55,-0.32,-0.56,-0.43555555555555553,-0.056666666666666664,0.08072147790473774,-0.3337942194439155,-0.8748462875621577
1592289345.3673673,2.1464924324541332,9.794437351961138,0.10145650166606447,-0.56,-0.44703467287593507,-0.06087567635080582,-0.14376548878330553,-0.33034804550008023,-0.8537513745616943
1592289345.3773673,2.6676352465158097,9.805430840701334,0.01241233328338079,-0.56,-0.4688888888888889,-0.06888888888888889,-0.07940056405220325,-0.23931001415650877,-0.684292469772592
1592289345.3873672,2.318755706238821,9.452503804159214,0.15804532956031928,-0.56,-0.4688888888888889,-0.06888888888888889,0.025686460084803357,-0.03860386044683499,-0.6824160380274231
1592289345.3973672,2.397450450232962,9.366567848779663,0.23019650918571807,-0.56,-0.4688888888888889,-0.06888888888888889,0.05638096481000681,0.11668710866195232,-0.5877116484315966
1592289345.4073672,2.25,9.15,0.35,-0.56,-0.4688888888888889,-0.06888888888888889,0.05235987755982988,0.19962203319685143,-0.5399612373357456
1592289345.4173672,1.7829239546580586,9.708129269574355,0.34105322423241496,-0.5522027875785102,-0.472137727397843,-0.06888888888888889,0.05752701383905265,0.22331421286166672,-0.6178950820674676
1592289345.4273672,1.79,9.51,0.15,-0.5333333333333333,-0.48,-0.06888888888888889,0.04363323129985824,0.1908953869368798,-0.6032294227205401
1592289345.4373672,1.0937803178143295,9.382308335656537,0.0327822693058266,-0.5333333333333333,-0.48,-0.06888888888888889,0.03680238629388238,0.1768663360146254,-0.6147018484996533
1592289345.4473672,0.8435171296873053,9.612478883767286,0.020720318923632738,-0.5333333333333333,-0.48,-0.06888888888888889,0.014139080345591297,0.14580391858773087,-0.6113020053756587
1592289345.4573672,0.7600874426605505,9.580064506880735,0.029989965596330274,-0.5333333333333333,-0.48,-0.06888888888888889,0.06980003507608487,0.1199666797581488,-0.6239608368752677
1592289345.4673672,1.2348565965583176,9.98886939895253,-0.05762740044891512,-0.5362712334081525,-0.4839172000997589,-0.07084748893876834,-0.08238642537889478,-0.0049295503646610145,-0.6798898253129045
1592289345.4773672,0.9071984954157198,9.88529347229841,-0.0889060418462503,-0.5433333333333333,-0.49333333333333335,-0.07555555555555556,-0.22604003825129448,0.10768955709799155,-0.718872615909542
1592289345.4873672,1.0432080487932023,9.770469947349216,0.5416290465516342,-0.5433333333333333,-0.49333333333333335,-0.07555555555555556,-0.07544229591102425,-0.06609847132139482,-0.6130298119951856
1592289345.4973671,0.941014668151232,9.752493585709445,0.24220119087960498,-0.5433333333333333,-0.49333333333333335,-0.07555555555555556,-0.12449633713501451,-0.1491286660130742,-0.693125876911071
1592289345.5073671,0.6233474803911034,9.595897174169979,0.40749006124422477,-0.5433333333333333,-0.49333333333333335,-0.07555555555555556,-0.16687109012018336,-0.16853118759555458,-0.7520429678120061
1592289345.5173671,1.176931257923651,9.953547682772221,0.4249401324130159,-0.5403143635253792,-0.49964572474996477,-0.07555555555555556,-0.14115302690972154,-0.148357826702607,-0.7144370779266849
1592289345.527367,0.8609445482298265,9.563525538798013,0.4165788034811136,-0.5311111111111111,-0.5188888888888888,-0.07555555555555556,-0.0017455678261847005,0.00014975500741157277,-0.745789206510995
1592289345.537367,0.17888641535569408,9.295712377560108,0.5142876224398931,-0.5311111111111111,-0.5188888888888888,-0.07555555555555556,-0.01669099531832338,0.009106337829460368,-0.6214435554107821
1592289345.547367,0.12483441807044411,8.856253589203675,0.525165581929556,-0.5311111111111111,-0.5188888888888888,-0.07555555555555556,-0.019317090922865907,-0.1691313917611446,-0.5805696527165006
1592289345.557367,0.44784691393383935,9.287682944293284,0.6231784333381069,-0.5311111111111111,-0.5188888888888888,-0.07555555555555556,0.04997318729627953,-0.13371510893508004,-0.6983800003149563
1592289345.567367,0.7661201887579853,10.536758049500818,0.6093464094250586,-0.5270309852724542,-0.5213822991236235,-0.07555555555555556,0.24018345755946358,0.04899021159282822,-0.8362221374886551
1592289345.577367,0.6238556015293564,10.123855601529355,-0.5531917456659509,-0.5111111111111111,-0.5311111111111111,-0.07555555555555556,0.22103586473655168,-0.07684480939190505,-0.7188867375040918
1592289345.587367,0.42,9.92,0.13,-0.5111111111111111,-0.5311111111111111,-0.07555555555555556,0.20180369476184434,-0.04799655442984406,-0.5770494839406253
1592289345.597367,0.5898339308308731,9.796901096583719,0.6616190425980599,-0.5111111111111111,-0.5311111111111111,-0.07555555555555556,0.15319765991061177,0.06468906033962046,-0.6021567072742144
1592289345.607367,-0.09984940187980633,9.5932391056679,0.48183619339219597,-0.5111111111111111,-0.5311111111111111,-0.07555555555555556,0.18799783854373434,0.010168789177844882,-0.6562795358079017
1592289345.617367,-0.15226841159866566,9.480259173723377,0.528729792147806,-0.5085792489949533,-0.533431984717589,-0.0742896244974767,0.26073402932899764,0.07732386331968719,-0.6381777151729472
1592289345.627367,0.35,9.78,0.31,-0.49777777777777776,-0.5433333333333333,-0.06888888888888889,0.1538071403320003,0.03490658503988659,-0.6523168079328807
1592289345.637367,-0.01181680069151582,9.77427403934306,0.37445268093354633,-0.49777777777777776,-0.5433333333333333,-0.06888888888888889,0.07094380302797196,-0.07158955244999098,-0.5852497872756848
1592289345.647367,0.13667205784416325,9.89,0.22333602892208163,-0.49777777777777776,-0.5433333333333333,-0.06888888888888889,0.07126525877815491,-0.15840718546891927,-0.5200842684677458
1592289345.657367,0.11369378518993657,9.863502957736442,0.34930029933718193,-0.49777777777777776,-0.5433333333333333,-0.06888888888888889,0.07045250062926071,-0.14855469410002453,-0.5611667630663448
1592289345.667367,0.027665633703369552,9.8670603695132,0.5509798768289333,-0.4952801858462236,-0.5477521498276215,-0.07138648082044308,0.08308550799422756,-0.17642229221002922,-0.6011264509060281
1592289345.677367,0.16,10.14,0.46,-0.48333333333333334,-0.5688888888888889,-0.08333333333333333,0.01090830782496456,-0.06544984694978735,-0.41887902047863906
1592289345.687367,-0.10391317455532108,9.65956537031454,0.43478243392623855,-0.48333333333333334,-0.5688888888888889,-0.08333333333333333,0.10998421124607932,-0.10533631403194509,-0.5338904697008694
1592289345.697367,-0.165414239991605,9.788098011438166,0.27082847998321,-0.48333333333333334,-0.5688888888888889,-0.08333333333333333,0.06953569761880761,-0.1409997372662563,-0.5170168747033773
1592289345.707367,-0.1504057515323877,9.800472523007896,0.14655367331437352,-0.48333333333333334,-0.5688888888888889,-0.08333333333333333,0.0732341291771722,-0.20663875870575465,-0.5058132489833598
1592289345.717367,-0.25946319131654727,9.790805582219598,0.02208041054419258,-0.48333333333333334,-0.5675316891875262,-0.08395973319550075,0.2568942335627726,-0.2031800198741465,-0.35631355629017414
1592289345.727367,-0.64,10.57,-0.44,-0.48333333333333334,-0.5544444444444444,-0.09,-0.02181661564992912,-0.1112647398146385,-0.00545415391248228
1592289345.737367,-0.43931286469978736,9.657551398811147,0.2660053443856683,-0.48333333333333334,-0.5544444444444444,-0.09,0.12912475153946418,-0.12463210157732767,-0.026765597778315865
1592289345.747367,0.18542359722385598,9.861179390659922,0.19525749911775087,-0.48333333333333334,-0.5544444444444444,-0.09,0.039404898639603766,-0.12375402727787883,-0.24135718557250221
1592289345.757367,0.2526120003576857,9.481014933381024,0.8704358401144594,-0.48333333333333334,-0.5544444444444444,-0.09,-0.0447722681605725,-0.10516260334934177,-0.2628596288889524
1592289345.767367,-0.24941109764204436,9.452824463301138,0.6493098189496734,-0.482653579947601,-0.557260565613907,-0.08941735424080084,0.08691826521663594,-0.08208931393110593,-0.09327053206563184
1592289345.7773669,0.07,9.9,0.12,-0.47555555555555556,-0.5866666666666667,-0.08333333333333333,0.15162547876700738,-0.16471544815696484,-0.053450708342326333
1592289345.7873669,-0.4274733766051308,9.754840259630784,0.2992545449436623,-0.47555555555555556,-0.5866666666666667,-0.08333333333333333,0.07739409000155838,-0.08239838234460346,-0.07425143437874951
1592289345.7973669,-0.4389381972554052,9.789540428472703,0.09757527890216211,-0.47555555555555556,-0.5866666666666667,-0.08333333333333333,0.10754795658027097,-0.13967302543392807,-0.005813743603740609
1592289345.8073668,-0.47,9.92,0.11,-0.47555555555555556,-0.5866666666666667,-0.08333333333333333,0.056723200689815706,-0.21489366415180183,-0.11017390903214205
1592289345.8173668,-0.2899176735145024,9.899990852612722,0.0200503106300263,-0.47555555555555556,-0.58666260116121,-0.08333079239242291,0.017477240323835432,-0.07200081859573912,-0.016267169434459383
1592289345.8273668,-0.11,9.88,0.13,-0.47555555555555556,-0.5777777777777777,-0.07777777777777778,0.06981317007977318,-0.08508480103472357,0.19198621771937624
1592289345.8373668,-0.025198708608325477,9.740617125224993,0.25876574955001286,-0.47555555555555556,-0.5777777777777777,-0.07777777777777778,-0.04377702985505491,-0.11788162378721558,-0.0066362690400526515
1592289345.8473668,-0.17355440169931555,9.728791597828653,0.21533160254897332,-0.47555555555555556,-0.5777777777777777,-0.07777777777777778,0.05339896017445242,-0.10472747872680513,0.002119615254258513
1592289345.8573668,-0.27294934969160634,9.62384452936444,0.3534628921962993,-0.47555555555555556,-0.5777777777777777,-0.07777777777777778,0.11285897189046523,-0.11653798445867075,-0.011382931837997677
1592289345.8673668,-0.22374027889514614,9.750382139983909,0.24801488334674174,-0.47555555555555556,-0.5777777777777777,-0.07777777777777778,0.11746000925070747,-0.04675558449499677,-0.07886481312155055
1592289345.8773668,-0.14677259398765108,9.80742055450926,0.20773833647221496,-0.4688888888888889,-0.5988888888888889,-0.07777777777777778,-0.005910203199264177,-0.15085068647354896,-0.007633110959836757
1592289345.8873668,-0.07052801133248035,9.838873149332846,0.08556342533357704,-0.4688888888888889,-0.5988888888888889,-0.07777777777777778,0.039991977933866364,-0.10911749694162667,0.018263166086869426
1592289345.8973668,0.01408369204713852,9.790523604544493,0.11947639545550773,-0.4688888888888889,-0.5988888888888889,-0.07777777777777778,0.031074398202274315,-0.0462147076333422,-0.10121610302057654
1592289345.9073668,0.11457149200710479,9.74085701598579,0.1818095026642984,-0.4688888888888889,-0.5988888888888889,-0.07777777777777778,0.03075106226766763,-0.016185661899253585,0.09114152754641791
1592289345.9173667,0.09129051953818827,9.787418960923622,0.18956982682060391,-0.4688888888888889,-0.5988888888888889,-0.07777777777777778,0.02228586179581875,-0.08560030576841444,0.08436936716893881
1592289345.9273667,-0.019787028073572115,9.74673765730881,0.20204259438528557,-0.47555555555555556,-0.5911111111111111,-0.06333333333333334,0.055160345357681384,0.03594144870575931,-0.004349595346663029
1592289345.9373667,-0.1750350296779216,9.731016347183031,0.10494161720346404,-0.47555555555555556,-0.5911111111111111,-0.06333333333333334,0.08375440568318025,0.13031734077238127,0.06214678544151576
1592289345.9473667,-0.28,9.78,-0.07,-0.47555555555555556,-0.5911111111111111,-0.06333333333333334,0.019634954084936207,0.019634954084936207,-0.02945243112740431
1592289345.9573667,-0.3336983157649072,9.8314819712941,-0.05851802870590066,-0.47555555555555556,-0.5911111111111111,-0.06333333333333334,0.018097039248016585,0.03304535422169104,-0.058536443269845514
1592289345.9673667,-0.2439684546267844,9.839639231397564,-0.05036076860243495,-0.47555555555555556,-0.5911111111111111,-0.06333333333333334,-0.026393912860436537,-0.013225235971100209,0.021547270525370116
1592289345.9773667,-0.07,9.78,0.0,-0.4955555555555556,-0.59,-0.056666666666666664,0.04581489286485115,0.12762720155208535,-0.12435470920459597
1592289345.9873667,0.005662575618013891,9.748875252060047,-0.005662575618013891,-0.4955555555555556,-0.59,-0.056666666666666664,-0.06047306898207604,0.023989804531904312,0.03732024061456028
1592289345.9973667,0.027823122920496057,9.827823122920496,-0.01476186044347239,-0.4955555555555556,-0.59,-0.056666666666666664,-0.08477307708417511,-0.04654204570504109,0.08691765766140128
1592289346.0073667,0.006535280155362151,9.82,0.05346471984463785,-0.4955555555555556,-0.59,-0.056666666666666664,-0.026798518215231208,0.015872635327670144,0.03895206630121866
1592289346.0173666,-0.06134341509026829,9.82,0.1213434150902683,-0.4955555555555556,-0.59,-0.056666666666666664,-0.09590641044821875,-0.09108005503290584,0.02085238024019811
1592289346.0273666,-0.11568101169353878,9.775797470766152,0.18556455262092453,-0.47555555555555556,-0.59,-0.06555555555555556,-0.19694770653006372,-0.12027582976790015,0.15640415359745172
1592289346.0373666,-0.0984239900779589,9.750525336640681,0.26578800496102056,-0.47555555555555556,-0.59,-0.06555555555555556,-0.12378216316644963,-0.13199052468207118,0.09667722152951344
1592289346.0473666,-0.016165075001777295,9.769724874997037,0.3223301500035546,-0.47555555555555556,-0.59,-0.06555555555555556,-0.05887301544507295,-0.1138328799935584,0.19082985798989932
1592289346.0573666,-0.03555320722815175,9.73,0.37148226425728276,-0.47555555555555556,-0.59,-0.06555555555555556,0.017781283345945965,-0.04330985140393059,-0.01313327370824531
1592289346.0673666,-0.013391630561132833,9.73,0.3788694564796224,-0.47555555555555556,-0.59,-0.06555555555555556,0.06290707271108627,-0.04169821606946129,-0.04053107439422335
1592289346.0773666,0.015164642141461121,9.757746963212192,0.3393414314341555,-0.5022222222222222,-0.5822222222222222,-0.08666666666666667,-0.0410205376164607,-0.006677327639422529,0.02153684417663205
1592289346.0873666,0.03,9.78,0.28,-0.5022222222222222,-0.5822222222222222,-0.08666666666666667,-0.002181661564992912,0.030543261909900768,-0.1265363707695889
1592289346.0973666,-0.3191589636766046,9.732386408019789,0.11736362452805624,-0.5022222222222222,-0.5822222222222222,-0.08666666666666667,-0.00030249571237045414,0.027677363564531873,0.01399987081209714
1592289346.1073666,-0.5562575503055863,9.636539904928696,0.12725151006111726,-0.5022222222222222,-0.5822222222222222,-0.08666666666666667,0.07039268002476862,0.003494682012218174,-0.11989836194054401
1592289346.1173666,-0.10653096965581332,9.74147610708031,0.03730619393116266,-0.5022222222222222,-0.5822222222222222,-0.08666666666666667,-0.06533323538860052,0.034564469877929174,-0.11090447597941715
1592289346.1273665,-0.33,9.8,0.17,-0.5022222222222222,-0.5822222222222222,-0.08888888888888889,0.017453292519943295,0.07635815477475191,-0.07526732399225547
1592289346.1373665,-0.34015674297685455,9.814921628511573,0.23984325702314546,-0.5022222222222222,-0.5822222222222222,-0.08888888888888889,-0.1130634170492716,0.06013178876303969,0.0024299268206977656
1592289346.1473665,-0.41195693881901513,9.762482057841256,0.1650358843174874,-0.5022222222222222,-0.5822222222222222,-0.08888888888888889,-0.19993440781871322,0.0170263546992945,0.19036419505508856
1592289346.1573665,-0.31546849670377175,9.72,0.2674991894520696,-0.5022222222222222,-0.5822222222222222,-0.08888888888888889,-0.16185214997850664,0.021493598645277622,0.07843831355105689
1592289346.1673665,-0.3532427320868907,9.72,0.38837674267805034,-0.5022222222222222,-0.5822222222222222,-0.08888888888888889,-0.1420736065827436,-0.10129819160341791,-0.035288310974580586
1592289346.1773665,-0.38,9.71,0.54,-0.4888888888888889,-0.5966666666666667,-0.10111111111111111,0.006544984694978735,-0.09817477042468103,-0.009817477042468103
1592289346.1873665,-0.35672404138052993,9.709496006366237,0.5959680509298829,-0.4888888888888889,-0.5966666666666667,-0.10111111111111111,0.02696974540559822,0.0007522549632718934,-0.014015868641486117
1592289346.1973665,-0.23,9.69,0.44,-0.4888888888888889,-0.5966666666666667,-0.10111111111111111,-0.1112647398146385,-0.0545415391248228,-0.007635815477475192
1592289346.2073665,-0.28230529538248483,9.702305295382484,0.4269262728233536,-0.4888888888888889,-0.5966666666666667,-0.10111111111111111,0.0899578596613809,0.059416863772639876,-0.04036527099468837
1592289346.2173665,-0.305234155763694,9.725234155763694,0.3963544589817413,-0.4888888888888889,-0.5966666666666667,-0.10111111111111111,0.029930243554053423,-0.022287391484555857,0.0029880073050481473
