time,acc_x,acc_y,acc_z,mag_x,mag_y,mag_z,gyr_x,gyr_y,gyr_z
1592289478.3272405,-0.5857432045615882,9.626171196958941,1.5580855984794706,-0.3,-0.5466666666666666,0.19666666666666666,0.10792347884079605,0.18278923202402425,-0.09469849512993833
1592289478.3372405,-0.647769510843755,9.59,1.5445322146588571,-0.3,-0.5466666666666666,0.19666666666666666,0.08066639241801676,-0.024586604027644118,0.09957142063345598
1592289478.3472404,-0.7788056460369164,9.592350705754614,1.614701411509229,-0.3,-0.5466666666666666,0.19666666666666666,0.12635959933170876,-0.11493430167334605,0.1987876246341275
1592289478.3572404,-0.9002475570032573,9.607530944625406,1.6450618892508142,-0.3,-0.5466666666666666,0.19666666666666666,0.019553585925590394,-0.0329668960360924,0.20044353181871846
1592289478.3672404,-0.7316366612111292,9.6,1.7764648117839608,-0.3055555555555556,-0.5544444444444444,0.19666666666666666,0.0527740718995012,-0.014875289819575236,0.234991016228009
1592289478.3772404,-0.8110899254628517,9.600363308487617,1.8170935320990624,-0.3055555555555556,-0.5544444444444444,0.19666666666666666,0.029191880201861635,-0.09980160067510481,0.1389883129988104
1592289478.3872404,-0.8373711303857273,9.612628869614271,1.7408762898714243,-0.3055555555555556,-0.5544444444444444,0.19666666666666666,0.10592866116138562,-0.08412891706858419,0.23890037714528767
1592289478.3972404,-0.7678432911988695,9.669007615608072,1.7619847687838581,-0.3055555555555556,-0.5544444444444444,0.19666666666666666,0.04068763705214032,-0.06191503108131294,0.25977796368363837
1592289478.4072404,-0.36445022375755676,9.636077569286332,1.8278448614273377,-0.3055555555555556,-0.5544444444444444,0.19666666666666666,0.16012532180646033,-0.017013645835327953,0.15650477761787296
1592289478.4172404,-0.12,9.62,1.88,-0.29333333333333333,-0.54,0.20555555555555555,0.18871372537188688,0.0,0.2781618495365963
1592289478.4272404,-0.1572955901275003,9.60135220493625,1.9266194876593754,-0.29333333333333333,-0.54,0.20555555555555555,0.2894045903339463,0.16374979049385419,0.20594920900825062
1592289478.4372404,-0.5650047465350294,9.633736947028668,1.7212583064363014,-0.29333333333333333,-0.54,0.20555555555555555,0.22429521924269438,0.14180282405801897,0.3986929555692823
1592289478.4472404,-0.5364088068489687,9.729084456164433,1.6554222808221652,-0.29333333333333333,-0.54,0.20555555555555555,0.2738906537905456,0.17269654430241768,0.44009641408943145
1592289478.4572403,-0.589437922190514,9.721508868258498,1.6175443412924901,-0.29333333333333333,-0.54,0.20555555555555555,0.2656269693072438,0.11237164757431439,0.43513820339945036
1592289478.4672403,-0.6187744068629641,9.811509762745187,1.5138863321567402,-0.3,-0.54,0.22666666666666666,0.27572250411712595,0.02641476397584309,0.5520599500144564
1592289478.4772403,-0.8452906493310152,9.902351399702674,1.3847093506689847,-0.3,-0.54,0.22666666666666666,0.1728592570459375,0.08046355072296671,0.7509483106656913
1592289478.4872403,-0.9610922386804356,9.947505023129759,1.3085771692911548,-0.3,-0.54,0.22666666666666666,0.2999762734326986,0.09816600340937383,0.580526395560728
1592289478.4972403,-1.2414579775280898,10.018717303370787,1.3686004494382022,-0.3,-0.54,0.22666666666666666,0.2737317528548909,-0.0013260580226950175,0.7111391102309377
1592289478.5072403,-1.4827480449438202,10.116741393258428,1.2404151011235955,-0.3,-0.54,0.22666666666666666,0.2852470430507288,0.10642415738121688,0.83287217801551
1592289478.5172403,-1.64,10.18,1.08,-0.3055555555555556,-0.5344444444444445,0.19666666666666666,0.16471544815696484,-0.015271630954950384,1.0112001353742148
1592289478.5272403,-1.5952846172116222,10.215772306230702,0.8653661626157866,-0.3055555555555556,-0.5344444444444445,0.19666666666666666,0.2232477473529745,0.02374990184238939,1.2316717956791845
1592289478.5372403,-1.310914704025072,10.217091470402508,0.5612744112075215,-0.3055555555555556,-0.5344444444444445,0.19666666666666666,0.03970657724565438,-0.07270700839461731,1.311553045058593
1592289478.5472403,-0.9305438813349814,10.177944322029344,0.4487665932176063,-0.3055555555555556,-0.5344444444444445,0.19666666666666666,0.012699411284245031,-0.194332790715076,1.4748653601735837
1592289478.5572402,-0.7577255871446229,10.140375127640135,0.42622507658408126,-0.3055555555555556,-0.5344444444444445,0.19666666666666666,-0.07418165218803921,-0.21728250559454731,1.5756801791084039
1592289478.5672402,-0.5182846003898636,10.034830763778134,0.5204288499025341,-0.32666666666666666,-0.5344444444444445,0.22,-0.2983803971236337,-0.2133325177049754,1.5645985212750664
1592289478.5772402,-0.11366892403980147,9.886570667188227,0.6213189741583747,-0.32666666666666666,-0.5344444444444445,0.22,-0.2759593330301097,-0.22181801143341265,1.605546099742734
1592289478.5872402,0.13957389862624348,9.753475367124585,0.6775284225485553,-0.32666666666666666,-0.5344444444444445,0.22,-0.39087998830925874,-0.3144794869771286,1.845045240747705
1592289478.5972402,0.5213167452702336,9.626005854610506,0.8256583726351168,-0.32666666666666666,-0.5344444444444445,0.22,-0.3002246368430296,-0.2735886625562782,1.9105973002305718
1592289478.6072402,0.7790030899333225,9.53505773296471,0.9545015449666612,-0.32666666666666666,-0.5344444444444445,0.22,-0.4300230925107817,-0.14461694864437158,1.798987163191422
1592289478.6172402,1.27,9.29,1.31,-0.35888888888888887,-0.52,0.19666666666666666,-0.19962203319685143,-0.02617993877991494,1.8249598991165707
1592289478.6272402,1.3448344473806935,9.223480491217162,1.3682045701849836,-0.35888888888888887,-0.52,0.19666666666666666,-0.24406596898468041,-0.12685905862581318,1.867589796708978
1592289478.6372402,1.4596881506719666,9.1609355479841,1.3109355479841,-0.35888888888888887,-0.52,0.19666666666666666,-0.14269472759912397,0.014110493929516193,1.8882552881651158
1592289478.6472402,1.4537985086812169,9.191808813657723,1.3389147118053666,-0.35888888888888887,-0.52,0.19666666666666666,-0.13718255385146727,0.044473178324853514,1.9909634890177965
1592289478.6572402,1.6135987590486038,9.267904170975525,1.2932574974146847,-0.35888888888888887,-0.52,0.19666666666666666,-0.17204556028174453,-0.01197168922892869,1.9992642048345293
1592289478.6672401,1.7916383763837638,9.19745410516605,1.3421821955719557,-0.40444444444444444,-0.4866666666666667,0.17555555555555555,-0.18189140399456863,0.01320936705817076,2.0169068207639396
1592289478.6772401,2.1019219680953296,9.129115894676149,1.4001153180857198,-0.40444444444444444,-0.4866666666666667,0.17555555555555555,-0.23198635145439092,0.07432744423097704,2.0731871128746495
1592289478.6872401,2.6022954904873723,8.898967029280684,1.4306886471462117,-0.40444444444444444,-0.4866666666666667,0.17555555555555555,-0.13938686654979815,0.1136091608391274,1.9489624550856137
1592289478.69724,2.8025616567082143,8.809024130777823,1.491097852874949,-0.40444444444444444,-0.4866666666666667,0.17555555555555555,-0.21215313578850714,0.1278933285988957,2.0128489207527713
1592289478.70724,2.958729632453325,8.74953156858921,1.5580269853371393,-0.40444444444444444,-0.4866666666666667,0.17555555555555555,-0.17808256875192177,0.14411740814012683,2.0290730002940025
1592289478.71724,3.12,8.71,1.61,-0.45666666666666667,-0.43555555555555553,0.17555555555555555,-0.18653206380689397,0.08508480103472357,2.0496710403108405
1592289478.72724,3.3363248094703857,8.67270261905683,1.6995137142636079,-0.45666666666666667,-0.43555555555555553,0.17555555555555555,-0.1539839588154488,0.07857518003643453,2.017122935319396
1592289478.73724,3.5672965762561137,8.56168963983993,1.7889862160960428,-0.45666666666666667,-0.43555555555555553,0.17555555555555555,-0.13217483579694386,0.12676093931218377,2.008182608353001
1592289478.74724,3.8091783398027825,8.400547773464812,1.989315283168985,-0.45666666666666667,-0.43555555555555553,0.17555555555555555,-0.03741315254038499,0.1515433186453853,1.9930001233347847
1592289478.75724,4.175686918640981,8.205962043170093,2.154185963471461,-0.45666666666666667,-0.43555555555555553,0.17555555555555555,0.018269657961386694,0.1972143413509913,1.8529249045416458
1592289478.76724,4.459179222270053,8.289230520878174,2.200051298608122,-0.5019885285630012,-0.394655338722278,0.16118520910062023,0.1315036892047775,0.3071274451867069,1.5253343221491784
1592289478.77724,4.784636943672447,8.383784005949817,2.012431988100364,-0.5022222222222222,-0.39444444444444443,0.16111111111111112,0.16504209533612865,0.21711593244455746,1.522316718830689
1592289478.78724,5.149196131761862,8.59222121486854,1.5572861891810215,-0.5022222222222222,-0.39444444444444443,0.16111111111111112,0.16319375734644698,0.2917561921804732,1.2357378776589674
1592289478.79724,5.1,8.9,1.38,-0.5022222222222222,-0.39444444444444443,0.16111111111111112,0.01090830782496456,0.13853550937704992,0.6610434541928523
1592289478.80724,5.210201867344316,9.037752334180396,1.2312274790851725,-0.5022222222222222,-0.39444444444444443,0.16111111111111112,-0.04318690730953261,0.056190570783426444,0.3478922643587075
1592289478.81724,4.96,9.12,1.14,-0.5288888888888889,-0.35555555555555557,0.16333333333333333,-0.16689710972195776,-0.05890486225480862,-0.26725354171163174
1592289478.82724,5.14107921417165,8.913052326660972,1.023591933746797,-0.5288888888888889,-0.35555555555555557,0.16333333333333333,-0.12668630075532883,-0.08853387938811415,-0.5092238483002935
1592289478.83724,5.109312915575257,8.669312915575258,0.8573172908091304,-0.5288888888888889,-0.35555555555555557,0.16333333333333333,-0.14646873567090363,-0.08639093438984541,-0.7605458348517096
1592289478.84724,5.128474673691773,8.555592863130165,1.4194934738354688,-0.5288888888888889,-0.35555555555555557,0.16333333333333333,-0.266440441070405,-0.1213226933833401,-0.8591127483551341
1592289478.85724,5.001063140852671,8.743405288720993,1.3783684115848174,-0.5288888888888889,-0.35555555555555557,0.16333333333333333,-0.32584149594094436,-0.0630976633574533,-1.071784904505971
1592289478.86724,4.92,8.39,1.67,-0.5611111111111111,-0.31555555555555553,0.12777777777777777,-0.3076142806640006,0.15598880189699318,-1.0264717663291651
1592289478.87724,4.485831150041059,8.513014507488368,1.67,-0.5611111111111111,-0.31555555555555553,0.12777777777777777,-0.37312960390718847,0.1402019770191166,-1.0675175110116442
1592289478.88724,4.376130797499933,8.232570347917058,1.8851680570830762,-0.5611111111111111,-0.31555555555555553,0.12777777777777777,-0.2971250527088532,0.2300979356695005,-1.1658543893936333
1592289478.89724,3.799768988615115,8.256792823498781,2.0310199057965868,-0.5611111111111111,-0.31555555555555553,0.12777777777777777,-0.19930435509919617,0.07643509566641418,-0.8561061973577997
1592289478.90724,3.4038642328564377,8.329678737049827,2.3032307844104585,-0.5611111111111111,-0.31555555555555553,0.12777777777777777,-0.22179107275543436,-0.025759406561526185,-1.013525935131997
1592289478.91724,3.2,8.41,3.11,-0.5688888888888889,-0.3566666666666667,0.12777777777777777,-0.07199483164476608,-0.06981317007977318,-0.938114472946952
1592289478.92724,3.3562064156206417,8.987963737796374,2.7272942817294283,-0.5688888888888889,-0.3566666666666667,0.12777777777777777,0.08050848444650971,-0.020398687770868174,-0.9696375047647018
1592289478.93724,2.9516513531154294,9.01275041421901,2.391250690365015,-0.5688888888888889,-0.3566666666666667,0.12777777777777777,0.14122980718867467,0.09126951636748601,-1.1810909641001408
1592289478.9472399,3.0480091631469683,9.239215882788079,2.342398167370606,-0.5688888888888889,-0.3566666666666667,0.12777777777777777,0.1629714516306742,0.25090107541696244,-1.1236379080762755
1592289478.9572399,2.4411381266411434,9.190378039247129,2.1233983443244,-0.5688888888888889,-0.3566666666666667,0.12777777777777777,0.23644201619912414,0.02095455999776724,-1.2005510769960623
1592289478.9672399,2.4945194367921637,9.22628466483012,2.313280991735537,-0.5251119273543516,-0.3816820732578309,0.10588929701050914,0.22980739442852818,-0.005153716343431071,-1.22500296874352
1592289478.9772398,1.715363589479113,9.263958820962431,2.255290593882652,-0.5222222222222223,-0.38333333333333336,0.10444444444444445,0.33170494982245535,-0.10071691203165417,-1.3709536780813565
1592289478.9872398,1.8415703703703703,9.414349206349206,2.1304338624338626,-0.5222222222222223,-0.38333333333333336,0.10444444444444445,0.12569902828321539,-0.24594067056274116,-1.4799542478651684
1592289478.9972398,1.2926251878712693,9.493457069923897,2.1018694085931724,-0.5222222222222223,-0.38333333333333336,0.10444444444444445,0.32936651395460304,-0.02801814101653541,-1.51033132435254
1592289479.0072398,1.6362421087391466,8.805695305064004,1.5312610477651951,-0.5222222222222223,-0.38333333333333336,0.10444444444444445,0.34376063395011136,-0.05754029081305784,-1.5581021466900395
1592289479.0172398,2.0114887046968954,8.930381927515034,1.6818628311392816,-0.5037031258464706,-0.4080254618343355,0.11781934738248731,0.48578784695185123,-0.1884748169430729,-1.5871995993963335
1592289479.0272398,2.111844848484848,9.187996363636364,1.1955466666666665,-0.5022222222222222,-0.41,0.11888888888888889,0.45979416591234223,-0.14068451212952443,-1.660310429694208
1592289479.0372398,2.126883732331073,8.901590816243157,0.9162325353378544,-0.5022222222222222,-0.41,0.11888888888888889,0.537472086090255,-0.051442577910066546,-1.6691842009372793
1592289479.0472398,2.032488138166635,9.425080660466882,0.965004744733346,-0.5022222222222222,-0.41,0.11888888888888889,0.38613132391851585,-0.007358190865721967,-1.5068252811886986
1592289479.0572398,2.034623926001236,9.897534039032752,1.057743556007416,-0.5022222222222222,-0.41,0.11888888888888889,0.22735948775464102,-0.022919558801020968,-1.2397539853061146
1592289479.0672398,1.1827756404521188,9.844790492380186,1.1494115892755956,-0.49656397562454646,-0.44960772618373046,0.1066293545939247,0.2315034667511174,0.1777681358649939,-1.0395620610392091
1592289479.0772398,1.5851841839822471,9.820676618922736,1.2080447851523097,-0.4955555555555556,-0.45666666666666667,0.10444444444444445,0.0762772612109743,0.20208264112050736,-0.9424783242177244
1592289479.0872397,0.9127071777465021,9.905475618842619,1.9879838286833897,-0.4955555555555556,-0.45666666666666667,0.10444444444444445,-0.0255511540189031,0.13600796802921392,-0.9498590934026344
1592289479.0972397,0.6041412940057088,9.095756422454805,2.0269695528068503,-0.4955555555555556,-0.45666666666666667,0.10444444444444445,0.15206645567348995,-0.18362361417773057,-1.0251716693653927
1592289479.1072397,0.9637158191647732,9.425381963488208,2.228588498002037,-0.4955555555555556,-0.45666666666666667,0.10444444444444445,0.14922023236091042,-0.4583574283502979,-1.1636499977745818
1592289479.1172397,1.4662903279067463,9.264830432916158,1.5475061915926427,-0.4827299878553057,-0.5040226089445123,0.10444444444444445,0.13247954884424704,-0.25073363119598285,-1.1515040708132755
1592289479.1272397,0.7228126595201634,9.298718734047984,1.2077885106215887,-0.4811111111111111,-0.51,0.10444444444444445,0.19672240306170086,-0.12750371369933716,-1.2495358888228203
1592289479.1372397,0.12702349054395046,8.677890273405998,1.5146684529538774,-0.4811111111111111,-0.51,0.10444444444444445,0.263330540666191,-0.19418782814210167,-1.2445934848324263
1592289479.1472397,1.0766116585539593,9.71674462780482,0.9291691796272112,-0.4811111111111111,-0.51,0.10444444444444445,0.13631393399902536,-0.1605767923950753,-1.4952609249539213
1592289479.1572397,0.36115651640722346,9.793676642205828,1.1971633997270408,-0.4811111111111111,-0.51,0.10444444444444445,0.14698787826876206,-0.16160488561192887,-1.5365864174900423
1592289479.1672397,0.2783462259328676,9.593964900323735,1.1251368205827228,-0.4589424282009049,-0.5392223547452718,0.09839844001438822,0.11603785400089425,-0.2163608677975723,-1.350590619689259
1592289479.1772397,-0.06186250049502989,9.585997782266048,1.1659756049265375,-0.45666666666666667,-0.5422222222222223,0.09777777777777778,0.0667752942615198,-0.11348631772524255,-1.2730212957255156
1592289479.1872396,-0.06823672353566548,9.896233483521492,1.3308816382321673,-0.45666666666666667,-0.5422222222222223,0.09777777777777778,0.04939531172695603,0.04469788611967036,-1.0684633119356068
1592289479.1972396,-0.28708674148754043,10.100393760700019,1.0666140384249572,-0.45666666666666667,-0.5422222222222223,0.09777777777777778,-0.006313102747206277,-0.0732317428668436,-1.053544995297143
1592289479.2072396,-0.5446139290728194,9.53225721784777,1.549089299884026,-0.45666666666666667,-0.5422222222222223,0.09777777777777778,-0.04086404053845754,-0.07590885207559511,-1.0743603229851455
1592289479.2172396,-0.7749799796808702,9.326381103209227,1.1617534213828962,-0.4351881511583896,-0.5735450573384596,0.09598790148542136,0.05525420045956559,-0.08435466867567495,-0.9325293189473709
1592289479.2272396,-0.7265961569513968,9.298298078475698,1.2758497497174228,-0.43,-0.5811111111111111,0.09555555555555556,0.17397544426505523,-0.06556601082853052,-1.041092826721359
1592289479.2372396,-0.5795254951976887,9.855118040552851,1.7784065176084751,-0.43,-0.5811111111111111,0.09555555555555556,0.25107597520976144,0.019575726280665208,-1.1276084664344534
1592289479.2472396,-0.56,9.931922426321684,1.0973370976580181,-0.43,-0.5811111111111111,0.09555555555555556,0.3290653368879512,-0.017064654978632167,-1.1550070189507577
1592289479.2572396,-0.8497948295476836,9.975862461260837,1.2722435369346043,-0.43,-0.5811111111111111,0.09555555555555556,0.2549491621967309,-0.06359186998087946,-1.1025022995719727
1592289479.2672396,-1.0,9.827317688946431,1.2137760155364945,-0.4211747675819532,-0.6146469942996888,0.09555555555555556,0.08053681873683172,-0.18555771306166746,-1.0007917843021277
1592289479.2772396,-0.9595634619228464,10.012510093943634,1.1550545672596442,-0.41888888888888887,-0.6233333333333333,0.09555555555555556,0.05461296750066646,-0.17191078865007078,-0.9469996308956856
1592289479.2872396,-0.9872787481988928,10.210098334133825,0.7563275108066432,-0.41888888888888887,-0.6233333333333333,0.09555555555555556,0.08554976700086162,-0.04473829066962354,-0.7374300661421419
1592289479.2972395,-1.2544053537284896,11.215809751434033,0.5818116634799235,-0.41888888888888887,-0.6233333333333333,0.09555555555555556,0.1296364784819476,0.05137958985854243,-0.4718779621909679
1592289479.3072395,-2.1278076583447056,9.670593441438548,1.3163361965160152,-0.41888888888888887,-0.6233333333333333,0.09555555555555556,0.2789783088372546,-0.015032483578615974,-0.20935192065192357
1592289479.3172395,-1.6340755408440713,8.904345076250149,2.0943675375339876,-0.3950740171546413,-0.6511173503566221,0.07888514534158227,0.3735356517604008,0.030252597223324698,-0.12186645700413962
1592289479.3272395,-0.896709063274938,9.322430205583553,2.0256583473322136,-0.38555555555555554,-0.6622222222222223,0.07222222222222222,0.4179511031487401,0.008980745871093133,-0.15626218585360158
1592289479.3372395,-1.0913222222222223,9.761566666666667,1.4909644444444443,-0.38555555555555554,-0.6622222222222223,0.07222222222222222,0.5471105422842275,-0.04334428234591695,-0.3103212378524757
1592289479.3472395,-1.4257924934257709,9.652881902940473,1.5287030839110685,-0.38555555555555554,-0.6622222222222223,0.07222222222222222,0.6323202863413866,-0.01452346133625989,-0.3144390792317067
1592289479.3572395,-1.2579271635556717,9.66640777966323,1.4762863855893487,-0.38555555555555554,-0.6622222222222223,0.07222222222222222,0.698736420590613,0.025396237875743098,-0.3020584620630047
1592289479.3672395,-1.0000672712283594,9.705025226710635,1.075142951360264,-0.36639963359897404,-0.6622222222222223,0.07138935605019694,0.8063255676065426,-0.0005206491259968221,-0.2841898541819117
1592289479.3772395,-0.8751209886386286,9.823381303567869,0.804074546541758,-0.36,-0.6622222222222223,0.07111111111111111,0.8098673003178865,0.022645620953397817,-0.3320655885782269
1592289479.3872395,-0.8709224324181905,9.89907756758181,0.4304168203614902,-0.36,-0.6622222222222223,0.07111111111111111,0.7099977979420486,0.19104779974289704,-0.385706141885023
1592289479.3972394,-0.6629279161827103,9.945483916846422,0.34593049991703606,-0.36,-0.6622222222222223,0.07111111111111111,0.5604785369209997,0.15658966770218563,-0.37991769017773847
1592289479.4072394,-0.7122610760130377,10.066593698442718,0.26814735825520103,-0.36,-0.6622222222222223,0.07111111111111111,0.5140398830852133,0.1721579068440937,-0.51419101303508
1592289479.4172394,-0.906045086019379,10.324515523037373,-0.057836662052600324,-0.3465339573308725,-0.6815796585590931,0.06942785577747017,0.34796639133254503,0.20127456525631462,-0.5465793467361361
1592289479.4272394,-0.9250026019080659,10.360005203816131,-0.015023417172593229,-0.3422222222222222,-0.6877777777777778,0.06888888888888889,0.14892366215932878,0.21489139355867262,-0.6171226144299595
1592289479.4372394,-0.8405102428822663,10.516205855791625,0.08058439089310329,-0.3422222222222222,-0.6877777777777778,0.06888888888888889,0.05306013710393356,0.33592118133328064,-0.6087230589107386
1592289479.4472394,-1.0516245275488885,10.352588679953987,0.05025377373993474,-0.3422222222222222,-0.6877777777777778,0.06888888888888889,-0.08835183884417808,0.19077344087996856,-0.7061330471480233
1592289479.4572394,-1.1322338192070063,10.188935276828024,0.41493391718153283,-0.3422222222222222,-0.6877777777777778,0.06888888888888889,-0.16566736503200286,0.14122425359779753,-0.83362397266813
1592289479.4672394,-1.2550085031476566,10.230005668765104,0.44855685174687476,-0.3565088363119213,-0.6899207698912326,0.0481732984588252,-0.09248108091655553,0.13019654627133126,-0.9847924099592579
1592289479.4772394,-1.2596467550756953,10.005622344795212,0.7280488205609671,-0.36444444444444446,-0.6911111111111111,0.03666666666666667,-0.12203222920740658,0.30760741896585,-1.0841936001334154
1592289479.4872394,-1.698689800009546,9.89,0.8650231492530189,-0.36444444444444446,-0.6911111111111111,0.03666666666666667,-0.0972319106738229,0.3138820149214444,-1.0466900136820267
1592289479.4972394,-1.5225054180856892,9.624355664578818,0.8779625616232823,-0.36444444444444446,-0.6911111111111111,0.03666666666666667,-0.25500936950154846,0.3363387032411203,-1.0808256074282303
1592289479.5072393,-1.538203483582441,9.400778510062375,0.8497605037071907,-0.36444444444444446,-0.6911111111111111,0.03666666666666667,-0.1858071113026269,0.3524493900132564,-1.0528019719598405
1592289479.5172393,-1.7228259594709063,9.306793510132273,0.8464129797354532,-0.32922713813050686,-0.702850213215757,0.030797115614343736,-0.09076420045119563,0.35696842080738356,-0.9809681941672093
1592289479.5272393,-1.7815288359057355,9.286206134291241,0.8580294477558915,-0.3111111111111111,-0.7088888888888889,0.027777777777777776,-0.09559532356901185,0.3565670182682068,-0.9501074540206865
1592289479.5372393,-1.9705131940164713,9.254205277606589,0.5655879881225838,-0.3111111111111111,-0.7088888888888889,0.027777777777777776,0.037693156856722726,0.35425721242582325,-0.8909793869864939
1592289479.5472393,-1.883183049303708,9.323396610819492,0.633633901392584,-0.3111111111111111,-0.7088888888888889,0.027777777777777776,-0.07076385913522135,0.33775855698532736,-0.8427925017722644
1592289479.5572393,-1.8460243211249419,9.381600961366,0.7841654410445887,-0.3111111111111111,-0.7088888888888889,0.027777777777777776,-0.1896564485921726,0.3340383914883528,-0.8488186823990688
1592289479.5672393,-1.9948023143683702,9.572203471552555,0.9596046287367406,-0.293065466623808,-0.7172672238294225,0.02262187935283403,-0.370385438522537,0.44931761733274583,-0.9487371871774637
1592289479.5772393,-1.9953023681268423,9.624818579123895,0.9853023681268421,-0.28,-0.7233333333333334,0.01888888888888889,-0.4119139567273661,0.4861036432355413,-0.9424726961464578
1592289479.5872393,-2.006376546326685,9.63453925776319,0.8818202474122696,-0.28,-0.7233333333333334,0.01888888888888889,-0.31713020261764424,0.4828464969678148,-1.00802568285469
1592289479.5972393,-2.1641638998476624,9.600241787430178,0.9772868247334089,-0.28,-0.7233333333333334,0.01888888888888889,-0.2603576300089329,0.46834511370999565,-0.9985116271628315
1592289479.6072392,-2.3979341877069302,9.528779702245545,1.3247417734633664,-0.28,-0.7233333333333334,0.01888888888888889,-0.18655250506032395,0.33226267327196385,-1.003395311023729
1592289479.6172392,-2.6655620810724545,8.946362591765082,1.3774867539099904,-0.26153292903500375,-0.7378431748058304,-0.0015567968223569872,-0.18892367460962878,0.38709886857358394,-1.0081318125673753
1592289479.6272392,-2.7941666339779547,8.759242537167065,1.412348487820186,-0.24888888888888888,-0.7477777777777778,-0.015555555555555555,-0.15231135044208038,0.34031442906247855,-0.9862184288306881
1592289479.6372392,-2.7753135916163862,9.038124801524294,1.336873610670054,-0.24888888888888888,-0.7477777777777778,-0.015555555555555555,-0.01936129377430674,0.37899545504258936,-0.8542899815643143
1592289479.6472392,-2.629321669295855,9.080847554854438,1.2736440556431952,-0.24888888888888888,-0.7477777777777778,-0.015555555555555555,-0.1363633904304038,0.3451369510582093,-0.8120772906223578
1592289479.6572392,-2.562490848320866,9.210915764762056,1.27,-0.24888888888888888,-0.7477777777777778,-0.015555555555555555,-0.1255693934662367,0.36606763220677196,-0.7826770762011939
1592289479.6672392,-2.6996927645479984,9.347222888470105,1.1545662726286334,-0.24189290541183636,-0.7477777777777778,-0.028381525263485176,-0.10977765669889666,0.4129267634916983,-0.7048981407740637
1592289479.6772392,-2.7216189489333904,9.070888428355822,1.1126826301443922,-0.23555555555555555,-0.7477777777777778,-0.04,-0.14578689380476145,0.43676520029827465,-0.6287080727717715
1592289479.6872392,-2.904689265536723,9.070556497175142,1.1071949152542373,-0.23555555555555555,-0.7477777777777778,-0.04,-0.1034233920965065,0.4013486918864856,-0.5627916476959611
1592289479.6972392,-3.075845588235294,9.262408088235293,1.0816911764705883,-0.23555555555555555,-0.7477777777777778,-0.04,-0.10538949313685429,0.3461984091875241,-0.5449441683918187
1592289479.7072392,-3.1044742857142857,9.278557142857142,1.0836428571428571,-0.23555555555555555,-0.7477777777777778,-0.04,-0.2210518714179011,0.13876489550731202,-0.6719517620178168
1592289479.7172391,-3.0750337708678477,9.135776729960494,0.9450337708678476,-0.21709839570678108,-0.7477777777777778,-0.036644152754768275,-0.1887874019762864,0.14721794967438184,-0.6994067230912271
1592289479.7272391,-3.079439762611276,9.249743224530167,0.9494397626112759,-0.1988888888888889,-0.7477777777777778,-0.03333333333333333,-0.20001417121820703,0.14058730705185363,-0.7262590368701415
1592289479.7372391,-2.6925865867630208,9.331637437208073,0.8524996327957463,-0.1988888888888889,-0.7477777777777778,-0.03333333333333333,-0.3965545297054237,0.1687024072688425,-0.5189348098784543
1592289479.747239,-2.7901494486361,9.14881988779261,0.8272777616560263,-0.1988888888888889,-0.7477777777777778,-0.03333333333333333,-0.3790873062604845,0.287739012484739,-0.40017440640233815
1592289479.757239,-2.9580845556514235,8.890041640094536,0.7107078816070825,-0.1988888888888889,-0.7477777777777778,-0.03333333333333333,-0.34669341518687596,0.31039097431843643,-0.39390870610997053
1592289479.767239,-2.7054851194448153,8.766434672360871,1.0906222474309355,-0.18518988092590122,-0.7517733217669825,-0.04703234129632101,-0.21421136718531775,0.45941925954509016,-0.06898128968488723
1592289479.777239,-2.8780861974477414,8.632265716746263,1.2255476395521805,-0.17222222222222222,-0.7555555555555555,-0.06,-0.09711844176667597,0.46212879994937267,0.019106576252688058
1592289479.787239,-2.8688357881541835,8.564573801316202,1.01625091402904,-0.17222222222222222,-0.7555555555555555,-0.06,0.13517003490081125,0.43630131895566593,-0.002894524552070926
1592289479.797239,-3.3060129675097136,8.867140711782794,0.9462425210364472,-0.17222222222222222,-0.7555555555555555,-0.06,0.04762804703193842,0.34359591297025827,0.06801634548126372
1592289479.807239,-3.351942634924395,9.152241896640215,0.8581795570294919,-0.17222222222222222,-0.7555555555555555,-0.06,0.016540369351742426,0.27153090415458436,0.1389653128122157
1592289479.817239,-3.173617801687248,9.288299303093288,0.8234013938134246,-0.15484608278654005,-0.7555555555555555,-0.06,-0.01907906917217851,0.19569856333996416,0.15160253917847707
1592289479.827239,-3.2172198923880364,9.399279949359077,0.5817866751068207,-0.13333333333333333,-0.7555555555555555,-0.06,-0.11543316692414031,0.09928450387701185,0.18554455035677986
1592289479.837239,-2.7348882052408943,9.179776410481788,0.5564533318683733,-0.13333333333333333,-0.7555555555555555,-0.06,-0.020617259099861326,0.08702256427060806,0.376803382635829
1592289479.847239,-2.74,9.19,0.49,-0.13333333333333333,-0.7555555555555555,-0.06,0.074176493209759,0.09817477042468103,0.33052172709642613
1592289479.857239,-2.5179817622250082,9.371542003875527,0.6465079220335119,-0.13333333333333333,-0.7555555555555555,-0.06,0.026501480829787944,0.15042582601929483,0.3095065543841078
1592289479.867239,-2.758479369938142,9.233418468209935,0.9476031503092914,-0.13333333333333333,-0.7555555555555555,-0.07509190173529182,0.1415199725902413,0.05901372968511326,0.2739922617378554
1592289479.877239,-2.7,9.26,1.24,-0.13333333333333333,-0.7555555555555555,-0.09222222222222222,0.210530341021816,0.002181661564992912,0.28907015736156083
1592289479.887239,-2.8740702391765063,9.225942779291554,1.1491807447774751,-0.13333333333333333,-0.7555555555555555,-0.09222222222222222,0.24479150959236176,-0.11917717650416909,0.42735318713424547
1592289479.897239,-3.167242592342038,9.137408334460831,0.793586118251928,-0.13333333333333333,-0.7555555555555555,-0.09222222222222222,0.29000867622854704,-0.3137823228859045,0.7149368559368967
1592289479.907239,-3.1749576523917455,9.053107479422641,0.44932899916497676,-0.13333333333333333,-0.7555555555555555,-0.09222222222222222,0.26273387441068446,-0.3090995177570955,0.8092031411816895
1592289479.917239,-3.124924251461291,8.786262674460216,0.641123702731719,-0.13333333333333333,-0.7555555555555555,-0.09222222222222222,0.18541507806945515,-0.34548483368237987,0.6882219657301187
1592289479.927239,-2.6380662383494706,9.367152746357796,0.775827979368383,-0.14888888888888888,-0.76,-0.09333333333333334,0.3527573121840809,-0.44587241835533736,0.9867263779421824
1592289479.937239,-2.582228216254251,8.806912395918845,0.5509442945936438,-0.14888888888888888,-0.76,-0.09333333333333334,0.38734793434729103,-0.403031591546438,1.1652029011820673
1592289479.947239,-1.8026526592252134,9.35092932182722,0.5585383641309445,-0.14888888888888888,-0.76,-0.09333333333333334,0.38682467502089074,-0.40974163718943596,0.9466574041079675
1592289479.957239,-1.2601051952899658,9.383787030438766,0.204628592758492,-0.14888888888888888,-0.76,-0.09333333333333334,0.3055932694636632,-0.29461611148241773,0.872779376257633
1592289479.967239,-1.2672216566561472,9.639979639621297,0.517752892870474,-0.14888888888888888,-0.76,-0.09333333333333334,0.31646126663261165,-0.3008263955789597,0.8805422313783104
1592289479.977239,-1.4199677400434043,9.76249516100651,0.3025725849023403,-0.17305035811810401,-0.7366716848821371,-0.08666810044251537,0.16038661137760166,-0.09876417350804997,0.8868447223665448
1592289479.987239,-1.6642324058919802,9.943859247135842,0.2711762138570649,-0.1811111111111111,-0.7288888888888889,-0.08444444444444445,0.23692463727464708,0.027773158731305838,0.797394207449498
1592289479.9972389,-1.8468898472682218,9.547812194715148,-0.09761633586694943,-0.1811111111111111,-0.7288888888888889,-0.08444444444444445,0.24755449296850407,0.04158157844543854,0.8765515537540806
1592289480.0072389,-2.2443434911081703,9.44861664521509,-0.0828370465710712,-0.1811111111111111,-0.7288888888888889,-0.08444444444444445,0.26543666370526886,-0.006716984878909156,0.8919021880728729
1592289480.0172389,-2.5254735428017017,9.549261885215314,0.08536905739234271,-0.19267847517642278,-0.7299649227554296,-0.07771923277856557,0.12084091359273469,-0.07729959571577655,0.9140019755971064
1592289480.0272388,-2.48,9.14,0.29,-0.2288888888888889,-0.7333333333333333,-0.056666666666666664,0.06544984694978735,-0.039269908169872414,1.1082840750163994
1592289480.0372388,-2.495657053519082,9.375885423937017,0.3160763840419889,-0.2288888888888889,-0.7333333333333333,-0.056666666666666664,0.010999791553449982,-0.24972551514718,1.0308849121554897
1592289480.0472388,-2.0979926816518555,9.27260324098275,0.429398849973863,-0.2288888888888889,-0.7333333333333333,-0.056666666666666664,0.03516774578133112,-0.31446490325726373,1.0218472824577347
1592289480.0572388,-1.5173651100030383,9.433131020678069,0.3837379586438618,-0.2288888888888889,-0.7333333333333333,-0.056666666666666664,0.048262960210460185,-0.28048485335621537,1.0316053949991217
1592289480.0672388,-1.0774040404040404,9.45786909090909,0.3510925252525252,-0.2326290460157127,-0.7277230976430976,-0.056666666666666664,0.1358948614779593,-0.17024395485854094,1.006479284191396
1592289480.0772388,-0.88,9.6,0.13,-0.24666666666666667,-0.7066666666666667,-0.056666666666666664,0.1341721862470641,-0.07635815477475191,1.0788316438889949
1592289480.0872388,-0.6219596326356258,9.794705254164887,0.195491243058522,-0.24666666666666667,-0.7066666666666667,-0.056666666666666664,-0.09917957188927129,0.06938506209967125,1.0995142684825152
1592289480.0972388,-0.8694135655971141,9.834987659008922,0.15315430985380674,-0.24666666666666667,-0.7066666666666667,-0.056666666666666664,-0.19847800189085893,0.17973927599225376,1.2060029777923007
1592289480.1072388,-1.0598170898170898,9.733540631540631,0.20021949221949223,-0.24666666666666667,-0.7066666666666667,-0.056666666666666664,-0.2740849873650351,0.2332111837132021,1.2393473786434934
1592289480.1172388,-1.1071226466035493,9.587895892580725,0.18386622988588502,-0.25044362048069885,-0.7043585282247581,-0.05267988208518825,-0.3076888902067035,0.1614664774495171,1.184137790746119
1592289480.1272388,-0.88,9.45,0.63,-0.26666666666666666,-0.6944444444444444,-0.035555555555555556,-0.27052603405912107,0.17562375598192942,1.3319043854281727
1592289480.1372387,-0.7185933997332652,9.451406600266735,0.8328900995998978,-0.26666666666666666,-0.6944444444444444,-0.035555555555555556,-0.14835515316151665,0.21197215305463812,1.1723657172544046
1592289480.1472387,-0.603577789916166,9.431375780749043,0.7722020091671218,-0.26666666666666666,-0.6944444444444444,-0.035555555555555556,-0.08513420408652542,0.22658273190083786,1.2152553606211933
1592289480.1572387,-0.6118242608063287,9.334982351584811,0.8112632363113925,-0.26666666666666666,-0.6944444444444444,-0.035555555555555556,0.13907129905102233,0.225568729721973,1.1285506696363818
1592289480.1672387,-0.7712350488954689,9.427051466864068,0.7440639731951534,-0.2732535941091674,-0.6904648424479336,-0.03898624693185803,0.15493286307976067,0.11776178524430941,1.09020480958979
1592289480.1772387,-0.78,9.69,0.56,-0.32,-0.6622222222222223,-0.06333333333333334,0.0545415391248228,0.22580197197676635,1.2173671532660448
1592289480.1872387,0.10631967485069682,9.798038321167883,-0.42164316522893164,-0.32,-0.6622222222222223,-0.06333333333333334,0.7720311432563292,0.040492930705290836,1.24209180651961
1592289480.1972387,1.662029604395077,8.971339634863133,-0.23725451622963778,-0.32,-0.6622222222222223,-0.06333333333333334,-0.11614329160968656,0.3940138202655701,0.5595588734566236
1592289480.2072387,1.14,6.99,3.85,-0.32,-0.6622222222222223,-0.06333333333333334,0.18216874067690814,0.6424993308904126,0.5181446216858165
1592289480.2172387,-0.45817624273724983,11.506176565526147,-1.0782295029051001,-0.32286636539703034,-0.660789039523707,-0.06255702603830429,0.280056190921306,0.31474552528565997,0.4195411596931273
1592289480.2272387,-0.25,9.15,1.77,-0.37333333333333335,-0.6355555555555555,-0.04888888888888889,-0.01308996938995747,0.32506757318394386,0.7384924397501007
1592289480.2372386,-0.3744519918710503,9.563580635282982,0.41231452353776343,-0.37333333333333335,-0.6355555555555555,-0.04888888888888889,0.3371974134892381,0.43036503952562455,0.6578415055358988
1592289480.2472386,-0.69,10.18,-0.05,-0.37333333333333335,-0.6355555555555555,-0.04888888888888889,0.14508049407202864,0.543233729683235,0.6610434541928523
1592289480.2572386,-0.46355077835433656,9.739347664936991,0.15935351722523508,-0.37333333333333335,-0.6355555555555555,-0.04888888888888889,0.16264095025746786,0.4682118436810173,0.7817720054183978
1592289480.2672386,-0.7450145023618132,8.848233612331152,-0.0002556559211071528,-0.3738608049501395,-0.6352224155870464,-0.04966621548207693,0.3593517238695685,0.355174755894809,0.5558039566696156
1592289480.2772386,0.23,9.95,0.38,-0.39444444444444443,-0.6222222222222222,-0.08,0.0370882466048795,0.33815754257390135,0.6632251157578453
1592289480.2872386,-0.23180215100726104,9.990901075503631,0.04042637986569853,-0.39444444444444443,-0.6222222222222222,-0.08,0.12403440383998077,0.2963128044803506,0.7633384527399224
1592289480.2972386,-0.03840171083128241,9.887100427707821,0.030947647606986692,-0.39444444444444443,-0.6222222222222222,-0.08,0.10420289352932968,0.3199173589086194,0.7583603594878039
1592289480.3072386,-0.0687468457902406,9.788420940398764,-0.1409524824963571,-0.39444444444444443,-0.6222222222222222,-0.08,0.08870717957519833,0.2612689952222815,0.7457072675079494
1592289480.3172386,-0.0005441187168109402,9.486303920855459,-0.4055910380446643,-0.39486970894659845,-0.6219220355148194,-0.07962476661574647,-0.06263373877670174,0.2245289922118577,0.8366344781097653
1592289480.3272386,0.41,9.76,0.22,-0.41333333333333333,-0.6088888888888889,-0.06333333333333334,-0.12980886311707826,0.26398104936414235,0.6457718232379019
1592289480.3372386,0.5074046830254365,10.073854511763715,0.09828260991633445,-0.41333333333333333,-0.6088888888888889,-0.06333333333333334,-0.18625735011946082,0.25601251487883286,0.803659181535269
1592289480.3472385,0.6166699827092067,9.880005684644354,0.1799985788389114,-0.41333333333333333,-0.6088888888888889,-0.06333333333333334,-0.22361969031326853,0.47923865966346646,0.7592145815388169
1592289480.3572385,0.5256223296703296,9.925976967032966,0.25887507692307693,-0.41333333333333333,-0.6088888888888889,-0.06333333333333334,-0.17149944706225517,0.4730785517878403,0.6881720465492743
1592289480.3672385,-0.03484676923076924,9.579371076923078,0.6202301538461539,-0.41333333333333333,-0.6088888888888889,-0.06333333333333334,-0.06611736826062703,0.4256163941596261,0.7839008051553334
1592289480.3772385,1.77,10.3,0.74,-0.4477777777777778,-0.5877777777777777,-0.08333333333333333,-0.10690141668465267,0.5672320068981571,0.8126689329598598
1592289480.3872385,0.44670571010248894,9.924597364568083,-0.1234260614934114,-0.4477777777777778,-0.5877777777777777,-0.08333333333333333,-0.11713893544863846,0.24679766958540234,0.5485409488490268
1592289480.3972385,1.5147512336996687,9.624499725844519,0.5375628769637877,-0.4477777777777778,-0.5877777777777777,-0.08333333333333333,-0.37561630809524704,0.2237926714012694,0.5228807001603157
1592289480.4072385,0.9756506398441203,9.803710042656274,0.3419900995313076,-0.4477777777777778,-0.5877777777777777,-0.08333333333333333,-0.2980219896064388,0.41274683845905236,0.5017472905879519
1592289480.4172385,1.6382921691505608,9.847886144610037,0.4450676707567539,-0.4477777777777778,-0.5877777777777777,-0.08333333333333333,-0.22493586761594173,0.3332355628869732,0.5402982120774448
1592289480.4272385,1.18,9.11,0.88,-0.4688888888888889,-0.5633333333333334,-0.09777777777777778,-0.17344209441693648,0.459239759431008,0.37960911230876665
1592289480.4372385,1.8097108058506202,9.782562148934987,0.7809398809854847,-0.4688888888888889,-0.5633333333333334,-0.09777777777777778,-0.19746576024664497,0.2483747254873838,0.428397779386798
1592289480.4472384,1.6695062718098652,9.400182495520136,1.087130529095539,-0.4688888888888889,-0.5633333333333334,-0.09777777777777778,-0.12437657108720283,0.31749147922577825,0.6433270989254938
1592289480.4572384,1.766298131091836,9.701512653134222,0.36664741124921757,-0.4688888888888889,-0.5633333333333334,-0.09777777777777778,-0.1845487085086287,0.4199317507063968,0.4698315575785117
1592289480.4672384,1.5712667441652508,9.416466779933828,0.8992331217025843,-0.4688888888888889,-0.5633333333333334,-0.09777777777777778,-0.08226686215646728,0.34056103793711956,0.5835689707221152
1592289480.4772384,1.69,9.74,0.75,-0.4888888888888889,-0.5377777777777778,-0.10666666666666667,-0.1974403716318585,0.4265148359561142,0.42760566673861067
1592289480.4872384,1.3533366625276684,9.40126356421746,0.2009674458780975,-0.4888888888888889,-0.5377777777777778,-0.10666666666666667,-0.08438270717363612,0.15957250167686945,0.30932967581856236
1592289480.4972384,2.1392657317682913,9.215845098926216,0.7094788219328112,-0.4888888888888889,-0.5377777777777778,-0.10666666666666667,-0.14006229848232404,0.2761645599561976,0.3682510293000857
1592289480.5072384,1.2003457442031717,9.617229915404925,0.2634010453149415,-0.4888888888888889,-0.5377777777777778,-0.10666666666666667,-0.22246843056560156,0.36265008993593656,0.3637498743198771
1592289480.5172384,2.0742053271548393,10.02402661781346,0.5797984805215798,-0.4888888888888889,-0.5377777777777778,-0.10666666666666667,-0.139471425221651,0.44729060033620294,0.3284145156090863
1592289480.5272384,1.02,9.61,0.71,-0.5222222222222223,-0.5255555555555556,-0.12555555555555556,-0.06326818538479445,0.2683443724941282,0.27598018797160334
1592289480.5372384,2.4013646488284883,9.645163673273748,0.9440110525277018,-0.5222222222222223,-0.5255555555555556,-0.12555555555555556,-0.1004308620371446,0.026012471173105983,0.3094901639100046
1592289480.5472383,1.5174476553851952,9.607525141901599,0.5974872229680398,-0.5222222222222223,-0.5255555555555556,-0.12555555555555556,-0.048539721824355,0.15299238924023387,0.22770359737677162
1592289480.5572383,2.571890654845569,9.291919126392042,0.8736674235052437,-0.5222222222222223,-0.5255555555555556,-0.12555555555555556,-0.10353978104962554,0.1561338489353044,0.33069846078953574
1592289480.5672383,2.995145060727286,9.881452048870148,1.0550621688831225,-0.5222222222222223,-0.5255555555555556,-0.12555555555555556,-0.16207661027850917,0.42408412357456043,0.20455571611320908
1592289480.5772383,1.31,8.71,0.14,-0.5222222222222223,-0.5011111111111111,-0.14,-0.0545415391248228,0.028361600344907853,0.07090400086226964
1592289480.5872383,3.333806878995632,9.486573519627411,2.2209641586392435,-0.5222222222222223,-0.5011111111111111,-0.14,-0.19258421980676932,0.0570998432371812,-0.11042862239024646
1592289480.5972383,1.8606060606060606,8.609625,1.0697954545454544,-0.5222222222222223,-0.5011111111111111,-0.14,-0.1089388737257474,0.13950981959868877,-0.2438134888857827
1592289480.6072383,-0.3607454162909527,7.0204087766756835,0.22648632401562968,-0.5222222222222223,-0.5011111111111111,-0.14,0.06131701797071677,-0.5456891645284758,-0.7077026179518809
1592289480.6172383,3.7401897133966306,10.342685337435244,2.147177460704751,-0.5222222222222223,-0.5011111111111111,-0.14,0.19317388651808434,-0.39603566341643287,-0.7619014534897559
1592289480.6272383,2.82,8.08,2.28,-0.5366666666666666,-0.5066666666666667,-0.16,0.5170537909033202,-0.32070425005395803,-0.6806784082777886
1592289480.6372383,2.1295670796561934,9.569219823497283,0.10285911403685286,-0.5366666666666666,-0.5066666666666667,-0.16,0.5179412060625649,-0.210530341021816,-0.9276498727016099
1592289480.6472383,1.971139965629177,9.391180064922665,0.8783974603780791,-0.5366666666666666,-0.5066666666666667,-0.16,0.30523489690685857,-0.17737753151771793,-0.8365199469776794
1592289480.6572382,1.4123455302560468,10.263212368211217,0.3372825374324444,-0.5366666666666666,-0.5066666666666667,-0.16,0.20918970254847197,-0.07458694402337311,-0.8168572128796694
1592289480.6672382,1.4718022503765393,9.267312306192967,0.9021213785771242,-0.5366666666666666,-0.5066666666666667,-0.16,0.4759150219933532,-0.192140656240722,-0.8055071992862701
1592289480.6772382,1.96,9.85,0.55,-0.5511111111111111,-0.5011111111111111,-0.16,0.38288160465625604,-0.22143864884678055,-0.8792096106921435
1592289480.6872382,1.9500616032439175,9.472340923268872,1.0171046475358703,-0.5511111111111111,-0.5011111111111111,-0.16,0.40022737923257207,-0.17156954693987186,-0.6623874284881925
1592289480.6972382,2.1173413710119373,10.024102790154638,0.7280361695537183,-0.5511111111111111,-0.5011111111111111,-0.16,0.1365245329784573,-0.15398377751653758,-0.6372593976481711
1592289480.7072382,2.266516554862148,9.771299570167079,1.0230494757477115,-0.5511111111111111,-0.5011111111111111,-0.16,0.24410914665789088,-0.15812439992805266,-0.6039402685844859
1592289480.7172382,2.6512247540600327,10.12583457727101,0.5779948923619229,-0.5511111111111111,-0.5011111111111111,-0.16,0.23012076179242985,-0.05691432119559922,-0.6459054231808691
1592289480.7272382,1.95,9.64,1.35,-0.5288888888888889,-0.5222222222222223,-0.1511111111111111,0.4134248665661568,0.1341721862470641,-0.40797071265367457
1592289480.7372382,1.6501981875158802,9.959721069422095,1.0491778888230145,-0.5288888888888889,-0.5222222222222223,-0.1511111111111111,0.23247506869724371,0.10685017187445324,-0.421084703048413
1592289480.7472382,1.9094700085000804,9.58,0.042821337499138495,-0.5288888888888889,-0.5222222222222223,-0.1511111111111111,0.3886656716669388,0.08336218604267673,-0.4564110772596773
1592289480.7572381,1.8902637184298612,9.585032964803732,0.6598681407850695,-0.5288888888888889,-0.5222222222222223,-0.1511111111111111,0.28997015084477235,0.3431652956470429,-0.4870504232916514
1592289480.7672381,2.2306065523886804,9.627575819048586,0.4896967238056598,-0.5288888888888889,-0.5222222222222223,-0.1511111111111111,0.32523951263378664,0.3301713202510903,-0.620702741650021
1592289480.7772381,1.08,9.17,0.08,-0.5433333333333333,-0.5488888888888889,-0.13444444444444445,0.3894265893512348,0.210530341021816,-0.6370451769779303
1592289480.7872381,1.8165528196981733,9.548757744241462,0.25114217633042096,-0.5433333333333333,-0.5488888888888889,-0.13444444444444445,0.07801510853841055,0.09475585202298842,-0.7360265903402635
1592289480.797238,1.3162733050847457,9.846631355932203,0.09144562146892656,-0.5433333333333333,-0.5488888888888889,-0.13444444444444445,0.002337890719435203,0.13601388762539338,-0.7251796820393114
1592289480.807238,0.8987871975388985,9.613207714606874,0.07237176832514938,-0.5433333333333333,-0.5488888888888889,-0.13444444444444445,0.06794308226014457,0.042186620472168444,-0.7083432915234931
1592289480.817238,1.0393995148790156,9.786905283085844,-0.13441105129266995,-0.5433333333333333,-0.5488888888888889,-0.13444444444444445,-0.02769650527039985,0.03135949735550304,-0.8337574676248675
1592289480.827238,0.89,9.86,-0.27,-0.5022222222222222,-0.5811111111111111,-0.12777777777777777,-0.09817477042468103,0.05235987755982988,-0.7733990247899873
1592289480.837238,0.6704052721706191,9.834264957708474,0.0023896009548025534,-0.5022222222222222,-0.5811111111111111,-0.12777777777777777,-0.03819888906159492,-0.00042498871438863533,-0.8161222209857931
1592289480.847238,0.27506692070660743,9.748365205937008,0.011768635476207281,-0.5022222222222222,-0.5811111111111111,-0.12777777777777777,-0.13824872143792627,-0.07079033256395008,-0.6841354897309463
1592289480.857238,0.2288727056255581,9.91569084234547,-0.22105446968945333,-0.5022222222222222,-0.5811111111111111,-0.12777777777777777,-0.06992819487941969,-0.19533009730608922,-0.7852731816147688
1592289480.867238,0.12899851175711874,9.607745411251116,0.12850520885008437,-0.5022222222222222,-0.5811111111111111,-0.12777777777777777,-0.031797149112370346,-0.1372256466134426,-0.6372884087569344
1592289480.877238,0.04551702381230577,10.273076671418224,0.397055359521417,-0.5022222222222222,-0.5811111111111111,-0.15555555555555556,-0.046973835250900306,-0.11997741707807316,-0.7397493435479959
1592289480.887238,-1.3151189093064612,13.09052685240071,1.0703852993479548,-0.5022222222222222,-0.5811111111111111,-0.15555555555555556,-0.12547942234216225,0.05634922742878153,-0.011433458464153843
1592289480.897238,-4.906088732798166,9.363631020642202,0.49026304472477067,-0.5022222222222222,-0.5811111111111111,-0.15555555555555556,0.18675332607140552,-0.21250395351053147,-0.12298296134917021
1592289480.907238,-0.5239935823792735,9.12742582101969,1.2917161193202076,-0.5022222222222222,-0.5811111111111111,-0.15555555555555556,0.1917089186213578,-0.29537370991369566,-0.019983987093303828
1592289480.917238,-0.46583864833815314,9.102502277859209,1.3083318147605276,-0.5022222222222222,-0.5811111111111111,-0.15555555555555556,0.22070877791557725,-0.3669671125463,-0.07617121447585402
1592289480.927238,-0.02,9.97,0.27,-0.4777777777777778,-0.5988888888888889,-0.11888888888888889,0.17562375598192942,-0.3785182815262702,0.06654067773228381
1592289480.937238,0.08384551462150291,9.658463456135491,0.3911531003917534,-0.4777777777777778,-0.5988888888888889,-0.11888888888888889,0.2209349095712579,-0.2945038509127237,-0.10432013059414227
1592289480.947238,-0.06334098492557445,9.900533876044205,0.17331803014885108,-0.4777777777777778,-0.5988888888888889,-0.11888888888888889,0.2715385961776677,-0.2144734863671343,-0.09174876339201922
1592289480.957238,-0.11926188709297905,9.736678491918406,0.06295245162808376,-0.4777777777777778,-0.5988888888888889,-0.11888888888888889,0.1417638741059601,-0.23685814187579773,-0.0672560190068884
1592289480.967238,-0.1040786258574816,9.668353816358668,0.12368549657007367,-0.4777777777777778,-0.5988888888888889,-0.11888888888888889,0.1632949534606357,-0.08282811264619563,0.09753954990005148
1592289480.977238,-0.04710714925640566,9.867107149256405,0.06216963805769575,-0.4711111111111111,-0.6055555555555555,-0.11888888888888889,0.23886467548352044,-0.047680993365816014,-0.11651730698669842
1592289480.987238,-0.012319268220714075,9.831159634110357,0.08780958001377004,-0.4711111111111111,-0.6055555555555555,-0.11888888888888889,0.2103897894013704,-0.04183417055815463,0.010101691731445492
1592289480.997238,-0.19532867005399987,9.916105971883615,-0.07795051151769236,-0.4711111111111111,-0.6055555555555555,-0.11888888888888889,0.19691690259575495,0.093176196002348,-0.1329603025509412
1592289481.007238,-0.31956458338080157,9.825318189067875,-0.03016746793046094,-0.4711111111111111,-0.6055555555555555,-0.11888888888888889,0.13384781265590545,0.027500945321182385,-0.07927339127982966
1592289481.017238,-0.4438004967076033,9.734530406252137,0.01761557565677048,-0.4711111111111111,-0.6055555555555555,-0.11888888888888889,0.07077872271605593,-0.03817430535998323,-0.025586480008718077
1592289481.027238,-0.31,9.88,-0.03,-0.4711111111111111,-0.5988888888888889,-0.09777777777777778,0.07853981633974483,0.12326387842209952,-0.009817477042468103
1592289481.037238,-0.3133070506575743,9.870078848027278,-0.05314935460301997,-0.4711111111111111,-0.5988888888888889,-0.09777777777777778,0.06411008571351613,0.0976511065605436,0.035996917695807984
1592289481.0472379,-0.3196914576229907,9.850925627131028,-0.09784020336093521,-0.4711111111111111,-0.5988888888888889,-0.09777777777777778,0.03625285513007188,0.04820452227493004,0.1244436247982435
1592289481.0572379,-0.2345877318116976,9.793058487874465,-0.2992952924393723,-0.4711111111111111,-0.5988888888888889,-0.09777777777777778,0.10530194649877248,-0.0370031794397205,0.0034556979739172045
1592289481.0672379,-0.30473097538493055,9.776412549930011,-0.24206274965006316,-0.4711111111111111,-0.5988888888888889,-0.09777777777777778,0.0008853340682219296,0.05785320917137285,-0.01661194026026763
1592289481.0772378,-0.3186514264644882,9.82337143383878,-0.20644190441074803,-0.4711111111111111,-0.6012609526150569,-0.10014984150394576,-0.05949328846480717,0.11675172372670461,-0.01436863000161956
1592289481.0872378,-0.2800237091675448,9.919984193888304,-0.20005532139093785,-0.4711111111111111,-0.6055555555555555,-0.10444444444444445,-0.07633459099072538,0.13854930281160205,0.0010347949546284873
1592289481.0972378,-0.36289317702845103,9.864737881981032,-0.39341741306638567,-0.4711111111111111,-0.6055555555555555,-0.10444444444444445,0.006026725128004978,0.18676080492988323,-0.19482443240088887
1592289481.1072378,-0.4029194618526104,9.845891659206023,-0.3629721973534137,-0.4711111111111111,-0.6055555555555555,-0.10444444444444445,-0.04641730533171749,0.10727740607797445,-0.1736596344818646
1592289481.1172378,-0.4389268938790027,9.830459902623284,-0.31153300874428186,-0.4711111111111111,-0.6055555555555555,-0.10444444444444445,-0.11150658775103665,0.015815741988758708,-0.1321371612143679
1592289481.1272378,-0.35,9.9,0.05,-0.46555555555555556,-0.6055555555555555,-0.1111111111111111,-0.12762720155208535,0.02399827721492203,-0.03381575425739013
1592289481.1372378,-0.34036383040651985,9.871091491219559,0.06284822612464021,-0.46555555555555556,-0.6055555555555555,-0.1111111111111111,-0.18544006885067021,-0.006835252010989886,-0.03942185048028321
1592289481.1472378,-0.3200169787523043,9.810050936256914,0.08997736166359432,-0.46555555555555556,-0.6055555555555555,-0.1111111111111111,-0.30751241546286034,-0.07194050353749126,-0.051259168939647104
1592289481.1572378,-0.38,9.72,0.12,-0.46555555555555556,-0.6055555555555555,-0.1111111111111111,-0.0370882466048795,0.11780972450961724,-0.04036073895236887
1592289481.1672378,-0.38346032385943696,9.713079352281126,0.19958744876704965,-0.46555555555555556,-0.6055555555555555,-0.1111111111111111,-0.05671631107793943,0.0845930000167466,-0.04866492007558653
1592289481.1772377,-0.3632150943396226,9.7,0.4571396226415094,-0.4764679245283019,-0.599603354297694,-0.09920670859538784,-0.08017647414774706,0.1075221611450318,-0.040984776486808344
1592289481.1872377,-0.31069599738686904,9.7,0.5291648031357572,-0.4777777777777778,-0.5988888888888889,-0.09777777777777778,-0.0032445630887802668,0.11780972450961724,-0.07690235048787203
1592289481.1972377,-0.441261803259094,9.597907486354039,0.478953743177019,-0.4777777777777778,-0.5988888888888889,-0.09777777777777778,-0.027636668775839722,0.10508222090419382,-0.056766792198435334
1592289481.2072377,-0.328229592527413,9.674190875863003,0.4504840936780831,-0.4777777777777778,-0.5988888888888889,-0.09777777777777778,-0.04331639272845924,0.147067527916522,-0.03870714167304096
1592289481.2172377,-0.2592919536368218,9.693490676969594,0.4230186460608097,-0.4777777777777778,-0.5988888888888889,-0.09777777777777778,0.0034581149886230636,0.1612166537741348,0.06777645176170698
1592289481.2272377,-0.3573349633251834,9.750933985330073,0.3760440097799511,-0.46740233632165173,-0.5922863352349905,-0.12135832654170063,-0.07012468361374771,0.11411476860235417,-0.16167925802788424
1592289481.2372377,-0.38,9.78,0.11,-0.46555555555555556,-0.5911111111111111,-0.12555555555555556,-0.09817477042468103,-0.08508480103472357,0.13526301702956053
1592289481.2472377,-0.38,9.78,0.06504248952722921,-0.46555555555555556,-0.5911111111111111,-0.12555555555555556,-0.07692365468250212,0.04078719220741306,0.07396172161942904
1592289481.2572377,-0.45629225502781345,9.770463468121523,0.06907306375695337,-0.46555555555555556,-0.5911111111111111,-0.12555555555555556,-0.02820219995456872,0.043372717850786426,-0.019368489376781456
1592289481.2672377,-0.479186132284239,9.798779198426358,0.11316879763953774,-0.46555555555555556,-0.5911111111111111,-0.12555555555555556,-0.003158232717948309,0.03517292262705624,-0.027093211170964963
1592289481.2772377,-0.4651993043478261,9.760398608695652,0.29920278260869565,-0.4761891014492754,-0.5978779130434783,-0.1323223574879227,-0.0673933090138233,-0.053255990304908185,-0.04302259371330179
1592289481.2872376,-0.46,9.733203569779967,0.33679643022003386,-0.4777777777777778,-0.5988888888888889,-0.13333333333333333,0.034707519751682125,0.0005095802824525708,0.06520831663804516
1592289481.2972376,-0.46843992012079294,9.67092055915445,0.34,-0.4777777777777778,-0.5988888888888889,-0.13333333333333333,0.010690577341954943,-0.027418739156160006,0.08433432688330558
1592289481.3072376,-0.43657779031765065,9.66,0.3817777621029367,-0.4777777777777778,-0.5988888888888889,-0.13333333333333333,-0.07620298498720629,0.07629023913881458,0.025661210027334687
1592289481.3172376,-0.4044010254532137,9.685598974546785,0.3644010254532137,-0.4777777777777778,-0.5988888888888889,-0.13333333333333333,0.0019161148808232026,0.12540081612475934,-0.012347141791724948
