time,acc_x,acc_y,acc_z,mag_x,mag_y,mag_z,gyr_x,gyr_y,gyr_z
1592289060.7276387,-0.4497849537849538,9.730430092430092,0.5967743067743068,-0.3388888888888889,-0.5511111111111111,0.10222222222222223,-0.0036595860368905317,-0.04074783264177004,0.035504876433613844
1592289060.7376387,-0.41999085622325444,9.722497714055814,0.6525160016093048,-0.3388888888888889,-0.5511111111111111,0.10222222222222223,0.033281809326255574,0.08212266941497057,-0.03220095285690143
1592289060.7476387,-0.43,9.69,0.71,-0.3466666666666667,-0.5377777777777778,0.11,0.0370882466048795,-0.017453292519943295,0.025089107997418484
1592289060.7576387,-0.43746395374368735,9.69,0.687608138768938,-0.3466666666666667,-0.5377777777777778,0.11,0.04197339290652578,0.019999495792678196,0.0006633764891870765
1592289060.7676387,-0.47832735830984374,9.709163679154923,0.545854245915547,-0.3466666666666667,-0.5377777777777778,0.11,0.022728900171783792,0.11634224798719145,0.05507717790674814
1592289060.7776387,-0.5278385928363438,9.757838592836343,0.5112968442981937,-0.3466666666666667,-0.5377777777777778,0.11,0.10739806348773431,0.09494315743915498,0.011892278973977662
1592289060.7876387,-0.566139487955606,9.774455795182242,0.5389115903644849,-0.3466666666666667,-0.5377777777777778,0.11,0.015074898956089253,-0.04810799003759057,0.035047599234874466
1592289060.7976387,-0.5130889392794155,9.78,0.588234891840334,-0.3392321043643795,-0.5314052958043888,0.09619295572432383,0.028232740731901584,-0.03997639807737849,-0.03869153188736315
1592289060.8076386,-0.68593403427913,9.613840078736377,0.5509035479379711,-0.3388888888888889,-0.5311111111111111,0.09555555555555556,0.10517658535230254,-0.0626768146422744,0.15896757277712303
1592289060.8176386,-0.80719042515184,9.658829343813267,0.5695317375253066,-0.3388888888888889,-0.5311111111111111,0.09555555555555556,0.08346501410358247,-0.11866331875823315,0.13379646863492448
1592289060.8276386,-0.8007303052934122,9.83612419942517,0.4865727476407088,-0.3388888888888889,-0.5311111111111111,0.09555555555555556,0.04650113348068469,-0.0633660434249831,0.05319917565527231
1592289060.8376386,-0.7390043062703497,9.809336204180232,0.44611350348352763,-0.3388888888888889,-0.5311111111111111,0.09555555555555556,0.0465903859807484,-0.09586929576593559,0.07204153843491394
1592289060.8476386,-0.5959112437068804,9.904088756293119,0.3334633600596681,-0.3515654173659022,-0.5369618165620403,0.09555555555555556,-0.017101167543128473,-0.24364184532557648,0.13281726173195652
1592289060.8576386,-0.5434229759455049,9.993154048108991,0.28342297594550486,-0.35333333333333333,-0.5377777777777778,0.09555555555555556,-0.07206418411628507,-0.1710283807206781,0.09473957841744515
1592289060.8676386,-0.640391731955326,9.954367394565761,0.3895182530421737,-0.35333333333333333,-0.5377777777777778,0.09555555555555556,-0.050473880414296755,-0.1306762181483348,0.11244103325220638
1592289060.8776386,-0.7966229319797927,9.895016400507577,0.6290983312184261,-0.35333333333333333,-0.5377777777777778,0.09555555555555556,-0.06598989528748127,-0.12762720155208535,0.22749542754618368
1592289060.8876386,-0.8615113297098675,9.845847431677257,0.7750989435811069,-0.35333333333333333,-0.5377777777777778,0.09555555555555556,0.10174164011397517,-0.11879732176575213,0.18642726455465228
1592289060.8976386,-1.17,9.75,0.95,-0.35333333333333333,-0.5377777777777778,0.11,0.074176493209759,-0.056723200689815706,0.5050546522958591
1592289060.9076385,-1.2935267737360574,9.79359768484802,0.8700709111119629,-0.35333333333333333,-0.5377777777777778,0.11,0.06149444076234572,-0.09476935803205555,0.5002988826280791
1592289060.9176385,-1.399008362526839,9.878843089614646,0.692479093682902,-0.35333333333333333,-0.5377777777777778,0.11,0.0438495730360184,-0.08333582294205098,0.40732147171981614
1592289060.9276385,-1.4,10.037516781718638,0.5521728159961914,-0.35333333333333333,-0.5377777777777778,0.11,0.18001865374251547,-0.15915010792192485,0.6270126496964563
1592289060.9376385,-1.2447817914936272,10.143478805670915,0.4021731347558356,-0.35333333333333333,-0.5377777777777778,0.11,0.13459878262586258,-0.1942154849955199,0.7119335103025379
1592289060.9476385,-1.11,10.07,0.32,-0.3333333333333333,-0.5377777777777778,0.09555555555555556,0.09817477042468103,-0.12544553998709243,0.8257589023498172
1592289060.9576385,-1.0753799441318166,10.063075988826364,0.2992279664790899,-0.3333333333333333,-0.5377777777777778,0.09555555555555556,0.11025944966716475,-0.14508314375612846,0.8748529117724072
1592289060.9676385,-0.8371692524682651,10.00187023977433,0.24155853314527503,-0.3333333333333333,-0.5377777777777778,0.09555555555555556,0.014172492011346058,-0.15169348260422366,1.198915958284145
1592289060.9776385,-0.3566111518535166,10.086948972108537,0.15305102789146224,-0.3333333333333333,-0.5377777777777778,0.09555555555555556,-0.005953312669687667,-0.3360494529272661,1.0790167994534343
1592289060.9876385,-0.18794358946860423,10.068277655638372,0.16448156290775198,-0.3333333333333333,-0.5377777777777778,0.09555555555555556,0.05190367331922981,-0.18692105990930494,1.282198010728426
1592289060.9976385,-0.11,9.93,0.28,-0.37777777777777777,-0.5311111111111111,0.11,-0.04799655442984406,-0.17562375598192942,1.4671674024577332
1592289061.0076385,-0.09144414972001179,9.902166224580018,0.2869584438549956,-0.37777777777777777,-0.5311111111111111,0.11,-0.026237164797976942,-0.1902986931755142,1.4547696106907393
1592289061.0176384,0.09279233008046568,9.737769217599727,0.17998459167950692,-0.37777777777777777,-0.5311111111111111,0.11,0.0552698801711738,-0.2759239749831542,1.5137819764406548
1592289061.0276384,0.2437794403990291,9.700975700834867,0.09841495292203462,-0.37777777777777777,-0.5311111111111111,0.11,-0.004096630991809666,-0.3128021497795607,1.5197670585371694
1592289061.0376384,0.3823514820264873,9.69,0.055994113937355476,-0.37777777777777777,-0.5311111111111111,0.11,-0.0833069096698189,-0.34689381988135354,1.4822237565704286
1592289061.0476384,0.920501165883937,9.696224178133928,-0.03821537653124897,-0.3822730175411708,-0.5248869329771823,0.10343003419196398,-0.1265991717273122,-0.4728672090084854,1.4845065570134401
1592289061.0576384,1.3199714276330914,9.70999901474597,0.00999655161089033,-0.39222151064986627,-0.5111120963651424,0.0888899288792553,-0.0567281982560464,-0.3316226604859266,1.363547129821249
1592289061.0676384,1.5309904573872986,9.461645278051991,0.07736426456071076,-0.39222222222222225,-0.5111111111111111,0.08888888888888889,-0.17770778478192098,-0.3531520687693626,1.4116778922580262
1592289061.0776384,1.7195414143003225,9.416793833084245,0.1519845827106112,-0.39222222222222225,-0.5111111111111111,0.08888888888888889,-0.22991517540794176,-0.3955966090088888,1.3900681554570375
1592289061.0876384,1.8499637297025835,9.3000435243569,0.31327771887729483,-0.39222222222222225,-0.5111111111111111,0.08888888888888889,-0.2356234054949257,-0.38579892722438786,1.415888860138741
1592289061.0976384,1.9918573267016797,9.256701332127578,0.5152599909568363,-0.436759107895764,-0.5055440004019184,0.08888888888888889,-0.1290535791830531,-0.23023017356795594,1.3925516706834387
1592289061.1076384,1.9914769879338101,9.192082289090637,0.675835421818725,-0.44555555555555554,-0.5044444444444445,0.08888888888888889,-0.1090830782496456,-0.25635846847699767,1.269510389091408
1592289061.1176383,2.022612127851527,9.180437234179662,0.708256701894574,-0.44555555555555554,-0.5044444444444445,0.08888888888888889,-0.11339932160668535,-0.2672516964797693,1.1389648857814134
1592289061.1276383,2.117212269622374,9.248008764015982,0.5933851011728315,-0.44555555555555554,-0.5044444444444445,0.08888888888888889,-0.12298150522624385,-0.21639241419134347,1.008499770345886
1592289061.1376383,2.304482634961794,9.355173650382058,0.47103473007641167,-0.44555555555555554,-0.5044444444444445,0.08888888888888889,-0.1956344269615789,-0.3121275776049147,0.9252502466407796
1592289061.1476383,2.374646206727228,9.317957279646453,0.49232310336361407,-0.4591232779550972,-0.4852900128215621,0.08888888888888889,-0.16513924649485398,-0.28012213110531825,0.9298946492189707
1592289061.1576383,2.463168777047604,9.347764064753967,0.5678874819682642,-0.48333333333333334,-0.45111111111111113,0.08888888888888889,-0.07782157097117688,-0.19227723997253626,0.9269899746647737
1592289061.1676383,2.368508635882975,9.253317941487488,0.542693690518153,-0.48333333333333334,-0.45111111111111113,0.08888888888888889,-0.03165554787662821,-0.2643795467286046,0.7796085703680644
1592289061.1776383,2.6856989435778136,9.230627957743113,0.4487440845137749,-0.48333333333333334,-0.45111111111111113,0.08888888888888889,0.06359450124563654,-0.2353034576295408,0.7887443175441412
1592289061.1876383,2.939473013702887,9.19715936985365,0.44557841096230927,-0.48333333333333334,-0.45111111111111113,0.08888888888888889,0.10207960093450001,-0.19767031278179656,0.7572678938821877
1592289061.1976383,3.339173873045078,9.392523643054277,0.2731072677092916,-0.4933602780333231,-0.4529341919656547,0.09435813145251969,-0.040148674222877476,-0.1064938654451058,0.740636890638539
1592289061.2076383,3.2765387194761133,9.33523097558089,0.2969485975778137,-0.4955555555555556,-0.4533333333333333,0.09555555555555556,-0.013190751499413733,-0.09257796378254568,0.710467955991649
1592289061.2176383,3.1701006106426286,9.134849084036057,0.37835010177377143,-0.4955555555555556,-0.4533333333333333,0.09555555555555556,0.07970747155245955,-0.043163530159200846,0.6040195534210923
1592289061.2276382,3.024694547530688,9.033719193072605,0.5870739366257494,-0.4955555555555556,-0.4533333333333333,0.09555555555555556,-0.02943955996772883,0.029392798214230437,0.309967834490466
1592289061.2376382,3.3587173085436035,9.308254980079681,0.6712453297919433,-0.4955555555555556,-0.4533333333333333,0.09555555555555556,0.07847715755163649,0.12661363191398883,0.22803814127913344
1592289061.2476382,3.3340098224989365,9.093349704164893,0.5074898487953904,-0.5225255767388101,-0.4421733245678487,0.09555555555555556,0.0773147567181632,0.1811019124743738,0.06391275378869815
1592289061.2576382,3.4176681649712166,8.910570144310386,0.515595773204006,-0.5277777777777778,-0.44,0.09555555555555556,0.07719462181433835,0.17122654062512366,-0.040100611810481857
1592289061.2676382,3.5456552201366662,8.763770146757777,0.2535178617766629,-0.5277777777777778,-0.44,0.09555555555555556,0.08318903318748555,0.08823957058952243,-0.09106564099753844
1592289061.2776382,3.895318996415771,9.064559139784945,0.5268590203106331,-0.5277777777777778,-0.44,0.09555555555555556,0.08256715837567141,0.32208453545627824,-0.4269545567518303
1592289061.2876382,3.7506396439869176,9.100967240362447,0.336229871499294,-0.5277777777777778,-0.44,0.09555555555555556,0.1624889664756429,0.31847437615852503,-0.4697135519220265
1592289061.2976382,3.6157869497635344,9.09,0.11182822369944109,-0.5325154611899329,-0.4210492663513797,0.08055289141706445,0.1773406140346134,0.39946441875734634,-0.5503979232795853
1592289061.3076382,3.5760775146266064,9.251131805523618,0.47858920313737513,-0.5344444444444445,-0.41333333333333333,0.07444444444444444,0.006524668003007661,0.541102818044277,-0.7988788319708661
1592289061.3176382,3.240481436148511,9.308406772745817,0.2886576907384741,-0.5344444444444445,-0.41333333333333333,0.07444444444444444,0.043875786492212604,0.4636851952820752,-0.767876109818388
1592289061.3276381,3.0855818029414004,9.21052274632325,0.20947725367675074,-0.5344444444444445,-0.41333333333333333,0.07444444444444444,0.0677455540709477,0.4055100606355597,-1.0561793314413093
1592289061.3376381,2.7200820540443487,9.033780770266631,0.11815064188885896,-0.5344444444444445,-0.41333333333333333,0.07444444444444444,0.09564495179011892,0.30006957829901615,-1.0508133237510142
1592289061.3476381,2.5787996302999963,9.157599260599993,0.16434243462856704,-0.5292635096682542,-0.4409649854730149,0.08566980312619007,0.031341420529203454,0.2428812221626954,-1.1500904052533705
1592289061.3576381,2.3960830995526576,9.296398893016908,0.12360110698309197,-0.5277777777777778,-0.4488888888888889,0.08888888888888889,0.015434399548471728,0.3998701630669532,-1.246109084595357
1592289061.367638,2.22113843180415,9.40113843180415,-0.0745537272166,-0.5277777777777778,-0.4488888888888889,0.08888888888888889,-0.030348538674091534,0.32341643727103997,-1.1479099021233035
1592289061.377638,2.127013661908905,9.259481505866862,0.09597267618219014,-0.5277777777777778,-0.4488888888888889,0.08888888888888889,-0.10457770369648237,0.2889991316499721,-1.33251206694975
1592289061.387638,1.9175880701006007,9.119967651345492,0.13234723259038073,-0.5277777777777778,-0.4488888888888889,0.08888888888888889,-0.09431647662572623,0.40133122884323796,-1.4836878797452377
1592289061.397638,2.290933233788396,9.337201720705348,0.07324623151308304,-0.5084825717355581,-0.4659577250031602,0.07330429939324991,-0.09821549043042696,0.30110986085093633,-1.552260347493606
1592289061.407638,1.9822499133048201,9.449851346665126,0.27611490001155936,-0.4988888888888889,-0.47444444444444445,0.06555555555555556,-0.20198907673114574,0.3349315028978108,-1.559366926923724
1592289061.417638,1.6622462456586606,9.738466467739569,0.2964290955339236,-0.4988888888888889,-0.47444444444444445,0.06555555555555556,-0.13634365612397514,0.4952025982173856,-1.588527622953093
1592289061.427638,0.8840568787771064,9.423698068491529,0.47931792866453377,-0.4988888888888889,-0.47444444444444445,0.06555555555555556,-0.15289456001153282,0.5607575468239783,-1.4899376774686177
1592289061.437638,0.41314127888683005,9.490754466314723,0.8261316994720833,-0.4988888888888889,-0.47444444444444445,0.06555555555555556,-0.15955307994237722,0.38520092149200447,-1.3367854365338177
1592289061.447638,0.24722743448722098,10.014377224199288,0.7232707861533484,-0.4943509831410187,-0.48730184406340993,0.04589129731478486,-0.1775675592656533,0.24478616839010003,-1.1399894546120848
1592289061.457638,0.17735296471153078,10.227879891173881,0.6113235176442345,-0.4922222222222222,-0.49333333333333335,0.03666666666666667,-0.1612919049437389,0.22887261218498048,-1.0186715450119819
1592289061.467638,-0.3893096181404367,10.235372165556774,0.6756382590126163,-0.4922222222222222,-0.49333333333333335,0.03666666666666667,-0.054251276192168296,0.08637841740987497,-0.8141947596811347
1592289061.477638,-0.04906999976214821,10.40733606069976,0.4954334847655971,-0.4922222222222222,-0.49333333333333335,0.03666666666666667,-0.11634525116834213,0.09993206578653639,-0.39126711819191534
1592289061.487638,-0.4214533431817382,10.173504976961768,0.6973353030143155,-0.4922222222222222,-0.49333333333333335,0.03666666666666667,-0.07882389045298754,-0.003017309078016478,-0.22906786508769741
1592289061.497638,-0.3693745999472871,10.009957829737566,1.0526352648819608,-0.4717295246223293,-0.5244257021055847,0.05574607477691178,-0.06304894314235437,-0.14881829090895293,-0.040457340255145
1592289061.507638,-0.2259793654487627,10.03818943448918,1.11441044139322,-0.46,-0.5422222222222223,0.06666666666666667,-0.05026537414439646,-0.18167041607229084,0.05685182242508796
1592289061.517638,-0.5189101076804093,10.027901124397644,0.5362359450294485,-0.46,-0.5422222222222223,0.06666666666666667,0.08841563456095435,-0.1905497527678289,0.13820090746649294
1592289061.527638,-0.3401752907466712,9.936114950278107,0.9717815607618405,-0.46,-0.5422222222222223,0.06666666666666667,1.0663776400618441e-05,-0.1477104019622746,0.2127257919528442
1592289061.537638,-0.06281301394351091,10.131112799427958,0.6866873435824097,-0.46,-0.5422222222222223,0.06666666666666667,0.04590704993095909,-0.21673924297570918,0.45117455364551395
1592289061.547638,0.3045166365138048,10.346283332022338,0.3407999685361441,-0.45232037197269637,-0.5499018502495259,0.04013704257234502,0.11095567252300377,-0.2236766838739067,0.5743642366081131
1592289061.557638,0.43433112790196926,10.287936420937243,0.35315937830325334,-0.4477777777777778,-0.5544444444444444,0.024444444444444446,0.09658509477782481,-0.16017152277277327,0.5859650173536713
1592289061.567638,0.2039400118397685,9.914209695454845,0.527063737420246,-0.4477777777777778,-0.5544444444444444,0.024444444444444446,0.04106425771987382,-0.1546618385021705,0.7576175310750276
1592289061.577638,0.16893925256592837,9.802966655207976,0.6408250257820557,-0.4477777777777778,-0.5544444444444444,0.024444444444444446,0.02323105831461686,-0.28438113314835645,0.8448516819835601
1592289061.587638,0.7128228409292428,9.992822840929243,0.23371094165632206,-0.4477777777777778,-0.5544444444444444,0.024444444444444446,0.04257749126110089,-0.436568546825783,0.937824345618066
1592289061.597638,0.7884005869405724,9.849985326485694,0.40458914159941306,-0.4529114697970164,-0.5483773538762533,0.018377353876253364,0.04402778711480377,-0.17069781066552026,1.0066639439764231
1592289061.607638,0.7627838190517616,9.392527185732927,0.72343192692475,-0.46,-0.54,0.01,0.08207469643091429,-0.1251243166553177,1.0327956430882397
1592289061.6176379,1.1127488514548238,9.662748851454824,0.9671669218989281,-0.46,-0.54,0.01,0.12732860124217532,-0.0745824225821122,0.9902517575484854
1592289061.6276379,1.1062938558959439,9.842407581721718,0.7221730061612186,-0.46,-0.54,0.01,0.12256156159395853,-0.10332106054505985,0.9794499797240742
1592289061.6376379,0.8550521992127331,9.860353414341947,0.42158030977237726,-0.46,-0.54,0.01,0.08683560497655132,-0.12338632385072693,0.9887485163779199
1592289061.6476378,1.6132376904002834,9.988681930892346,0.17255015618458763,-0.4780452058666724,-0.5358357217230756,0.01,0.10374456581901623,-0.1886824614232693,1.099360501008169
1592289061.6576378,2.15,10.06,0.12,-0.4888888888888889,-0.5333333333333333,0.01,0.12544553998709243,-0.22143864884678055,1.162825614141222
1592289061.6676378,1.2856291700807678,9.560585742713332,0.5617895352920519,-0.4888888888888889,-0.5333333333333333,0.01,0.12754083400657668,-0.2622968822267232,1.0109167977286146
1592289061.6776378,1.6160738695201933,9.716316361753538,0.298048498446669,-0.4888888888888889,-0.5333333333333333,0.01,0.0761994439791626,-0.09716834065008814,1.1082085038261862
1592289061.6876378,1.0079944770452192,9.07204176734553,0.2908094580600621,-0.4888888888888889,-0.5333333333333333,0.01,0.09988914824749995,-0.21482720518283033,1.217181143460538
1592289061.6976378,1.746109347951529,9.537406231967685,-0.05547543483636963,-0.4888888888888889,-0.5333333333333333,0.01,0.005393187523022827,-0.3108917861032486,1.1548327001768135
1592289061.7076378,2.2249656911835616,9.257421089722191,0.4576406661473981,-0.5011111111111111,-0.5133333333333333,0.024444444444444446,0.002148727465480574,-0.27958189993547095,1.2940410546164653
1592289061.7176378,2.365243389423077,9.080058184003496,0.2330370410839161,-0.5011111111111111,-0.5133333333333333,0.024444444444444446,0.05476663024509646,-0.26403703906694803,1.0828076875259707
1592289061.7276378,2.5776195924204504,9.072088666428316,0.1868494815874151,-0.5011111111111111,-0.5133333333333333,0.024444444444444446,0.01191513254720012,-0.2235280363455816,0.9230064081093342
1592289061.7376378,2.7953206396748143,9.23856019682302,0.4240215007755255,-0.5011111111111111,-0.5133333333333333,0.024444444444444446,0.07397836188722823,-0.22922971386761687,0.8534462377670194
1592289061.7476377,3.1200884955752213,9.341650322889262,0.3546854819421191,-0.5199487097717186,-0.5024874431954078,0.017023572244811182,0.07803079676149786,-0.3010092885353997,0.7366525596548688
1592289061.7576377,3.3186446800157046,9.36970239497448,0.05409108755398508,-0.5377777777777778,-0.4922222222222222,0.01,0.007266209287724723,-0.31553952819597564,0.6618503349130028
1592289061.7676377,3.6431518827096885,9.363216357052433,0.4541475549798334,-0.5377777777777778,-0.4922222222222222,0.01,-0.004132035018126097,-0.2844536440796863,0.5711772644019015
1592289061.7776377,3.739001981479235,9.4847608071495,0.29245299041611067,-0.5377777777777778,-0.4922222222222222,0.01,-0.03374089721351871,-0.19018334073642454,0.44294531747060867
1592289061.7876377,3.4670246283558908,9.039982249833592,0.053820723319281116,-0.5377777777777778,-0.4922222222222222,0.01,-0.0636004930538354,-0.3266001093531845,0.31939825429128865
1592289061.7976377,3.6764507067507397,9.092214087200789,0.24405821354929325,-0.5453675535500238,-0.485800104261091,0.014086802338901673,-0.16870963021230137,-0.28746023416713257,0.22264050881509964
1592289061.8076377,3.813929870856823,9.270117948102834,0.07242333373315742,-0.5522222222222222,-0.48,0.017777777777777778,-0.18951447916688247,-0.24913810081937776,0.1722027142103793
1592289061.8176377,3.7693303901944115,9.183908525048672,0.07457813485425979,-0.5522222222222222,-0.48,0.017777777777777778,-0.23987410483635707,-0.10753026930938069,-0.10338843845898538
1592289061.8276377,3.8715047373571037,9.186789098112218,0.05447698145628983,-0.5522222222222222,-0.48,0.017777777777777778,-0.31265208039151193,-0.033953862114031834,-0.16415895550030646
1592289061.8376377,3.6750207412312306,9.069917035075077,0.329294798138158,-0.5522222222222222,-0.48,0.017777777777777778,-0.30239995359054694,-0.06639135158722825,-0.20798652797087033
1592289061.8476377,3.82420680352678,9.079365048032637,0.36174562442426633,-0.5581305288707579,-0.48,0.01364196312380284,-0.29887048026815466,-0.0445334286728067,-0.34981959164523957
1592289061.8576376,3.9345754289094854,9.03027410767107,0.2829039637152435,-0.5633333333333334,-0.48,0.01,-0.34723086264358927,0.01105174422129046,-0.5354484116630986
1592289061.8676376,4.056301478562171,9.07084825561404,0.4609209934668183,-0.5633333333333334,-0.48,0.01,-0.3181334244295499,-0.030527392972128052,-0.6632219419702906
1592289061.8776376,3.864934898612593,8.974733546780504,0.4610935610103166,-0.5633333333333334,-0.48,0.01,-0.3243613077893713,0.012251919529452537,-0.7285651423193555
1592289061.8876376,3.6187742279651474,8.769693556991287,0.6160162408867287,-0.5633333333333334,-0.48,0.01,-0.3489989949054689,0.047941983795001614,-0.8852831801043778
1592289061.8976376,3.735936666438684,8.926449285274606,0.679487381164079,-0.577797460274035,-0.4866293915144883,0.0051786243530994236,-0.3405974194003826,0.1988749174417102,-0.9727414677838837
1592289061.9076376,3.7762604977270975,9.044724555050466,0.659565837121504,-0.59,-0.4922222222222222,0.0011111111111111111,-0.27291545690728924,0.3918649268704417,-0.9437489051573352
1592289061.9176376,3.2687425691709273,9.024414462900896,0.7420723145044891,-0.59,-0.4922222222222222,0.0011111111111111111,-0.08593015019263443,0.5137712914236185,-0.9546046790627978
1592289061.9276376,3.044168910301828,9.048220206886779,0.7143559586226441,-0.59,-0.4922222222222222,0.0011111111111111111,-0.14089616797281096,0.6144904690810945,-0.9260156339207989
1592289061.9376376,2.8194260463828864,9.065354000672215,0.7007080013444315,-0.59,-0.4922222222222222,0.0011111111111111111,-0.048441198615034126,0.6182647886006126,-0.8008343064465263
1592289061.9476376,2.2951966292134833,9.083455056179774,0.6196348314606741,-0.5800967540574282,-0.4963920099875156,-0.005143570536828964,0.14884937570818213,0.5588546716190972,-0.8066938767074212
1592289061.9576375,2.104013215859031,9.154594713656387,0.5660837004405287,-0.5688888888888889,-0.5011111111111111,-0.012222222222222223,0.1874426912662908,0.5737981354497128,-0.9315132648151663
1592289061.9676375,1.7648701400912954,9.750086573272469,0.6898740752400441,-0.5688888888888889,-0.5011111111111111,-0.012222222222222223,0.24922092240746946,0.6234299673292514,-0.772314203621435
1592289061.9776375,1.4094109673737278,9.761982783220773,0.3938649766955199,-0.5688888888888889,-0.5011111111111111,-0.012222222222222223,0.18715898282029106,0.5902382070828172,-0.7508379557816718
1592289061.9876375,1.122322375397667,9.689119830328737,0.5034358430540827,-0.5688888888888889,-0.5011111111111111,-0.012222222222222223,0.1409184483080602,0.5440365256143618,-0.6767523428739783
1592289061.9976375,0.8801864667435602,9.751997308727413,0.7369108035371011,-0.5499807766243752,-0.5137165192874535,-0.02220150369515998,0.17587790571441417,0.4676730430872287,-0.4745782829310595
1592289062.0076375,0.78,9.81,0.7,-0.5288888888888889,-0.5277777777777778,-0.03333333333333333,0.2552544031041707,0.3785182815262702,-0.31525009614147576
1592289062.0176375,1.137652464721716,10.050024198591588,0.4621514994969956,-0.5288888888888889,-0.5277777777777778,-0.03333333333333333,0.06363091576000669,0.31556741848688835,-0.22207329353760571
1592289062.0276375,0.7266492208873557,9.757766147258238,0.5148400142738194,-0.5288888888888889,-0.5277777777777778,-0.03333333333333333,0.20097937598449211,0.23973624205682786,-0.11453723216212788
1592289062.0376375,0.7143558680367766,9.899586803677664,0.6165191995673337,-0.5288888888888889,-0.5277777777777778,-0.03333333333333333,0.2750266992151562,0.11722956064184711,0.002858342423577784
1592289062.0476375,0.7982414596273292,10.184015739695088,0.5020472190852625,-0.5250393688437166,-0.5319480911600477,-0.03493730001882176,0.1482413086915387,-0.017516272445132604,0.2415002187819294
1592289062.0576375,0.72,10.12,0.31,-0.5155555555555555,-0.5422222222222223,-0.03888888888888889,0.01090830782496456,0.04145156973486533,0.37960911230876665
1592289062.0676374,0.5338454121806203,9.939614333922545,0.37826852000642774,-0.5155555555555555,-0.5422222222222223,-0.03888888888888889,0.02559236610067212,-0.03238976865308213,0.5854191517515281
1592289062.0776374,0.8383415239276684,9.916267474593253,0.2701536332840307,-0.5155555555555555,-0.5422222222222223,-0.03888888888888889,0.037456940018840326,-0.12713625223335406,0.5769356074316265
1592289062.0876374,1.1176996488700819,9.920084631313586,0.36234266678671107,-0.5155555555555555,-0.5422222222222223,-0.03888888888888889,0.05435002746317987,-0.11299011256937856,0.7473142525742427
1592289062.0976374,0.9652859545836837,9.700424344368836,0.39337640492392384,-0.5117056179966188,-0.5476763004307159,-0.04081385766835725,-0.04130765746976879,-0.15791283089931835,1.006194774216577
1592289062.1076374,1.2,9.8,0.18,-0.5022222222222222,-0.5611111111111111,-0.04555555555555556,-0.1538071403320003,-0.3534291735288517,1.1846422297911512
1592289062.1176374,1.2813888163431124,9.779670351992108,0.3911807550564407,-0.5022222222222222,-0.5611111111111111,-0.04555555555555556,-0.14113187086605797,-0.26163845852552964,1.2748251397993964
1592289062.1276374,1.3652307692307692,9.563846153846153,0.248,-0.5022222222222222,-0.5611111111111111,-0.04555555555555556,-0.2049922770491417,-0.260339352751808,1.3521770559705684
1592289062.1376374,1.5262290726906413,9.742800292402874,0.35429992689928147,-0.5022222222222222,-0.5611111111111111,-0.04555555555555556,-0.14444918258808698,-0.2698417826534515,1.3624116474133423
1592289062.1476374,1.7181217713632242,9.731841160929058,0.31762806104341657,-0.5090027209274813,-0.5526354877295372,-0.04753320101125614,-0.021112881606723866,-0.23431319647094512,1.2830963860722269
1592289062.1576374,1.39,9.18,0.34,-0.5288888888888889,-0.5277777777777778,-0.05333333333333334,0.006544984694978735,-0.38724492778624187,1.3319043854281727
1592289062.1676373,2.149914206128134,9.36703286908078,0.2229671309192201,-0.5288888888888889,-0.5277777777777778,-0.05333333333333334,-0.052150340816763154,-0.4031732449493068,1.3633120471737408
1592289062.1776373,2.4412555113324914,9.1141392788198,0.3320353201935223,-0.5288888888888889,-0.5277777777777778,-0.05333333333333334,-0.1088990416637095,-0.46148615487069794,1.4999099782623133
1592289062.1876373,2.865014999556226,9.270587024052542,0.07501499955622615,-0.5288888888888889,-0.5277777777777778,-0.05333333333333334,-0.14438471307429288,-0.3371100855546567,1.5201426646469856
1592289062.1976373,3.178296744890235,9.097021953065859,0.407445117335352,-0.5344206409285894,-0.5239481032887543,-0.054609891496341156,-0.012393522242374192,-0.19941257882290728,1.3773710547192322
1592289062.2076373,3.34,9.0,0.65,-0.5577777777777778,-0.5077777777777778,-0.06,-0.0370882466048795,-0.2814343418840856,1.3897184169004848
1592289062.2176373,3.401893586475638,9.102790425126718,0.9438870821247546,-0.5577777777777778,-0.5077777777777778,-0.06,-0.04089348215688774,-0.2641369188589194,1.2363063995055215
1592289062.2276373,3.6317592862699337,9.129647510696227,0.9282915208090238,-0.5577777777777778,-0.5077777777777778,-0.06,-0.029545614212042888,-0.20840341192315603,1.1563464462977155
1592289062.2376373,3.8,8.88,0.95,-0.5577777777777778,-0.5077777777777778,-0.06,-0.028361600344907853,-0.17998707911191522,1.1693705988362009
1592289062.2476373,3.9547550857598726,9.085244914240128,0.5492596729158357,-0.563607942206267,-0.5007472853787174,-0.06102885254620396,-0.04866993684667354,-0.18725326525164382,1.1244564789613474
1592289062.2576373,4.2,8.84,0.6,-0.5955555555555555,-0.4622222222222222,-0.06666666666666667,-0.05235987755982988,-0.2748893571891069,0.938114472946952
1592289062.2676373,4.60434051583415,8.733565948416585,0.32181439764936337,-0.5955555555555555,-0.4622222222222222,-0.06666666666666667,0.023037612495436496,-0.1312125554217501,0.7809724282222021
1592289062.2776372,4.8500262889894135,8.650923430357862,0.2522165644317078,-0.5955555555555555,-0.4622222222222222,-0.06666666666666667,0.01835700046991668,-0.09793871612111024,0.7140394408763027
1592289062.2876372,4.784061916391323,8.659314753627353,0.46288751616147106,-0.5955555555555555,-0.4622222222222222,-0.06666666666666667,-0.045740144081163336,-0.017972929766712185,0.6697595227947549
1592289062.2976372,4.899323291857673,8.796344684566689,0.338316961362148,-0.5977842052923912,-0.46064905770210285,-0.06758434597006961,-0.05386646702956467,0.02719695215516977,0.46363903878194046
1592289062.3076372,4.67,8.47,0.55,-0.6144444444444445,-0.4488888888888889,-0.07444444444444444,0.032724923474893676,0.002181661564992912,0.39051742013373125
1592289062.3176372,4.622267142819071,8.719595714628362,0.3069242864376516,-0.6144444444444445,-0.4488888888888889,-0.07444444444444444,-0.038157884635185574,-0.15120176907815291,0.3043685917698988
1592289062.3276372,4.7953802772773555,8.683751076995378,0.264628338685674,-0.6144444444444445,-0.4488888888888889,-0.07444444444444444,0.07938551564930463,-0.13508623870348666,0.15385806342641306
1592289062.3376372,5.186621271983497,8.67179241984546,0.5221383867696934,-0.6144444444444445,-0.4488888888888889,-0.07444444444444444,0.08995961437917951,-0.09994210241358743,-0.082624911066587
1592289062.3476372,5.3415545622555545,8.49294967120815,0.6342351828770362,-0.6158832968009055,-0.4466367721570369,-0.07444444444444444,0.06870766486417743,0.051166325745638334,-0.12316767415142936
1592289062.3576372,5.2,8.71,0.37,-0.64,-0.4088888888888889,-0.07444444444444444,0.05017821599483697,-0.07853981633974483,-0.23125612588924865
1592289062.3676372,5.378622812441194,8.595808489475523,0.6587510416946692,-0.64,-0.4088888888888889,-0.07444444444444444,-0.007349347402682647,-0.03166115892568963,-0.43019604895325647
1592289062.3776371,5.52100293588408,8.828185434226727,0.6155109385358463,-0.64,-0.4088888888888889,-0.07444444444444444,0.01517576098940851,-0.00722847143207473,-0.5877066496468049
1592289062.3876371,5.193912334721971,8.299825756203585,0.7183474008331824,-0.64,-0.4088888888888889,-0.07444444444444444,0.0885565710361209,0.05632464538199976,-0.835396701523493
1592289062.3976371,5.0077982385908735,8.191929543634908,0.6446997598078462,-0.639302553153634,-0.4112801352192866,-0.07444444444444444,0.10307783208435685,0.018967704511015235,-0.9999005607833906
1592289062.4076371,5.29,8.11,1.2,-0.6322222222222222,-0.43555555555555553,-0.07444444444444444,-0.002181661564992912,0.14508049407202864,-0.9959285044192642
1592289062.417637,4.979383906476661,8.553156412663197,1.2911374690673265,-0.6322222222222222,-0.43555555555555553,-0.07444444444444444,0.15417109189438286,0.05010533260011944,-1.08411880826109
1592289062.427637,4.7404408434758,8.193574865553353,1.0048712142654967,-0.6322222222222222,-0.43555555555555553,-0.07444444444444444,0.22257471221054953,-0.06839143131789925,-1.130482080058935
1592289062.437637,4.9422163285785965,8.151495233316608,1.30195828256039,-0.6322222222222222,-0.43555555555555553,-0.07444444444444444,0.29721225406021473,0.07626252822131538,-1.1117647877333094
1592289062.447637,4.802578459621524,8.4755852347948,0.927792617397399,-0.6319748375429397,-0.43605032491412055,-0.07498044458288987,0.47361670696556635,0.052412843294031786,-1.2607357682675246
1592289062.457637,4.61,8.88,1.13,-0.6255555555555555,-0.4488888888888889,-0.08888888888888889,0.3937899124812206,0.22362031041177347,-1.5086189721925987
1592289062.467637,4.228552428791597,8.536184142930534,0.7396889091843142,-0.6255555555555555,-0.4488888888888889,-0.08888888888888889,0.5710994469097114,0.26841224198170854,-1.510431461104505
1592289062.477637,3.783433946069666,8.58128722313616,0.41579453067257943,-0.6255555555555555,-0.4488888888888889,-0.08888888888888889,0.5099142237190242,0.22676656256141725,-1.634303260637916
1592289062.487637,3.1914189601203304,8.774036546201065,-0.028290784178218627,-0.6255555555555555,-0.4488888888888889,-0.08888888888888889,0.5273353333199426,0.10767886476297814,-1.6288404841400397
1592289062.497637,2.542219833543196,8.724447037867387,-0.12444458094038881,-0.6183948418182624,-0.456049602626182,-0.09382731215598757,0.5706262759077383,0.10641618610040532,-1.6065519983549261
1592289062.507637,2.27,9.02,-0.14,-0.5933333333333334,-0.4811111111111111,-0.1111111111111111,0.6359543461954338,0.05890486225480862,-1.682061066609535
1592289062.517637,2.0172520610227056,9.7425230752376,-0.4059313631508313,-0.5933333333333334,-0.4811111111111111,-0.1111111111111111,0.613590119211595,0.12640521174531785,-1.3774641904230407
1592289062.527637,1.3064225526937674,9.771825842026114,-0.6655484209772515,-0.5933333333333334,-0.4811111111111111,-0.1111111111111111,0.5037804844513342,0.017691857235509915,-1.214953931341356
1592289062.537637,1.08,10.06,-0.94,-0.5933333333333334,-0.4811111111111111,-0.1111111111111111,0.4461497900410505,-0.06763150851478027,-1.030835089459151
1592289062.547637,1.021475916080354,10.227048167839293,-0.577048167839292,-0.5890036399138306,-0.4867938337242084,-0.10664611477224892,0.263553968501924,-0.08146214960984374,-0.8375806520286547
1592289062.557637,0.96,10.35,-0.7,-0.5577777777777778,-0.5277777777777778,-0.07444444444444444,0.008726646259971648,-0.10253809355466686,-0.6632251157578453
1592289062.567637,0.7959588429034646,10.462681849516175,-0.77549595322593,-0.5577777777777778,-0.5277777777777778,-0.07444444444444444,0.1395758467286309,0.031258190962079484,-0.2910851042671715
1592289062.577637,0.4103639551690638,10.38296258559818,-0.45815984645641306,-0.5577777777777778,-0.5277777777777778,-0.07444444444444444,0.10727206600865806,-0.06714397800227054,-0.029383031306277785
1592289062.587637,0.4680841121495327,10.345420560747664,-0.207803738317757,-0.5577777777777778,-0.5277777777777778,-0.07444444444444444,-0.027780503572923762,-0.12618465430233536,0.26889998256558667
1592289062.597637,0.3267455815326098,10.214674558153261,-0.14428009312391382,-0.5536226149748792,-0.5334911266317635,-0.07323252196026567,-0.05847671376589225,-0.1742317189817918,0.5620274453127976
1592289062.607637,0.58,10.24,-0.33,-0.5311111111111111,-0.5644444444444444,-0.06666666666666667,-0.16253378659197193,-0.296705972839036,0.7406741013150936
1592289062.617637,0.4795764975200305,10.051596082920005,-0.28768078341599895,-0.5311111111111111,-0.5644444444444444,-0.06666666666666667,-0.19658901587120428,-0.21243199077816197,0.8924168065874055
1592289062.627637,0.8380066334991707,10.025996683250414,-0.3078275290215589,-0.5311111111111111,-0.5644444444444444,-0.06666666666666667,-0.20549153494956787,-0.30118290156295346,1.0528807253032162
1592289062.637637,1.2137660451351695,9.843327220900887,-0.37166361045044394,-0.5311111111111111,-0.5644444444444444,-0.06666666666666667,-0.12813575023366897,-0.2785666604662469,1.1561570274397879
1592289062.647637,1.373682347174059,9.782406724886073,-0.3412033624430364,-0.5311111111111111,-0.5644444444444444,-0.06666666666666667,-0.21369521386873191,-0.23620226585082738,1.2832502112860464
1592289062.657637,1.8833777429467085,9.576584191670399,-0.14464509628302732,-0.5333333333333333,-0.5777777777777777,-0.07444444444444444,-0.2662801962865873,-0.14782552357249581,1.5394995465321069
1592289062.6676369,2.165138015851326,9.088573629158489,0.005138015851325499,-0.5333333333333333,-0.5777777777777777,-0.07444444444444444,-0.09574550444643841,-0.04643726455332164,1.4513536490117327
1592289062.6776369,2.354050439434467,9.073411348872757,0.13162017577378676,-0.5333333333333333,-0.5777777777777777,-0.07444444444444444,-0.07396245361984233,0.00908897131067285,1.6645194072092366
1592289062.6876369,2.639901995099755,9.10162758137907,0.21162758137906895,-0.5333333333333333,-0.5777777777777777,-0.07444444444444444,-0.05411391207673179,0.20035358089697858,1.7003612134086443
1592289062.6976368,2.6012683528913287,8.954819740987048,0.06481974098704935,-0.5333333333333333,-0.5777777777777777,-0.07444444444444444,0.1144571525668909,0.14472512956458308,1.862189435466522
1592289062.7076368,3.12,8.89,0.3,-0.56,-0.5255555555555556,-0.06222222222222222,-0.002181661564992912,0.006544984694978735,1.6406094968746698
1592289062.7176368,3.3636225760416374,8.765689901222823,0.31905168312952964,-0.56,-0.5255555555555556,-0.06222222222222222,0.15867838030505466,0.062140634412261246,2.0137962082650063
1592289062.7276368,3.84607812871052,8.731136309665162,0.37607812871052004,-0.56,-0.5255555555555556,-0.06222222222222222,0.206471523136386,0.27651925680522366,2.016018612771181
1592289062.7376368,4.10486870608126,8.433320829150595,0.6381895352318557,-0.56,-0.5255555555555556,-0.06222222222222222,0.29827879325718615,0.3222023389290936,1.7657173425010655
1592289062.7476368,4.259991546468009,8.448094432996953,0.8080859794649619,-0.56,-0.5255555555555556,-0.06222222222222222,0.37321587683185276,0.2706327330282478,1.7350978889974382
1592289062.7576368,4.85,8.46,0.69,-0.5933333333333334,-0.48,-0.08333333333333333,0.3937899124812206,0.38724492778624187,1.5631605113174214
1592289062.7676368,4.784768876804016,8.342725072459437,0.6019950996504019,-0.5933333333333334,-0.48,-0.08333333333333333,0.3603563580551734,0.40094532174053416,1.3818410456537717
1592289062.7776368,5.06,8.5,0.14,-0.5933333333333334,-0.48,-0.08333333333333333,0.5083271446433485,0.18435040224190105,0.9272061651219876
1592289062.7876368,5.259510632743629,8.687179662242213,-0.062330970501415686,-0.5933333333333334,-0.48,-0.08333333333333333,0.4197131285002194,0.3056868885366112,0.8438963435038637
1592289062.7976367,5.107906383662322,8.501885580031727,-0.09602080363059501,-0.5933333333333334,-0.48,-0.08333333333333333,0.3214071271829917,0.309361879240059,0.680359257200438
1592289062.8076367,5.11,8.4,-0.49,-0.64,-0.43333333333333335,-0.10444444444444445,0.4112432050011639,0.11344640137963141,0.7155849933176751
1592289062.8176367,5.43061356466877,8.505385120925341,-0.3512337013669821,-0.64,-0.43333333333333335,-0.10444444444444445,0.17760462897859844,0.21793190316958,0.676834147397907
1592289062.8276367,5.300439228555801,8.494828898242611,-0.5529264464578726,-0.64,-0.43333333333333335,-0.10444444444444445,0.22020408085551826,0.28091288269429837,0.5639700983408097
1592289062.8376367,5.45844886629898,8.281336649724235,-0.31426732994484696,-0.64,-0.43333333333333335,-0.10444444444444445,0.1787364045195039,0.28518636566131955,0.4970796848231771
1592289062.8476367,5.609643848455355,8.394732886341517,-0.33694657726830324,-0.64,-0.43333333333333335,-0.10444444444444445,0.1836842487403592,0.2703428329987537,0.33874866975580786
1592289062.8576367,5.53,8.41,0.11,-0.6322222222222222,-0.3977777777777778,-0.10444444444444445,0.14944381720201447,0.21489366415180183,0.1832595714594046
1592289062.8676367,5.53,8.592823150620386,-0.31337992775247375,-0.6322222222222222,-0.3977777777777778,-0.10444444444444445,0.2659524086226307,0.0920873110327739,0.11083531192767018
1592289062.8776367,5.893535794847442,8.552321025762792,-0.1955531283390716,-0.6322222222222222,-0.3977777777777778,-0.10444444444444445,-0.007515141593689108,-0.053438871474996395,-0.36037876151608683
1592289062.8876367,5.817775106082037,8.71296251768034,-0.37882708628005657,-0.6322222222222222,-0.3977777777777778,-0.10444444444444445,0.019162749331070518,-0.13302858826122763,-0.6071693353307429
1592289062.8976367,5.55081117397454,8.668468528995756,-0.3714114214992928,-0.6322222222222222,-0.3977777777777778,-0.10444444444444445,-0.06658314607356841,-0.2430421899124625,-0.6872527659445096
1592289062.9076366,5.570739805124504,8.697333092746302,-0.4771851317214002,-0.6522222222222223,-0.39222222222222225,-0.11888888888888889,-0.14338382114797243,-0.29489671326619094,-0.9644156588871013
1592289062.9176366,5.27,8.62,-0.46,-0.6522222222222223,-0.39222222222222225,-0.11888888888888889,-0.19962203319685143,-0.5235987755982988,-0.978475211899321
1592289062.9276366,5.103547529706066,8.851816760475298,-0.4787273295809881,-0.6522222222222223,-0.39222222222222225,-0.11888888888888889,-0.3091906641728522,-0.1567114175982811,-1.432785937489658
1592289062.9376366,4.449882779198636,9.279444799658995,-0.45893275788576304,-0.6522222222222223,-0.39222222222222225,-0.11888888888888889,-0.43242187528298337,-0.5657091564435435,-1.6040696879969663
1592289062.9476366,4.65846547314578,8.996368286445012,-0.4514833759590793,-0.6522222222222223,-0.39222222222222225,-0.11888888888888889,-0.45842512365482135,-0.43325511004949396,-1.7373363359026355
1592289062.9576366,4.51,8.21,-0.51,-0.6522222222222223,-0.3977777777777778,-0.10444444444444445,-0.43524148221608594,-0.04145156973486533,-1.6013395887047972
1592289062.9676366,4.51,8.602621796126003,-0.38847420596099913,-0.6522222222222223,-0.3977777777777778,-0.10444444444444445,-0.24353343239337447,0.04012632380671402,-1.7614362047801468
1592289062.9776366,3.8732987031097474,8.629531678519964,-0.45254938874169104,-0.6522222222222223,-0.3977777777777778,-0.10444444444444445,-0.26986767181861837,0.12533315090005653,-1.4763400810227405
1592289062.9876366,3.562368149282433,8.910390299490759,-0.625042199351875,-0.6522222222222223,-0.3977777777777778,-0.10444444444444445,-0.27766073785630696,0.20278808786961267,-1.7935536374323051
1592289062.9976366,3.3308534240233607,8.746089526726257,-0.4159321249243261,-0.6522222222222223,-0.3977777777777778,-0.10444444444444445,-0.15464766777248556,0.2475941729994814,-1.8228812567900372
1592289063.0076365,3.08,8.77,-0.19,-0.6,-0.4311111111111111,-0.09,-0.17998707911191522,0.16907877128695067,-1.4115350325504141
1592289063.0176365,2.9870008204086416,9.076897292651482,-0.04120131265382662,-0.6,-0.4311111111111111,-0.09,-0.1241915767970718,0.09705185011688006,-1.3587829212709257
1592289063.0276365,2.711629636603276,9.22290058369422,0.010966861231406515,-0.6,-0.4311111111111111,-0.09,-0.007611579357660736,0.1433419632570331,-1.25545267512312
1592289063.0376365,2.5253172200025085,9.250638381739021,0.01616970956587175,-0.6,-0.4311111111111111,-0.09,0.09037460621035219,0.27978512801062605,-1.123717044872851
1592289063.0476365,2.352474154766811,9.258153297618835,-0.028919785713005932,-0.6,-0.4311111111111111,-0.09,-0.07849392612281865,0.15764235462401222,-1.022887775567123
1592289063.0576365,2.14,9.59,-0.12,-0.5733333333333334,-0.48444444444444446,-0.10444444444444445,0.06326818538479445,0.12980886311707826,-0.9490227807719166
1592289063.0676365,1.979692469597755,9.605267383847833,-0.1429010757717493,-0.5733333333333334,-0.48444444444444446,-0.10444444444444445,-0.013340823054469833,0.1381359292517809,-0.8515961069958958
1592289063.0776365,1.3800028463673237,9.5118193031144,-0.11545221660855334,-0.5733333333333334,-0.48444444444444446,-0.10444444444444445,-0.038079798046963736,0.003967240736701929,-0.7418644184316753
1592289063.0876365,1.6457327994565896,9.635818958582844,0.145517222887582,-0.5733333333333334,-0.48444444444444446,-0.10444444444444445,-0.026462049852992157,0.04972215462573253,-0.7808702689751781
1592289063.0976365,1.2483678029422804,9.703296033462632,0.3254560892336843,-0.5733333333333334,-0.48444444444444446,-0.10444444444444445,-0.02973343075928956,-0.13265733090034748,-0.8422086609682542
1592289063.1076365,1.67,9.63,0.22,-0.5333333333333333,-0.5311111111111111,-0.12777777777777777,-0.0370882466048795,-0.06544984694978735,-0.6010477611555471
1592289063.1176364,1.7823546557428707,9.681855994958248,-0.2294186229714826,-0.5333333333333333,-0.5311111111111111,-0.12777777777777777,-0.042744858160623296,-0.17575377228679132,-0.7933725540508363
1592289063.1276364,1.2563479270865432,9.466339867731765,-0.14333064688174083,-0.5333333333333333,-0.5311111111111111,-0.12777777777777777,-0.22593958312295942,-0.22735866897890963,-0.7145138914537328
1592289063.1376364,1.3367163907585957,10.147786065126432,-0.3249452428597417,-0.5333333333333333,-0.5311111111111111,-0.12777777777777777,-0.2906038293254688,-0.3498305233727192,-0.5323216117889555
1592289063.1476364,1.1078115335637622,10.10963525559396,-0.06551973803893035,-0.5333333333333333,-0.5311111111111111,-0.12777777777777777,-0.26064025358653925,-0.4006021378192388,-0.4382692768306489
1592289063.1576364,1.16,10.52,0.1,-0.5133333333333333,-0.5377777777777778,-0.12,-0.35997415822383044,-0.3337942194439155,-0.46687557490848314
1592289063.1676364,1.545153894970649,10.227283039822307,0.16162462319530382,-0.5133333333333333,-0.5377777777777778,-0.12,-0.28266881689147055,-0.19178766851816745,-0.06438363471065278
1592289063.1776364,1.5811355225006483,10.268788571697979,0.2650654157139153,-0.5133333333333333,-0.5377777777777778,-0.12,-0.379808038947304,0.027780506216460745,0.08513818413989466
1592289063.1876364,1.3201746290264207,9.621408794788273,0.4209391965255157,-0.5133333333333333,-0.5377777777777778,-0.12,-0.2865489683000254,-0.054127789338338436,0.45445153343107575
1592289063.1976364,1.8135323923271807,9.68971986970684,0.46647991313789355,-0.5133333333333333,-0.5377777777777778,-0.12,-0.32297892636102704,0.07172115669057627,0.4867417235305999
1592289063.2076364,1.95,9.96,0.89,-0.5066666666666667,-0.5377777777777778,-0.10444444444444445,-0.210530341021816,0.20398535632683729,0.779944009484966
1592289063.2176363,1.5941184268669908,9.628383079580606,0.6877945607198811,-0.5066666666666667,-0.5377777777777778,-0.10444444444444445,-0.07554032747817332,0.054878740059676384,0.5611366672704341
1592289063.2276363,1.992782659924395,9.573792527860965,0.7319264568707349,-0.5066666666666667,-0.5377777777777778,-0.10444444444444445,-0.17781559270764077,0.08883086678344108,0.8260259199884605
1592289063.2376363,2.12,9.29,0.82,-0.5066666666666667,-0.5377777777777778,-0.10444444444444445,-0.07853981633974483,0.16035212502697901,0.7384924397501007
1592289063.2476363,2.4355310177460945,9.383490671924768,0.6622344911269529,-0.5066666666666667,-0.5377777777777778,-0.10444444444444445,-0.060692878347677226,0.22472857992693718,0.7971323788668943
1592289063.2576363,2.6,9.21,0.7,-0.52,-0.5377777777777778,-0.13444444444444445,0.01090830782496456,0.2792526803190927,1.0962849364089382
1592289063.2676363,2.7868032690267572,9.218121881262034,0.5294404934973085,-0.52,-0.5377777777777778,-0.13444444444444445,0.07115357485332999,0.2969718765039061,1.0448992674729793
1592289063.2776363,2.83,9.459896715888002,0.2501032841119987,-0.52,-0.5377777777777778,-0.13444444444444445,0.01094022971343267,0.2530933968787748,1.1060709610024746
1592289063.2876363,2.7701769280159807,9.180825664074575,0.2699410239946732,-0.52,-0.5377777777777778,-0.13444444444444445,-0.10872924761842989,0.32920573136679243,1.0506340922912871
1592289063.2976363,2.8151901880267993,9.375824148116129,0.4432290541027304,-0.52,-0.5377777777777778,-0.13444444444444445,-0.06471771489985376,0.5052491881075492,1.029108942671965
1592289063.3076363,2.71,9.18,0.33,-0.5544444444444444,-0.49777777777777776,-0.14222222222222222,-0.19307704850187268,0.45487643630102215,1.00029182754925
1592289063.3176363,2.5635102105180163,9.404043207443033,0.29553181423953323,-0.5544444444444444,-0.49777777777777776,-0.14222222222222222,0.0635358401506329,0.48965547249202107,0.9109943021939826
1592289063.3276362,2.883024566677627,9.385838226314059,0.8767525482643619,-0.5544444444444444,-0.49777777777777776,-0.14222222222222222,0.012159004831397743,0.43714053411501375,0.8306887514108788
1592289063.3376362,2.97823148813803,9.409115744069016,0.3188641265276779,-0.5544444444444444,-0.49777777777777776,-0.14222222222222222,-0.09521674475136929,0.28583922794108246,0.7664086109904377
1592289063.3476362,3.1751088056214707,9.387487445505215,0.5026129904530654,-0.5544444444444444,-0.49777777777777776,-0.14222222222222222,-0.1530196023640548,0.14882444973216696,0.8637205078533622
1592289063.3576362,3.98,9.16,0.3,-0.5733333333333334,-0.48444444444444446,-0.14222222222222222,-0.23889194136672384,0.296705972839036,0.4777838827334477
1592289063.3676362,3.8821541102422277,9.054627503337784,0.48063856570665653,-0.5733333333333334,-0.48444444444444446,-0.14222222222222222,-0.15350529457589768,0.24826547129424043,0.4794259336332713
1592289063.3776362,4.150040670378862,9.174859700840702,0.21092313571350585,-0.5733333333333334,-0.48444444444444446,-0.14222222222222222,-0.2289125487822966,0.3305350364467858,0.35643860522661525
1592289063.3876362,3.7360366833695755,8.804214332986668,0.864851564715893,-0.5733333333333334,-0.48444444444444446,-0.14222222222222222,-0.1461589489734719,0.18138859607501778,0.3229082913371888
1592289063.3976362,4.141588079235939,9.047240183940573,0.5827408914043155,-0.5733333333333334,-0.48444444444444446,-0.14222222222222222,-0.2902167258541852,0.21771458265254354,0.41766863047507563
1592289063.4076362,3.75,9.04,1.09,-0.5811111111111111,-0.45111111111111113,-0.14222222222222222,-0.24434609527920614,0.23889194136672384,0.26070855701665296
1592289063.4176362,3.6462968685231942,8.856525228925651,0.9464110487244225,-0.5811111111111111,-0.45111111111111113,-0.14222222222222222,-0.021581653568580467,0.17275874773388183,0.181522759377329
1592289063.4276361,3.9898659440958353,8.59187393040502,0.7108414147176269,-0.5811111111111111,-0.45111111111111113,-0.14222222222222222,-0.12130529890817618,-0.09126047137179491,0.38076030280940465
1592289063.4376361,4.114400047511581,8.855236488894167,0.908800095023162,-0.5811111111111111,-0.45111111111111113,-0.14222222222222222,-0.06872627815649847,-0.03639008380782477,0.021027081684348803
1592289063.4476361,4.176360965075319,8.757278069849363,0.9622707238064893,-0.5811111111111111,-0.45111111111111113,-0.14222222222222222,-0.027024674677683783,-0.13032486104603677,-0.038871348380491264
1592289063.457636,4.247628928207643,8.586164786660127,0.7132780020371976,-0.5811111111111111,-0.4394684842159094,-0.1485727459832413,0.04728140532439178,-0.12969635203097477,-0.38087130233140026
1592289063.467636,4.452487448112275,8.561016801739475,0.541806681162285,-0.5811111111111111,-0.4388888888888889,-0.14888888888888888,-0.0009001779701059975,-0.1842275840537789,-0.4861044699838132
1592289063.477636,4.543046636401155,8.585937818131793,0.647657999724859,-0.5811111111111111,-0.4388888888888889,-0.14888888888888888,-0.05406450887425191,-0.09848903893819104,-0.7161490319170822
1592289063.487636,4.2844329380324035,8.553490419718916,0.9620766422486817,-0.5811111111111111,-0.4388888888888889,-0.14888888888888888,0.13742744769002188,-0.29815269207721207,-0.7841017070170678
1592289063.497636,4.402617472283813,8.937104567627495,0.8202172949002218,-0.5811111111111111,-0.4388888888888889,-0.14888888888888888,0.035235662806944984,-0.3081511532296972,-0.9472054518508904
1592289063.507636,4.2492691273886285,8.969342420281126,0.866131927206498,-0.5811111111111111,-0.431881559599639,-0.15901058675113872,0.014873674710724264,-0.369752108812699,-1.150906649986056
1592289063.517636,3.861153298180162,8.704437965424555,1.0879124010399073,-0.5811111111111111,-0.41956042216444955,-0.17680778526863453,0.07938699946115961,-0.48668250992286305,-1.3773753004120635
1592289063.527636,3.9009917649853514,8.784876078866102,0.889917253939346,-0.5811111111111111,-0.41888888888888887,-0.17777777777777778,0.28028050048666864,-0.27497940320151903,-1.3564525695380796
1592289063.537636,3.2212140910044034,8.84771964772489,0.9671964772488991,-0.5811111111111111,-0.41888888888888887,-0.17777777777777778,0.46306898948547914,-0.29593336774874923,-1.3406310316881442
1592289063.547636,3.2036644933732363,8.990632214621634,1.090451581872595,-0.5811111111111111,-0.41888888888888887,-0.17777777777777778,0.4482132277482568,-0.37699250587052635,-1.331864977475577
1592289063.557636,2.9004531755776317,8.946817725192544,0.6350329277821186,-0.5811111111111111,-0.4421057657724696,-0.18358199699867297,0.6669714906151545,-0.33213477835287364,-1.5174836921334889
1592289063.567636,2.7738276374442794,8.955390787518574,0.4203506686478455,-0.5811111111111111,-0.44555555555555554,-0.18444444444444444,0.6176206089785335,-0.33316792373164716,-1.6128725713939136
1592289063.577636,2.4466297633373446,9.193261398582699,-0.08076186655970047,-0.5811111111111111,-0.44555555555555554,-0.18444444444444444,0.7099177489153911,-0.31598516352717243,-1.657137967917724
1592289063.587636,2.1609137901881685,9.203434865576462,-0.0880146863450808,-0.5811111111111111,-0.44555555555555554,-0.18444444444444444,0.7929262896696754,-0.41919644936428213,-1.5933451078341645
1592289063.597636,2.0290530200249632,9.711464698540185,-0.10018939599500733,-0.5811111111111111,-0.44555555555555554,-0.18444444444444444,0.7845194369560645,-0.4022273201671825,-1.4990865899050283
1592289063.607636,1.970854920294298,9.941709840588596,-0.6404146229307174,-0.5435146723210028,-0.4750230346072621,-0.16513816506574017,0.6539699833857069,-0.2864900098274716,-1.3695634622432673
1592289063.617636,1.7949393892895502,9.914255792542582,-0.607618536136259,-0.54,-0.4777777777777778,-0.16333333333333333,0.5178127024834703,-0.34615415070929756,-1.273739185783131
1592289063.627636,1.4053807928214448,10.056384597910041,-0.6215115288505225,-0.54,-0.4777777777777778,-0.16333333333333333,0.35405304968713947,-0.24608053356961693,-1.1276631100893812
1592289063.637636,1.1512475082286404,10.148450697695981,-0.5063984052663297,-0.54,-0.4777777777777778,-0.16333333333333333,0.38751269233092306,-0.3229254062571749,-0.8953131069464341
1592289063.647636,1.0789217891054474,10.489429035482258,-0.548372063968016,-0.54,-0.4777777777777778,-0.16333333333333333,0.1579860689031758,-0.2613058972614908,-0.7224367571345178
1592289063.657636,0.5884577491474043,10.265611974232664,-0.5349867374005305,-0.5138032082859669,-0.5292981348153762,-0.1240381457622837,0.19826417828192122,-0.24567914919112394,-0.6487338896976858
1592289063.667636,0.37845400306377486,10.30829517052326,-0.4240635330162058,-0.5066666666666667,-0.5433333333333333,-0.11333333333333333,0.182779634058769,-0.19194088003749468,-0.4905432080593243
1592289063.677636,0.33745478317716276,10.400908694704729,-0.32,-0.5066666666666667,-0.5433333333333333,-0.11333333333333333,0.050872078503903684,-0.16295048442629667,-0.21303872886934133
1592289063.687636,0.6647028542426952,10.04045218358025,-0.7009560867148416,-0.5066666666666667,-0.5433333333333333,-0.11333333333333333,0.10175732055385928,-0.326114720117766,-0.12672099237023232
1592289063.697636,0.8488284616489514,10.02003303648377,-0.4297687446136168,-0.5066666666666667,-0.5433333333333333,-0.11333333333333333,0.0528638501556213,-0.3305037084897058,0.004168996373595246
1592289063.7076359,1.144140511164494,10.016793998346001,-0.31131650454849763,-0.49006366583966715,-0.5497900558771665,-0.100419888245667,0.01708273739334091,-0.13304862151992689,0.17759483776132007
1592289063.7176359,1.2163463302752293,10.049519495412843,-0.4178211009174312,-0.4866666666666667,-0.5511111111111111,-0.09777777777777778,0.031822986554962546,-0.04426221033361881,0.22391766187622233
1592289063.7276359,1.4888928137451607,10.215593296973465,-0.5762373187893859,-0.4866666666666667,-0.5511111111111111,-0.09777777777777778,-0.08516131054392628,0.06889123357645546,0.37319116052572365
1592289063.7376359,1.3689466252471054,10.305723900969594,-0.35914383884025225,-0.4866666666666667,-0.5511111111111111,-0.09777777777777778,0.012624032773598831,0.09158676039807602,0.5529871821570421
1592289063.7476358,1.0882411871852566,10.052585985213756,-0.37131040394299797,-0.4866666666666667,-0.5511111111111111,-0.09777777777777778,0.11346777073868708,0.24290431611681296,0.7366394026949245
1592289063.7576358,0.9921046169752189,9.795474459629737,-0.21505476398177767,-0.4776959997702462,-0.5511111111111111,-0.10329818817557501,0.11413580530636766,0.3284435765652671,0.9789330288313953
1592289063.7676358,1.0378159194971157,10.039189021393279,-0.3088457459192384,-0.4722222222222222,-0.5511111111111111,-0.10666666666666667,0.11284399934262042,0.41315947443770973,1.1825457589582988
1592289063.7776358,1.2083940924432104,9.855380711874954,-0.41811259784091725,-0.4722222222222222,-0.5511111111111111,-0.10666666666666667,0.00452944002297101,0.584806949623133,1.2580463656141603
1592289063.7876358,1.3056305179170011,9.805894433690572,-0.20747792833199563,-0.4722222222222222,-0.5511111111111111,-0.10666666666666667,0.11904135749027928,0.5730028370054163,1.318916798909449
1592289063.7976358,1.447294887689615,9.688766773628938,-0.29547987164527423,-0.4722222222222222,-0.5511111111111111,-0.10666666666666667,0.12887859018367553,0.5553972247957017,1.347112552974668
1592289063.8076358,1.6298399214709103,9.487120096651187,-0.22104013289538263,-0.4875822101408238,-0.5357511231925095,-0.10496000134237761,0.044244149253101425,0.6097656353025325,1.351966949133476
1592289063.8176358,1.8452247763148322,9.499141267185568,-0.1548796100967484,-0.4922222222222222,-0.5311111111111111,-0.10444444444444445,0.052037714689608335,0.7237163524218827,1.3384905133369964
1592289063.8276358,2.1283442784913116,9.464502818620328,-0.20940431219852385,-0.4922222222222222,-0.5311111111111111,-0.10444444444444445,0.07927658831360278,0.7423205857158025,1.257395324177211
1592289063.8376358,2.3217513244001244,9.474317664261573,-0.10808567250761081,-0.4922222222222222,-0.5311111111111111,-0.10444444444444445,0.07030193506734236,0.6544562922067891,1.212568407785695
1592289063.8476357,2.482952344188658,9.461402126614262,-0.10431744806288604,-0.4922222222222222,-0.5311111111111111,-0.10444444444444445,0.031130823731929755,0.6203485487849879,1.2307912891114978
1592289063.8576357,2.379492532764401,9.386516306004266,-0.24365284974093265,-0.5182212401368147,-0.5132832131125334,-0.1297006332757628,0.008015827542209556,0.6349557755598874,1.1002300135394176
1592289063.8676357,2.3418654842253965,9.385932742112697,-0.29135575262910063,-0.5311111111111111,-0.5044444444444445,-0.14222222222222222,-0.005436004789433369,0.6568836238245989,1.0072986303776599
1592289063.8776357,2.706657426935824,9.63645736667671,-0.3560572461584815,-0.5311111111111111,-0.5044444444444445,-0.14222222222222222,-0.10917977075227,0.598108664031247,0.8245962259484434
1592289063.8876357,2.93547189272821,9.557159915896378,-0.35873725552425917,-0.5311111111111111,-0.5044444444444445,-0.14222222222222222,-0.0943860948910284,0.5739606503324113,0.8117612848925736
1592289063.8976357,3.1798241622258145,9.305615432209647,-0.14736243338722232,-0.5311111111111111,-0.5044444444444445,-0.14222222222222222,-0.1289711073403846,0.7090449725853016,0.8341006891055237
1592289063.9076357,3.0936903618315723,9.124945565161703,-0.04856067883445406,-0.5542352438894226,-0.46744583199914613,-0.14222222222222222,-0.1444770966411088,0.6677581935340985,0.7268839813316318
1592289063.9176357,3.1332024957458877,9.057450935904708,-0.07457515598411799,-0.5644444444444444,-0.45111111111111113,-0.14222222222222222,-0.095736457351702,0.5152429994296649,0.6061741089712815
1592289063.9276357,3.3278878782350336,9.061229899137325,-0.1015775756470067,-0.5644444444444444,-0.45111111111111113,-0.14222222222222222,-0.06939314521645637,0.37995612892455416,0.4221368145146126
1592289063.9376357,3.1098638498772027,9.06486492286416,-0.09513507713584014,-0.5644444444444444,-0.45111111111111113,-0.14222222222222222,-0.07624027773652321,0.29299097341930813,0.14111418663302322
1592289063.9476357,3.2815212308351334,9.136771378085566,-0.03992146643582558,-0.5644444444444444,-0.45111111111111113,-0.14222222222222222,-0.018810644490109878,0.18094084296759472,0.07287371490377823
1592289063.9576356,3.62759286946521,9.373457159286946,0.0,-0.5739085042489298,-0.43509500990352057,-0.16406236023257298,-0.09310275228718258,0.1705862379554357,-0.033144570279660876
1592289063.9676356,3.7106690641795765,9.37753477711034,-0.021338128359152705,-0.5788888888888889,-0.4266666666666667,-0.17555555555555555,-0.11976458949119592,0.05361133257152259,-0.053634870099472445
1592289063.9776356,3.981606280833908,9.033195586441037,-0.01919898148639329,-0.5788888888888889,-0.4266666666666667,-0.17555555555555555,-0.02347401182372698,-0.010903215622489387,-0.017934332056036503
1592289063.9876356,4.121396142645724,8.871547476965675,0.1426409509714995,-0.5788888888888889,-0.4266666666666667,-0.17555555555555555,-0.0015724794151077953,-0.012941397268772456,-0.0786343338300886
1592289063.9976356,4.189009446377914,8.85092767525517,0.17158804433656014,-0.5788888888888889,-0.4266666666666667,-0.17555555555555555,-0.010215392766448986,-0.05617435581565816,-0.06295602268462985
1592289064.0076356,4.18262616784301,8.641572763249155,0.2625311084819061,-0.5802690402041714,-0.41424530482912436,-0.1714151016097081,-0.059961380665989966,-0.0684582096944814,-0.13571548639293377
1592289064.0176356,4.123186328555678,8.601041326084477,0.4430916625479983,-0.5811111111111111,-0.4066666666666667,-0.1688888888888889,-0.02472768191410265,-0.036799105738226826,-0.28916662059389503
1592289064.0276356,4.256617050067659,8.936414073071719,0.5402029769959404,-0.5811111111111111,-0.4066666666666667,-0.1688888888888889,0.13212780108636368,0.154593896498537,-0.48485140341895927
1592289064.0376356,3.862436293345277,8.95390254826619,0.19804648641003275,-0.5811111111111111,-0.4066666666666667,-0.1688888888888889,0.18935252262557672,-0.06851168688997344,-0.3622343258678635
1592289064.0476356,3.876766069054719,8.939154241368161,0.3409948622139188,-0.5811111111111111,-0.4066666666666667,-0.1688888888888889,0.13633625060653332,-0.13575283857663203,-0.38059541804197206
1592289064.0576355,3.6776508085137034,9.085163683509203,0.34225447473619763,-0.5945688927303794,-0.4066666666666667,-0.16460686746457626,0.14924550576073373,-0.14333835477427997,-0.5896087502283122
1592289064.0676355,3.4780685659101884,9.15902945436987,0.045156929019797204,-0.6055555555555555,-0.4066666666666667,-0.16111111111111112,0.1913167604887857,-0.23006153186959538,-0.6546375227700025
1592289064.0776355,3.7224390833494487,9.123252030555019,-0.16195126667955909,-0.6055555555555555,-0.4066666666666667,-0.16111111111111112,0.15566952663315478,-0.21705757941248655,-0.6458782483258481
1592289064.0876355,3.786192804252895,9.228183026390735,-0.14533985190810708,-0.6055555555555555,-0.4066666666666667,-0.16111111111111112,0.12150963322835723,-0.13173562815927686,-0.6781623730089147
1592289064.0976355,3.775084450353973,9.081706436195063,-0.10508445035397276,-0.6055555555555555,-0.4066666666666667,-0.16111111111111112,0.1090462298313631,-0.0626786106922747,-0.7309652683058914
1592289064.1076355,3.853592330978809,9.139081735620586,-0.09867810292633702,-0.6024105841462047,-0.41044063235788764,-0.15607915685614981,0.07726075945855321,-0.15680444832467216,-0.7264272568974834
1592289064.1176355,3.8625349834182643,9.279144625090998,-0.0594867750545984,-0.6,-0.41333333333333333,-0.15222222222222223,0.0057238837274213444,-0.12618348087922293,-0.7141090674166632
1592289064.1276355,3.8571677297800377,9.267167729780038,-0.1685242775747395,-0.6,-0.41333333333333333,-0.15222222222222223,0.08233921464643655,0.04113662462959275,-0.7024180395474762
1592289064.1376355,3.5469195719530293,9.207678548181322,-0.2961160725909339,-0.6,-0.41333333333333333,-0.15222222222222223,0.1941581374415177,-0.08701811661168958,-0.7961701422262407
1592289064.1476355,3.3204705267032137,9.177117370164462,-0.3785289502741026,-0.6,-0.41333333333333333,-0.15222222222222223,0.14598548023619495,0.017529426477856158,-0.9837170021490156
1592289064.1576355,3.1365142219743447,9.2427630327089,-0.4101646927594239,-0.5924123224303665,-0.42471484968778367,-0.1673975773614893,0.022175919513196876,-0.049502517165916804,-0.9751638188248025
1592289064.1676354,2.955277580071175,9.282096085409252,-0.37158244365361803,-0.5866666666666667,-0.43333333333333335,-0.17888888888888888,-0.05006072200308053,-0.1851610849052866,-0.9087144482806285
1592289064.1776354,2.6709050872339226,9.230088080853706,-0.4853864829766812,-0.5866666666666667,-0.43333333333333335,-0.17888888888888888,-0.07379118253417333,-0.11917032203748856,-0.9630229357698993
1592289064.1876354,2.698572969086988,9.24668463934819,-0.4233153606518093,-0.5866666666666667,-0.43333333333333335,-0.17888888888888888,-0.0169312726127673,-0.14097347565861068,-0.9322974929798077
1592289064.1976354,2.6020833333333333,9.554722222222223,-0.3259722222222222,-0.5866666666666667,-0.43333333333333335,-0.17888888888888888,-0.05275378867573138,-0.09993222001870311,-0.9056016554575438
1592289064.2076354,2.3424294242638877,9.416530743026746,-0.3950156834969139,-0.5905572981663237,-0.44889585933196174,-0.1626779243069843,-0.06143074496726137,-0.0570742650537599,-0.9295941533431321
1592289064.2176354,2.200471176821983,9.315430854241338,-0.4173155615292712,-0.5933333333333334,-0.46,-0.1511111111111111,-0.0776883786030785,-0.009562526299545914,-0.9423033217985548
1592289064.2276354,1.841695636382504,9.601009962123177,-0.3810099621231775,-0.5933333333333334,-0.46,-0.1511111111111111,-0.21249166303218542,0.019912401939229656,-0.9723097511918911
1592289064.2376354,1.6090228405983593,9.57916277947563,-0.337395045842046,-0.5933333333333334,-0.46,-0.1511111111111111,-0.22575135195412682,-0.013272622573901304,-1.0341429368657802
1592289064.2476354,1.3611163707193332,9.617727622757746,-0.1811163707193332,-0.5933333333333334,-0.46,-0.1511111111111111,-0.2454498968480953,-0.08389981469614596,-0.9164602268363998
1592289064.2576354,1.5263778162911612,9.746990179087232,-0.186632004621606,-0.587035111367867,-0.4703061813980358,-0.16198985814237113,-0.23101729003334676,-0.20267207420625805,-0.8112100807001952
1592289064.2676353,1.531100221308884,9.79176572873854,-0.05204078406576036,-0.5811111111111111,-0.48,-0.17222222222222222,-0.3055526346261366,-0.23374558589666272,-0.724592365552023
1592289064.2776353,1.566650786737083,9.702935699896553,0.1446330375129308,-0.5811111111111111,-0.48,-0.17222222222222222,-0.2192721022398181,-0.1495541059134587,-0.8630724479460071
1592289064.2876353,1.51695244379507,9.628401753311024,0.1576207757929962,-0.5811111111111111,-0.48,-0.17222222222222222,-0.16613475694621863,-0.09746907483526943,-0.7975351918177318
1592289064.2976353,1.3879455212362952,9.496129963320039,0.18469182818544427,-0.5811111111111111,-0.48,-0.17222222222222222,-0.12887855987672545,-0.11640879264700318,-0.806923437519311
1592289064.3076353,1.5215653422690283,9.718827190043083,0.0579559597893729,-0.5735120472315303,-0.48350726025211427,-0.1798212861018031,-0.2803205352497798,-0.10127651041895051,-0.8225433274534012
1592289064.3176353,1.4753999680664218,9.93078716270158,-0.030787162701580717,-0.5666666666666667,-0.4866666666666667,-0.18666666666666668,-0.4172416421956678,-0.11142445430091494,-0.822742615028841
1592289064.3276353,0.7128902527658887,9.71575385609303,0.16347896309456514,-0.5666666666666667,-0.4866666666666667,-0.18666666666666668,-0.19292332971680798,-0.29164496903414333,-0.7944624624385965
1592289064.3376353,0.9230490845622286,9.739912374438983,0.24017525112203464,-0.5666666666666667,-0.4866666666666667,-0.18666666666666668,-0.21813748110150383,-0.24084357806057693,-0.7718379641104411
1592289064.3476353,0.8872538932146831,9.612000635626888,0.3867505561735261,-0.5666666666666667,-0.4866666666666667,-0.18666666666666668,-0.12912809058499386,-0.23466380203723053,-0.7011598915984103
1592289064.3576353,0.8001974958048277,9.700151026203692,0.3099535303988641,-0.5560988482997002,-0.49556588213358577,-0.17832365216643004,-0.10640605813388174,-0.23607678971647836,-0.6015646631566502
1592289064.3676353,0.9763663350449294,9.852282172657253,0.245595715661104,-0.5455555555555556,-0.5044444444444445,-0.17,-0.15916624913618738,-0.16822266516416662,-0.5817949566704002
1592289064.3776352,0.5936130986577531,9.624148952838565,0.24022457826291327,-0.5455555555555556,-0.5044444444444445,-0.17,-0.1906710336898191,-0.2199678760113009,-0.6408145166254745
1592289064.3876352,0.36826606485330804,8.947600902720039,0.26388288395296355,-0.5455555555555556,-0.5044444444444445,-0.17,-0.2510182118382763,-0.2381800184759405,-0.6147684144648395
1592289064.3976352,0.5016879188660222,9.457061265642608,0.6793624340193347,-0.5455555555555556,-0.5044444444444445,-0.17,-0.21530894454993033,-0.1131669168306495,-0.6581339035860548
1592289064.4076352,1.0672322759208006,10.709714103226984,0.3586383405821345,-0.5391779284987716,-0.5191620453447151,-0.15822591927978347,-0.0659601111742101,-0.09445209763108033,-0.628766156525235
1592289064.4176352,1.81,11.19,-0.87,-0.5311111111111111,-0.5377777777777778,-0.14333333333333334,-0.061086523819801536,-0.296705972839036,-0.47342055960346185
1592289064.4276352,0.9118970285218523,10.005923977876586,-0.07920317752955211,-0.5311111111111111,-0.5377777777777778,-0.14333333333333334,-0.12461478853171001,0.021591966733763766,-0.6445325573698033
1592289064.4376352,0.8532015886388253,9.426614755084847,0.10936526657840896,-0.5311111111111111,-0.5377777777777778,-0.14333333333333334,-0.1946482176725023,0.04725800855789653,-0.5555098229926764
1592289064.4476352,0.914867699830435,9.563996214361765,0.028870223589258254,-0.5311111111111111,-0.5377777777777778,-0.14333333333333334,-0.2994206828308871,0.0567795510319061,-0.5701819688143535
1592289064.4576352,0.8895044969178428,9.83029676289285,0.23237679792501767,-0.5311111111111111,-0.5339347189005288,-0.15246059816679955,-0.11273719785846174,0.11657129150213044,-0.5967384890270453
1592289064.4676352,0.6153992941085211,9.689698638637863,0.548201915991157,-0.5311111111111111,-0.5288888888888889,-0.16444444444444445,-0.10058654596500646,0.1289684119091392,-0.622199250531124
1592289064.4776351,0.4424902114330462,9.555713491802864,0.26278399474574987,-0.5311111111111111,-0.5288888888888889,-0.16444444444444445,0.08290313946973066,0.14754569944564278,-0.5187718349192312
1592289064.4876351,0.4171571448789923,9.638546492428173,0.32503656177761003,-0.5311111111111111,-0.5288888888888889,-0.16444444444444445,0.08290313946973066,-0.0005104987197417088,-0.4839549477008414
1592289064.4976351,0.555825956937799,9.994994019138755,0.3508343301435407,-0.5311111111111111,-0.5288888888888889,-0.16444444444444445,0.061085479962593406,0.005639569049076476,-0.5217814201989435
1592289064.507635,0.29822509655977725,9.903549806880445,0.2698661636575945,-0.5302671736678742,-0.5356403884347835,-0.1733057875984311,0.028057660967623743,0.06983805744335478,-0.4675748706324279
1592289064.517635,0.23,10.04,0.09,-0.5288888888888889,-0.5466666666666666,-0.18777777777777777,0.02399827721492203,0.002181661564992912,-0.3457933580513765
1592289064.527635,-0.10433614097306883,9.72370303668403,0.3763584727917544,-0.5288888888888889,-0.5466666666666666,-0.18777777777777777,0.009550421163211241,0.042647488033452335,-0.39457394332818785
1592289064.537635,0.03858370657305407,9.574252511802445,0.18842634063672678,-0.5288888888888889,-0.5466666666666666,-0.18777777777777777,-0.03567984554857794,-0.0017517202712259983,-0.3576383991496772
1592289064.547635,0.22,9.67,0.39,-0.5288888888888889,-0.5466666666666666,-0.18777777777777777,-0.07635815477475191,0.08290313946973066,-0.44724062082354693
1592289064.557635,0.2746958388712811,9.947087209896738,0.21521725794908497,-0.5191385035991927,-0.5486167437246059,-0.1919565143305047,-0.15054412765085506,0.062193154046204915,-0.27384276484954984
1592289064.567635,0.04471848608070065,9.738484516734438,0.39987019080387864,-0.49,-0.5544444444444444,-0.20444444444444446,-0.14138303152134898,0.03281943712104679,-0.37846624784021116
1592289064.577635,0.06570692642719991,9.845427808738819,0.31788835292464757,-0.49,-0.5544444444444444,-0.20444444444444446,-0.11430688719897157,0.023290026478794516,-0.3605301738767453
1592289064.587635,0.029698795180722895,9.693598742797276,0.30509952854897854,-0.49,-0.5544444444444444,-0.20444444444444446,-0.09206634660860608,0.04616459869978454,-0.29362890434048
1592289064.597635,0.17850651380927568,9.791796421747438,0.4138745874587459,-0.49,-0.5544444444444444,-0.20444444444444446,-0.0710173472187208,-0.052487434843619465,-0.4032815613816736
1592289064.607635,0.20676609451528924,9.678611393019459,0.5447716542381856,-0.49037589413973826,-0.5548203385841827,-0.2034876229978379,-0.08112608115927886,-0.10848122729856516,-0.40776942181255027
1592289064.617635,0.42,9.95,0.38,-0.5022222222222222,-0.5666666666666667,-0.17333333333333334,0.04363323129985824,0.04799655442984406,-0.40142572795869574
1592289064.627635,-0.4886714323362762,10.727918698115694,0.2380366319673211,-0.5022222222222222,-0.5666666666666667,-0.17333333333333334,-0.04016654836241595,-0.16043136082469298,-0.2768639635765815
1592289064.637635,-0.16746354154235388,9.732828126118815,0.27592261975797794,-0.5022222222222222,-0.5666666666666667,-0.17333333333333334,-0.06546989467880188,-0.14173260143463523,-0.030281105308020993
1592289064.647635,-0.13,10.07,0.49,-0.5022222222222222,-0.5666666666666667,-0.17333333333333334,-0.20616701789183017,-0.18435040224190105,-0.001090830782496456
1592289064.657635,-0.635609333773087,9.388670019788918,0.6070951517150396,-0.500315340076224,-0.5682557351216652,-0.17841835238932865,-0.0049800634561383795,-0.057037642016960134,0.05592495504381835
1592289064.667635,-0.07,9.92,0.35,-0.4888888888888889,-0.5777777777777777,-0.2088888888888889,0.030543261909900768,-0.07199483164476608,-0.04690572364734761
1592289064.677635,0.03141498283334271,9.878618787640008,0.49348680137333256,-0.4888888888888889,-0.5777777777777777,-0.2088888888888889,-0.1311256942434915,-0.030801740977515445,0.027830582421915127
1592289064.687635,0.09225406970937781,9.860828173374612,0.45755293118945367,-0.4888888888888889,-0.5777777777777777,-0.2088888888888889,-0.0681694614164049,-0.04555000171857729,-0.02699770780706061
1592289064.697635,-0.04,9.69,0.43,-0.4888888888888889,-0.5777777777777777,-0.2088888888888889,-0.015271630954950384,-0.01308996938995747,-0.11235557059713495
1592289064.707635,0.035191238966982674,9.697021902582543,0.567786858450474,-0.49234971486687734,-0.579508190766772,-0.20715847589989467,-0.005412432042082775,-0.06270190905834647,0.03894504813624892
1592289064.717635,0.07,9.61,0.62,-0.5155555555555555,-0.5911111111111111,-0.19555555555555557,0.002181661564992912,-0.05890486225480862,0.02945243112740431
1592289064.727635,0.07700472680071514,9.781981092797139,0.5881134432171634,-0.5155555555555555,-0.5911111111111111,-0.19555555555555557,0.03847767932355099,0.08123853452751055,0.0658900156444657
1592289064.737635,0.05408027873234059,9.77497661321115,0.474127052310042,-0.5155555555555555,-0.5911111111111111,-0.19555555555555557,-0.07863759126383457,0.09513140876990676,-0.0750513653207303
1592289064.747635,0.045640485178301105,9.679487611857358,0.5848719029643398,-0.5155555555555555,-0.5911111111111111,-0.19555555555555557,-0.0752952704301844,-0.01683686140478812,-0.030291284116906438
1592289064.7576349,0.12847007998919976,9.63376387998245,0.5625886800094502,-0.5147320755566056,-0.5887583111141113,-0.19873183555150548,-0.08131164353447273,-0.1420661577691869,-0.05350269298793992
1592289064.7676349,0.1780945629829163,9.724443656813403,0.5438108740341674,-0.5077777777777778,-0.5688888888888889,-0.22555555555555556,0.008782088641133473,0.06922451684826508,-0.00881466845042616
1592289064.7776349,0.06527188732394366,9.737744450704225,0.49771763380281686,-0.5077777777777778,-0.5688888888888889,-0.22555555555555556,0.11909340188340801,0.06532536318454651,-0.08831579879379932
1592289064.7876348,-0.12553127626365712,9.804468723736342,0.2903541841757714,-0.5077777777777778,-0.5688888888888889,-0.22555555555555556,-0.054151569412016765,0.03845314059970061,-0.02240699228594034
1592289064.7976348,-0.21340728391895358,9.713827263400871,0.35723454731982557,-0.5077777777777778,-0.5688888888888889,-0.22555555555555556,-0.028878478998578594,0.0047350001483357955,0.08511417708811214
1592289064.8076348,-0.16750377794911334,9.769969776407093,0.35249622205088665,-0.5061136297438533,-0.5741586909963162,-0.22139518547074447,0.05019470040758711,0.02559578501870389,-0.0038170835181000886
1592289064.8176348,-0.16,9.83,0.36,-0.5011111111111111,-0.59,-0.2088888888888889,0.017453292519943295,0.10253809355466686,-0.00545415391248228
1592289064.8276348,-0.0627977037555175,9.807202296244483,0.21482066620034249,-0.5011111111111111,-0.59,-0.2088888888888889,-0.015448467677716453,-0.04572411966241952,0.1306211122568657
1592289064.8376348,-0.06714235035357,9.797142350353571,0.17286119717144005,-0.5011111111111111,-0.59,-0.2088888888888889,-0.11047943865296142,-0.016822884530891348,0.12496770332097605
1592289064.8476348,-0.06652159425387363,9.794347729502581,0.26695570077195063,-0.5011111111111111,-0.59,-0.2088888888888889,-0.02731812323769147,0.06535538192080648,-0.032108114088356454
1592289064.8576348,-0.08981506506969769,9.809876710046465,0.39895203539495366,-0.5011111111111111,-0.59,-0.2088888888888889,-0.03917576623633054,0.002679268927999953,-0.07276289008369041
1592289064.8676348,-0.18581093414867889,9.85194587687674,0.4271621868297358,-0.5277777777777778,-0.5822222222222222,-0.20444444444444446,-0.03334403826711329,0.05649326652359697,-0.07537044341752545
1592289064.8776348,-0.35,9.742118350431415,0.4421183504314152,-0.5277777777777778,-0.5822222222222222,-0.20444444444444446,-0.04503559744476751,0.08294617290096712,0.03303645883730649
1592289064.8876348,-0.3630250600918632,9.7,0.40781503605511793,-0.5277777777777778,-0.5822222222222222,-0.20444444444444446,-0.06728343123707942,0.05285504656302695,0.031414623322939955
1592289064.8976347,-0.3610634614236533,9.715141987224134,0.41053173071182664,-0.5277777777777778,-0.5822222222222222,-0.20444444444444446,-0.026071834716377248,0.02223448778308183,-0.09029904207366798
1592289064.9076347,-0.22083469081905258,9.770834690819052,0.34250407245715775,-0.5267576001100468,-0.5811093011301521,-0.20555736553651457,-0.10490185640751772,0.05252420940117555,-0.04224437136045765
1592289064.9176347,-0.2517755704214249,9.783110795774489,0.3886647746469356,-0.5155555555555555,-0.5688888888888889,-0.21777777777777776,-0.06889587664927735,-0.04712574728987426,0.12091332322017437
1592289064.9276347,-0.28144454299318455,9.75553986555877,0.46446013444122863,-0.5155555555555555,-0.5688888888888889,-0.21777777777777776,-0.0142221989879786,0.003286291952664261,0.08338806065083951
1592289064.9376347,-0.23,9.66969719452817,0.5793943890563413,-0.5155555555555555,-0.5688888888888889,-0.21777777777777776,-0.08805961013829958,0.025254262762308397,0.027799669477170635
1592289064.9476347,-0.24315101534095948,9.69835612308238,0.6350683692471402,-0.5155555555555555,-0.5688888888888889,-0.21777777777777776,-0.054302227662918374,0.028272434093661494,0.020486473405528234
1592289064.9576347,-0.30266045934202357,9.690917442582247,0.6127523277467412,-0.5155555555555555,-0.5688888888888889,-0.21777777777777776,-0.01373051930941225,0.11671875830430484,-0.020085234947977877
1592289064.9676347,-0.3996181775591473,9.705190911220425,0.554427266338721,-0.5155555555555555,-0.5755555555555556,-0.21777777777777776,0.07627485404036591,0.04799655442984406,-0.013680995766137913
1592289064.9776347,-0.38664273716665515,9.712867398357147,0.4767145256666897,-0.5155555555555555,-0.5755555555555556,-0.21777777777777776,0.041284811498310564,0.006241411415157862,0.027682595141187812
1592289064.9876347,-0.44209890947187963,9.704692366303156,0.3720989094718796,-0.5155555555555555,-0.5755555555555556,-0.21777777777777776,-0.024993110317240688,-0.09580238619585005,0.0005093123675882841
1592289064.9976346,-0.44069619244862196,9.761550634591897,0.38155063459189636,-0.5155555555555555,-0.5755555555555556,-0.21777777777777776,0.06845998612357769,0.022645093258726542,-0.11329104010520863
1592289065.0076346,-0.3961494344432054,9.768975094259465,0.3889750942594658,-0.5155555555555555,-0.5755555555555556,-0.21777777777777776,0.06198092280454718,0.016166029939696028,-0.018534739064387365
1592289065.0176346,-0.3749220610777031,9.80353802617616,0.31784600872538615,-0.4955555555555556,-0.5811111111111111,-0.2088888888888889,0.05242583417169926,-0.002449603869685355,-0.09229861252712968
