time,acc_x,acc_y,acc_z,mag_x,mag_y,mag_z,gyr_x,gyr_y,gyr_z
1592289518.1272025,-0.4306373391310446,9.7,1.0792351930427464,-0.48333333333333334,-0.5877777777777777,-0.09333333333333334,-0.038602488192560694,-0.03062668940706473,-0.04637734949864251
1592289518.1372025,-0.35,9.71,1.11,-0.49,-0.6,-0.07111111111111111,-0.07199483164476608,0.04799655442984406,-0.148352986419518
1592289518.1472025,-0.3239988652774913,9.707333144212916,1.0233314421291522,-0.49,-0.6,-0.07111111111111111,-0.05774184579591733,0.0052351213028134815,-0.06945131335511742
1592289518.1572025,-0.2735647078440247,9.7,0.969305876467926,-0.49,-0.6,-0.07111111111111111,-0.05186452018298053,-0.01291800783309695,-0.11954415091040899
1592289518.1672025,-0.26,9.702433164739885,1.0294653179190751,-0.49,-0.6,-0.07111111111111111,0.026127525306623024,0.019104119885506032,-0.11817445134820123
1592289518.1772025,-0.26015466066366516,9.71,1.0899337168584293,-0.4899852704129843,-0.5999901802753228,-0.07113075056046542,0.09365719942016512,0.017607540394473393,-0.23091147829459546
1592289518.1872025,-0.33,9.71,1.06,-0.48333333333333334,-0.5955555555555555,-0.08,0.02399827721492203,0.08726646259971647,-0.07526732399225547
1592289518.1972024,-0.441082624437053,9.71825037529803,1.0851667500662292,-0.48333333333333334,-0.5955555555555555,-0.08,-0.013526520042499837,0.0911574017049742,-0.11414656492253661
1592289518.2072024,-0.5846674220963173,9.646333144475921,1.1103354107648726,-0.48333333333333334,-0.5955555555555555,-0.08,0.027779906332168102,0.01410700686059553,-0.06966743755936941
1592289518.2172024,-0.584925661877978,9.634985132375595,1.1900297352488087,-0.48333333333333334,-0.5955555555555555,-0.08,0.08278531426967237,-0.011422908897723249,-0.08707403431278879
1592289518.2272024,-0.5095426774158562,9.620249448682259,1.2198337008784932,-0.48333333333333334,-0.5955232196152626,-0.08005543304050228,0.23869239674579792,0.01972565618535708,-0.16735756090652912
1592289518.2372024,-0.37965711325153667,9.710514330122695,1.11897133975461,-0.48333333333333334,-0.5877777777777777,-0.09333333333333334,0.14096643102923787,0.020740299136139787,-0.07146923529477016
1592289518.2472024,-0.2957276430745067,9.783622263669383,0.9557276430745067,-0.48333333333333334,-0.5877777777777777,-0.09333333333333334,0.02877364676201263,-0.006261328000875163,-0.12725919206040529
1592289518.2572024,-0.16297912167026637,9.849786897048237,0.8519150467962563,-0.48333333333333334,-0.5877777777777777,-0.09333333333333334,0.0619447382756058,0.050410046986192586,-0.11091589385813388
1592289518.2672024,-0.08,9.92,0.82,-0.48333333333333334,-0.5877777777777777,-0.09333333333333334,0.1712604328519436,0.10471975511965977,-0.2585268954516601
1592289518.2772024,0.03263777673104098,10.021623247219102,0.8206087177071633,-0.48308533723041497,-0.5881835895825532,-0.09288243132802719,0.13072890945770482,-0.005703907878734503,-0.3100899633961007
1592289518.2872024,0.16,10.1,0.85,-0.4711111111111111,-0.6077777777777778,-0.07111111111111111,0.06981317007977318,0.03490658503988659,-0.2716168648416175
1592289518.2972023,0.3458959488989746,10.214125063035803,0.7399789880652211,-0.4711111111111111,-0.6077777777777778,-0.07111111111111111,-0.02697326192337955,0.16123602984913807,-0.4888263211210944
1592289518.3072023,0.45426861009890684,10.273867777199376,0.6446694429984383,-0.4711111111111111,-0.6077777777777778,-0.07111111111111111,-0.1894133107566009,0.12910076005316723,-0.5591044374083748
1592289518.3172023,0.4871673888908785,10.3,0.7330986999964187,-0.4711111111111111,-0.6077777777777778,-0.07111111111111111,-0.2029029637296726,0.25210830774113024,-0.6401931279604302
1592289518.3272023,0.4473718389487356,10.29835739934296,0.8019711207884483,-0.4710198555190533,-0.6077777777777778,-0.0708920976901724,-0.1429346684942367,0.2971001686982466,-0.6905203037952563
1592289518.3372023,0.29,10.2,0.92,-0.46555555555555556,-0.6077777777777778,-0.057777777777777775,-0.14508049407202864,0.32070425005395803,-0.8879362569521151
1592289518.3472023,0.10724207767452942,10.086995472956874,0.9383744341196092,-0.46555555555555556,-0.6077777777777778,-0.057777777777777775,-0.15410798298883605,0.24245429528919038,-0.9262816749877631
1592289518.3572023,-0.049436150993629364,9.996995578587049,0.9464317295806789,-0.46555555555555556,-0.6077777777777778,-0.057777777777777775,-0.15829347623255194,0.26118523150259554,-0.96647607329186
1592289518.3672023,-0.15937602744621543,9.947551997712814,0.9775519977128153,-0.46555555555555556,-0.6077777777777778,-0.057777777777777775,-0.1631481634460976,0.21577507663097573,-1.0129402720502592
1592289518.3772023,-0.24931170037881495,9.940057358301765,0.9700573583017654,-0.46555555555555556,-0.6077777777777778,-0.057777777777777775,-0.2318213837816866,0.2852658353038932,-1.1551919427454078
1592289518.3872023,-0.48,9.85,0.93,-0.45111111111111113,-0.6266666666666667,-0.08666666666666667,-0.18435040224190105,0.3141592653589793,-1.1802789066611654
1592289518.3972023,-0.671943193334084,9.796846920391848,0.8506049431370342,-0.45111111111111113,-0.6266666666666667,-0.08666666666666667,-0.13250845742636708,0.12427874041290876,-1.288125173677352
1592289518.4072022,-0.8537122350191955,9.730633092495887,0.8037553949972578,-0.45111111111111113,-0.6266666666666667,-0.08666666666666667,-0.20058886869260445,0.21212812966851008,-1.307804092372133
1592289518.4172022,-1.0020705355207054,9.700532629905327,0.806567897665679,-0.45111111111111113,-0.6266666666666667,-0.08666666666666667,-0.18405335444335755,0.13144838091599267,-1.4044090387590271
1592289518.4272022,-1.1687876707378766,9.670220423502204,0.8596142588711426,-0.45111111111111113,-0.6266666666666667,-0.08666666666666667,-0.23199831179672956,0.1157422741967846,-1.4374745265889388
1592289518.4372022,-1.12,9.64,0.88,-0.39111111111111113,-0.6488888888888888,-0.09333333333333334,-0.2923426497090502,0.2617993877991494,-1.7136951593019323
1592289518.4472022,-1.263081048525869,9.727545887346565,0.7613837902948262,-0.39111111111111113,-0.6488888888888888,-0.09333333333333334,-0.3793130663154558,0.20426138018808443,-1.5988668241103468
1592289518.4572022,-1.2370641938721858,9.624403709191721,0.8069724200564027,-0.39111111111111113,-0.6488888888888888,-0.09333333333333334,-0.31447951212854547,0.31409919953700927,-1.827021481178094
1592289518.4672022,-1.3590988118353313,9.53007071984609,0.947031725956143,-0.39111111111111113,-0.6488888888888888,-0.09333333333333334,-0.315859101388536,0.31866717889907886,-1.7981786694281003
1592289518.4772022,-1.635545896645706,9.425469120188112,1.1114056682758253,-0.39111111111111113,-0.6488888888888888,-0.09333333333333334,-0.3370495925666622,0.22004989303164546,-1.7655779137694445
1592289518.4872022,-1.92,9.22,1.3,-0.3477777777777778,-0.6533333333333333,-0.09333333333333334,-0.296705972839036,0.19525871006686563,-1.930770485018727
1592289518.4972022,-2.4571087887800487,8.833672132936778,1.4674217577560096,-0.3477777777777778,-0.6533333333333333,-0.09333333333333334,-0.1731780853296287,0.04976919537727397,-2.171205197864867
1592289518.5072021,-2.741952311412224,8.719442196739365,1.5356972540757943,-0.3477777777777778,-0.6533333333333333,-0.09333333333333334,-0.11833342565424351,0.04611912734849013,-2.0896471903155227
1592289518.5172021,-2.95,8.66,1.61,-0.3477777777777778,-0.6533333333333333,-0.09333333333333334,-0.14508049407202864,0.07853981633974483,-2.1358466721280607
1592289518.5272021,-3.0855848654409805,8.632883026911804,1.7184678923527845,-0.3477777777777778,-0.6533333333333333,-0.09333333333333334,0.001833649825875111,0.015435754531249249,-1.9948485340247035
1592289518.5372021,-3.09,8.65,1.72,-0.27111111111111114,-0.7066666666666667,-0.10222222222222223,-0.1407171709420428,0.01308996938995747,-2.073669317525763
1592289518.547202,-3.0709062975448225,8.598187404910355,1.5809370245517735,-0.27111111111111114,-0.7066666666666667,-0.10222222222222223,0.017862146609955092,-0.06447463687580825,-2.2628874069171574
1592289518.557202,-3.1768948002551443,8.557651491884997,1.3383328214699142,-0.27111111111111114,-0.7066666666666667,-0.10222222222222223,-0.08107697911300013,0.04184817456235051,-2.17382711208787
1592289518.567202,-3.5031127835833016,8.539652931940008,1.1682754886566677,-0.27111111111111114,-0.7066666666666667,-0.10222222222222223,-0.14327742503049679,0.031598595951897984,-2.0862730229148383
1592289518.577202,-3.6923623368888405,8.494233039146678,1.1607055065244463,-0.27111111111111114,-0.7066666666666667,-0.10222222222222223,-0.19282284222714938,0.07453795752233024,-2.1415987387844337
1592289518.587202,-3.9959398599793414,8.328922300011477,1.2206766900034431,-0.20777777777777778,-0.72,-0.08888888888888889,-0.22932325336717746,0.029012267823708564,-2.138520428203978
1592289518.597202,-4.12,8.26,1.2,-0.20777777777777778,-0.72,-0.08888888888888889,-0.26616271092913524,-0.01308996938995747,-2.023491101530926
1592289518.607202,-4.6157079439252335,7.945693146417446,1.2943216510903426,-0.20777777777777778,-0.72,-0.08888888888888889,-0.21208774833526808,-0.014982102036979361,-2.237908504205572
1592289518.617202,-4.617326508213534,7.86160744165962,1.4319627917019018,-0.20777777777777778,-0.72,-0.08888888888888889,-0.2048417857700625,-0.10331699764495553,-2.188184430428964
1592289518.627202,-4.7456179492254265,7.86915399701326,1.394230014933698,-0.20777777777777778,-0.72,-0.08888888888888889,-0.18837775600693296,-0.09673138573970372,-2.1215051098882896
1592289518.637202,-4.86,7.72,1.3,-0.12777777777777777,-0.7411111111111112,-0.11,-0.2574360646691636,-0.1341721862470641,-2.1663899340379613
1592289518.647202,-4.914819555789197,7.537979760809568,1.5117605467209883,-0.12777777777777777,-0.7411111111111112,-0.11,-0.1883185948944632,0.013124547965951444,-2.1620736905280276
1592289518.657202,-5.049630980476293,7.5411070585711215,1.4171143531431025,-0.12777777777777777,-0.7411111111111112,-0.11,-0.23915359097299527,0.11637673654968894,-2.365779337799541
1592289518.667202,-5.182618827708703,7.295615097690941,1.6202314387211367,-0.12777777777777777,-0.7411111111111112,-0.11,-0.19253231124699013,0.16331234526573846,-2.240894625873381
1592289518.677202,-5.450815630550622,7.273265364120781,1.6723808170515098,-0.12777777777777777,-0.7411111111111112,-0.11,-0.2453551621913272,0.022722295829272182,-2.314846617195453
1592289518.687202,-5.55,7.16,1.75,-0.05444444444444444,-0.7533333333333333,-0.10222222222222223,-0.20616701789183017,0.0916297857297023,-2.127120025868089
1592289518.697202,-5.91334934895093,7.114417751748451,1.7380715869676466,-0.05444444444444444,-0.7533333333333333,-0.10222222222222223,-0.17141543291593736,0.094354536754611,-2.1520593749001162
1592289518.707202,-6.3053961456102785,6.568323175753583,1.5550304727392523,-0.05444444444444444,-0.7533333333333333,-0.10222222222222223,-0.18909284791365388,-0.08502155405145248,-2.2315837385128585
1592289518.717202,-6.634774601329507,6.521803189363943,1.5919365033237678,-0.05444444444444444,-0.7533333333333333,-0.10222222222222223,-0.2015432806566256,-0.16797617194248676,-2.164242904537479
1592289518.727202,-6.665246467361691,6.27802826110647,1.6681161684042283,-0.05444444444444444,-0.7533333333333333,-0.10222222222222223,-0.19988129818322486,-0.0773981271421467,-2.1226933427024606
1592289518.737202,-7.05,6.41,1.74,0.03,-0.7333333333333333,-0.0811111111111111,-0.16689710972195776,-0.15598880189699318,-2.0300360862259046
1592289518.747202,-7.5654763971785135,6.1490141074335325,1.69,0.03,-0.7333333333333333,-0.0811111111111111,-0.1262950621911712,-0.22527688758789402,-2.1417427811926264
1592289518.757202,-7.421030095074701,5.793090285224105,1.7288695880096265,0.03,-0.7333333333333333,-0.0811111111111111,-0.23354615053790798,-0.278477061605587,-1.8448126450647933
1592289518.767202,-7.388171906232964,5.636592767581319,1.930692349627476,0.03,-0.7333333333333333,-0.0811111111111111,-0.3198158067381032,-0.2915780968600426,-1.7741503373026801
1592289518.777202,-7.510121388333636,5.613727239687443,1.8011210248955116,0.03,-0.7333333333333333,-0.0811111111111111,-0.26993096336876043,-0.24252466754685556,-1.9163221409053073
1592289518.787202,-7.66,5.58,2.02,0.09555555555555556,-0.7144444444444444,-0.12444444444444444,-0.2083486794568231,-0.18216874067690814,-1.5991579271398042
1592289518.7972019,-8.203758281305378,5.53082881212683,2.1941983151121898,0.09555555555555556,-0.7144444444444444,-0.12444444444444444,-0.10269458505054996,-0.17154974286181643,-1.6198228938565187
1592289518.8072019,-9.090338218714768,5.516557685080797,1.8706877113866969,0.09555555555555556,-0.7144444444444444,-0.12444444444444444,0.02648000947994779,-0.22482059321190484,-1.2347130434316047
1592289518.8172019,-9.509221561204255,5.121888948981431,1.974499188750676,0.09555555555555556,-0.7144444444444444,-0.12444444444444444,0.07857603970915818,-0.4490707465841788,-0.8606105623784271
1592289518.8272018,-9.342871101496305,5.13701171804579,1.770341806381828,0.09555555555555556,-0.7144444444444444,-0.12444444444444444,0.043933637483983275,-0.4375232791757872,-0.764106727608297
1592289518.8372018,-9.445701206639852,5.021187306948734,1.8823746138974689,0.18444444444444444,-0.6966666666666667,-0.12444444444444444,0.1254254449065678,-0.45732607267325265,-0.6352811003974947
1592289518.8472018,-8.778151247678885,5.034649861369013,1.9081372573957722,0.18444444444444444,-0.6966666666666667,-0.12444444444444444,0.09944587560989109,-0.3597465191288848,-0.5494891987374699
1592289518.8572018,-8.12433856819468,5.105364082248633,2.0411589794378417,0.18444444444444444,-0.6966666666666667,-0.12444444444444444,-0.049896248275592345,-0.3334731795694499,-0.43509386200620226
1592289518.8672018,-8.281857834634287,5.080452804278694,2.059648742411101,0.18444444444444444,-0.6966666666666667,-0.12444444444444444,-0.004133425575652225,-0.41693234165050874,-0.5391607744176562
1592289518.8772018,-8.016606858918763,5.178974595258746,2.1505919340849955,0.18444444444444444,-0.6966666666666667,-0.12444444444444444,-0.06365560533746772,-0.2854875280098328,-0.511053078419021
1592289518.8872018,-8.19,5.51,2.18,0.2088888888888889,-0.6822222222222222,-0.08888888888888889,0.10035643198967394,-0.3359758810089084,-0.5050546522958591
1592289518.8972018,-8.350711287313432,5.536785214552239,2.1978568097014928,0.2088888888888889,-0.6822222222222222,-0.08888888888888889,0.13054850642400653,-0.34961101139860706,-0.2469611127765644
1592289518.9072018,-8.177264198358184,5.431827776847044,2.140896297537276,0.2088888888888889,-0.6822222222222222,-0.08888888888888889,0.1197996820218645,-0.38825589710920555,-0.18286848788183008
1592289518.9172018,-8.24929742888111,5.34929742888111,2.2640514223777966,0.2088888888888889,-0.6822222222222222,-0.08888888888888889,0.0600493633306069,-0.22438669661515145,-0.12706268465341605
1592289518.9272017,-8.241844737824055,5.341844737824055,2.413105243518897,0.2088888888888889,-0.6822222222222222,-0.08888888888888889,0.02590493909722584,-0.23251632143262313,-0.040075699106469104
1592289518.9372017,-8.285825991672146,5.1765053692746,2.6882526846373,0.22333333333333333,-0.6911111111111111,-0.11666666666666667,0.12136825214776122,-0.19464451711345998,0.012994536637739067
1592289518.9472017,-7.999714120426168,4.982858795738322,2.591143518295328,0.22333333333333333,-0.6911111111111111,-0.11666666666666667,0.08935583240251099,-0.16917106304914908,0.06258527893242502
1592289518.9572017,-8.011687947007152,5.08394326309221,2.6390695051120816,0.22333333333333333,-0.6911111111111111,-0.11666666666666667,0.15643782121131655,-0.10372361869083993,0.2305610897539413
1592289518.9672017,-8.519613799557291,5.174471538862994,2.8586178847157484,0.22333333333333333,-0.6911111111111111,-0.11666666666666667,0.06504411529947986,-0.22935603046807035,0.3719710785384482
1592289518.9772017,-8.074270880198679,5.053700577680997,2.8284251444202493,0.22333333333333333,-0.6911111111111111,-0.11666666666666667,0.1514989379203903,-0.021041076914829038,0.3480930799098158
1592289518.9872017,-8.6,5.12,3.0,0.24444444444444444,-0.6911111111111111,-0.12444444444444444,0.15162547876700738,-0.03490658503988659,0.46469391334349025
1592289518.9972017,-8.303593865844617,5.399939126702306,2.8517969329223085,0.24444444444444444,-0.6911111111111111,-0.12444444444444444,0.22527262513120797,0.047721920637021374,0.4611013696184073
1592289519.0072017,-7.68301428673647,5.635205714694588,2.378140816180504,0.24444444444444444,-0.6911111111111111,-0.12444444444444444,0.24174154718432322,0.26264253310332963,0.5531323289233282
1592289519.0172017,-8.01516635675988,5.773127651508313,2.3319903236871085,0.24444444444444444,-0.6911111111111111,-0.12444444444444444,0.11970168861028604,0.23055794535086604,0.5576210852702288
1592289519.0272017,-7.886444135540591,5.856418500532558,2.3849935912479916,0.24444444444444444,-0.6911111111111111,-0.12444444444444444,0.1700855935463823,0.2991130946901446,0.6212204406813667
1592289519.0372016,-7.63695436257041,5.755607771008162,2.44194758018163,0.23777777777777778,-0.6788888888888889,-0.13777777777777778,0.09407663742445996,0.3205701753013836,0.7192325990348346
1592289519.0472016,-7.82027016595909,5.639961404862987,2.2300096487842533,0.23777777777777778,-0.6788888888888889,-0.13777777777777778,0.043769006262172054,0.2597387659292425,0.872838291646636
1592289519.0572016,-8.100750266935579,5.608753114248428,2.238124332661051,0.23777777777777778,-0.6788888888888889,-0.13777777777777778,0.18643735862637068,0.38238977961107873,1.0543567348349538
1592289519.0672016,-8.155952677459528,6.298650892486509,2.0909385095746025,0.23777777777777778,-0.6788888888888889,-0.13777777777777778,0.35010218590809455,0.17117085427774972,1.188775208016067
1592289519.0772016,-7.633623910336239,6.1245413034454135,2.2120582236901476,0.23777777777777778,-0.6788888888888889,-0.13777777777777778,0.20229169127141425,0.15961025693186412,1.1590479576980754
1592289519.0872016,-7.83,6.22,1.76,0.23777777777777778,-0.6855555555555556,-0.10777777777777778,0.2748893571891069,0.33815754257390135,1.3079061082132508
1592289519.0972016,-7.7781103660135615,5.864185366950137,2.093576218484247,0.23777777777777778,-0.6855555555555556,-0.10777777777777778,0.2029229272749007,0.24678443493002156,1.3111405545015298
1592289519.1072016,-8.089792920505433,5.240313756809949,1.8702133546307653,0.23777777777777778,-0.6855555555555556,-0.10777777777777778,0.25520580281088623,0.20617249398121434,1.4572588854292534
1592289519.1172016,-7.821810491896503,5.408860060657758,2.0984577291252013,0.23777777777777778,-0.6855555555555556,-0.10777777777777778,0.021214906318668653,0.13682198180723695,1.36850159793188
1592289519.1272016,-7.60349133528073,5.611577032669665,2.0328076557767782,0.23777777777777778,-0.6855555555555556,-0.10777777777777778,0.1849569753920253,0.12088035813306836,1.3825608967359133
1592289519.1372015,-6.8,6.74,2.06,0.20555555555555555,-0.7055555555555556,-0.10111111111111111,0.074176493209759,0.2596177262341565,1.4638949101102439
1592289519.1472015,-6.788452316076294,6.815059945504087,1.9676185286103542,0.20555555555555555,-0.7055555555555556,-0.10111111111111111,0.20895978247829794,0.3799149610486001,1.4771213076552874
1592289519.1572015,-6.939331063083719,7.019372871640986,1.7406689369162818,0.20555555555555555,-0.7055555555555556,-0.10111111111111111,0.13924240332625865,0.2822142055312772,1.5758765110052169
1592289519.1672015,-6.94,7.000342209791524,2.03486685312713,0.20555555555555555,-0.7055555555555556,-0.10111111111111111,0.23074179688067786,0.45834175395499976,1.680250595682401
1592289519.1772015,-7.268156516508015,6.489534307654199,1.6826740153579391,0.20555555555555555,-0.7055555555555556,-0.10111111111111111,0.09950282476688704,0.24505253549826794,1.8833159490761762
1592289519.1872015,-7.1,6.22,1.88,0.16666666666666666,-0.7244444444444444,-0.08666666666666667,0.1778054175469223,0.1090830782496456,1.9394971312786988
1592289519.1972015,-6.934615920167092,6.288910033263711,1.7421799334725767,0.16666666666666666,-0.7244444444444444,-0.08666666666666667,0.3116065677492245,-0.006677467430997869,2.134185321741599
1592289519.2072015,-6.427670131670132,6.122632016632017,1.257068607068607,0.16666666666666666,-0.7244444444444444,-0.08666666666666667,0.43143574521580863,-0.1460481055769458,2.1164251973313966
1592289519.2172015,-6.9494947714442254,6.8868719182487315,1.476325242371549,0.16666666666666666,-0.7244444444444444,-0.08666666666666667,0.05596228769025341,-0.38518705359762906,2.0889975674339314
1592289519.2272015,-5.9524530911715186,6.84237972095261,1.5218619196535963,0.16666666666666666,-0.7244444444444444,-0.08666666666666667,0.2608203428991027,-0.31213222781096644,1.9896645229363266
1592289519.2372015,-6.014709705372616,7.272625649913345,1.4906412478336222,0.1338677065280185,-0.7320975351434623,-0.0932264586943963,0.1263941090427555,-0.23971384549616984,1.9903464823303576
1592289519.2472014,-5.681581685744016,7.699344432882414,1.4752861602497398,0.13333333333333333,-0.7322222222222222,-0.09333333333333334,0.06147018750813015,-0.31994600347465774,1.835078177571486
1592289519.2572014,-4.727710786622704,7.655799183545297,1.1648272884283246,0.13333333333333333,-0.7322222222222222,-0.09333333333333334,0.13106734055225705,-0.18665500849157005,1.6752424179507788
1592289519.2672014,-5.439406787808864,7.414629362561293,1.3465897509854823,0.13333333333333333,-0.7322222222222222,-0.09333333333333334,0.09244027897911414,-0.09251935660722704,1.8153185113812667
1592289519.2772014,-5.328062931726122,7.623627379997261,1.3368661331037317,0.13333333333333333,-0.7322222222222222,-0.09333333333333334,-0.05523331150607526,-0.01829042931480751,2.0116998916683975
1592289519.2872014,-5.35,7.07,0.66,0.051111111111111114,-0.7466666666666667,-0.06555555555555556,-0.07635815477475191,0.08508480103472357,1.8249598991165707
1592289519.2972014,-5.856248084554634,7.215738084947546,1.695507445679934,0.051111111111111114,-0.7466666666666667,-0.06555555555555556,-0.0596238822228712,-0.14668487380882447,2.083504410043128
1592289519.3072014,-4.322431303639188,7.727750019100007,1.61562253291568,0.051111111111111114,-0.7466666666666667,-0.06555555555555556,0.18456911288316713,-0.25209152998574724,2.18403679644846
1592289519.3172014,-4.804397946816853,7.981465982272284,1.5340291342886339,0.051111111111111114,-0.7466666666666667,-0.06555555555555556,0.026642779102660913,-0.24723097343761563,1.8911638478769994
1592289519.3272014,-4.077519065166414,7.764496029321931,1.3400774430015567,0.051111111111111114,-0.7466666666666667,-0.06555555555555556,0.022510016626967576,-0.2697311744482051,1.7567617914216256
1592289519.3372014,-4.250531038721573,8.329938537185004,1.56340135218193,0.003369664686198183,-0.762919073960254,-0.052350474629515815,-0.025676292754216515,-0.37779177615693205,1.6416457525952761
1592289519.3472013,-3.6636632288774296,8.568011503371679,1.3856164220547402,-0.0011111111111111111,-0.7644444444444445,-0.051111111111111114,0.026991679576409723,-0.2865587801851985,1.6685854770714772
1592289519.3572013,-4.01303101104503,8.350051508071369,0.8106494265080714,-0.0011111111111111111,-0.7644444444444445,-0.051111111111111114,-0.026353132494850384,-0.2171405485004126,1.6574442735123118
1592289519.3672013,-4.530234840184823,8.435485161720573,1.3415729052541323,-0.0011111111111111111,-0.7644444444444445,-0.051111111111111114,0.0059321490712582955,-0.25693632356257284,1.55299263093185
1592289519.3772013,-3.789175870858114,8.35875106202209,1.4252081563296517,-0.0011111111111111111,-0.7644444444444445,-0.051111111111111114,-0.043837124904063184,-0.28668367540325296,1.6184851872402133
1592289519.3872013,-3.271675966586324,8.737455013702249,1.5890068346155117,-0.07178081538467182,-0.7567149455395238,-0.07982067847224515,0.027806370465984054,-0.30970114688381134,1.651463635930959
1592289519.3972013,-3.349239842726081,8.85525795305612,1.5251674014059335,-0.07222222222222222,-0.7566666666666667,-0.08,-0.058075659300879476,-0.16206680756164787,1.7230249922247856
1592289519.4072013,-3.4240648435724568,8.794244375426103,1.852518748579653,-0.07222222222222222,-0.7566666666666667,-0.08,0.07372168428415786,-0.35755368891992273,1.6613782506086199
1592289519.4172013,-3.3033449934411894,8.906655006558811,1.429567118495846,-0.07222222222222222,-0.7566666666666667,-0.08,-0.08953493273594434,-0.3669369687891489,1.438149968126847
1592289519.4272013,-2.8562485207100594,8.79607100591716,1.486224852071006,-0.07222222222222222,-0.7566666666666667,-0.08,-0.0791491324691393,-0.31991936826016176,1.4385902178043322
1592289519.4372013,-3.1432881355932203,8.79522033898305,1.5873220338983052,-0.10853107344632767,-0.755758945386064,-0.056399246704331454,-0.12254651851767812,-0.23457299101433113,1.587473095706961
1592289519.4472013,-3.1971213165254753,8.765703862834908,1.545708726845284,-0.11666666666666667,-0.7555555555555555,-0.051111111111111114,-0.043929207192932335,-0.2695977822068358,1.6340676956670381
1592289519.4572012,-2.9465745759235933,9.104235783552573,1.5,-0.11666666666666667,-0.7555555555555555,-0.051111111111111114,-0.05730579949932296,-0.3686746945974956,1.6157473882927162
1592289519.4672012,-2.0783471863953378,9.208516528136046,1.6618140345848857,-0.11666666666666667,-0.7555555555555555,-0.051111111111111114,-0.12010542463233889,-0.364583144950075,1.710680940708787
1592289519.4772012,-2.1154779122216656,9.280353690842702,1.6963957900766091,-0.11666666666666667,-0.7555555555555555,-0.051111111111111114,-0.09265493392552449,-0.4891322092187248,1.6501298012152406
1592289519.4872012,-2.254585464493874,9.328646366123468,1.1120471036041395,-0.1733484001427382,-0.7363414086145144,-0.0684038433580482,-0.06474477088554498,-0.35318913107046956,1.542510372262549
1592289519.4972012,-1.7541323181937516,9.500517196114465,1.6850170648464164,-0.18222222222222223,-0.7333333333333333,-0.07111111111111111,-0.019866923875910776,-0.30458378149351556,1.4991362762435245
1592289519.5072012,-1.8437473497759052,9.32778186307399,1.2261691849386758,-0.18222222222222223,-0.7333333333333333,-0.07111111111111111,-0.3049959179159342,-0.23977383359967316,1.7517034147141635
1592289519.5172012,-0.8048087931681682,8.378449934309309,1.9162664226726727,-0.18222222222222223,-0.7333333333333333,-0.07111111111111111,-0.2801744251645595,-0.3079690105222068,1.8832524230612069
1592289519.5272012,-0.9040472297910991,8.565324250681199,2.06621217075386,-0.18222222222222223,-0.7333333333333333,-0.07111111111111111,-0.21117025545033444,-0.28412604857789703,1.7779504226994292
1592289519.5372012,-1.6282045774647889,9.188041197183098,1.4992647887323944,-0.22227668231611894,-0.7233197183098591,-0.049414945226917056,-0.26655014790459447,-0.26289467408765893,1.9067723998514778
1592289519.5472012,-0.9455225875434375,9.444287623630046,1.8249184709970596,-0.23555555555555555,-0.72,-0.042222222222222223,-0.12844277324378345,-0.27584401636630373,1.8445149580840507
1592289519.5572011,-0.7724863760217984,9.286702997275205,1.0760013623978202,-0.23555555555555555,-0.72,-0.042222222222222223,-0.16945600454801835,-0.32493778314533617,1.7846640551835058
1592289519.5672011,-0.4164253007188783,9.62169588839593,1.2741806448551567,-0.23555555555555555,-0.72,-0.042222222222222223,-0.2679673217059673,-0.2615615991628929,1.6347458640981418
1592289519.5772011,-0.2944131439030768,9.395649437810512,1.4530359975594875,-0.23555555555555555,-0.72,-0.042222222222222223,-0.21398207456089974,-0.2935171301840805,1.6990346712131659
1592289519.587201,-0.06731476997578695,9.637918482647295,1.6751509281678774,-0.279762622186351,-0.6891384629181239,-0.0405540310286073,-0.055805546997647795,-0.1757580188506386,1.6006430065295663
1592289519.597201,-0.1815726698909747,10.614060578735963,2.004686859578654,-0.29444444444444445,-0.6788888888888889,-0.04,-0.07092872540619621,-0.32909704790615446,1.3847158771258006
1592289519.607201,4.5879671110872655,10.404677415028033,0.6296622582289346,-0.29444444444444445,-0.6788888888888889,-0.04,-0.2829010245476451,-0.1264291517340692,0.5224176104373501
1592289519.617201,2.6678335503729134,8.750568249082514,3.263714928376939,-0.29444444444444445,-0.6788888888888889,-0.04,-0.053266428062153204,0.14306064273202307,0.17962962444091368
1592289519.627201,0.5083427587902631,9.234089009097616,2.901079419719695,-0.29444444444444445,-0.6788888888888889,-0.04,0.16408916591523157,0.17616179545812508,0.2820684023635107
1592289519.637201,-0.42379849056603774,9.81310075471698,1.8354256603773584,-0.3450389098532495,-0.6704564779874214,-0.04,0.2239415086229365,0.09743041219676091,0.40587368309203303
1592289519.647201,-0.40417564010528834,9.646445720666826,1.9279867591927893,-0.36777777777777776,-0.6666666666666666,-0.04,0.314787382725083,0.09284669243178378,0.46599487065862844
1592289519.657201,-0.013515102698348769,9.779058128607867,1.8260883340045644,-0.36777777777777776,-0.6666666666666666,-0.04,0.37311672882429575,0.08419257203867114,0.491537986338035
1592289519.667201,0.1634014663931914,9.92288634273994,1.6771136572600607,-0.36777777777777776,-0.6666666666666666,-0.04,0.46235347606943883,0.17831023892185227,0.5318749915790092
1592289519.677201,0.4314950523447584,9.93,1.7157263731535923,-0.36777777777777776,-0.6666666666666666,-0.04,0.4540852398237062,0.2077240290460231,0.6683992485745769
1592289519.687201,0.5287734672553844,9.917836462300718,1.6648552361050255,-0.3839958280434872,-0.6578818894394074,-0.04473026466083192,0.42660403193435203,0.09054086681483503,0.8596303581352495
1592289519.697201,0.37649086282674066,10.097018274346519,1.3450574446757653,-0.39444444444444443,-0.6522222222222223,-0.04777777777777778,0.3849769687131264,0.07015465924446866,1.0533778321925322
1592289519.707201,0.5230955455132343,10.234328599096191,1.1146578437701744,-0.39444444444444443,-0.6522222222222223,-0.04777777777777778,0.370036702478893,0.043448022458156134,1.1250827986452319
1592289519.717201,1.090100240888958,10.121187349444401,0.8908249799259201,-0.39444444444444443,-0.6522222222222223,-0.04777777777777778,0.2792955710158013,0.08356588267262746,1.1964218573164453
1592289519.727201,1.3279140517925412,10.130874990983193,0.8345625045084037,-0.39444444444444443,-0.6522222222222223,-0.04777777777777778,0.11518151712548941,0.1933957681213275,1.2194695578660468
1592289519.737201,1.3079807146908677,10.034218661372659,1.2144533465683494,-0.39444444444444443,-0.6564730257767694,-0.029357629041406694,0.0027519810623077776,0.22932946071463373,1.2850091802852508
1592289519.747201,1.1490006357784313,9.75012119526345,1.33284073750298,-0.39444444444444443,-0.6588888888888889,-0.01888888888888889,-0.21942143979664072,0.1487679321034105,1.306937511508742
1592289519.757201,0.9364844548049975,9.625260221587784,1.16,-0.39444444444444443,-0.6588888888888889,-0.01888888888888889,-0.5397680655156232,0.011044708101442154,1.390402904002197
1592289519.767201,0.9317694598043386,9.660974053594215,1.080178647384092,-0.39444444444444443,-0.6588888888888889,-0.01888888888888889,-0.6368308155055724,-0.12230574759868176,1.3559717965378595
1592289519.777201,1.3302760103636075,9.361302677265277,0.9270363255018771,-0.39444444444444443,-0.6588888888888889,-0.01888888888888889,-0.7552716847101881,-0.19139088178021832,1.3829436419537764
1592289519.787201,1.7907628435863874,9.472288530759162,0.9280509653141361,-0.41916198552937756,-0.6377024251018033,-0.013239165212332753,-0.95164830623679,-0.25916480479791953,1.3278645011210892
1592289519.797201,1.9427939428790493,9.545459842821545,1.0624447000191681,-0.43333333333333335,-0.6255555555555555,-0.01,-0.996387251349837,-0.2784596377674629,1.2590403182593517
1592289519.807201,2.3634877384196185,9.068256130790191,1.250340599455041,-0.43333333333333335,-0.6255555555555555,-0.01,-0.8387938843570057,-0.1909563189015696,1.1922319747587389
1592289519.817201,2.5170219629049857,8.66361273184384,1.7531976661448696,-0.43333333333333335,-0.6255555555555555,-0.01,-0.7442128720747421,-0.040138857523814964,1.3441609023531773
1592289519.827201,2.519241554465435,8.64455067320739,2.312893574087604,-0.43333333333333335,-0.6255555555555555,-0.01,-0.6354754971748671,0.014470367680036574,1.3701270876975888
1592289519.8372009,2.462719886702445,8.802605843768633,2.586742695289207,-0.4475352812562115,-0.6048443815013582,-0.014142234810839462,-0.4077433749324566,0.02181661564992912,1.4273218322470085
1592289519.8472009,2.396502104559223,8.895829825734628,2.66761103025058,-0.46,-0.5866666666666667,-0.017777777777777778,-0.257850366671642,0.036432829848188145,1.5322965783702838
1592289519.8572009,1.9116102152149153,8.875442419519214,3.0192746238235117,-0.46,-0.5866666666666667,-0.017777777777777778,-0.11615000203044025,0.10940958853661907,1.6623222020807773
1592289519.8672009,1.6296436318562133,8.742554408714929,2.687940692712927,-0.46,-0.5866666666666667,-0.017777777777777778,0.02768324718398757,-0.14481461853268454,1.6283231086747258
1592289519.8772008,1.6932516293567583,9.152031028620005,2.75390195522811,-0.46,-0.5866666666666667,-0.017777777777777778,0.09754504670361532,-0.17528706359603133,1.595003056548483
1592289519.8872008,1.973752551420945,8.918546475113832,2.4680412937666825,-0.48934936585195654,-0.5560412414298425,-0.017777777777777778,0.15448524863402557,-0.17865445521320125,1.514195713973282
1592289519.8972008,2.177922265048089,8.761392240913512,2.4999081445192894,-0.5111111111111111,-0.5333333333333333,-0.017777777777777778,0.18794333423606233,-0.18131791545687298,1.5350993108620055
1592289519.9072008,2.282701701647968,9.026748080949059,2.84188254871437,-0.5111111111111111,-0.5333333333333333,-0.017777777777777778,0.13732531316698787,-0.022051306174178713,1.742176125074406
1592289519.9172008,2.353316630128406,8.860507359849672,2.6712746633260256,-0.5111111111111111,-0.5333333333333333,-0.017777777777777778,0.11000514285407964,-0.03850704404919763,1.7826118871727263
1592289519.9272008,3.1593479570929253,8.962065204290708,2.7546255674741875,-0.5111111111111111,-0.5333333333333333,-0.017777777777777778,0.025663469342298115,-0.17153838850812386,1.8391051358652974
1592289519.9372008,3.2963735862823786,8.809298066399124,2.4038008026267788,-0.5308252462604889,-0.5098894969394787,-0.0017933438728768916,-0.010799662511713368,-0.019175539617474008,1.8518096183441113
1592289519.9472008,2.8863403880070546,8.728243546576879,2.2134311367644703,-0.5522222222222222,-0.48444444444444446,0.015555555555555555,0.10045017662642527,0.0537431356420432,1.8361606342412522
1592289519.9572008,2.951406095773637,9.019084138426106,2.5504902341997426,-0.5522222222222222,-0.48444444444444446,0.015555555555555555,-0.06192406834726493,-0.05896140548293852,1.7252603539197062
1592289519.9672008,2.926426935737799,8.969977100329183,1.8401373980249034,-0.5522222222222222,-0.48444444444444446,0.015555555555555555,-0.013722579427266138,-0.10948782689765219,1.5345860373827132
1592289519.9772007,2.9461567499550605,8.98768650008988,1.8685205824195577,-0.5522222222222222,-0.48444444444444446,0.015555555555555555,-0.0028546314095961546,-0.12511866331723415,1.4496231256697552
1592289519.9872007,3.168922121538559,9.115199290285787,2.0962771687472275,-0.5800785050940301,-0.4698530581782594,0.019535024537242394,-0.022628811435641896,-0.06727282903120038,1.469942900107412
1592289519.9972007,3.4772480975337663,9.037072393322443,1.9659229451372564,-0.5988888888888889,-0.46,0.022222222222222223,-0.01800055500901439,0.04019367438693135,1.494179665247194
1592289520.0072007,3.997909107193122,8.358306763223215,1.903613705570767,-0.5988888888888889,-0.46,0.022222222222222223,-0.07204320570106401,0.12963655322121728,1.3425982060929564
1592289520.0172007,4.268648176927675,8.595411835026898,2.4042524805738195,-0.5988888888888889,-0.46,0.022222222222222223,-0.1347307854986961,0.13331329230016215,1.295785876304579
1592289520.0272007,4.204960464709654,8.523196627358033,2.4662203485322403,-0.5988888888888889,-0.46,0.022222222222222223,-0.2487447247656048,0.23286839298599388,1.322279313193551
1592289520.0372007,4.281319978536934,8.300195552375842,2.1441444583556906,-0.6083795054220739,-0.4259454347926893,0.03673728280238744,-0.33368756216833606,0.31853325421652307,1.3510979149655507
1592289520.0472007,3.84672091446285,7.0679821757241115,2.025039232781168,-0.6177777777777778,-0.39222222222222225,0.051111111111111114,-0.019123194569327318,0.03318659543931557,1.2481855796976564
1592289520.0572007,4.452221434981815,9.080198148410561,3.222337631665958,-0.6177777777777778,-0.39222222222222225,0.051111111111111114,-0.4036640410019067,0.24494406592991994,1.0712741202906944
1592289520.0672007,5.072960893854749,10.667059856344771,3.885409417398244,-0.6177777777777778,-0.39222222222222225,0.051111111111111114,-0.7444322005344717,0.49963532139319317,1.0132700150776972
1592289520.0772007,4.251027908713306,8.12728753441919,2.607373407383208,-0.6177777777777778,-0.39222222222222225,0.051111111111111114,-0.41004961405931384,0.47278058042920684,1.1332540301017706
1592289520.0872006,4.1592769540545484,8.231446091890902,2.7801751174568308,-0.6255583351977275,-0.36828204554545396,0.04752008460959587,-0.3388212660813182,0.34956637193674944,1.2805755689246399
1592289520.0972006,4.272145331475214,8.035743977702568,3.0734254429623733,-0.6322222222222222,-0.3477777777777778,0.044444444444444446,-0.24535001575329024,0.35726408545836563,1.2946877495820803
1592289520.1072006,4.064594883524352,8.428253238197051,2.1847129751634635,-0.6322222222222222,-0.3477777777777778,0.044444444444444446,0.020903445222357313,0.2118194972776087,1.1549486242573441
1592289520.1172006,4.614970069876702,8.59579046528821,1.954168514941213,-0.6322222222222222,-0.3477777777777778,0.044444444444444446,0.1762354443315714,0.05017821599483697,0.9343063598181597
1592289520.1272006,4.89339140625,8.50725859375,1.93242109375,-0.6322222222222222,-0.3477777777777778,0.044444444444444446,0.4080745120203214,0.09762858804303887,0.6186968066682558
1592289520.1372006,4.884006203929156,8.543501550982288,2.020704446149228,-0.6425668849530629,-0.32763290824929864,0.044444444444444446,0.5756214092195356,0.1361244462549495,0.3491943589317293
1592289520.1472006,5.1696455755493975,8.579291151098793,2.227561185057965,-0.6533333333333333,-0.30666666666666664,0.044444444444444446,0.610691260502661,0.09408761453210776,0.2216347250306049
1592289520.1572006,5.304675935715796,8.280322478325228,2.5313689469232394,-0.6533333333333333,-0.30666666666666664,0.044444444444444446,0.6387336695403903,0.018939344742904943,0.01260680562853081
1592289520.1672006,5.59,8.3,2.92,-0.6533333333333333,-0.30666666666666664,0.044444444444444446,0.74176493209759,0.14289883250703572,-0.11671889372712078
1592289520.1772006,5.166471394313121,9.025827338129496,1.9008005024551786,-0.6533333333333333,-0.30666666666666664,0.044444444444444446,1.0180075821519523,0.08458279714601045,-0.4070837975947074
1592289520.1872005,4.825955391751922,8.89768825061956,1.9687106818326237,-0.650251848086251,-0.28869133605868685,0.04341728269541703,0.9307548829678723,0.0961336130216072,-0.49594503341891516
1592289520.1972005,4.6773924030323695,8.290194536921904,1.569337772251414,-0.6466666666666666,-0.2677777777777778,0.042222222222222223,0.8166376388331236,0.01210073537762494,-0.5272997507925649
1592289520.2072005,5.652833392578819,9.481744825134669,1.36061633534768,-0.6466666666666666,-0.2677777777777778,0.042222222222222223,0.4573314990569139,0.2030445889734715,-0.76115344928102
1592289520.2172005,6.31,10.77,0.62,-0.6466666666666666,-0.2677777777777778,0.042222222222222223,0.14726215563702155,0.22580197197676635,-0.8726646259971648
1592289520.2272005,3.8718431413178616,6.964896394529631,0.7141587235806048,-0.6466666666666666,-0.2677777777777778,0.042222222222222223,0.5116584053297208,-0.18410323617048377,-0.8093430970432304
1592289520.2372005,5.497042309872303,8.430490447771147,2.176192444903811,-0.6389736123614028,-0.27547083208304163,0.060493226197223804,0.40462457204377206,-0.024600119904507972,-1.0034175689145977
1592289520.2472005,4.511162032002486,9.839083423955259,0.11888302004039149,-0.6288888888888889,-0.28555555555555556,0.08444444444444445,0.5355648689979632,0.059402065535194615,-1.004972045748875
1592289520.2572005,4.632048426150122,8.866505246166263,1.087310196394942,-0.6288888888888889,-0.28555555555555556,0.08444444444444445,0.2459384382285598,-0.18318103868636287,-1.0354525582597427
1592289520.2672005,4.378875784668062,8.90145139813582,1.624253376450447,-0.6288888888888889,-0.28555555555555556,0.08444444444444445,0.1143555653654614,-0.2537476373200547,-1.0715884195928937
1592289520.2772005,4.041408629946312,8.990850268443031,1.423527937959833,-0.6288888888888889,-0.28555555555555556,0.08444444444444445,0.0775631876664121,-0.2544618860172732,-1.122087650330265
1592289520.2872005,4.026056991582141,8.723088134685744,1.0530881346857432,-0.6240696563781725,-0.2960702446698461,0.08093954807301428,0.04010122901458349,-0.38371870104096784,-1.1866373868397162
1592289520.2972004,4.02,8.82,1.15,-0.6166666666666667,-0.31222222222222223,0.07555555555555556,-0.11780972450961724,-0.4570580978660151,-1.2064588454410803
1592289520.3072004,4.358864350725668,8.667922486128953,1.6745707491732036,-0.6166666666666667,-0.31222222222222223,0.07555555555555556,-0.06126785688398126,-0.38285143217007556,-1.2446258180563323
1592289520.3172004,4.0348593757423155,8.504296878711578,1.4100781509810443,-0.6166666666666667,-0.31222222222222223,0.07555555555555556,-0.022665431146461468,-0.210530341021816,-1.2333495162636836
1592289520.3272004,4.161292399013259,8.635641766882516,1.8169341658957756,-0.6166666666666667,-0.31222222222222223,0.07555555555555556,-0.03785431725154484,-0.17083749626386419,-1.226086063137488
1592289520.3372004,4.13210829453354,8.71427211588205,2.0235481979651664,-0.6166666666666667,-0.31936621256538483,0.0934155314134621,0.10480218347780598,-0.02881636711499984,-1.4394435967069161
1592289520.3472004,3.74,8.56,1.76,-0.6166666666666667,-0.3322222222222222,0.12555555555555556,0.15598880189699318,0.11562806294462433,-1.6035212502697902
1592289520.3572004,4.127050089864812,8.882949910135189,1.7456833632882707,-0.6166666666666667,-0.3322222222222222,0.12555555555555556,0.09187556433063987,0.021335401038891116,-1.5685962247314056
1592289520.3672004,3.7681116250089866,8.79764887727959,1.728319154544801,-0.6166666666666667,-0.3322222222222222,0.12555555555555556,0.05380813193956266,0.04646590414734753,-1.5273371672959595
1592289520.3772004,3.4470985581670948,8.61198597669366,1.7958028836658109,-0.6166666666666667,-0.3322222222222222,0.12555555555555556,0.0774244240898961,-0.015972279128894394,-1.5828800301035484
1592289520.3872004,3.1373488000532572,8.672918150650734,1.9691458908897248,-0.5977817350686239,-0.338910635496529,0.12358837518075944,0.1107853160003695,-0.02896331281461898,-1.6668321350188364
1592289520.3972003,2.64,8.66,2.15,-0.5633333333333334,-0.3511111111111111,0.12,0.12980886311707826,0.06544984694978735,-1.6907877128695066
1592289520.4072003,2.3925811965811965,9.295306742640076,1.927454890788224,-0.5633333333333334,-0.3511111111111111,0.12,0.11107868738487937,-0.07058990789621748,-1.8134737513956172
1592289520.4172003,2.339014801999231,8.774668396770473,2.012698000768935,-0.5633333333333334,-0.3511111111111111,0.12,0.22207853160971555,0.06306729805499214,-1.9865805710137365
1592289520.4272003,2.41,8.66,2.04,-0.5633333333333334,-0.3511111111111111,0.12,0.27270769562411395,0.06544984694978735,-1.9133171924987835
1592289520.4372003,2.5191659447348766,8.666805675877521,2.1025021657953697,-0.5594291594058585,-0.368857356235997,0.13668147041739276,0.3074013609229152,0.10258263920603872,-1.959407864330394
1592289520.4472003,2.56,8.66,1.98,-0.5511111111111111,-0.4066666666666667,0.17222222222222222,0.3534291735288517,0.1538071403320003,-1.7856899909466986
1592289520.4572003,2.0454698210332594,9.029096364654734,1.9045469821033258,-0.5511111111111111,-0.4066666666666667,0.17222222222222222,0.4302801849289868,0.2208422457792641,-1.8954651632580093
1592289520.4672003,1.5224275500476645,8.917405386081983,1.8729287416587226,-0.5511111111111111,-0.4066666666666667,0.17222222222222222,0.4836765267033268,0.2806034803061879,-1.9887667549034629
1592289520.4772003,1.3951474894369658,9.054557531689102,1.7728381644885527,-0.5511111111111111,-0.4066666666666667,0.17222222222222222,0.39196886711792084,0.2732880428962717,-2.0345414520947096
1592289520.4872003,1.2953743555629469,9.159652419757192,1.5630347580242807,-0.5349257349816139,-0.4184685034277584,0.16311794814938005,0.37627533896371745,0.24170796466134153,-2.0827911518410462
1592289520.4972003,1.17,9.09,1.57,-0.49777777777777776,-0.44555555555555554,0.14222222222222222,0.5388704065532492,0.30325095753401476,-2.183843226557905
1592289520.5072002,0.3627690994672322,9.399343092122278,1.4921121915895101,-0.49777777777777776,-0.44555555555555554,0.14222222222222222,0.4320456126484357,0.2206349842189169,-1.9576774656466664
1592289520.5172002,0.04288896213976266,9.553925880580147,1.343407421359955,-0.49777777777777776,-0.44555555555555554,0.14222222222222222,0.3848531749658143,0.24279475884757235,-1.8899491890501656
1592289520.5272002,-0.13455169386696458,9.670913770400224,1.2654483061330355,-0.49777777777777776,-0.44555555555555554,0.14222222222222222,0.4012282458446466,0.14542936318027289,-1.8036323095965388
1592289520.5372002,-0.2899719573752103,9.705288248664285,1.217862266434454,-0.4855039636856209,-0.45958277166087774,0.15624943832754443,0.4009746417222524,0.17390235758088268,-1.70209033877938
1592289520.5472002,-0.47851903015290814,9.523394464821607,1.4366055351783928,-0.45111111111111113,-0.4988888888888889,0.19555555555555557,0.32910062810769203,0.16996087214741176,-1.7628097204538358
1592289520.5572002,-0.5420134892934629,9.41604046788039,1.4720809357607774,-0.45111111111111113,-0.4988888888888889,0.19555555555555557,0.2818736171043929,0.09241745075491829,-1.7669777309120072
1592289520.5672002,-0.5143630149990507,9.415183216252137,1.3257243212454908,-0.45111111111111113,-0.4988888888888889,0.19555555555555557,0.29716285013278715,-0.009975499424667605,-1.7292447273956921
1592289520.5772002,-0.4996724168663722,9.463551722089086,1.242241389554574,-0.45111111111111113,-0.4988888888888889,0.19555555555555557,0.28743577997359354,0.01738182496674573,-1.7440954861054379
1592289520.5872002,-0.5248653241032096,9.508383889238514,1.2954040276903713,-0.4381369135025523,-0.5037542129920984,0.1987991049576953,0.26354403056229386,0.019693717530487934,-1.7566801391808267
1592289520.5972002,-0.54,9.69,1.25,-0.3977777777777778,-0.5188888888888888,0.2088888888888889,0.43524148221608594,0.01308996938995747,-1.7682366984267552
1592289520.6072001,-2.1104189991518236,9.921260390161153,0.5084953350296861,-0.3977777777777778,-0.5188888888888888,0.2088888888888889,0.4833399955536748,0.15510040858286844,-1.005901602952501
1592289520.6172001,-5.21313009875483,8.543170888793474,-0.09664448261056235,-0.3977777777777778,-0.5188888888888888,0.2088888888888889,0.03645805647269874,-0.1969314890018961,0.3265815751180013
1592289520.6272001,-2.8181681224457087,8.445032454523599,1.7835988460613832,-0.3977777777777778,-0.5188888888888888,0.2088888888888889,0.20068393017143007,-0.4218119995030083,0.34082085151541125
1592289520.6372,-1.0394231021801943,10.920722025216705,-0.4405585106382979,-0.3819260207804337,-0.5225269970522137,0.21720456469077432,0.2602834854469568,-0.35356986118690414,0.10432193999288056
1592289520.6472,0.24,10.53,0.18,-0.33,-0.5344444444444445,0.24444444444444444,-0.030543261909900768,-0.34688418883387295,-0.09708393964218458
1592289520.6572,-0.36157936319823025,9.587365094414158,0.8908835690395303,-0.33,-0.5344444444444445,0.24444444444444444,0.24101991030490988,-0.16502076931143464,-0.1779393187419716
1592289520.6672,-0.5071243961065233,9.725182417477807,0.6017810990266309,-0.33,-0.5344444444444445,0.24444444444444444,0.09319286246675247,-0.04683614972847541,-0.09258429835996075
1592289520.6772,-0.9792531434028331,9.691850628680566,0.7031640935858666,-0.33,-0.5344444444444445,0.24444444444444444,0.14653613596095844,0.19139383913750807,0.07813928369368096
1592289520.6872,-1.2452795294688335,9.715198581130245,0.8828307664322096,-0.3249607890694478,-0.5371740170318269,0.24654411566550785,0.11021557913843437,-0.01042622438097806,0.06250463029425728
1592289520.6972,-0.71,9.48,1.41,-0.30333333333333334,-0.5488888888888889,0.25555555555555554,0.28361600344907856,-0.15817046346198613,-0.05781403147231216
1592289520.7072,-0.43907185860830467,9.665721557582492,1.1511167670086044,-0.30333333333333334,-0.5488888888888889,0.25555555555555554,0.2278918595558724,-0.08890074983856584,0.11512575821412979
1592289520.7172,-0.2459049061605093,9.622666792890445,1.1,-0.30333333333333334,-0.5488888888888889,0.25555555555555554,0.25051694512695655,-0.03754540778861668,0.1068286395569728
1592289520.7272,-0.26819850172420623,9.65674937571842,1.1026501248563163,-0.30333333333333334,-0.5488888888888889,0.25555555555555554,0.21956881381487908,-0.06944288688102175,0.08444112915478283
1592289520.7372,-0.22666788151878603,9.624827711881252,1.0987353389437413,-0.3088762617895876,-0.5492464971763892,0.25555555555555554,0.2713785460363766,-0.09137867273928466,0.06769388920295828
1592289520.7472,-0.47,9.65,1.04,-0.3377777777777778,-0.5511111111111111,0.25555555555555554,0.2530727415391778,-0.02181661564992912,0.00545415391248228
1592289520.7572,-0.682449575847664,9.62449575847664,0.9110084830467208,-0.3377777777777778,-0.5511111111111111,0.25555555555555554,0.2833864254899852,-0.035088972595308486,-0.01872013679859797
1592289520.7672,-0.6990270478761872,9.7,0.76,-0.3377777777777778,-0.5511111111111111,0.25555555555555554,0.211342113507609,-0.08616579693190461,0.0292991752139867
1592289520.7772,-0.7071129298843021,9.69742258597686,0.741958101838023,-0.3377777777777778,-0.5511111111111111,0.25555555555555554,0.2627670311875854,-0.0875366885179166,0.0028760813522133027
1592289520.7872,-0.6383569555352565,9.705133629961399,0.6776179391224916,-0.33579053343941223,-0.5520283008057414,0.25555555555555554,0.298448563523017,-0.10654295998882216,-0.20300860040207955
1592289520.7972,-0.44,9.8,0.6,-0.3233333333333333,-0.5577777777777778,0.25555555555555554,0.2683443724941282,-0.06326818538479445,-0.10799224746714915
1592289520.8072,-0.5345799049716075,9.80322488121451,0.571869857457411,-0.3233333333333333,-0.5577777777777778,0.25555555555555554,0.20794073984213818,-0.017269991484525533,0.04925273538773807
1592289520.8172,-0.5837687039114144,9.739779968021383,0.5633286399541799,-0.3233333333333333,-0.5577777777777778,0.25555555555555554,0.21925698728178766,0.01357307651024884,-0.09655282899081134
1592289520.8272,-0.8410241891918929,9.699718893179408,0.6821486164742603,-0.3233333333333333,-0.5577777777777778,0.25555555555555554,0.20759515264470504,0.04122812631534193,-0.07844568550673015
1592289520.8372,-1.0270920916203223,9.727419800798065,0.7277405976058063,-0.3241933997339785,-0.5569177113771326,0.2582790991575985,0.17801537856660918,-0.01583077298485101,-0.17952914747886986
1592289520.8472,-1.21,9.71,0.78,-0.33,-0.5511111111111111,0.27666666666666667,0.22362031041177347,-0.16689710972195776,-0.19853120241435498
1592289520.8572,-1.0697029179055588,9.724241798115205,0.7242521292143326,-0.33,-0.5511111111111111,0.27666666666666667,0.15017028642494903,-0.12210710743279943,-0.03322116544806283
1592289520.8672,-0.9453979584552787,9.755238775073167,0.4571418373902491,-0.33,-0.5511111111111111,0.27666666666666667,0.14275914013614568,-0.1347096981959236,-0.025677933921983996
1592289520.8772,-1.02618526594502,9.802061755315007,0.39206175531500664,-0.33,-0.5511111111111111,0.27666666666666667,0.07489575683684392,-0.1785029342165803,-0.026169065301201482
1592289520.8871999,-1.0547100695027365,9.807644965248633,0.40196252895947354,-0.32952027069879536,-0.5511547228657661,0.2760561021014971,0.10758258617371923,-0.15487559265671527,0.004385701587767288
1592289520.8971999,-1.17,9.75,0.45,-0.31777777777777777,-0.5522222222222222,0.2611111111111111,0.017453292519943295,-0.12762720155208535,0.031634092692397225
1592289520.9071999,-1.0474893999382249,9.748127650015444,0.41142251425041415,-0.31777777777777777,-0.5522222222222222,0.2611111111111111,0.06190015193524964,-0.029273367393529766,0.05989755410413127
1592289520.9171999,-0.732962822368265,9.81,0.25510284941517003,-0.31777777777777777,-0.5522222222222222,0.2611111111111111,0.16078751011924544,-0.13197398713978037,0.03116721121676943
1592289520.9271998,-0.5097955727115173,9.81,0.22818398455963446,-0.31777777777777777,-0.5522222222222222,0.2611111111111111,0.0947376308596666,-0.012582278491659923,0.020089495555238316
1592289520.9371998,-0.43,9.81,0.3022276377042522,-0.3180252930782502,-0.5519252038616552,0.26244769373366245,0.10522776660601876,0.011578067769277377,0.10778721613064465
1592289520.9471998,-0.43,9.81,0.35,-0.3233333333333333,-0.5455555555555556,0.2911111111111111,-0.11780972450961724,-0.06763150851478027,0.009817477042468103
1592289520.9571998,-0.23251229232441384,9.876963407691115,0.20848170384555664,-0.3233333333333333,-0.5455555555555556,0.2911111111111111,-0.11282979207415887,-0.042719340824403026,0.0925263999658612
1592289520.9671998,-0.47219041930474254,9.855619161390514,0.2372371281806236,-0.3233333333333333,-0.5455555555555556,0.2911111111111111,-0.044984031908072104,-0.03260133681689348,0.06635464619183562
1592289520.9771998,-0.4984951861943687,9.828230336058128,0.39522070844686646,-0.3233333333333333,-0.5455555555555556,0.2911111111111111,-0.021546097541979226,0.07215985323889199,-0.05406878633992179
1592289520.9871998,-0.5823049954586739,9.774896821071753,0.5095068119891009,-0.3233333333333333,-0.5455555555555556,0.2911111111111111,-0.06975059344741852,-0.12481369037471346,0.002446829549213936
1592289520.9971998,-0.61,9.7,0.65,-0.31777777777777777,-0.5522222222222222,0.2911111111111111,-0.008726646259971648,-0.1712604328519436,-0.0643590161672909
1592289521.0071998,-0.5123248074290776,9.722195979494888,0.567846963149843,-0.31777777777777777,-0.5522222222222222,0.2911111111111111,-0.00022314909751168684,-0.2095768485253898,-0.0054307323331055585
1592289521.0171998,-0.15926835052768884,9.815818807067473,0.33508715759516183,-0.31777777777777777,-0.5522222222222222,0.2911111111111111,-0.06788995508224474,-0.1396377231915468,-0.109368171460202
1592289521.0271997,-0.2577203386802901,9.80767478832482,0.42386016934014503,-0.31777777777777777,-0.5522222222222222,0.2911111111111111,-0.05403425663060121,-0.11509593658545182,-0.163477054559352
1592289521.0371997,-0.1977825015183452,9.845135936551033,0.3938912507591726,-0.31777777777777777,-0.5522222222222222,0.2911111111111111,-0.06220701135716491,-0.1763915970346795,-0.12016145450856446
1592289521.0471997,-0.42,9.67,0.86,-0.31777777777777777,-0.5522222222222222,0.28444444444444444,0.04145156973486533,0.02617993877991494,0.0272707695624114
1592289521.0571997,-0.4287383521645296,9.54,1.05,-0.31777777777777777,-0.5522222222222222,0.28444444444444444,-0.004613645044730087,-0.036435216055439326,0.0212929005485904
1592289521.0671997,-0.47204161871883393,9.57289221327196,0.9940832374376678,-0.31777777777777777,-0.5522222222222222,0.28444444444444444,0.13950677556572266,-0.16770132021829767,0.0945723509302801
1592289521.0771997,-0.33255264768350196,9.742552647683501,0.6934077900572374,-0.31777777777777777,-0.5522222222222222,0.28444444444444444,-0.010678588969800434,-0.10609600667117512,0.06287766333101544
1592289521.0871997,-0.3476514633356132,9.757651463335613,0.595265488318514,-0.31777777777777777,-0.5522222222222222,0.28444444444444444,0.05520242260044882,0.08578243952717585,-0.04912005633840828
1592289521.0971997,-0.28,9.77,0.59,-0.30333333333333334,-0.5522222222222222,0.27,0.05017821599483697,-0.07635815477475191,-0.08835729338221293
1592289521.1071997,-0.36792729814750086,9.779769699794166,0.5802303002058332,-0.30333333333333334,-0.5522222222222222,0.27,0.11198933376795006,0.017424230812040364,-0.030809011317590396
1592289521.1171997,-0.5114855934443564,9.740066525685082,0.5927050841483831,-0.30333333333333334,-0.5522222222222222,0.27,0.13815820245690807,-0.01270780856599008,-0.009285373842899826
1592289521.1271996,-0.46106260442959224,9.67574958228163,0.7395634398663301,-0.30333333333333334,-0.5522222222222222,0.27,0.06280858920225127,-0.07519903315333562,0.07378113540011233
1592289521.1371996,-0.4759735504283835,9.616105798286466,0.8737619538554517,-0.30333333333333334,-0.5522222222222222,0.27,0.14820151338327672,-0.05893371426171172,0.08354032673508666
1592289521.1471996,-0.36583919121712344,9.704623120869861,0.6198291340863018,-0.2966666666666667,-0.5522222222222222,0.2911111111111111,0.20780709804154998,-0.05084696479301543,-0.03371489340626917
1592289521.1571996,-0.28279921645445644,9.805598432908914,0.3778090107737512,-0.2966666666666667,-0.5522222222222222,0.2911111111111111,0.1531522145047032,-0.035971026478281515,-0.04674877649558588
1592289521.1671996,-0.3,9.84,0.18,-0.2966666666666667,-0.5522222222222222,0.2911111111111111,0.16253378659197193,-0.13635384781205698,-0.13962634015954636
1592289521.1771996,-0.3092705292440842,9.877082116976338,0.06875364907098945,-0.2966666666666667,-0.5522222222222222,0.2911111111111111,0.0361265532234637,-0.016014161645237154,-0.003106528121557456
1592289521.1871996,-0.45096395327044414,9.863416005497594,0.20925595052164678,-0.2966666666666667,-0.5522222222222222,0.2911111111111111,-0.01904589047002402,0.07124344161491629,-0.08824294253239544
1592289521.1971996,-0.45,9.81,0.39,-0.3111111111111111,-0.5666666666666667,0.27666666666666667,0.09599310885968812,0.08726646259971647,-0.016362461737446838
1592289521.2071996,-0.4510476521367293,9.739700670818078,0.5602993291819227,-0.3111111111111111,-0.5666666666666667,0.27666666666666667,0.024449396105489157,-0.09526445010624139,0.1751309769585834
1592289521.2171996,-0.512687100098253,9.712687100098254,0.5909693498526204,-0.3111111111111111,-0.5666666666666667,0.27666666666666667,-0.08280051056292528,-0.17560587565277636,0.07648799628776828
1592289521.2271996,-0.46,9.668561736040063,0.6595356559510348,-0.3111111111111111,-0.5666666666666667,0.27666666666666667,-0.024944552800836517,-0.06275179655171129,0.10136076069191859
1592289521.2371995,-0.46,9.736317376554844,0.576723206432969,-0.3111111111111111,-0.5666666666666667,0.27666666666666667,0.05389271478453656,-0.04140003658067275,-0.020180026835531564
1592289521.2471995,-0.44,9.78,0.47,-0.3111111111111111,-0.5666666666666667,0.3055555555555556,0.002181661564992912,-0.21925698728178766,0.011999138607461015
1592289521.2571995,-0.4656636783697326,9.822772797282887,0.3074633703250267,-0.3111111111111111,-0.5666666666666667,0.3055555555555556,0.04883954549464761,-0.18006436478087767,0.09598332968083947
1592289521.2671995,-0.4206992736825838,9.810279709473035,0.24055941894606706,-0.3111111111111111,-0.5666666666666667,0.3055555555555556,0.052420900700498055,-0.011030269820195032,0.12200523400276561
1592289521.2771995,-0.30036987093045653,9.780092467732613,0.37956848391446735,-0.3111111111111111,-0.5666666666666667,0.3055555555555556,0.06105962604670203,0.12720692384740553,-0.19101789788779394
1592289521.2871995,-0.2081644978861253,9.726429290433574,0.48714141913285386,-0.3111111111111111,-0.5666666666666667,0.3055555555555556,0.04605997492502661,0.03329386682377605,-0.06426055211378934
1592289521.2971995,-0.13,9.62,0.86,-0.3233333333333333,-0.5666666666666667,0.3055555555555556,0.04145156973486533,0.01090830782496456,-0.022907446432425576
1592289521.3071995,-0.24694272300469486,9.636706103286386,0.86,-0.3233333333333333,-0.5666666666666667,0.3055555555555556,0.05967510145521927,-0.03829522781999107,-0.1313374601685315
1592289521.3171995,-0.3973027720998599,9.668114191222067,0.6805259410670402,-0.3233333333333333,-0.5666666666666667,0.3055555555555556,0.11619518672275005,0.062091297696442005,0.03794468192560344
1592289521.3271995,-0.47678357712765956,9.760714760638297,0.45714095744680855,-0.3233333333333333,-0.5666666666666667,0.3055555555555556,0.21718937700705243,0.0956797851242902,0.05617524679608162
1592289521.3371994,-0.40706449468085104,9.776207890070921,0.39516843971631205,-0.3233333333333333,-0.5666666666666667,0.3055555555555556,0.12508229236947255,0.041598561116903854,-0.02663662746522874
1592289521.3471994,-0.35,9.82,0.29,-0.30333333333333334,-0.5455555555555556,0.3055555555555556,0.04363323129985824,0.02399827721492203,-0.05126904677733343
1592289521.3571994,-0.34182579829276005,9.81182579829276,0.29817420170723996,-0.30333333333333334,-0.5455555555555556,0.3055555555555556,0.18719163189779645,-0.01701840867020317,0.014714317472650576
1592289521.3671994,-0.45153084589048564,9.748851865582136,0.3430616917809713,-0.30333333333333334,-0.5455555555555556,0.3055555555555556,0.07310186182458205,0.047861963842423055,-0.07488224933174448
1592289521.3771994,-0.48811675425780143,9.72141243430665,0.4162335085156028,-0.30333333333333334,-0.5455555555555556,0.3055555555555556,-0.0047207565281102565,-0.11177417636822781,0.0907402461368058
1592289521.3871994,-0.46050305838739575,9.712625764596849,0.4494969416126043,-0.30333333333333334,-0.5455555555555556,0.3055555555555556,0.020231908450504793,0.011930918717560302,-0.06000644970044296
1592289521.3971994,-0.3396866510664623,9.760689367653782,0.1586212646924339,-0.2966666666666667,-0.56,0.2911111111111111,0.027691651446671642,-0.023383018022664286,0.003983458525209428
1592289521.4071994,-0.29,9.87,-0.06,-0.2966666666666667,-0.56,0.2911111111111111,-0.07853981633974483,0.074176493209759,0.11671889372712078
1592289521.4171994,-0.1565484172774053,10.08352253235615,-0.33579993762669574,-0.2966666666666667,-0.56,0.2911111111111111,-0.05913007041885436,0.02759310299962188,0.004142367385956039
1592289521.4271994,-0.1332300956705043,9.966769904329496,-0.18282200962110157,-0.2966666666666667,-0.56,0.2911111111111111,-0.04924935008772659,0.08382316128098814,0.055230140427929446
1592289521.4371994,-0.2692540943732771,9.830745905626722,0.11945354305172695,-0.2966666666666667,-0.56,0.2911111111111111,-0.10200638651199062,0.12256660990505705,-0.053581247197115114
1592289521.4471993,-0.44,9.69,0.41,-0.30333333333333334,-0.56,0.31222222222222223,-0.16035212502697901,-0.03490658503988659,0.11890055529211369
1592289521.4571993,-0.3973575453976206,9.79234189104571,0.3758860363180964,-0.30333333333333334,-0.56,0.31222222222222223,-0.060808522487004996,-0.06839789056735449,0.07052422508577118
1592289521.4671993,-0.4499384248210024,9.70014367541766,0.3500102625298329,-0.30333333333333334,-0.56,0.31222222222222223,-0.1603274967233933,-0.030467138062453998,0.16358879438743462
1592289521.4771993,-0.3901201348024237,9.839909898898181,0.36004505055090885,-0.30333333333333334,-0.56,0.31222222222222223,-0.13622443915578078,0.04345959436865222,0.1289588307203109
1592289521.4871993,-0.44871099547748344,9.795966753391887,0.3820166233040563,-0.30333333333333334,-0.56,0.31222222222222223,-0.07311063368843093,-0.041224752207791905,0.24639844342537964
1592289521.4971993,-0.5060534665496523,9.725919800175522,0.4350668331870654,-0.30333333333333334,-0.5660089110916087,0.3312504406789832,-0.1573476458188197,-0.16539938057392534,0.08456335549561217
1592289521.5071993,-0.32024916635791034,9.783250277880695,0.43096424601704336,-0.30333333333333334,-0.5666666666666667,0.3333333333333333,-0.1316241526537892,-0.1618246859591857,0.0030384830762535606
1592289521.5171993,-0.21872376535832097,9.753877229048143,0.348723765358321,-0.30333333333333334,-0.5666666666666667,0.3333333333333333,-0.09511904138681765,-0.09238051740869202,-0.06040804657735381
1592289521.5271993,-0.23730994714079767,9.75,0.3673099471407977,-0.30333333333333334,-0.5666666666666667,0.3333333333333333,-0.14425972384654429,-0.07316858863091028,-0.19265392567264103
1592289521.5371993,-0.2867600783189399,9.74331998881158,0.4368001118841998,-0.30333333333333334,-0.5666666666666667,0.3333333333333333,-0.1479864648356646,-0.05742130798126758,-0.06444168375657314
1592289521.5471992,-0.14245276537272417,9.799134318103745,0.5488457574716592,-0.30333333333333334,-0.5458601473338677,0.3125268140005344,-0.06878042200812762,-0.022225817716052833,-0.06120156506000298
1592289521.5571992,-0.33041591320072333,9.736528028933092,0.5923146473779385,-0.30333333333333334,-0.5455555555555556,0.31222222222222223,-0.015318972616396885,0.007416860293285126,0.027061677224356005
1592289521.5671992,-0.4888877013512482,9.71,0.5223469984986131,-0.30333333333333334,-0.5455555555555556,0.31222222222222223,-0.18564034565902218,0.02345953777357304,-0.06567682924636148
1592289521.5771992,-0.44706201384428745,9.70117700230738,0.58058398154095,-0.30333333333333334,-0.5455555555555556,0.31222222222222223,-0.11165582907826958,-0.012574433197692206,0.04882271493042459
1592289521.5871992,-0.41354476544622426,9.693386191361556,0.59,-0.30333333333333334,-0.5455555555555556,0.31222222222222223,-0.09817477042468103,0.035934348267488286,0.0477828579961592
1592289521.5971992,-0.4423609576427256,9.740833149171271,0.6069443830570902,-0.3202777163904236,-0.5577931655412319,0.3065740945365255,-0.10556815227631519,0.07620660362515425,0.058510877479369935
1592289521.6071992,-0.40267698394811313,9.787858412841508,0.5721415871584904,-0.3233333333333333,-0.56,0.3055555555555556,-0.047020589633885,0.010399564868181596,0.12309060970566513
1592289521.6171992,-0.37323193831117885,9.718618502163144,0.48969581493353653,-0.3233333333333333,-0.56,0.3055555555555556,-0.035846717785743526,-0.003188157197664655,0.07495071873857892
1592289521.6271992,-0.38735576586049775,9.683966351209254,0.5928124780932352,-0.3233333333333333,-0.56,0.3055555555555556,0.00485104263442062,0.04864684710242379,0.05168335600828792
1592289521.6371992,-0.3836440232623318,9.68,0.648135860426009,-0.3233333333333333,-0.56,0.3055555555555556,0.05528139632595548,-0.00428979599904681,-0.0008323393512742749
1592289521.6471992,-0.42250442335531607,9.739506192697442,0.6274955766446839,-0.3186106196271871,-0.56,0.3178346111915358,0.04733858186520489,0.10075279466261258,0.0020758595765989277
1592289521.6571991,-0.47556021841245616,9.731775912635017,0.6108879563175087,-0.31777777777777777,-0.56,0.32,0.061330965215492944,0.09264453744405687,0.06926194146742079
1592289521.6671991,-0.46302848642287797,9.704542729634316,0.5505997024800728,-0.31777777777777777,-0.56,0.32,0.08548384470737197,0.14406161999937914,-0.006190093523862128
