time,acc_x,acc_y,acc_z,mag_x,mag_y,mag_z,gyr_x,gyr_y,gyr_z
1592292813.9503543,-0.28401559349854594,9.72480311869971,0.0388187121982551,-0.4722222222222222,-0.6222222222222222,-0.1688888888888889,0.010255510342288755,0.056199261716852994,-0.014223753009024958
1592292813.9603543,-0.3309164728444934,9.709083527155506,0.09091647284449342,-0.47628931416420706,-0.6146690514728218,-0.1566876130629344,0.015942010944960547,0.05106910341931433,-0.01308996938995747
1592292813.9703543,-0.36501029597836604,9.705010295978367,0.07997940804326792,-0.48,-0.6077777777777778,-0.14555555555555555,0.02754965440161119,0.0354441386120385,-0.01227128474457825
1592292813.9803543,-0.3623428436131171,9.732971469160649,0.008742748904936669,-0.48,-0.6077777777777778,-0.14555555555555555,0.03304906047786113,0.022863797704535935,-0.011581505512800953
1592292813.9903543,-0.299587465861722,9.757396866465431,-0.08369843323271525,-0.48,-0.6077777777777778,-0.14555555555555555,0.03777564090565059,-0.0063960283569923,-0.011595702125735647
1592292814.0003543,-0.27474498290338173,9.75,-0.061020068386473086,-0.48,-0.6077777777777778,-0.14555555555555555,0.03766148004603313,-0.02251799373374986,-0.011999138607461015
1592292814.0103543,-0.1959452499046166,9.737992178557803,-0.04,-0.48733811310356523,-0.611780384925177,-0.1622330853363856,0.037743171667873006,-0.03578266241384884,-0.011999138607461015
1592292814.0203543,0.013616562677254668,9.786595575723199,-0.11546076763093213,-0.4922222222222222,-0.6144444444444445,-0.17333333333333334,0.038767041160251904,-0.03985787194274836,-0.009059319743081268
1592292814.0303543,0.0420677128741645,9.81507265329846,-0.22794827085149666,-0.4922222222222222,-0.6144444444444445,-0.17333333333333334,0.02888498355383016,0.013058268408193553,-0.014718290318261173
1592292814.0403543,-0.09152113470604828,9.784239432646975,-0.14290728129910946,-0.4922222222222222,-0.6144444444444445,-0.17333333333333334,0.015748806237006294,0.04643149334907005,-0.01932665384282676
1592292814.0503542,0.07071461449942462,9.832858457997698,0.03356846950517836,-0.4922222222222222,-0.6144444444444445,-0.17333333333333334,-0.0118040066797981,0.07966887013412507,-0.015115726256232247
1592292814.0603542,0.027385737564987973,9.795435710405835,0.026721502289128576,-0.48799444746212806,-0.6108206375072209,-0.1503825560642508,-0.022907446432425576,0.12378902113759638,-0.021603900684738338
1592292814.0703542,0.04219570405727924,9.812983293556087,-0.09570405727923628,-0.48444444444444446,-0.6077777777777778,-0.13111111111111112,-0.019366802365133978,0.13576026924783458,-0.028275687657980924
1592292814.0803542,0.13,9.833786828422877,-0.23834488734835357,-0.48444444444444446,-0.6077777777777778,-0.13111111111111112,-0.01064363484480944,0.10443523166599301,-0.04846162266640234
1592292814.0903542,0.20269222769188103,9.817884628718021,-0.2436538861540595,-0.48444444444444446,-0.6077777777777778,-0.13111111111111112,-0.007835104052104476,0.0585902358903085,-0.06597427464484597
1592292814.1003542,0.3130273536435343,9.791992184673276,-0.15697264635646574,-0.48444444444444446,-0.6077777777777778,-0.13111111111111112,-0.0075271586591738405,0.015480419392587194,-0.0739591795731563
1592292814.1103542,0.3849306652624188,9.785208004212743,-0.003959978936282249,-0.48219140678329725,-0.6151001501765061,-0.15026193123086226,-0.009279624897824863,-0.012014265100670989,-0.07801709068831156
1592292814.1203542,0.40968807406863106,9.813854434565362,0.10958409875817474,-0.48,-0.6222222222222222,-0.1688888888888889,-0.009169783741126153,-0.011794582787273569,-0.08157372702626714
1592292814.1303542,0.6829206024272555,9.981749671004533,0.18177657552273724,-0.48,-0.6222222222222222,-0.1688888888888889,0.001153961477585226,0.014627117279572159,-0.10741233190069197
1592292814.1403542,0.8495299145299146,10.073228869895537,0.12,-0.48,-0.6222222222222222,-0.1688888888888889,0.017367828569747706,0.054705733501865236,-0.16472580742365522
1592292814.1503541,0.8508513065300177,9.997412035168384,0.06656072863836582,-0.48,-0.6222222222222222,-0.1688888888888889,0.02237750823064874,0.0877691601823,-0.22259881590666153
1592292814.1603541,0.7812192784019018,9.919695180399524,-0.11603734519381927,-0.4692275773338616,-0.6222222222222222,-0.1608095718892851,0.0191726653445147,0.11807250928805461,-0.2733662678223115
1592292814.1703541,0.7446244186046511,9.933082945736434,-0.22687790697674418,-0.4577777777777778,-0.6222222222222222,-0.15222222222222223,0.012158746599861174,0.1286360931851059,-0.28865192100107806
1592292814.180354,0.8887721369539552,9.95,-0.058687952363841694,-0.4577777777777778,-0.6222222222222222,-0.15222222222222223,-0.023864338134190467,0.12684921259402335,-0.301918846024565
1592292814.190354,0.9762634539803231,10.139892368157414,-0.04967068252459606,-0.4577777777777778,-0.6222222222222222,-0.15222222222222223,-0.03535010194567286,0.11804944444447961,-0.34195783909357863
1592292814.200354,0.9363819050030749,10.37391961798647,0.024472379987700313,-0.4577777777777778,-0.6222222222222222,-0.15222222222222223,-0.03490658503988659,0.11414255922246364,-0.40755960405142266
1592292814.210354,0.9894992738087005,10.485583373677295,0.12116674735458884,-0.44943526139044504,-0.6241851672545359,-0.14584265086720305,-0.02189854678138988,0.11800964854126643,-0.5167987180161481
1592292814.220354,1.0644697906873175,10.3714966104211,0.3014765698451185,-0.4388888888888889,-0.6266666666666667,-0.13777777777777778,-0.008935296187713744,0.13976471141546845,-0.712072409163538
1592292814.230354,0.9475330892706281,10.30372651566963,0.292894959166432,-0.4388888888888889,-0.6266666666666667,-0.13777777777777778,-0.006346101277580259,0.16026444429706682,-0.8150729998998251
1592292814.240354,0.36208040542305586,10.314926987278284,-0.21985397455656852,-0.4388888888888889,-0.6266666666666667,-0.13777777777777778,-0.013856323535994924,0.23737909433886356,-1.0450855037901075
1592292814.250354,0.1184374499581873,10.266136327242318,-0.233068163621159,-0.4388888888888889,-0.6266666666666667,-0.13777777777777778,-0.04573432708405399,0.2755649374584366,-1.1802944336726415
1592292814.260354,-0.01361105718833715,10.12555577124665,-0.20361105718833716,-0.4419135682640749,-0.6301954592710504,-0.1443312497573475,-0.06811629866764113,0.29472632481725497,-1.322460358160137
1592292814.270354,-0.03720129065901832,10.042236816374421,-0.2348826673619712,-0.44555555555555554,-0.6344444444444445,-0.15222222222222223,-0.07730972526864142,0.29307581939800925,-1.4061165736417003
1592292814.280354,-0.2854502794838175,9.83060037264509,-0.6266627561934994,-0.44555555555555554,-0.6344444444444445,-0.15222222222222223,-0.12116471982706148,0.311448561026794,-1.516832308459758
1592292814.290354,-0.36531815279846774,9.876333262396255,-0.6163332623962545,-0.44555555555555554,-0.6344444444444445,-0.15222222222222223,-0.15792091183585635,0.30772501194368795,-1.5713202691392454
1592292814.300354,-0.29803081081081084,9.607318918918919,-0.525432972972973,-0.44555555555555554,-0.6344444444444445,-0.15222222222222223,-0.20729281422319262,0.2976764584525014,-1.602602534895624
1592292814.310354,-0.541059018998772,9.564597269378025,-0.6733049194538756,-0.4166925923250419,-0.6519514877154118,-0.15553436554375658,-0.27173238589392845,0.3039558250735243,-1.6177228536876809
1592292814.320354,-0.9408620150187735,9.74575876095119,-0.8396667709637047,-0.37777777777777777,-0.6755555555555556,-0.16,-0.31837838448220523,0.32537850774053156,-1.6118215987677662
1592292814.330354,-1.23148486239771,9.442296972479543,-0.38545250762956756,-0.37777777777777777,-0.6755555555555556,-0.16,-0.39352415007840913,0.36693674430001444,-1.6153482811334063
1592292814.340354,-1.5538015128737444,9.23876583864271,-0.08548929773068938,-0.37777777777777777,-0.6755555555555556,-0.16,-0.44401610139543,0.38620206992311784,-1.629015746355275
1592292814.350354,-1.6815632386775505,9.081954048346939,0.003614989441835545,-0.37777777777777777,-0.6755555555555556,-0.16,-0.45395612840551175,0.3961420969331996,-1.6308346505539482
1592292814.360354,-1.8520803520183662,9.147116127797972,0.33375894394490146,-0.3571964373020428,-0.683161703122675,-0.16,-0.45674351620893927,0.4195744224938361,-1.6338375809776848
1592292814.370354,-1.881681809753384,8.934980530317077,0.28166882996476916,-0.32666666666666666,-0.6944444444444444,-0.16,-0.4245010567477822,0.42614792198625545,-1.6326110150532274
1592292814.380354,-2.284493930380256,9.037466570195889,0.1334118498271565,-0.32666666666666666,-0.6944444444444444,-0.16,-0.3372896017535276,0.43449157807335836,-1.6373849149072355
1592292814.390354,-2.6459200342914295,9.10815993141714,-0.05592003429142953,-0.32666666666666666,-0.6944444444444444,-0.16,-0.3015143511876657,0.4656822149163919,-1.6565858180748412
1592292814.400354,-2.68,9.04,-0.09,-0.32666666666666666,-0.6944444444444444,-0.16,-0.29779680362153244,0.4745113903859583,-1.6700619280020743
1592292814.410354,-3.08724426489684,8.657622637426057,0.09457726157841584,-0.3004297119222815,-0.7035876256432453,-0.17311847737219258,-0.3469132262425255,0.4811969979786662,-1.715736197969196
1592292814.420354,-3.206773541642377,8.427741634604175,0.40096731568924643,-0.25333333333333335,-0.72,-0.19666666666666666,-0.3777440888501228,0.46486988934823714,-1.729177995377492
1592292814.4303539,-3.5890145642786258,8.722157015261647,0.7038081699434059,-0.25333333333333335,-0.72,-0.19666666666666666,-0.40442805075315635,0.4380085111459745,-1.662956299060275
1592292814.4403539,-3.481525225246756,8.650755442965371,0.8007661974523815,-0.25333333333333335,-0.72,-0.19666666666666666,-0.40301959797784,0.40209592554864915,-1.5768355349439485
1592292814.4503539,-3.5016084455251764,8.513958839926458,0.6426184686554771,-0.25333333333333335,-0.72,-0.19666666666666666,-0.37547293507032614,0.37957986994391946,-1.4917054342078766
1592292814.4603539,-3.7054868281385698,8.377964875036186,0.5054993727685033,-0.2153280367118059,-0.7230004181543311,-0.19666666666666666,-0.3290461634653314,0.35697197885998005,-1.3936942703681752
1592292814.4703538,-3.59,8.07,0.5,-0.1688888888888889,-0.7266666666666667,-0.19666666666666666,-0.30325095753401476,0.3359758810089084,-1.3439035240356336
1592292814.4803538,-4.293921995860115,8.829967316701167,0.7515557250245125,-0.1688888888888889,-0.7266666666666667,-0.19666666666666666,-0.22890476104967192,0.3247528853190293,-1.2446397054258784
1592292814.4903538,-4.332313204413335,8.998274053861667,0.9986273579309527,-0.1688888888888889,-0.7266666666666667,-0.19666666666666666,-0.18458138038647331,0.30584327567025194,-1.2065999843723165
1592292814.5003538,-4.196732140722737,8.61472210048209,0.8602695326507032,-0.1688888888888889,-0.7266666666666667,-0.19666666666666666,-0.1795013793067521,0.26657798198084065,-1.1904136499179139
1592292814.5103538,-4.324196247847497,8.543565451194828,0.7718878583728588,-0.1502876381713879,-0.7381817266346434,-0.20242419665065506,-0.18762289458939044,0.21165175368903366,-1.1761750352320526
1592292814.5203538,-4.24,8.73,0.82,-0.12222222222222222,-0.7555555555555555,-0.2111111111111111,-0.18762289458939044,0.19853120241435498,-1.1584622910112363
1592292814.5303538,-4.603424014249858,8.755589021131891,0.9334037729738484,-0.12222222222222222,-0.7555555555555555,-0.2111111111111111,-0.23306649342059124,0.18017272612874038,-1.0691701386028127
1592292814.5403538,-4.862442363112391,8.692768011527377,0.8506512968299712,-0.12222222222222222,-0.7555555555555555,-0.2111111111111111,-0.2520707175855157,0.1762135747875948,-1.002064977701605
1592292814.5503538,-5.1668952640625925,8.397795032896687,0.8263938118665165,-0.12222222222222222,-0.7555555555555555,-0.2111111111111111,-0.26206163720071457,0.16825743150685155,-0.9639702207753267
1592292814.5603538,-5.36035686864654,7.828929394060379,0.857858788120758,-0.10912680131991578,-0.7511904152547867,-0.21722230753218744,-0.26363035937823365,0.13537963451532173,-0.9307511557829447
1592292814.5703537,-5.330031889026189,7.919939410850241,1.0400063778052377,-0.08888888888888889,-0.7444444444444445,-0.22666666666666666,-0.25633514608256386,0.10688124107644609,-0.9075520789947864
1592292814.5803537,-5.6328884529881,7.813801752321172,0.989430103308487,-0.08888888888888889,-0.7444444444444445,-0.22666666666666666,-0.20931517806853048,0.0046621996378302805,-0.8037932478609247
1592292814.5903537,-5.466960856985725,7.713399488295354,0.9393524784199325,-0.08888888888888889,-0.7444444444444445,-0.22666666666666666,-0.18282893574483497,-0.08711437072499476,-0.6892854364040826
1592292814.6003537,-5.03,7.5,0.98,-0.08888888888888889,-0.7444444444444445,-0.22666666666666666,-0.17562375598192942,-0.1308996938995747,-0.6283185307179586
1592292814.6103537,-5.129582324455206,7.987887409200969,0.6326694915254237,-0.07222289480764058,-0.747026499865483,-0.2297181867097121,-0.15806283306395527,-0.20314016056315962,-0.49844891915536604
1592292814.6203537,-4.68,7.98,1.24,-0.01,-0.7566666666666667,-0.2411111111111111,-0.16580627893946132,-0.2203478180642841,-0.43305982065109305
1592292814.6303537,-4.563187090267272,8.02484731327394,0.4682537681403037,-0.01,-0.7566666666666667,-0.2411111111111111,-0.10460527503585769,-0.11639938244144252,-0.38032835650852165
1592292814.6403537,-4.790547899320509,8.152630873767825,0.47535936453249117,-0.01,-0.7566666666666667,-0.2411111111111111,-0.054622602394284805,-0.0165219261857446,-0.38636800381524267
1592292814.6503537,-5.096267670668467,8.283955388221923,0.4597769411096114,-0.01,-0.7566666666666667,-0.2411111111111111,-0.006719764039293627,0.04695884323968982,-0.408707529055988
1592292814.6603537,-5.004504664593514,8.31977343402932,0.6212749888938249,-0.0128234364973592,-0.7571010415124143,-0.2428486104941014,0.036751450783540085,0.0774984145842651,-0.4281711929594785
1592292814.6703537,-5.27,8.36,0.75,-0.024444444444444446,-0.7588888888888888,-0.25,0.05781403147231216,0.06872233929727672,-0.44396812847605754
1592292814.6803536,-5.11131708821715,8.408673658235656,1.141326341764343,-0.024444444444444446,-0.7588888888888888,-0.25,0.11348745053307514,0.054809368027619584,-0.418344372078458
1592292814.6903536,-4.931497366797931,8.20114722209043,0.943089149309674,-0.024444444444444446,-0.7588888888888888,-0.25,0.11876159430852956,0.03234975469649463,-0.39509961328218157
1592292814.7003536,-4.484249016803718,7.686000715051842,0.878747765462996,-0.024444444444444446,-0.7588888888888888,-0.25,0.13239992747575213,0.03408894945336395,-0.38620858004282826
1592292814.7103536,-4.520713674215893,7.730231146392716,0.7018592886605961,-0.01937911294437094,-0.759974317067476,-0.24855276242855043,0.16030169670689165,0.07534407012248948,-0.3885396791492937
1592292814.7203536,-5.09,7.68,0.66,0.006666666666666667,-0.7655555555555555,-0.2411111111111111,0.1712604328519436,0.09817477042468103,-0.4232423436086249
1592292814.7303536,-5.071530957372467,7.876077428371768,0.3927787561146052,0.006666666666666667,-0.7655555555555555,-0.2411111111111111,0.24794438851868641,0.17845701933090413,-0.5087518902142828
1592292814.7403536,-5.576347709528736,7.9477438622895304,0.432390179663249,0.006666666666666667,-0.7655555555555555,-0.2411111111111111,0.26539514817224835,0.17786593089975622,-0.5981151850600299
1592292814.7503536,-5.783660608491168,7.848793955192591,0.3051333467014237,0.006666666666666667,-0.7655555555555555,-0.2411111111111111,0.2747577981090078,0.14739834791930673,-0.6517277549356353
1592292814.7603536,-5.774749805364852,7.761583268454951,0.2616653690990162,0.010888715879868827,-0.764500043252255,-0.23776865548399273,0.2562637825117975,0.11375599380923089,-0.6773513319283723
1592292814.7703536,-5.8,7.77,0.43,0.03333333333333333,-0.7588888888888888,-0.22,0.20943951023931953,0.04581489286485115,-0.6828600698427815
1592292814.7803535,-5.741066987448912,7.856799037653265,0.32976434099539115,0.03333333333333333,-0.7588888888888888,-0.22,0.08946168880153048,-0.03321619098605769,-0.6679119033043341
1592292814.7903535,-5.798051185281283,7.741948814718716,0.1881243071116877,0.03333333333333333,-0.7588888888888888,-0.22,-0.03606521483433913,-0.07440502862691041,-0.6383246614058393
1592292814.8003535,-5.938626653654305,7.619305465191933,0.33184161064122025,0.03333333333333333,-0.7588888888888888,-0.22,-0.1128207685653011,-0.07964298826425391,-0.5997930652414071
1592292814.8103535,-6.165106672366222,7.376173396028446,0.4104266894648894,0.03591592291782709,-0.7599762950297283,-0.2191844453943704,-0.1656030172287369,-0.07226172126535434,-0.5598692700318365
1592292814.8203535,-6.13,6.99,0.27,0.05444444444444444,-0.7677777777777778,-0.21333333333333335,-0.18762289458939044,-0.074176493209759,-0.5148721293383272
1592292814.8303535,-6.25606608461301,7.1880730467982366,0.5515165211532523,0.05444444444444444,-0.7677777777777778,-0.21333333333333335,-0.17746583632946342,-0.1109873850408514,-0.4391221829286173
1592292814.8403535,-6.166190752788104,7.340473977695167,0.6366589219330856,0.05444444444444444,-0.7677777777777778,-0.21333333333333335,-0.1316279704454631,-0.16814178211341688,-0.39223248795556054
1592292814.8503535,-6.024973070341349,7.4065339097541205,0.8651130325137351,0.05444444444444444,-0.7677777777777778,-0.21333333333333335,-0.09236130944764451,-0.21872390182507992,-0.36475901774536623
1592292814.8603535,-5.698759527776793,7.468357145389443,0.9977619030737052,0.05682407440233511,-0.7681857143419876,-0.2128574073417552,-0.049066347457681105,-0.23492910902212935,-0.3440578979813474
1592292814.8703535,-6.035303013203927,7.756979799119738,0.8693282925177745,0.09333333333333334,-0.7744444444444445,-0.20555555555555555,-0.014129563994632572,-0.22508466548726744,-0.31286348986519746
1592292814.8803535,-5.8562048490846115,7.637120237506185,0.8244334487877288,0.09333333333333334,-0.7744444444444445,-0.20555555555555555,-0.02295872249592739,-0.18182438142939072,-0.30681653306551976
1592292814.8903534,-6.054818997524753,7.32768254950495,0.5258539603960396,0.09333333333333334,-0.7744444444444445,-0.20555555555555555,-0.059916040789573285,-0.13970599240727816,-0.3133877185864586
1592292814.9003534,-6.369592784494339,7.290407215505661,0.6603619266935329,0.09333333333333334,-0.7744444444444445,-0.20555555555555555,-0.09347580383342965,-0.10235547202815565,-0.3191839949254218
1592292814.9103534,-6.276363880883766,7.384962920268973,0.9592876080691642,0.09274364393211657,-0.7746901483616182,-0.20648923044081544,-0.1077992720618614,-0.07398351780447125,-0.3270669475991548
1592292814.9203534,-6.63,7.06,1.16,0.08,-0.78,-0.22666666666666666,-0.10362892433716332,-0.06981317007977318,-0.27598018797160334
1592292814.9303534,-6.331429113169728,7.121429113169728,1.115631670187984,0.08,-0.78,-0.22666666666666666,-0.07317847079954223,-0.0986243636092107,-0.1965592682694325
1592292814.9403534,-6.454066937826846,7.434365601394537,1.0112313771063335,0.08,-0.78,-0.22666666666666666,0.01945588289802691,-0.15034741299720736,-0.13445708259809053
1592292814.9503534,-5.855355525571595,7.217488679001164,1.0558774929301518,0.08,-0.78,-0.22666666666666666,0.08600481839856838,-0.13681922969700946,-0.061159147749686234
1592292814.9603534,-5.846319906140008,7.115314466526825,0.9081327550040886,0.08055857756287949,-0.7797127315390906,-0.22666666666666666,0.1287337003985818,-0.1164995408311205,-0.010610614608964175
1592292814.9703534,-6.28,7.48,0.78,0.11888888888888889,-0.76,-0.22666666666666666,0.12980886311707826,-0.10144726277217041,0.009817477042468103
1592292814.9803534,-5.914928002317833,7.092229175720702,0.942842821961466,0.11888888888888889,-0.76,-0.22666666666666666,0.1368736477216534,-0.0463592811084699,-0.027455877367512996
1592292814.9903533,-6.316006291522878,6.929785665657206,0.7042080428199169,0.11888888888888889,-0.76,-0.22666666666666666,0.10860067173555614,0.020416156607433962,-0.06171832833809514
1592292815.0003533,-6.635601577554071,6.832273766860559,0.6911865871886762,0.11888888888888889,-0.76,-0.22666666666666666,0.10472156239931527,0.039029107800122524,-0.07308566242726255
1592292815.0103533,-6.824435340092564,7.043767580903672,1.0008739577518053,0.11888888888888889,-0.76,-0.22666666666666666,0.11213704691357339,0.0456206495905742,-0.07308566242726255
1592292815.0203533,-6.17,6.88,1.38,0.1111111111111111,-0.7955555555555556,-0.20555555555555555,0.1265363707695889,0.022907446432425576,-0.10362892433716332
1592292815.0303533,-6.39188080495356,7.002706398348813,0.9841973684210527,0.1111111111111111,-0.7955555555555556,-0.20555555555555555,0.19367250251879892,-0.03946505318137474,-0.10040396586974713
1592292815.0403533,-6.230829097614601,7.139496441996265,0.59,0.1111111111111111,-0.7955555555555556,-0.20555555555555555,0.20033057419661715,-0.062085805173756836,-0.11293705130551412
1592292815.0503533,-6.429088720268496,7.3090887202684955,0.5730322486502262,0.1111111111111111,-0.7955555555555556,-0.20555555555555555,0.21750549793183874,-0.08852267689060543,-0.13377456545402802
1592292815.0603533,-6.497943054136875,7.377943054136875,0.5118283963227783,0.1111111111111111,-0.7955555555555556,-0.20555555555555555,0.20331835063003242,-0.08518452458429807,-0.16381793621079438
1592292815.0703533,-6.44,7.12,0.8,0.14555555555555555,-0.7822222222222223,-0.22666666666666666,0.2083486794568231,-0.08290313946973066,-0.19416787928436915
1592292815.0803533,-6.501150287047475,7.2253988518101036,0.6607977036202061,0.14555555555555555,-0.7822222222222223,-0.22666666666666666,0.1764636330604075,-0.10488369285725518,-0.22274197244770916
1592292815.0903533,-6.536797015693336,7.191914072549524,0.6148829431438126,0.14555555555555555,-0.7822222222222223,-0.22666666666666666,0.17181861716539495,-0.11286688875656603,-0.20554484864953676
1592292815.1003532,-6.644388823327877,7.2364726483687996,0.7494586775286459,0.14555555555555555,-0.7822222222222223,-0.22666666666666666,0.15591451295299508,-0.10856496581014624,-0.15471002714549986
1592292815.1103532,-6.612455365640108,7.444040123339297,0.9171093303894324,0.14555555555555555,-0.7822222222222223,-0.22666666666666666,0.13065986394090448,-0.1242402651969611,-0.11639262864439687
1592292815.1203532,-6.66,7.67,0.56,0.11666666666666667,-0.7955555555555556,-0.20555555555555555,0.11017390903214205,-0.14508049407202864,-0.05017821599483697
1592292815.1303532,-6.675351197320402,7.194810778383243,0.5892976053591962,0.11666666666666667,-0.7955555555555556,-0.20555555555555555,0.051221820888334685,-0.17817100918646922,0.037736866378264136
1592292815.1403532,-6.477227998467237,7.141793332481798,0.8344286626644527,0.11666666666666667,-0.7955555555555556,-0.20555555555555555,-0.002869321067347365,-0.2101540050985151,0.04421115286323016
1592292815.1503532,-6.41651907814685,7.081629769536712,0.5112843470206854,0.11666666666666667,-0.7955555555555556,-0.20555555555555555,0.02247652637393143,-0.2766777784469507,-0.015931541678952697
1592292815.1603532,-6.782148266531064,7.173037066632766,0.7702716887928374,0.11666666666666667,-0.7955555555555556,-0.20555555555555555,0.03909484194346047,-0.27501594688999775,-0.03254985724848173
1592292815.1703532,-7.0,7.47,0.69,0.12222222222222222,-0.8033333333333333,-0.18444444444444444,0.07308566242726255,-0.2945243112740431,-0.061086523819801536
1592292815.1803532,-6.297647107689752,6.764892421011823,0.8304519148229169,0.12222222222222222,-0.8033333333333333,-0.18444444444444444,0.11343857801484128,-0.277770590678964,-0.0006400962288340053
1592292815.1903532,-7.03,7.14,0.5,0.12222222222222222,-0.8033333333333333,-0.18444444444444444,0.1407171709420428,-0.28361600344907856,0.05781403147231216
1592292815.2003531,-6.066633525828025,6.887031215891726,1.0115838145700622,0.12222222222222222,-0.8033333333333333,-0.18444444444444444,0.18345402945625255,-0.27695752178454913,0.10594577349987587
1592292815.2103531,-6.033339485225537,7.253265662519101,0.9283487130638408,0.12222222222222222,-0.8033333333333333,-0.18444444444444444,0.19616538698326103,-0.2542586690577483,0.15043552484440553
1592292815.2203531,-6.07,7.54,0.6,0.12222222222222222,-0.8088888888888889,-0.18444444444444444,0.22362031041177347,-0.20071286397934787,0.17453292519943295
1592292815.230353,-5.906884565355769,7.756579580992445,0.5553377798688179,0.12222222222222222,-0.8088888888888889,-0.18444444444444444,0.2166713322058389,-0.19407045834132217,0.17535045204718996
1592292815.240353,-5.78,7.53,0.22,0.12222222222222222,-0.8088888888888889,-0.18444444444444444,0.14944381720201447,-0.12980886311707826,0.1832595714594046
1592292815.250353,-6.183593001377224,7.594100246348418,0.5929951700192035,0.12222222222222222,-0.8088888888888889,-0.18444444444444444,0.07043631454361661,-0.10898756469753051,0.1665400870890739
1592292815.260353,-5.752390355556418,7.260528388260624,0.5279079781971951,0.12222222222222222,-0.8088888888888889,-0.18444444444444444,0.015412002444700375,-0.10810007579270929,0.13281550870586714
1592292815.270353,-6.25,7.37,1.16,0.09555555555555556,-0.8033333333333333,-0.15444444444444444,0.006544984694978735,-0.07744898555724837,0.12435470920459597
1592292815.280353,-6.37763963963964,7.39227885027885,1.038073788073788,0.09555555555555556,-0.8033333333333333,-0.15444444444444444,0.03876918361505851,-0.03163231441827732,0.1454989500504535
1592292815.290353,-5.68043467961625,6.957888191401161,1.033385052706384,0.09555555555555556,-0.8033333333333333,-0.15444444444444444,0.0931982668027222,0.0016599542690411539,0.12226452083562431
1592292815.300353,-6.145858605750296,6.986828278849941,1.130706971248523,0.09555555555555556,-0.8033333333333333,-0.15444444444444444,0.14987134209829733,0.034829466439863704,0.09443619388089734
1592292815.310353,-6.228456085072864,6.970308782985427,0.7177195746356833,0.09555555555555556,-0.8033333333333333,-0.15444444444444444,0.1805052989188657,0.07987940294069952,0.08632720531074689
1592292815.320353,-6.33,7.35,0.51,0.07111111111111111,-0.8155555555555556,-0.14666666666666667,0.22798363354175932,0.05563236990731925,0.06326818538479445
1592292815.330353,-5.9238439897698205,7.348626086956521,0.4938705882352941,0.07111111111111111,-0.8155555555555556,-0.14666666666666667,0.1994491183838102,0.035080950574173105,0.043434370895315155
1592292815.340353,-6.470488502323365,7.632640295484332,0.3038877636125342,0.07111111111111111,-0.8155555555555556,-0.14666666666666667,0.17179902486465243,0.01621052784196985,0.0659113672772799
1592292815.350353,-6.259599818009178,7.568677599303687,0.44471039721474914,0.07111111111111111,-0.8155555555555556,-0.14666666666666667,0.12449272458845512,0.03784692122669057,0.10302697356353377
1592292815.360353,-5.853046763728438,7.6765386137047,0.8761544548188005,0.07111111111111111,-0.8155555555555556,-0.14666666666666667,0.10639147616692922,0.017030485541935786,0.12474847166936484
1592292815.370353,-5.93,7.6,0.6,0.07111111111111111,-0.8088888888888889,-0.1111111111111111,0.07199483164476608,0.06872233929727672,0.1461713248545251
1592292815.380353,-6.463134519459041,7.508288297900717,0.9363653338312571,0.07111111111111111,-0.8088888888888889,-0.1111111111111111,0.04515409190802396,0.14100249961587144,0.15582309245405482
1592292815.390353,-6.315733870194612,7.26718914773272,0.8256840187901447,0.07111111111111111,-0.8088888888888889,-0.1111111111111111,0.035849545558127464,0.20695531071499748,0.1831103417089854
1592292815.400353,-6.41,7.49,0.68,0.07111111111111111,-0.8088888888888889,-0.1111111111111111,0.074176493209759,0.25089107997418486,0.21489366415180183
1592292815.410353,-6.2532206632653065,6.932562358276644,0.6451601473922902,0.07111111111111111,-0.8088888888888889,-0.1111111111111111,0.09127846586671716,0.26514272385498333,0.22249454088822768
1592292815.420353,-6.57,7.1,0.43,0.07111111111111111,-0.8033333333333333,-0.10666666666666667,0.1461713248545251,0.22580197197676635,0.22798363354175932
1592292815.430353,-6.525625997719499,7.197496009122006,0.36938198403648803,0.07111111111111111,-0.8033333333333333,-0.10666666666666667,0.17508957643796572,0.16351225890162288,0.2360170570467579
1592292815.440353,-6.47,7.42,-0.02,0.07111111111111111,-0.8033333333333333,-0.10666666666666667,0.18216874067690814,0.09272061651219875,0.24107360293171679
1592292815.450353,-6.539309807991697,7.459605604566684,0.05921120913336793,0.07111111111111111,-0.8033333333333333,-0.10666666666666667,0.15840708373551157,0.023595796319045043,0.250794280771379
1592292815.460353,-6.429020294998336,7.839180658755684,0.09699323500055451,0.07111111111111111,-0.8033333333333333,-0.10666666666666667,0.12689660986287024,0.009792604600538275,0.30738578325000704
1592292815.470353,-6.02,7.5,-0.08,0.07777777777777778,-0.8155555555555556,-0.09777777777777778,0.06872233929727672,0.02181661564992912,0.40797071265367457
1592292815.4803529,-6.467904250700556,7.370605438686506,0.11906855586691402,0.07777777777777778,-0.8155555555555556,-0.09777777777777778,0.014434812155590407,0.038102873792435016,0.453572235452691
1592292815.4903529,-6.463809932732217,7.323742664949191,0.24190496636610848,0.07777777777777778,-0.8155555555555556,-0.09777777777777778,-0.030587756939671983,0.04811536396547879,0.4700590771964301
1592292815.5003529,-6.34,6.97,0.18,0.07777777777777778,-0.8155555555555556,-0.09777777777777778,-0.039269908169872414,0.02399827721492203,0.4526947747360292
1592292815.5103528,-6.7583855171390415,7.087147944798931,0.31388336548449325,0.07777777777777778,-0.8155555555555556,-0.09777777777777778,-0.06117652262007872,-0.04719821974824851,0.3723705217519394
1592292815.5203528,-6.06,6.99,0.25,0.03666666666666667,-0.8222222222222222,-0.08333333333333333,-0.07963064712224129,-0.2127120025868089,0.23561944901923448
1592292815.5303528,-6.296527994245294,7.581319985613236,0.29927666546776965,0.03666666666666667,-0.8222222222222222,-0.08333333333333333,-0.06457994612795477,-0.29441580798436423,0.158215843905761
1592292815.5403528,-6.08793736166972,7.563724981555962,0.19445607939265572,0.03666666666666667,-0.8222222222222222,-0.08333333333333333,-0.06494193138160288,-0.35931624336339096,0.13394718730868152
1592292815.5503528,-6.319853716316257,7.5507639917086165,0.5284850458987267,0.03666666666666667,-0.8222222222222222,-0.08333333333333333,-0.060987228177947994,-0.3742375863246713,0.16602082729768877
1592292815.5603528,-5.881006810778798,7.012555522653242,0.5119247853124075,0.03666666666666667,-0.8222222222222222,-0.08333333333333333,-0.07182589338617988,-0.3751408084253573,0.1922142682175825
1592292815.5703528,-6.62,7.65,0.55,0.017777777777777778,-0.8088888888888889,-0.08333333333333333,-0.0916297857297023,-0.3359758810089084,0.23671027980173093
1592292815.5803528,-5.549554531105154,7.256314484002706,0.9704264274797685,0.017777777777777778,-0.8088888888888889,-0.08333333333333333,-0.13902641465891802,-0.324045477886577,0.25033143920718715
1592292815.5903528,-6.502194447754081,7.567452162516382,0.5221944477540807,0.017777777777777778,-0.8088888888888889,-0.08333333333333333,-0.10936100420523841,-0.27282014490244305,0.3346216028302342
1592292815.6003528,-6.606112663987106,7.655610960357456,0.694604492685614,0.017777777777777778,-0.8088888888888889,-0.08333333333333333,-0.09654238565792558,-0.24742251272424526,0.42181409039751916
1592292815.6103528,-5.656227327443739,7.441672821496337,0.763064697121172,0.017777777777777778,-0.8088888888888889,-0.08333333333333333,-0.07227187368627581,-0.29316309297850823,0.4330158651536652
1592292815.6203527,-6.32,7.46,0.6,0.017777777777777778,-0.7955555555555556,-0.06222222222222222,-0.03599741582238304,-0.2814343418840856,0.45814892864851153
1592292815.6303527,-5.948904819277108,7.589451807228916,0.8157530120481927,0.017777777777777778,-0.7955555555555556,-0.06222222222222222,-0.03411461560671507,-0.2936725432859275,0.409196123041144
1592292815.6403527,-6.351691462805792,7.61,0.8019071392910635,0.017777777777777778,-0.7955555555555556,-0.06222222222222222,0.005005513673530422,-0.2977135889717244,0.35630911928222053
1592292815.6503527,-5.7559471215522775,7.299137467928158,0.49432929762668376,0.017777777777777778,-0.7955555555555556,-0.06222222222222222,-0.002919537919750076,-0.27722904140614246,0.31423489845063773
1592292815.6603527,-6.336059974342527,6.903988133418858,1.0155901218729957,0.017777777777777778,-0.7955555555555556,-0.06222222222222222,0.009919982949867547,-0.24329602196501013,0.3169862243512701
1592292815.6703527,-6.31,7.05,1.26,0.0033333333333333335,-0.7955555555555556,-0.05444444444444444,0.0643590161672909,-0.22362031041177347,0.3436116964863836
1592292815.6803527,-5.642830584344881,7.030938016695568,1.298123966608864,0.0033333333333333335,-0.7955555555555556,-0.05444444444444444,0.11530284166886531,-0.2205013006871873,0.33841334694540665
1592292815.6903527,-6.121122788662735,7.546002472893285,0.7319987635533574,0.0033333333333333335,-0.7955555555555556,-0.05444444444444444,0.19150102938436153,-0.16600008452265547,0.32918863933493697
1592292815.7003527,-5.292430144447075,7.377614452600837,0.8133576051779935,0.0033333333333333335,-0.7955555555555556,-0.05444444444444444,0.21843124413616946,-0.17488637538193733,0.3183281908885877
1592292815.7103527,-5.416580629883969,7.766619306969769,0.47401294498381874,0.0033333333333333335,-0.7955555555555556,-0.05444444444444444,0.23197396125381356,-0.19294333153879614,0.30839686500231533
1592292815.7203526,-5.5265867202268435,8.130265831758035,0.004803875236294897,-0.0033333333333333335,-0.7833333333333333,-0.03333333333333333,0.21239483167994172,-0.16339018670417527,0.3263638368902706
1592292815.7303526,-5.260037875155815,7.370795378272126,0.38215888388148433,-0.0033333333333333335,-0.7833333333333333,-0.03333333333333333,0.187527869201923,-0.1452292294611081,0.4278783482852564
1592292815.7403526,-5.274299529534762,7.580365917407214,0.9446027182435964,-0.0033333333333333335,-0.7833333333333333,-0.03333333333333333,0.16235416730473387,-0.18409095216033497,0.5000595254507629
1592292815.7503526,-5.740286379235533,7.619952270127412,0.36338882095380853,-0.0033333333333333335,-0.7833333333333333,-0.03333333333333333,0.1427374303428156,-0.15596276928986091,0.550044246970963
1592292815.7603526,-5.789921107648613,7.611679815391898,0.9507331071752594,-0.0033333333333333335,-0.7833333333333333,-0.03333333333333333,0.1147635006986652,-0.15145084515370763,0.5960658731597266
1592292815.7703526,-5.46,7.62,0.7,-0.03,-0.7777777777777778,-0.02666666666666667,0.09053895494720585,-0.16689710972195776,0.657770961845363
1592292815.7803526,-5.150409690204643,7.712040362371593,0.7083673056701447,-0.03,-0.7777777777777778,-0.02666666666666667,0.09145168640636095,-0.17693715577266395,0.6732873966509998
1592292815.7903526,-5.953350674224189,8.004702487253152,0.7394324093485519,-0.03,-0.7777777777777778,-0.02666666666666667,0.09377017093773143,-0.21849337467795762,0.6945083594160503
1592292815.8003526,-5.25488804373663,8.30388162586166,0.7595921083907773,-0.03,-0.7777777777777778,-0.02666666666666667,0.10342870101169535,-0.2855091795544552,0.6841733709869089
1592292815.8103526,-5.4100068965517245,8.131897536945813,0.27426600985221683,-0.03,-0.7777777777777778,-0.02666666666666667,0.08066860216631526,-0.29571938893920174,0.6733538288541172
1592292815.8203526,-5.34,8.34,0.71,-0.056666666666666664,-0.7711111111111111,-0.02666666666666667,0.05781403147231216,-0.32070425005395803,0.6686792696703274
1592292815.8303525,-5.082539732125425,8.450340114803389,0.5702358545823734,-0.056666666666666664,-0.7711111111111111,-0.02666666666666667,0.028124641008618743,-0.3319380734726528,0.6710865175457621
1592292815.8403525,-5.069686993499364,8.361274856654873,0.7713205179595323,-0.056666666666666664,-0.7711111111111111,-0.02666666666666667,0.0007369414673084676,-0.3179222218720628,0.6879994590283462
1592292815.8503525,-5.1702498817880915,8.36614265449387,1.15971374531699,-0.056666666666666664,-0.7711111111111111,-0.02666666666666667,-0.024695594750381064,-0.3041742734013073,0.6871688772234802
1592292815.8603525,-4.499608804175176,8.074197413206264,1.25,-0.056666666666666664,-0.7711111111111111,-0.02666666666666667,-0.04662067696499614,-0.2829426437802101,0.6253198475403349
1592292815.8703525,-5.13939779315504,8.589562683124493,1.3499283087089335,-0.08886578836176742,-0.7511254493693243,0.0010911968635925993,-0.03273821799630618,-0.22365862991466834,0.5520010415381156
1592292815.8803525,-5.146345157590857,8.018935816822873,0.9375647565942975,-0.08888888888888889,-0.7511111111111111,0.0011111111111111111,-0.045183611270709766,-0.20839302532799825,0.5235822537416256
1592292815.8903525,-5.002390678778988,8.14205354623935,1.2627605371551092,-0.08888888888888889,-0.7511111111111111,0.0011111111111111111,-0.04531539293733606,-0.1643996100843823,0.4780520204248061
1592292815.9003525,-4.572175834425174,8.258342031045279,0.9356991850058849,-0.08888888888888889,-0.7511111111111111,0.0011111111111111111,0.0027525484884699455,-0.12820932840989824,0.4765517533798712
1592292815.9103525,-4.924343086632243,8.668997046386604,1.0641524829476638,-0.08888888888888889,-0.7511111111111111,0.0011111111111111111,0.011491470351405313,-0.1040129553693216,0.49092199507691753
1592292815.9203525,-4.949513057831751,8.525079879738254,0.6815115250840065,-0.10918928124611081,-0.7267506402824448,0.027501621175499615,0.008013165889058592,-0.10016775678388223,0.5191530115638056
1592292815.9303524,-4.757668898356665,8.638320146074255,0.6022763237979306,-0.1111111111111111,-0.7244444444444444,0.03,-0.003337557117230482,-0.10241393935118126,0.5145587561616148
1592292815.9403524,-4.571789007843968,8.320254928980283,0.6408307716769133,-0.1111111111111111,-0.7244444444444444,0.03,-0.040151684250783796,-0.15197406707541644,0.45268422371748956
1592292815.9503524,-4.578169764529673,8.759668524566013,0.9407162324747711,-0.1111111111111111,-0.7244444444444444,0.03,-0.058598159004130526,-0.15133323886061067,0.3993728169417781
1592292815.9603524,-5.041701293299797,8.567796042859124,1.1743595888376146,-0.1111111111111111,-0.7244444444444444,0.03,-0.06329823718845158,-0.10842721005739298,0.41882418835952917
1592292815.9703524,-4.347696822763813,8.54678448385862,1.523922419293097,-0.12478144981781578,-0.7244444444444444,0.03,-0.04267922413088661,-0.03399238616538911,0.46368019373280733
1592292815.9803524,-4.671248176956733,8.506956733106467,1.4539134662129314,-0.12555555555555556,-0.7244444444444444,0.03,-0.0526028883552013,-0.02056576630223174,0.4745884167209888
1592292815.9903524,-4.807640535699053,8.409213511899685,1.1021189115414143,-0.12555555555555556,-0.7244444444444444,0.03,-0.03470699175928821,-0.029996962539088113,0.5153010920532729
1592292816.0003524,-4.405719335116546,8.498025888421857,0.9174168895682079,-0.12555555555555556,-0.7244444444444444,0.03,0.010284425144910458,-0.022031957817681212,0.5679585848147559
1592292816.0103524,-4.381928829797634,8.305330921888748,0.739188581484016,-0.12555555555555556,-0.7244444444444444,0.03,0.016068985707196545,-0.018333720610694174,0.5889267318858129
1592292816.0203524,-4.409043210919288,8.534691374708606,0.8513888982735903,-0.11920781858245962,-0.6990534965520607,0.022594306864721407,0.031942152238695676,-0.015376000453110118,0.5882709002600689
1592292816.0303524,-4.785947254682248,8.642337922202657,0.6621330238514487,-0.11888888888888889,-0.6977777777777778,0.022222222222222223,0.03056652959067036,-0.0016018030215360357,0.5879577917655897
1592292816.0403523,-4.334325609031492,8.234716775599129,0.73383541295306,-0.11888888888888889,-0.6977777777777778,0.022222222222222223,0.0023631426220927405,-0.015314300608256594,0.5825399340645274
1592292816.0503523,-4.678487417943107,8.722884672767059,0.8308983986473045,-0.11888888888888889,-0.6977777777777778,0.022222222222222223,0.016656462007276735,-0.04810488887745921,0.5937497788140376
1592292816.0603523,-4.505850329877474,8.55663713477851,0.8446065975494816,-0.11888888888888889,-0.6977777777777778,0.022222222222222223,0.01058992094775108,-0.07095244567515487,0.586046072264925
1592292816.0703523,-4.437026322402311,8.624604221635884,0.6242926247015956,-0.1323927489494772,-0.6977777777777778,0.02897415225251637,0.01704520750236782,-0.13343972332341078,0.5436182752879579
1592292816.0803523,-4.487874266144814,8.781287508153946,0.6674551532941944,-0.13444444444444445,-0.6977777777777778,0.03,0.018335100769916377,-0.1701728930625124,0.5154730468828923
1592292816.0903523,-3.8585035765379114,8.750026531408507,1.019920405774483,-0.13444444444444445,-0.6977777777777778,0.03,-0.00890145724842166,-0.20543593853321906,0.491421438110436
1592292816.1003523,-4.170992074859162,8.560387663515707,0.7238140933829849,-0.13444444444444445,-0.6977777777777778,0.03,-0.04933428814081448,-0.18892175189536065,0.4851575623977034
1592292816.1103523,-4.201366253399739,8.733377485782912,0.6467362509272014,-0.13444444444444445,-0.6977777777777778,0.03,-0.08022882973317899,-0.184476665972403,0.48432886742842646
1592292816.1203523,-3.5730071825450604,8.369851605908659,0.8249037810001355,-0.15314733252021503,-0.7046683154899038,0.023109462287873996,-0.16151731383679566,-0.18229317580513235,0.509455154439505
1592292816.1303523,-3.6944848290769357,8.519392362501,0.9646961812505004,-0.15555555555555556,-0.7055555555555556,0.022222222222222223,-0.16037229810445533,-0.13973873301977155,0.5436970118304726
1592292816.1403522,-4.164085055077547,8.443669644325094,1.5878634844083959,-0.15555555555555556,-0.7055555555555556,0.022222222222222223,-0.16063049700805507,-0.0671858981321021,0.6249910096131235
1592292816.1503522,-4.286202792123951,8.553936410587475,1.0611132182052936,-0.15555555555555556,-0.7055555555555556,0.022222222222222223,-0.11460228412696526,-0.04550477368741934,0.6872060516506117
1592292816.1603522,-4.234302106638903,8.578059278293424,0.9552772301353476,-0.15555555555555556,-0.7055555555555556,0.022222222222222223,-0.06800172357400602,-0.08423904049115848,0.7719713492894171
1592292816.1703522,-4.227068599717114,9.096202263083452,1.055259900990099,-0.15991375923306617,-0.6994540704070408,0.0335535517837498,-0.017999093636362137,-0.15405130436499898,0.7959867050559738
1592292816.1803522,-3.8220750534080374,8.910909750493772,1.0837514611632875,-0.16111111111111112,-0.6977777777777778,0.03666666666666667,-0.008117673454232767,-0.1749239868697753,0.775943871580641
1592292816.1903522,-3.836131924431636,9.301380083253282,1.238268758672217,-0.16111111111111112,-0.6977777777777778,0.03666666666666667,0.001661336795329484,-0.19801087764469155,0.7375422561642374
1592292816.2003522,-3.3616425366800047,8.83787243846247,0.809182733115072,-0.16111111111111112,-0.6977777777777778,0.03666666666666667,-0.032098836603804956,-0.19018015007823164,0.7232029787976384
1592292816.2103522,-3.017131429349491,8.641217619225925,0.8829557136535385,-0.16111111111111112,-0.6977777777777778,0.03666666666666667,-0.04471455625533631,-0.16295126320590828,0.7360356290514897
1592292816.2203522,-3.63873615716699,9.18850403553776,1.5643846586998686,-0.19936501977795854,-0.6879918941653285,0.03666666666666667,-0.043191111434437976,-0.09181467345977694,0.8116251260407894
1592292816.2303522,-3.1750781725888326,9.139792081218275,1.379688121827411,-0.2088888888888889,-0.6855555555555556,0.03666666666666667,-0.0270836117936379,-0.07261681560484864,0.8418510152439919
1592292816.2403522,-2.8565366582513265,9.22532227317224,0.8680885156370757,-0.2088888888888889,-0.6855555555555556,0.03666666666666667,0.0036952461805533215,-0.038821807091566254,0.8724757300076769
1592292816.2503521,-2.72445795508839,8.79706856187291,0.9995759675107502,-0.2088888888888889,-0.6855555555555556,0.03666666666666667,0.018305605047490157,-0.0438254947856026,0.8813820213032953
1592292816.2603521,-3.0491624471317094,9.049162447131708,0.9635243541629436,-0.2088888888888889,-0.6855555555555556,0.03666666666666667,0.015646461214299905,-0.030942135023216077,0.9049762506463637
1592292816.2703521,-2.4729913139659714,8.758579654510557,1.2300673411626923,-0.2324612598544737,-0.6737693700727632,0.053892630064594015,0.0015189088503989503,-0.015786793792697252,0.9679225889350533
1592292816.280352,-2.3647066666666667,8.7834575,1.227205,-0.23777777777777778,-0.6711111111111111,0.057777777777777775,0.015672874877778662,0.004347506083639624,1.0055939014701394
1592292816.290352,-2.326074109953984,8.838633782729206,1.3804114528672533,-0.23777777777777778,-0.6711111111111111,0.057777777777777775,0.04360719413982287,0.01296697536453673,1.0893754314734643
1592292816.300352,-2.0314984914515586,7.920244720080456,0.9496999664767014,-0.23777777777777778,-0.6711111111111111,0.057777777777777775,0.12774019743267248,0.03958201815071745,1.1854864077534017
1592292816.310352,-2.6913048433048434,9.192552706552707,0.34443304843304845,-0.23777777777777778,-0.6711111111111111,0.057777777777777775,0.24774538505098564,0.08178123088716308,1.300837151809073
1592292816.320352,-2.645299040620535,8.708724229434578,1.3219112744097434,-0.23777777777777778,-0.6627326060496095,0.04863759043795786,0.46452468872730385,0.20308364147506142,1.4783535206942706
1592292816.330352,-2.276777919388243,8.506877489246456,1.7026262545802133,-0.23777777777777778,-0.6588888888888889,0.044444444444444446,0.5299173221047173,0.24116909624300906,1.5502133039933905
1592292816.340352,-1.6217818245186024,9.859514681536986,1.177513287444454,-0.23777777777777778,-0.6588888888888889,0.044444444444444446,0.5617191152124255,0.22516517087519572,1.5658962848857214
1592292816.350352,-1.264812352562728,9.83600686253485,0.46844163271141614,-0.23777777777777778,-0.6588888888888889,0.044444444444444446,0.5178865153243852,0.27885678726864344,1.51878766103322
1592292816.360352,-1.2701506891271057,9.73226830015314,0.3757874425727412,-0.23777777777777778,-0.6588888888888889,0.044444444444444446,0.4832051613782431,0.30142029958926403,1.493279118375233
1592292816.370352,-1.5383844638333803,9.817218849262192,0.39674842185678094,-0.27848216798681197,-0.648904793177239,0.06364462850530961,0.3967880195054299,0.32338336659603567,1.4026299217954892
1592292816.380352,-1.5243285057209108,10.082957387767514,0.19757136883719162,-0.2966666666666667,-0.6444444444444445,0.07222222222222222,0.35024856855027603,0.3116253965234301,1.3520145746823866
1592292816.390352,-1.4974115075250134,10.468369160057172,-0.005461450071466617,-0.2966666666666667,-0.6444444444444445,0.07222222222222222,0.2358745703129183,0.24815227874998355,1.2051356387504604
1592292816.400352,-1.4105064050280671,10.249915799069232,-0.20139231396631962,-0.2966666666666667,-0.6444444444444445,0.07222222222222222,0.11418289402400512,0.19462817083222966,1.055123410535158
1592292816.410352,-1.3061217055924579,10.207034191435307,-0.14961982307386207,-0.2966666666666667,-0.6444444444444445,0.07222222222222222,0.051663086817256315,0.1658975348863395,0.9833653018854904
1592292816.420352,-0.8857337834925652,9.9193736082178,0.44833668558293227,-0.31669276632425836,-0.6170754415790692,0.07756251546424665,-0.10021769799783356,0.09422130221947417,0.8086514065573472
1592292816.430352,-0.7815909705848247,9.666692049012408,0.48310579413242627,-0.33,-0.5988888888888889,0.0811111111111111,-0.15296975873328436,0.07344650390368807,0.744877622015113
1592292816.440352,-0.7174054317511034,9.483513579377759,0.4275134710676668,-0.33,-0.5988888888888889,0.0811111111111111,-0.18602497266736623,0.05033742040082804,0.704883060480588
1592292816.450352,-0.667208574296229,9.520214357405726,0.5632514457773742,-0.33,-0.5988888888888889,0.0811111111111111,-0.15551038060580272,0.03401989075449212,0.7053358605153408
1592292816.460352,-0.724222075201235,10.03792149079281,0.4998456279633917,-0.33,-0.5988888888888889,0.0811111111111111,-0.13075006400725742,0.023280558913107458,0.7053153790041292
1592292816.470352,-0.27867598863884646,10.415109460345205,0.4574634039764037,-0.3514011603913286,-0.6051021290025005,0.07489787099749957,-0.05626999469986699,-0.02654891938237529,0.6196599988205908
1592292816.480352,0.0200702332748056,9.827940301716415,0.59,-0.36444444444444446,-0.6088888888888889,0.07111111111111111,-0.038828212973605884,-0.06521367682803139,0.4828787000141354
1592292816.490352,0.4789656812237457,10.242774563419724,0.4702139969881905,-0.36444444444444446,-0.6088888888888889,0.07111111111111111,-0.035655852153413985,-0.06623023866359205,0.3047883975114162
1592292816.500352,1.3716835515626493,10.043187661282616,0.3120515148618943,-0.36444444444444446,-0.6088888888888889,0.07111111111111111,-0.03632105258588918,-0.03676862369830983,0.24709123459166132
1592292816.510352,1.4006253733126268,9.850803070123044,0.3542008123282762,-0.36444444444444446,-0.6088888888888889,0.07111111111111111,-0.045129230593939584,-0.016132495948005837,0.2108099877616604
1592292816.520352,-0.12839051483042502,9.672467798479536,0.9339484775672589,-0.3603636156738138,-0.5995612802703046,0.07111111111111111,-0.08020298201895427,0.07902436743811063,0.03992418320532652
1592292816.5303519,-0.3205575439433707,9.72,0.9763867016622922,-0.3566666666666667,-0.5911111111111111,0.07111111111111111,-0.07405485599055436,0.08735730009508542,-0.004333304244219199
1592292816.5403519,-0.30369644213038294,9.6868063238963,0.780502766026684,-0.3566666666666667,-0.5911111111111111,0.07111111111111111,-0.019799483882426312,0.07567054327840932,-0.004766542416139668
1592292816.5503519,-0.28397067027974815,9.678989001354905,0.6930329959352833,-0.3566666666666667,-0.5911111111111111,0.07111111111111111,0.003595342440005554,0.06436701460771409,-0.000980547938183333
1592292816.5603518,-0.3675365375922857,9.713768268796143,0.6529471146602381,-0.3566666666666667,-0.5911111111111111,0.07111111111111111,0.011999138607461015,0.036071047311091564,-0.005775634251575706
1592292816.5703518,-0.3080695652173913,9.73,0.6697855072463769,-0.35496425120772945,-0.5967858293075684,0.06713880837359099,0.01311336691978493,0.009583501744193501,-0.007055303791485773
1592292816.5803518,-0.2429051000645578,9.72713686249193,0.6514105874757908,-0.35333333333333333,-0.6022222222222222,0.06333333333333334,0.01574239943661525,-0.0020277903409932504,-0.00607879361814681
1592292816.5903518,-0.28846208733707546,9.708462087337075,0.5838483493483018,-0.35333333333333333,-0.6022222222222222,0.06333333333333334,0.019005658570012518,-0.0012168455553673838,-0.009523702022246255
1592292816.6003518,-0.28,9.705705714218222,0.6527028559279995,-0.35333333333333333,-0.6022222222222222,0.06333333333333334,0.0191665201729762,0.004825212005715136,-0.01090830782496456
1592292816.6103518,-0.29693165422774803,9.697301259329189,0.751164567784685,-0.35333333333333333,-0.6022222222222222,0.06333333333333334,0.022405389529468273,0.012714947125783978,-0.008137872380432494
1592292816.6203518,-0.3126199660546212,9.683690016972688,0.7763099830273106,-0.3607133672787121,-0.6001722127929503,0.069483361621149,0.029400086061310126,0.02325761977650579,-0.002753249489288231
1592292816.6303518,-0.3059645646345728,9.707893693903719,0.6805315304814081,-0.37333333333333335,-0.5966666666666667,0.08,0.04271418188898467,0.03140433033967883,0.0019518992122745185
1592292816.6403518,-0.3042748570631711,9.754350857620974,0.5283977130107377,-0.37333333333333335,-0.5966666666666667,0.08,0.054241716579529184,0.032724923474893676,0.005146040992394903
1592292816.6503518,-0.2943683191046703,9.751841595523352,0.48815840447664827,-0.37333333333333335,-0.5966666666666667,0.08,0.0595191833425909,0.0321106023871114,0.0077736268705432925
1592292816.6603518,-0.294133524215231,9.738267048430462,0.5389346695066168,-0.37333333333333335,-0.5966666666666667,0.08,0.05774120531022085,0.029830502510729842,0.00962844135080534
1592292816.6703517,-0.29677642512077296,9.746776425120773,0.58,-0.37333333333333335,-0.5920103918411165,0.07713460010735373,0.05348662671243985,0.025512582208439816,0.010556670354170242
1592292816.6803517,-0.29,9.751706112270101,0.5624408315948493,-0.37333333333333335,-0.5822222222222222,0.07111111111111111,0.05126904677733343,0.016708860606895096,0.012371354563985117
1592292816.6903517,-0.3012140306180478,9.748785969381952,0.5051438775278088,-0.37333333333333335,-0.5822222222222222,0.07111111111111111,0.04821089432882735,0.01308996938995747,0.016015691641557573
1592292816.7003517,-0.32598874314108756,9.729340837905943,0.4966479052351459,-0.37333333333333335,-0.5822222222222222,0.07111111111111111,0.04290805733289659,0.009601766751612,0.018616026732725117
1592292816.7103517,-0.3007264653641208,9.731782060390763,0.52,-0.37333333333333335,-0.5822222222222222,0.07111111111111111,0.04121755456273403,0.002689314448335534,0.017921322864205894
1592292816.7203517,-0.2280574486927727,9.744028724346386,0.5408994647876477,-0.3753237585512046,-0.580231797004351,0.06878894835692803,0.03993693999986842,-0.006203635429669402,0.014945948390263713
1592292816.7303517,-0.32645070096164985,9.724502143436451,0.58450214343645,-0.38,-0.5755555555555556,0.06333333333333334,0.030817138668754875,-0.00889190756586811,0.01178190770154572
1592292816.7403517,-0.3345837257487286,9.71469909587493,0.5640972876247881,-0.38,-0.5755555555555556,0.06333333333333334,0.027783361405438904,-0.014705976943985465,0.008660999163530206
