time,acc_x,acc_y,acc_z,mag_x,mag_y,mag_z,gyr_x,gyr_y,gyr_z
1592292974.9502008,-0.415237016007825,9.721587661330725,0.96952596798435,-0.3466666666666667,-0.5511111111111111,0.017777777777777778,0.019410058228306812,-0.016760544579249647,0.009419394200665296
1592292974.9602008,-0.4011837291053878,9.726804648827033,1.0008278929621923,-0.3466666666666667,-0.5511111111111111,0.017777777777777778,0.026438188409173734,-0.011870013792831619,0.012741410647921513
1592292974.9702008,-0.46,9.708393021553862,0.9080348922306948,-0.3466666666666667,-0.5511111111111111,0.017777777777777778,0.04067226141455777,-0.007031801312753306,0.01073301366937889
1592292974.9802008,-0.45889518903313914,9.70220962193372,0.9477903780662783,-0.3466666666666667,-0.5511111111111111,0.017777777777777778,0.0490812000601864,-0.016838341309889326,0.010058509404766403
1592292974.9902008,-0.4516445105191281,9.716710978961745,0.9332890210382562,-0.3466666666666667,-0.5511111111111111,0.017777777777777778,0.056199537045548476,-0.027120383622078983,0.011640362068180195
1592292975.0002007,-0.4394835774633805,9.748247262910564,0.9247417887316903,-0.35333333333333333,-0.5644444444444444,0.06,0.06455021012436896,-0.043554703262724065,0.014754382043688128
1592292975.0102007,-0.39,9.74,0.9,-0.35333333333333333,-0.5644444444444444,0.06,0.06544984694978735,-0.053450708342326333,0.017453292519943295
1592292975.0202007,-0.3877280524722503,9.709242684157417,0.853029263370333,-0.35333333333333333,-0.5644444444444444,0.06,0.06921800135717396,-0.04758350271326304,0.01770112354989191
1592292975.0302007,-0.3711492521629479,9.703716417387648,0.8965037304283863,-0.35333333333333333,-0.5644444444444444,0.06,0.07617947005184238,-0.041224856209069585,0.021131183116137958
1592292975.0402007,-0.4592987495183719,9.733099583172791,0.9479242705523836,-0.35333333333333333,-0.5644444444444444,0.06,0.08339118394010886,-0.030807936148240213,0.024336389288700834
1592292975.0502007,-0.5731148952453841,9.744672342868077,0.9437702095092317,-0.38,-0.5511111111111111,0.06888888888888889,0.09987368223363945,-0.016773727796359928,0.03636412197082775
1592292975.0602007,-0.59,9.775286403208607,0.8899116678072926,-0.38,-0.5511111111111111,0.06888888888888889,0.10931374110359107,-0.01389728937876662,0.051908187399428006
1592292975.0702007,-0.59,9.808664035269214,0.7630766659769859,-0.38,-0.5511111111111111,0.06888888888888889,0.11077011504353308,-0.018994598168563727,0.06283099194899323
1592292975.0802007,-0.6901509647058823,9.790226447058823,0.7203774117647058,-0.38,-0.5511111111111111,0.06888888888888889,0.10247222277536806,-0.029567704991177206,0.0840763087263506
1592292975.0902007,-0.7059412705882353,9.813911905882353,0.7598531764705883,-0.38,-0.5511111111111111,0.06888888888888889,0.09558240208676588,-0.04162489119623102,0.09268858458710333
1592292975.1002007,-0.7682224260814339,9.853426010867263,0.7665739891327359,-0.3466666666666667,-0.5644444444444444,0.07555555555555556,0.08091538113959122,-0.060175509613969516,0.10301688598054562
1592292975.1102006,-0.8816939390287987,9.9016939390288,0.7166121219424026,-0.3466666666666667,-0.5644444444444444,0.07555555555555556,0.06822959240760053,-0.07886563286506743,0.12688003701418646
1592292975.1202006,-0.9106601542173235,9.933300771086618,0.66,-0.3466666666666667,-0.5644444444444444,0.07555555555555556,0.059419599804144074,-0.10484246648731088,0.17239130737762645
1592292975.1302006,-0.9186947047673039,9.981305295232696,0.6565192127128103,-0.3466666666666667,-0.5644444444444444,0.07555555555555556,0.050367271171288565,-0.13939061542865028,0.22139277161189394
1592292975.1402006,-0.896403174659415,10.003596825340585,0.5970751324251067,-0.3466666666666667,-0.5644444444444444,0.07555555555555556,0.03496695592522184,-0.17262287464384687,0.25786720245784145
1592292975.1502006,-0.9906039539430805,10.093132015352307,0.5480126487556425,-0.36,-0.5511111111111111,0.06666666666666667,-0.008391895210224444,-0.2343187306714478,0.3298782667485403
1592292975.1602006,-1.1535062683382233,10.05051880501467,0.61,-0.36,-0.5511111111111111,0.06666666666666667,-0.051821299864870975,-0.28126393291415175,0.39378928205532154
1592292975.1702006,-1.179479306369262,10.122710289169667,0.6167690171995953,-0.36,-0.5511111111111111,0.06666666666666667,-0.08236864496264873,-0.33238443724535627,0.4723967170881195
1592292975.1802006,-1.1702899185425242,9.99,0.740869755627573,-0.36,-0.5511111111111111,0.06666666666666667,-0.1129564495312788,-0.3876088565285147,0.5555179728763989
1592292975.1902006,-1.1776373828501356,9.99,0.7629121485504073,-0.36,-0.5511111111111111,0.06666666666666667,-0.1281846459873483,-0.424477121632683,0.6180337267486844
1592292975.2002006,-1.0308796895213455,10.00817593790427,0.8072962483829237,-0.37333333333333335,-0.5577777777777778,0.04555555555555556,-0.15896988860853753,-0.4865211127332237,0.7244358221246838
1592292975.2102005,-0.9390358431561222,9.983250902092855,0.894462352658167,-0.37333333333333335,-0.5577777777777778,0.04555555555555556,-0.1780157639398136,-0.5203923576292152,0.8105951736363299
1592292975.2202005,-0.9216271291717433,9.906394084904083,1.0477923505100457,-0.37333333333333335,-0.5577777777777778,0.04555555555555556,-0.17781790011804957,-0.5314629257067073,0.9034371346256593
1592292975.2302005,-0.853195848617697,9.791597924308848,1.1984020756911515,-0.37333333333333335,-0.5577777777777778,0.04555555555555556,-0.15586231744730944,-0.5319346473702043,0.9967915460770987
1592292975.2402005,-0.8832167844681041,9.806608392234052,1.1833916077659479,-0.37333333333333335,-0.5577777777777778,0.04555555555555556,-0.12393325052595836,-0.5180168489685897,1.0663805380851716
1592292975.2502005,-0.81,9.72,1.17,-0.36777777777777776,-0.5455555555555556,0.08333333333333333,-0.08617563181722002,-0.5159629601208237,1.1639164449237185
1592292975.2602005,-0.3241091417910448,9.800981809701494,0.9810424440298506,-0.36777777777777776,-0.5455555555555556,0.08333333333333333,-0.0626189782586445,-0.5218521235104675,1.2208450243569426
1592292975.2702005,0.012343437231913069,9.797656562768088,0.822343437231913,-0.36777777777777776,-0.5455555555555556,0.08333333333333333,-0.03807697121747685,-0.5369443743351983,1.3065927130145942
1592292975.2802005,0.04,9.77,0.85,-0.36777777777777776,-0.5455555555555556,0.08333333333333333,-0.02399827721492203,-0.5399612373357456,1.3940817400304706
1592292975.2902005,0.30817008725574535,9.736478739093032,0.9304510261767236,-0.36777777777777776,-0.5455555555555556,0.08333333333333333,-0.01668507256183884,-0.5553189671072204,1.456975300046986
1592292975.3002005,0.6,9.58,1.0,-0.4066666666666667,-0.5311111111111111,0.08333333333333333,-0.004363323129985824,-0.593411945678072,1.576250480707379
1592292975.3102005,0.7463917030392824,9.488505185600449,1.0182989628799104,-0.4066666666666667,-0.5311111111111111,0.08333333333333333,0.002623052069022331,-0.6023944280767968,1.6401259110983106
1592292975.3202004,1.073229899918594,9.45418618014653,0.9106459799837189,-0.4066666666666667,-0.5311111111111111,0.08333333333333333,0.027941575907707548,-0.6331412637379055,1.7088102662172835
1592292975.3302004,1.12,9.37,0.92,-0.4066666666666667,-0.5311111111111111,0.08333333333333333,0.053450708342326333,-0.6555893002803701,1.780235837034216
1592292975.3402004,1.217856682917855,9.350428663416428,0.9721902308895226,-0.4066666666666667,-0.5311111111111111,0.08333333333333333,0.06697175206229988,-0.6819197538403186,1.8215106020741354
1592292975.3502004,1.39,9.29,1.05,-0.43333333333333335,-0.49777777777777776,0.06,0.08617563181722002,-0.7341291166201148,1.8685931304164292
1592292975.3602004,1.6121829563012557,9.170973416267184,0.8357521492809319,-0.43333333333333335,-0.49777777777777776,0.06,0.10521851816632162,-0.7557687601986394,1.898888631426363
1592292975.3702004,2.032853695252204,9.088022508422737,0.6265393897397912,-0.43333333333333335,-0.49777777777777776,0.06,0.15220640721507986,-0.7663147629238573,1.9477800793615552
1592292975.3802004,2.28,9.05,0.56,-0.43333333333333335,-0.49777777777777776,0.06,0.18435040224190105,-0.755945732270044,1.960222916146131
1592292975.3902004,2.5070115148260843,9.026104051070938,0.5480520255354693,-0.43333333333333335,-0.49777777777777776,0.06,0.18956368957565775,-0.7344409220182976,1.954357967895655
1592292975.4002004,3.12,8.9,0.42,-0.48,-0.48333333333333334,0.06666666666666667,0.1974403716318585,-0.6490443155853912,1.9285888234537343
1592292975.4102004,3.20823318421795,8.843851610043123,0.3959364043041954,-0.48,-0.48333333333333334,0.06666666666666667,0.2061901419393695,-0.5711713598485436,1.9040894665927033
1592292975.4202003,3.4197463180889294,8.982790501021775,0.21253681911070396,-0.48,-0.48333333333333334,0.06666666666666667,0.23659959018670768,-0.45996639063296263,1.8469104184535625
1592292975.4302003,3.4094493728969106,9.089541144080759,0.3096329152646069,-0.48,-0.48333333333333334,0.06666666666666667,0.2322969032556012,-0.3616052322112403,1.7672156087374193
1592292975.4402003,3.358127256041603,9.046772713368002,0.275418170694402,-0.48,-0.48333333333333334,0.06666666666666667,0.22763159118154705,-0.3102867993966449,1.6720432424267149
1592292975.4502003,3.45,9.26,0.31,-0.5288888888888889,-0.4444444444444444,0.05444444444444444,0.18871372537188688,-0.24870941840919195,1.5282539262775348
1592292975.4602003,3.635860465116279,9.306465116279071,0.10555348837209302,-0.5288888888888889,-0.4444444444444444,0.05444444444444444,0.15931608946518472,-0.2507368415751714,1.4055948247357775
1592292975.4702003,3.9870566763675828,9.280259705026388,-0.21731638139397233,-0.5288888888888889,-0.4444444444444444,0.05444444444444444,0.10301025061659191,-0.24223997884412124,1.270822435209541
1592292975.4802003,4.14,8.96,-0.09,-0.5288888888888889,-0.4444444444444444,0.05444444444444444,0.07308566242726255,-0.2694352032766246,1.1213740444063567
1592292975.4902003,4.348421800611099,9.142369075534713,-0.03789454984722518,-0.5288888888888889,-0.4444444444444444,0.05444444444444444,0.03614081360164961,-0.2765399818969348,1.0211966658599831
1592292975.5002003,4.3,8.89,-0.25,-0.5688888888888889,-0.41888888888888887,0.09222222222222222,-0.03599741582238304,-0.2945243112740431,0.8268497331323136
1592292975.5102003,4.650726170113513,8.984988337739075,-0.14770486705022545,-0.5688888888888889,-0.41888888888888887,0.09222222222222222,-0.07505275379479659,-0.2913361204191522,0.7256246734895275
1592292975.5202003,4.663458146114162,8.631527153713872,-0.0031699672713152577,-0.5688888888888889,-0.41888888888888887,0.09222222222222222,-0.15089305430418287,-0.2318942440462807,0.5781371076431043
1592292975.5302002,4.9071783429428955,8.817742674354317,0.0,-0.5688888888888889,-0.41888888888888887,0.09222222222222222,-0.17120520636654904,-0.21013565688828656,0.4847344503925369
1592292975.5402002,4.579873073436083,8.712308250226656,0.23461468721668177,-0.5688888888888889,-0.41888888888888887,0.09222222222222222,-0.2053418236897313,-0.161708790183306,0.3875248054938089
1592292975.5502002,4.746885060285207,8.986455413427995,0.5077443539996328,-0.5930707713650367,-0.3925086534603641,0.06254445736513183,-0.2288987123177118,-0.08902515100708001,0.3104520830534243
1592292975.5602002,4.344895917379377,9.044533241891239,0.7125520413103115,-0.5933333333333334,-0.39222222222222225,0.06222222222222222,-0.22567523352858218,-0.04331748533953824,0.2817522881646866
1592292975.5702002,4.154052900135374,8.765704988024575,0.5706388628553578,-0.5933333333333334,-0.39222222222222225,0.06222222222222222,-0.2039997826008534,0.010879455276932272,0.2603361433208897
1592292975.5802002,4.2268895830830235,8.846111978853779,0.6753343746245345,-0.5933333333333334,-0.39222222222222225,0.06222222222222222,-0.16305460160620772,0.06341408383812558,0.2763924310502126
1592292975.5902002,4.037828216599815,8.800407281703178,0.68,-0.5933333333333334,-0.39222222222222225,0.06222222222222222,-0.12425108701170456,0.08303145765418815,0.3102055927739321
1592292975.6002002,4.05,8.91,0.78,-0.6144444444444445,-0.38555555555555554,0.06888888888888889,-0.05781403147231216,0.13962634015954636,0.37742745074377376
1592292975.6102002,3.806255969436485,8.970936007640878,0.6581279847182426,-0.6144444444444445,-0.38555555555555554,0.06888888888888889,-0.02873302457982666,0.14544254153804345,0.39986137034654834
1592292975.6202002,3.9991520392359314,8.804377903975219,0.2116313887454827,-0.6144444444444445,-0.38555555555555554,0.06888888888888889,0.0026380985031515987,0.15029939008085172,0.42409087705288223
1592292975.6302001,4.354429683051812,8.975794268362119,0.38437369519832987,-0.6144444444444445,-0.38555555555555554,0.06888888888888889,0.0175368800941382,0.1434411942345827,0.42339730410220977
1592292975.6402001,4.026477111286503,8.836294396211523,0.36925887924230466,-0.6144444444444445,-0.38555555555555554,0.06888888888888889,0.032795801647087064,0.15379717477058955,0.42408067762889823
1592292975.6502001,3.9110107411705197,8.82595703531792,0.3689892588294802,-0.6014599594685286,-0.3645806182867684,0.06689127581567107,0.05964149516383714,0.16002136075239717,0.4007993498078612
1592292975.6602,4.214513220874576,9.080775593661414,0.44165016961754733,-0.6,-0.3622222222222222,0.06666666666666667,0.0631543322346719,0.15937514739460512,0.3571201750515022
1592292975.6702,4.065957380271623,8.99288196926376,0.2994196747676912,-0.6,-0.3622222222222222,0.06666666666666667,0.06235564286256261,0.14283552884430956,0.3350000348239504
1592292975.6802,4.508259668508287,9.060237673303451,0.25195246533930993,-0.6,-0.3622222222222222,0.06666666666666667,0.04347488856404814,0.11501783221448075,0.32176915470089634
1592292975.6902,4.323353718248496,9.123436257169695,0.4408437756060515,-0.6,-0.3622222222222222,0.06666666666666667,0.04311699585549674,0.08654146572734799,0.33236223289837796
1592292975.7002,4.689362248945014,9.130448646762066,0.13704857695846684,-0.6254702753011603,-0.3622222222222222,0.03270629959845304,0.019669738009053632,0.10146141861790575,0.34326911809741417
1592292975.7102,4.578586836283185,8.804925331858408,0.23758019911504424,-0.6266666666666667,-0.3622222222222222,0.03111111111111111,0.001191286161526136,0.1040470359147463,0.3504019371067411
1592292975.7202,4.7110546934622235,8.816317476469091,0.020786568303230724,-0.6266666666666667,-0.3622222222222222,0.03111111111111111,-0.0273858187718805,0.1331390743154349,0.3515345522491334
1592292975.7302,4.4601265371167615,8.577618628546963,0.09369859429631566,-0.6266666666666667,-0.3622222222222222,0.03111111111111111,-0.053440356048669466,0.17560650215916795,0.35601773990943564
1592292975.7402,4.676953953953953,8.664806206206206,0.014559959959959956,-0.6266666666666667,-0.3622222222222222,0.03111111111111111,-0.0919600705095717,0.2002980207051877,0.3230664719574831
1592292975.7502,4.511732526708714,8.32259879006307,0.0537907066546531,-0.6256417957409076,-0.3622222222222222,0.04443443314597904,-0.16710196518748258,0.2112825073883797,0.29881279686933065
1592292975.7602,4.500629409654403,8.603567584804878,0.25664407860644955,-0.6255555555555555,-0.3622222222222222,0.04555555555555556,-0.2071359253868024,0.20814270562907622,0.2937385930837568
1592292975.7702,4.053308493948902,8.677025997310624,0.294683998207082,-0.6255555555555555,-0.3622222222222222,0.04555555555555556,-0.30699182626550575,0.1847802438428254,0.2726326735048001
1592292975.7802,4.146796234683113,8.67750223159945,0.37179177148421655,-0.6255555555555555,-0.3622222222222222,0.04555555555555556,-0.32779513699965945,0.17406500898452779,0.2665131612308397
1592292975.7902,4.640671491757137,8.819014877362283,0.4054925613188581,-0.6255555555555555,-0.3622222222222222,0.04555555555555556,-0.33116890072713523,0.1382587445102404,0.2550622905658782
1592292975.8002,4.716910329921047,8.595804088739454,0.7954483503947645,-0.6412502710149134,-0.35668291088362536,0.016012561749705636,-0.3122099100463063,0.12072923841141212,0.23095099061167362
1592292975.8102,4.768617863132781,8.54,0.6913008763848535,-0.6444444444444445,-0.35555555555555557,0.01,-0.2731511347126733,0.13683274347484245,0.18011125442528425
1592292975.8202,5.044004931480867,8.49741855943857,0.983618948266869,-0.6444444444444445,-0.35555555555555557,0.01,-0.22080439558418052,0.15077413523013464,0.12218618581679279
1592292975.8302,5.183795698924731,8.669064516129032,1.270225806451613,-0.6444444444444445,-0.35555555555555557,0.01,-0.15318313820695928,0.17503963369194744,0.06693947608287391
1592292975.8402,4.670572567279615,8.339989345750137,1.2464687080735537,-0.6444444444444445,-0.35555555555555557,0.01,-0.06743677572099864,0.1504054717877517,0.03195412768836681
1592292975.8502,5.102839396346306,8.38756981731533,1.2715399523431294,-0.6511255493778131,-0.3565099991174654,-0.006225540552466683,0.021160973497641025,0.12916528161966892,-0.0308104677981628
1592292975.8602,4.8353208773355,8.205897644191714,1.060545085296507,-0.6522222222222223,-0.3566666666666667,-0.008888888888888889,0.07491765557083133,0.13988854716892143,-0.030511804157846645
1592292975.8702,4.876892542101042,8.37058620689655,0.8129278267842823,-0.6522222222222223,-0.3566666666666667,-0.008888888888888889,0.15524691449792724,0.1887776706246539,-0.006898739280737812
1592292975.8802,4.648444455126664,8.508942940921981,0.8252612603951353,-0.6522222222222223,-0.3566666666666667,-0.008888888888888889,0.2152343423036972,0.17539576327692077,-0.006028068391856586
1592292975.8902,4.602443227205295,8.47852257598235,0.7926703183841151,-0.6522222222222223,-0.3566666666666667,-0.008888888888888889,0.22606848672118324,0.17849960899548126,-0.004735190659094319
1592292975.9002,4.697471485662612,8.590437268457746,0.5695627315422538,-0.6548046050776426,-0.3626922266626476,-0.015775243170009952,0.2389697101142056,0.16167107534740371,-0.021618566270090202
1592292975.9101999,4.646934117814524,8.648118431353943,0.666131764370952,-0.6555555555555556,-0.36444444444444446,-0.017777777777777778,0.23330859888774913,0.0856172121682269,-0.0635796923509141
1592292975.9201999,4.467461470454708,8.731269264772646,0.6593653676136771,-0.6555555555555556,-0.36444444444444446,-0.017777777777777778,0.21618545322282298,0.04587739584486182,-0.10124966682076889
1592292975.9301999,3.886206002046693,8.555208120136129,0.787977581570242,-0.6555555555555556,-0.36444444444444446,-0.017777777777777778,0.2118266485087428,-0.026040816902588054,-0.16819632477564342
1592292975.9401999,4.283497232822521,8.679966634033287,0.5004627280174222,-0.6555555555555556,-0.36444444444444446,-0.017777777777777778,0.18492287536259464,-0.07927415636063223,-0.24149828832516995
1592292975.9501998,4.71023944854275,8.493559076067239,0.020867093965412975,-0.6764528829228309,-0.36444444444444446,-0.02822644146141546,0.1518353604667234,-0.18000238161170598,-0.25832242239411146
1592292975.9601998,4.684106846094605,8.377837136719226,0.17876089335657253,-0.6822222222222222,-0.36444444444444446,-0.03111111111111111,0.11259676397877813,-0.16794018819424805,-0.22719894812580677
1592292975.9701998,4.497852497503845,8.036217718649649,0.4975961356828669,-0.6822222222222222,-0.36444444444444446,-0.03111111111111111,0.05024812783628202,-0.10532809116820853,-0.1724211754758851
1592292975.9801998,4.423113975088199,8.377602899176807,0.39622795017639856,-0.6822222222222222,-0.36444444444444446,-0.03111111111111111,0.005513110662960639,-0.1506487392449837,-0.19417429331805797
1592292975.9901998,4.324918641669615,8.482983728333922,0.47550088432967813,-0.6822222222222222,-0.36444444444444446,-0.03111111111111111,-0.002855491701347196,-0.15172213710128943,-0.16356623651228525
1592292976.0001998,4.598180718844474,8.7395122606651,0.4061370507222036,-0.6613564737058186,-0.36792206919717835,-0.03458873586384503,-0.010621401374613626,-0.1316575959454315,-0.02970049711321221
1592292976.0101998,4.743067073170732,8.833840243902438,0.45917560975609756,-0.6555555555555556,-0.3688888888888889,-0.035555555555555556,-0.02978140972802794,-0.13207486452549833,0.004523622043755121
1592292976.0201998,4.829459123406901,8.671622629779296,0.3424339446689462,-0.6555555555555556,-0.3688888888888889,-0.035555555555555556,-0.04799655442984406,-0.14954689850691932,0.05346528892163854
1592292976.0301998,5.167820406813296,8.52676132202509,0.45431311866569024,-0.6555555555555556,-0.3688888888888889,-0.035555555555555556,-0.08266538273559301,-0.12131997359124425,0.07812625465868686
1592292976.0401998,5.4464110936348975,8.474798415195016,0.44439524558504395,-0.6555555555555556,-0.3688888888888889,-0.035555555555555556,-0.10618224630753305,-0.058628913145317714,0.09939753815351444
1592292976.0501997,5.313451058606934,8.424159251304081,0.4573451979134704,-0.6659095496232655,-0.3744641164638096,-0.04192724421260782,-0.14550527877471853,0.028718839895125248,0.11221077360526384
1592292976.0601997,5.138150566781666,8.361496632166913,0.525471907343519,-0.67,-0.37666666666666665,-0.044444444444444446,-0.16941361888299056,0.08103034053881572,0.11741457388116239
1592292976.0701997,5.069066741446999,8.432102075154233,0.6089882220975883,-0.67,-0.37666666666666665,-0.044444444444444446,-0.21665098458906643,0.1463877779845572,0.09215592957319471
1592292976.0801997,5.24631700301885,8.220213934250873,0.904646889633697,-0.67,-0.37666666666666665,-0.044444444444444446,-0.2566021958552079,0.098069626047039,0.06042780920337281
1592292976.0901997,5.0687861870153075,8.183203946567055,1.1174467091639937,-0.67,-0.37666666666666665,-0.044444444444444446,-0.2975892583274979,0.008041361462286956,0.042131473236513915
1592292976.1001997,5.017831514280113,8.173301091431933,1.0632527285798314,-0.6682704107937754,-0.38099063968222846,-0.05482197968179277,-0.33477732881523936,-0.07396105038741378,0.021322423179877134
1592292976.1101997,5.0686742620403935,8.225541170378042,0.8825323666494045,-0.6677777777777778,-0.38222222222222224,-0.057777777777777775,-0.33318977152197293,-0.10429890119269973,0.005835464517446086
1592292976.1201997,4.969557281553398,7.982937475728155,0.747243495145631,-0.6677777777777778,-0.38222222222222224,-0.057777777777777775,-0.29377805593173406,-0.08296676773517957,0.012837574446186056
1592292976.1301997,5.316150767178119,8.122854998570476,0.6349461545792433,-0.6677777777777778,-0.38222222222222224,-0.057777777777777775,-0.22130724599639692,0.012190369258790697,0.05376214037479214
1592292976.1401997,5.426983572106933,8.186983572106934,0.6475972438319626,-0.6677777777777778,-0.38222222222222224,-0.057777777777777775,-0.1616626252224432,0.09264708478817102,0.07483457568954671
1592292976.1501997,5.359931074766355,8.153321845794393,0.7100344626168223,-0.675939966251298,-0.38222222222222224,-0.06297189771547249,-0.11813824807939247,0.17789564046678302,0.08873468770024602
1592292976.1601996,5.27678431372549,8.162156862745098,0.7175686274509804,-0.68,-0.38222222222222224,-0.06555555555555556,-0.09632249697832432,0.21008545317326843,0.10014682136872365
1592292976.1701996,5.131710144927537,8.258173913043477,0.5160869565217391,-0.68,-0.38222222222222224,-0.06555555555555556,-0.048714289466443184,0.2516372714659796,0.1352503697161403
1592292976.1801996,5.082919302465424,8.535256764882742,0.7673741431148526,-0.68,-0.38222222222222224,-0.06555555555555556,-0.0478930730923536,0.26703857654985197,0.1494518196888133
1592292976.1901996,4.968508509949264,8.537613256090102,0.9346266777014142,-0.68,-0.38222222222222224,-0.06555555555555556,-0.05496478507954408,0.2560360519905956,0.1524883776883273
1592292976.2001996,4.817198739826726,8.280998949855604,1.1013491073772643,-0.6850944036054958,-0.3829499941658645,-0.07501659082290482,-0.10881008417156349,0.18371792658342287,0.15376894407166544
1592292976.2101996,4.8469804765056255,8.318812045003309,1.0383669755129052,-0.6877777777777778,-0.38333333333333336,-0.08,-0.1272869937385503,0.15247879576562473,0.16272275082580281
1592292976.2201996,4.795101741568698,8.26302034831374,0.8936933089805263,-0.6877777777777778,-0.38333333333333336,-0.08,-0.136478468487206,0.11202610170568611,0.20413217356898533
1592292976.2301996,4.927389548598617,8.260498580624525,0.9885042581264244,-0.6877777777777778,-0.38333333333333336,-0.08,-0.12548400757136183,0.11100562879633409,0.22562598932084008
1592292976.2401996,5.087282560313363,8.214728256031336,1.0494565120626724,-0.6877777777777778,-0.38333333333333336,-0.08,-0.055316181442278,0.12183513092853816,0.24696448245058936
1592292976.2501996,5.382807900852053,8.29626258714175,0.9558249419054996,-0.6706644289525777,-0.38333333333333336,-0.0978264050262501,-0.018577921312741733,0.10857991037127483,0.21307195139652502
1592292976.2601995,5.555289466252471,8.332923306571994,0.9071924799289951,-0.6611111111111111,-0.38333333333333336,-0.10777777777777778,-0.006704426334748965,0.0979292927910519,0.1927834259182274
1592292976.2701995,5.298629246431338,8.102336782117959,0.6923367821179595,-0.6611111111111111,-0.38333333333333336,-0.10777777777777778,0.011629834991322044,0.09011647981843107,0.1349810450578983
1592292976.2801995,5.427128899063816,8.05992641347451,0.6444785577041003,-0.6611111111111111,-0.38333333333333336,-0.10777777777777778,0.017754440480950553,0.0669515732324646,0.0843232128697477
1592292976.2901995,5.520476794587165,8.036213130352046,0.8512622898826515,-0.6611111111111111,-0.38333333333333336,-0.10777777777777778,0.015386376343319554,0.0354405258922979,-0.004219516598029688
1592292976.3001995,5.426167516612579,8.185269046515222,1.1191015299026426,-0.672082487680077,-0.3801064578718728,-0.1110046532392383,0.021992975897904363,0.05834961910361301,-0.04318250291997274
1592292976.3101995,5.459624170091685,8.470375829908315,1.2169728106228264,-0.68,-0.37777777777777777,-0.11333333333333333,0.03303009226675632,0.06427702280069636,-0.08152994456988706
1592292976.3201995,5.118907999478012,8.396720605506982,1.167499151768237,-0.68,-0.37777777777777777,-0.11333333333333333,0.07438090832181238,0.04312182340879772,-0.18249227456735026
1592292976.3301995,4.925587392550143,8.26,1.3781489971346705,-0.68,-0.37777777777777777,-0.11333333333333333,0.0969557904671635,0.023792613416961383,-0.24231571225253076
1592292976.3401995,4.788295290321304,8.206471205432265,1.2137675449884189,-0.68,-0.37777777777777777,-0.11333333333333333,0.10880711510016877,0.01332092845433297,-0.2488764129341864
1592292976.3501995,4.953411723411723,8.16,1.1414391014391014,-0.6773807573807574,-0.3705748605748606,-0.12708435708435709,0.11556986488251851,0.00029099031052906565,-0.21742451408942962
1592292976.3601995,5.1314096240726155,8.186782857379699,1.1977112778215278,-0.6755555555555556,-0.3655555555555556,-0.13666666666666666,0.11719465997755434,-0.01552129181543637,-0.1961432835430352
1592292976.3701994,5.10010663729888,8.486777243546697,0.9343009481855543,-0.6755555555555556,-0.3655555555555556,-0.13666666666666666,0.11593308183972728,-0.06290500486560124,-0.11105277951807993
1592292976.3801994,4.907927354022933,8.477795860477416,0.905065746772759,-0.6755555555555556,-0.3655555555555556,-0.13666666666666666,0.1062501278521119,-0.08764862966681192,-0.05502411223692362
1592292976.3901994,4.809241268723845,8.387238061715358,0.8786190308576792,-0.6755555555555556,-0.3655555555555556,-0.13666666666666666,0.09719648262799653,-0.09331485883569178,-0.035861664578693275
1592292976.4001994,4.915967313954891,8.319845615727898,0.9111898444096007,-0.6712604698535226,-0.3753728943030596,-0.13666666666666666,0.061754297506517335,-0.10774753087621397,-0.007635815477475192
1592292976.4101994,5.017689907970675,8.49,0.9750233972859149,-0.6677777777777778,-0.38333333333333336,-0.13666666666666666,0.05051477242718418,-0.12456441891282041,-0.007426105769250752
1592292976.4201994,4.938236335790179,8.347755336460228,0.7565231645448454,-0.6677777777777778,-0.38333333333333336,-0.13666666666666666,0.030974994711463626,-0.12655386039877126,0.0028757388042912344
1592292976.4301994,4.975684685319614,8.340613855803792,0.8650708295158221,-0.6677777777777778,-0.38333333333333336,-0.13666666666666666,0.027834212990765515,-0.12269528412600086,0.025150918410352954
1592292976.4401994,5.063838766400649,8.478023033371336,0.751631466058627,-0.6677777777777778,-0.38333333333333336,-0.13666666666666666,0.03075891551535228,-0.09155440919826895,0.04430531762669056
1592292976.4501994,5.085112771645987,8.474983889764859,0.6576047165284157,-0.6777885179345384,-0.3787450774281514,-0.13916935170585681,0.029861932009350604,-0.04908387050425953,0.05017470128675598
1592292976.4601994,5.122907505959978,8.432863438244997,0.8885462470200111,-0.6944444444444444,-0.3711111111111111,-0.14333333333333334,0.024935335189348214,-0.029301863014001714,0.03786992942390157
1592292976.4701993,5.100934566008814,8.402656878712397,0.928437919141598,-0.6944444444444444,-0.3711111111111111,-0.14333333333333334,0.02135639855293556,-0.023589032786462925,0.016959581337321252
1592292976.4801993,5.145050353892821,8.399412740141557,0.9321811931243681,-0.6944444444444444,-0.3711111111111111,-0.14333333333333334,0.02260179322065063,-0.02751236266109494,0.004548179792418994
1592292976.4901993,4.885867718986216,8.48561894175189,1.003634726545131,-0.6944444444444444,-0.3711111111111111,-0.14333333333333334,0.04771722608496202,-0.030732568826044995,-0.0032453549609706145
1592292976.5001993,4.9244323799182785,8.273362288196132,0.7922270480326885,-0.6914822857832259,-0.3740732697723297,-0.14037117467211474,0.07744543226098856,-0.02460561035196073,0.018298821183451067
1592292976.5101993,4.853710519892605,8.271780327068587,0.77,-0.6877777777777778,-0.37777777777777777,-0.13666666666666666,0.10998332649025507,-0.026929542144581896,0.034628885136019416
1592292976.5201993,5.196922161390145,8.530836229469175,0.5353658652701738,-0.6877777777777778,-0.37777777777777777,-0.13666666666666666,0.11777931834807705,-0.01919026072666355,0.027337917584395112
1592292976.5301993,5.208086752413116,8.43700486215899,0.40044621685708126,-0.6877777777777778,-0.37777777777777777,-0.13666666666666666,0.11283497597731812,-0.024755726742247238,-0.014604868444607885
1592292976.5401993,4.94,8.27,0.44,-0.6877777777777778,-0.37777777777777777,-0.13666666666666666,0.11235557059713495,-0.038179077387375956,-0.04145156973486533
1592292976.5501993,5.003712401706689,8.193288197750272,0.6277136006206143,-0.6820159776829617,-0.37777777777777777,-0.13300006660632915,0.08394704287274808,0.01369740969875482,-0.1245411109102971
1592292976.5601993,5.143870223725687,8.095199892365649,0.6998377796571077,-0.6755555555555556,-0.37777777777777777,-0.1288888888888889,0.09490227807719166,0.032724923474893676,-0.16144295580947549
1592292976.5701993,5.095394651011089,8.525378343118069,0.8469243313763861,-0.6755555555555556,-0.37777777777777777,-0.1288888888888889,0.11906706175206423,0.04480731531232996,-0.17251848166045874
1592292976.5801992,4.8360651785019835,8.542840476005289,0.7516569443364185,-0.6755555555555556,-0.37777777777777777,-0.1288888888888889,0.16376981260501303,0.04239720528681715,-0.21313149632554448
1592292976.5901992,4.927444964402119,8.468509987436041,0.7365949853420493,-0.6755555555555556,-0.37777777777777777,-0.1288888888888889,0.1859285604201722,0.01671071163474122,-0.26465381342455746
1592292976.6001992,5.034002798909143,8.523448758432611,0.7902077651786995,-0.6667282267196147,-0.3715250865189863,-0.13146352646603832,0.19885452171475043,0.010862980494473283,-0.3064630134408491
1592292976.6101992,4.84,8.49,0.73,-0.6488888888888888,-0.35888888888888887,-0.13666666666666666,0.210530341021816,0.02399827721492203,-0.3239767424014474
1592292976.6201992,4.813581227436823,8.361790613718412,0.4149201444043321,-0.6488888888888888,-0.35888888888888887,-0.13666666666666666,0.24922447956335902,0.07699762577036529,-0.3123898984495974
1592292976.6301992,4.982423570900946,8.448763314032455,0.415152858198108,-0.6488888888888888,-0.35888888888888887,-0.13666666666666666,0.259882096808388,0.11440776310006448,-0.287889392237619
1592292976.6401992,4.820621851833258,8.547512592666969,0.710117643121308,-0.6488888888888888,-0.35888888888888887,-0.13666666666666666,0.2570712313606144,0.126752704179957,-0.2719010317641726
1592292976.6501992,4.7611277844730395,8.807744431053921,0.7749624849356608,-0.6532163606284043,-0.36058896707226995,-0.13743942947729443,0.26960745980341,0.1146602543640492,-0.24664259452872264
1592292976.6601992,4.848831474567807,8.67,0.488179678025349,-0.68,-0.3711111111111111,-0.14222222222222222,0.22092141664448872,0.12525434046035758,-0.2203478180642841
1592292976.6701992,4.874744782378175,8.50393261676387,0.1929117462765701,-0.68,-0.3711111111111111,-0.14222222222222222,0.18413399218257898,0.15252650383663874,-0.21361933698761584
1592292976.6801991,4.7259185576624185,8.48371153248368,0.16963630711843333,-0.68,-0.3711111111111111,-0.14222222222222222,0.14701937203731144,0.19833012605314257,-0.2171970565998896
1592292976.6901991,4.664457542137828,8.56995039470877,0.32360198421164926,-0.68,-0.3711111111111111,-0.14222222222222222,0.13932134042827657,0.22907987542212072,-0.25500688901473506
1592292976.7001991,4.892877019030865,8.424292339676954,0.33714616983847756,-0.6691484087637934,-0.372699148852995,-0.14381025996410612,0.14409511782463838,0.2460080727084151,-0.3286125551655704
1592292976.710199,5.03,8.47,0.36,-0.6344444444444445,-0.37777777777777777,-0.14888888888888888,0.15489797111449674,0.24434609527920614,-0.4166973589136462
1592292976.720199,4.923760320377431,8.762200400471789,0.7354132265408564,-0.6344444444444445,-0.37777777777777777,-0.14888888888888888,0.15791015055067364,0.20950937583103388,-0.5687240187743177
1592292976.730199,4.6908177743690525,8.627863528509454,0.5680449632097404,-0.6344444444444445,-0.37777777777777777,-0.14888888888888888,0.15308819021604816,0.19080116182986168,-0.6403672917596928
1592292976.740199,4.51,8.58,0.35,-0.6344444444444445,-0.37777777777777777,-0.14888888888888888,0.15598880189699318,0.1832595714594046,-0.657770961845363
1592292976.750199,4.810790686308734,8.536015150457306,0.6509551071702856,-0.6383631998262314,-0.37777777777777777,-0.15188558418084355,0.11715357338159949,0.18292907783511894,-0.6664161937294015
1592292976.760199,4.47,8.75,0.54,-0.6533333333333333,-0.37777777777777777,-0.16333333333333333,0.09381144729469522,0.19416787928436915,-0.657770961845363
1592292976.770199,4.465147620910705,9.061337466518193,0.6820061997772895,-0.6533333333333333,-0.37777777777777777,-0.16333333333333333,0.03490996649384262,0.20294203004797556,-0.6354470952723786
1592292976.780199,4.328155688622754,8.951553293413173,0.6245631137724551,-0.6533333333333333,-0.37777777777777777,-0.16333333333333333,-0.015832958105397178,0.19927252317583455,-0.6129303964226693
1592292976.790199,4.6,8.87,0.63,-0.6533333333333333,-0.37777777777777777,-0.16333333333333333,-0.03599741582238304,0.1832595714594046,-0.607592745850526
1592292976.800199,4.424791878968409,8.550989652739672,0.7081249510072901,-0.6484722113349534,-0.38142361927656276,-0.16454861383292832,-0.050064575318350506,0.18295276728541407,-0.605706515841034
1592292976.810199,4.85,8.69,0.61,-0.6266666666666667,-0.3977777777777778,-0.17,-0.025089107997418484,0.16689710972195776,-0.6021385919380438
1592292976.820199,4.606678138222849,8.546557686882933,0.5197763046544429,-0.6266666666666667,-0.3977777777777778,-0.17,-0.037456236600024076,0.19236171583048495,-0.6068699050631741
1592292976.830199,4.403461311281749,8.588900177200236,0.5415002953337271,-0.6266666666666667,-0.3977777777777778,-0.17,-0.04159757224834064,0.21419805817850993,-0.6020353721557897
1592292976.840199,4.249968385171056,8.82584980306964,0.8022213391264417,-0.6266666666666667,-0.3977777777777778,-0.17,-0.03655705927369722,0.21502904746674206,-0.5880112553629939
1592292976.850199,4.484568839520608,8.808591055247003,0.6238000584624378,-0.6261353080645685,-0.3992390139335477,-0.17092987755367178,-0.029535335542326575,0.1927333140430796,-0.5834286598057594
1592292976.860199,4.247640193307195,8.417794975836602,0.9630432205708034,-0.6222222222222222,-0.41,-0.17777777777777778,-0.019096227703455725,0.1590918061754232,-0.5492772624414985
1592292976.870199,4.464841790158581,8.482719873333169,0.7894020434922442,-0.6222222222222222,-0.41,-0.17777777777777778,0.02763268865456795,0.1185706154799665,-0.49332276331703323
1592292976.880199,4.518049577384757,8.515009351989962,0.633479887302602,-0.6222222222222222,-0.41,-0.17777777777777778,0.0792490100156061,0.11159637695927561,-0.4207310851867004
1592292976.890199,4.439118945073643,8.498546285957357,0.7224669892415945,-0.6222222222222222,-0.41,-0.17777777777777778,0.13149076599476056,0.10743481613624507,-0.38814354220179015
1592292976.900199,4.4515984750226,8.740594662579099,0.9190889439138467,-0.6214054072938638,-0.41081681492835836,-0.1769609628494194,0.18227318055373717,0.08674842194629885,-0.39235540762127685
1592292976.910199,4.38,8.49,0.4,-0.6144444444444445,-0.4177777777777778,-0.17,0.2203478180642841,0.0916297857297023,-0.3894265893512348
1592292976.920199,4.472235553979984,8.861068146491778,0.1650770363502495,-0.6144444444444445,-0.4177777777777778,-0.17,0.24642263301377876,0.1038836131419337,-0.3880864836114882
1592292976.930199,4.0221123774185,8.50543599257885,0.0620090113967665,-0.6144444444444445,-0.4177777777777778,-0.17,0.22973509203112147,0.10079791054914178,-0.4107147028356713
1592292976.940199,4.259083141755516,8.871127563673227,0.4992198106547435,-0.6144444444444445,-0.4177777777777778,-0.17,0.2314791377252734,0.09610803084354363,-0.38960363239371726
1592292976.950199,4.370415219907407,8.84025607638889,0.9286574074074074,-0.6144444444444445,-0.419588236239712,-0.17074548289609054,0.21283052311887704,0.12159101871514603,-0.3558059757568303
1592292976.9601989,4.28,9.22,0.35,-0.6144444444444445,-0.43666666666666665,-0.17777777777777778,0.234528618236738,0.10581058590215622,-0.33706671179140485
1592292976.9701989,4.324882058613295,8.917941386704788,0.692373123659757,-0.6144444444444445,-0.43666666666666665,-0.17777777777777778,0.2345948945887839,0.08905670382674426,-0.33286167218454044
1592292976.9801989,4.3349558076414505,8.810817036676179,0.44932493562530446,-0.6144444444444445,-0.43666666666666665,-0.17777777777777778,0.25207103563236166,0.08140350335883673,-0.33808390447389286
1592292976.9901989,4.160038814332009,8.96952781998938,0.5978978011314744,-0.6144444444444445,-0.43666666666666665,-0.17777777777777778,0.25646094954520693,0.056376053714196364,-0.3580239279759171
1592292977.0001988,4.376386706715959,9.316060921133703,0.5950793284041898,-0.6136429023755734,-0.43630232936263436,-0.17806924762100362,0.26196023157095233,0.03851899585210028,-0.3697378666510184
1592292977.0101988,3.47,8.69,0.24,-0.6022222222222222,-0.4311111111111111,-0.18222222222222223,0.24870941840919195,0.05890486225480862,-0.3534291735288517
1592292977.0201988,4.2914361391912905,9.116628110419907,0.26283534214618975,-0.6022222222222222,-0.4311111111111111,-0.18222222222222223,0.23262067164696035,0.0036110443195452764,-0.3829923523965668
1592292977.0301988,3.939804748250389,8.984129325427682,0.3137964132970451,-0.6022222222222222,-0.4311111111111111,-0.18222222222222223,0.21205240675243267,0.013617227241207399,-0.3791010590381427
1592292977.0401988,3.7718678150159146,8.830873244710729,0.40457854334394305,-0.6022222222222222,-0.4311111111111111,-0.18222222222222223,0.18950224427940648,0.028911978699648812,-0.3862592791518423
1592292977.0501988,4.0487100686833255,8.63248063714745,0.585733304106386,-0.6023324727621089,-0.4309788104632471,-0.18215607189829022,0.16313992059275587,0.057275215583386795,-0.42054351379759175
1592292977.0601988,3.9690287885430364,8.785713868186468,0.3221721467192752,-0.6091428385860652,-0.4228063714744995,-0.1780698524039164,0.20058186226415636,0.09137412674841225,-0.4559796371651672
1592292977.0701988,3.92,8.88,0.16,-0.6133333333333333,-0.4177777777777778,-0.17555555555555555,0.22362031041177347,0.11235557059713495,-0.4777838827334477
1592292977.0801988,3.833873755893138,8.942135747960787,-0.2900389134176457,-0.6133333333333333,-0.4177777777777778,-0.17555555555555555,0.19199046251475824,0.1464472161466857,-0.4860837229808262
1592292977.0901988,3.943729701414353,9.569884008082019,-0.007552196363092123,-0.6133333333333333,-0.4177777777777778,-0.17555555555555555,0.1611759418538109,0.12333632565097519,-0.5049148189402941
1592292977.1001987,3.1647118497183495,9.15873856192491,0.35283205464787293,-0.6133333333333333,-0.4177777777777778,-0.17555555555555555,0.11387836291805226,0.10982396902682764,-0.5502340590045474
1592292977.1101987,3.709260803050795,8.968588563953617,0.15132496729707556,-0.6133333333333333,-0.43227770017761813,-0.16873206266151303,0.09299659527323609,0.0677985565651251,-0.6023019880040825
1592292977.1201987,3.5526416382252557,9.318336746302617,0.4311740614334471,-0.6133333333333333,-0.43666666666666665,-0.16666666666666666,0.06311877011037742,0.03833916518139421,-0.6736936164959876
1592292977.1301987,3.755327434214887,9.180434148604759,0.5398552837984136,-0.6133333333333333,-0.43666666666666665,-0.16666666666666666,0.041771834529129796,0.05869135239196564,-0.7351568030476447
1592292977.1401987,3.5190210114668257,9.291637171074436,0.502787609641855,-0.6133333333333333,-0.43666666666666665,-0.16666666666666666,0.019027394526023388,0.07385431239403659,-0.7189829790454357
1592292977.1501987,3.2030966373305048,9.369174669609839,0.49637875182753777,-0.6096310523750824,-0.4403689476249176,-0.16574109642710394,-0.0018480611640046885,0.08847803121012965,-0.6960442591435168
1592292977.1601987,2.54,9.24,0.66,-0.5866666666666667,-0.4633333333333333,-0.16,-0.006544984694978735,0.09599310885968812,-0.6424993308904126
1592292977.1701987,3.8913287777426855,9.537726320020672,0.2818501823193316,-0.5866666666666667,-0.4633333333333333,-0.16,-0.030772803349646854,-0.010265879934110177,-0.6725742706351444
1592292977.1801987,2.71,9.18,0.39,-0.5866666666666667,-0.4633333333333333,-0.16,-0.05890486225480862,0.04690572364734761,-0.6108652381980153
1592292977.1901987,3.4925256845539927,9.033299087261343,0.6349486308920146,-0.5866666666666667,-0.4633333333333333,-0.16,-0.009118819141716207,0.022568663125555173,-0.5187800057255352
1592292977.2001987,3.4081015730903816,9.198158002585037,0.8420112858989313,-0.5866666666666667,-0.4626629047003562,-0.1621230240044275,0.01758145765743468,0.014838991943740524,-0.5248116160153055
1592292977.2101986,3.57,9.45,0.86,-0.5866666666666667,-0.45666666666666667,-0.1811111111111111,0.04799655442984406,0.020725784867432664,-0.5454153912482279
1592292977.2201986,2.8044365799866644,9.266927732471663,0.5763820074883315,-0.5866666666666667,-0.45666666666666667,-0.1811111111111111,0.06490636178688175,0.048175142513022434,-0.5480848690717524
1592292977.2301986,2.6948532247696595,9.180163083589267,0.4246901411803919,-0.5866666666666667,-0.45666666666666667,-0.1811111111111111,0.08427824122680526,0.01990143539958507,-0.583356450776842
1592292977.2401986,2.664480440463604,9.38015061142253,0.2068674818967065,-0.5866666666666667,-0.45666666666666667,-0.1811111111111111,0.09626992384470952,0.012129331521177154,-0.6238903178556142
1592292977.2501986,3.0101186440677967,9.547830508474577,0.43020974576271187,-0.5869745762711864,-0.4579752824858757,-0.18149599811676084,0.10348771721680201,0.008670949179763672,-0.6565289862891901
1592292977.2601986,2.34,9.25,0.03,-0.5911111111111111,-0.47555555555555556,-0.18666666666666668,0.1308996938995747,0.06654067773228381,-0.6544984694978736
1592292977.2701986,2.5072495001687742,9.53033625009737,0.2716778750032457,-0.5911111111111111,-0.47555555555555556,-0.18666666666666668,0.17439391246398017,0.09692291938932211,-0.6428653864309569
1592292977.2801986,2.6331006062902613,9.63006441834028,0.240173361121637,-0.5911111111111111,-0.47555555555555556,-0.18666666666666668,0.20872255457723538,0.13228875674329557,-0.6446809924554054
1592292977.2901986,1.7671802394734755,9.239074617397511,0.0966630322734121,-0.5911111111111111,-0.47555555555555556,-0.18666666666666668,0.22518084889838946,0.1887113466670642,-0.6523708477815338
1592292977.3001986,2.3433170552229323,9.658143626450814,0.04408402180820818,-0.5901210452182122,-0.47584432477431776,-0.18534657880946806,0.2586457313167499,0.15433896457810084,-0.6851632307724502
1592292977.3101985,2.17,9.61,0.15,-0.5644444444444444,-0.48333333333333334,-0.1511111111111111,0.23343778745424157,0.2247111411942699,-0.6883142237552637
1592292977.3201985,2.022663917525773,9.475753092783505,-0.16984639175257732,-0.5644444444444444,-0.48333333333333334,-0.1511111111111111,0.25214621011474597,0.2124130362326577,-0.6810952855675529
1592292977.3301985,1.8030473247145418,9.15466641502312,0.0996189959422478,-0.5644444444444444,-0.48333333333333334,-0.1511111111111111,0.2284511250958508,0.19072916828952335,-0.7204366014166872
1592292977.3401985,0.8082993197278912,8.771700680272108,0.1269387755102041,-0.5644444444444444,-0.48333333333333334,-0.1511111111111111,0.18745964100289436,0.1882981707880787,-0.762906271548831
1592292977.3501985,0.971233375156838,11.05294730238394,1.012672208281054,-0.5647802871880663,-0.4844528091454064,-0.15158688833124215,0.11505106547018148,0.12187365085958914,-0.8301825496538789
1592292977.3601985,2.18,10.78,-1.98,-0.5777777777777777,-0.5277777777777778,-0.17,0.09272061651219875,-0.016362461737446838,-1.0013826583317464
1592292977.3701985,1.3688148512417015,10.43962134251291,-1.0624334070977788,-0.5777777777777777,-0.5277777777777778,-0.17,-0.13557664987809734,-0.005710031111031977,-1.1300869222915635
1592292977.3801985,1.7023877141169523,9.616684465445953,-0.1881167158889545,-0.5777777777777777,-0.5277777777777778,-0.17,-0.1620186928171586,-0.05311795662979683,-1.0941380164835153
1592292977.3901985,1.0865934947930254,9.574662600076248,-0.15563577261873707,-0.5777777777777777,-0.5277777777777778,-0.17,-0.2613507281812027,-0.06706640489412707,-1.0522424219499433
1592292977.4001985,1.6757160342717259,10.374186046511628,-0.020979192166462657,-0.5777777777777777,-0.5277777777777778,-0.17,-0.27695752962740194,-0.10011610207431365,-1.0017498290357691
1592292977.4101985,1.49,9.6,0.3,-0.5511111111111111,-0.52,-0.17777777777777778,-0.35124751196385884,-0.0643590161672909,-0.9697485656393494
1592292977.4201984,1.1505215509277587,9.404104310185552,0.08499775648639374,-0.5511111111111111,-0.52,-0.17777777777777778,-0.3072724369212767,-0.10572104374432995,-0.9348909552652063
1592292977.4301984,1.38,9.45,0.7,-0.5511111111111111,-0.52,-0.17777777777777778,-0.2912518189265538,-0.10471975511965977,-0.8988445647770796
1592292977.4401984,1.0756093767359183,9.598781246528164,0.6910976558160203,-0.5511111111111111,-0.52,-0.17777777777777778,-0.19682496904175553,-0.09330257067479714,-0.8314789470229702
1592292977.4501984,0.9264952783024109,9.897009443395179,0.7283761804243972,-0.5511111111111111,-0.52,-0.17777777777777778,-0.13887796795111707,-0.07602013175302777,-0.7664156475527796
1592292977.4601984,0.84,9.93,0.59,-0.5366666666666666,-0.5466666666666666,-0.17,-0.074176493209759,-0.04036073895236887,-0.6959500392327389
1592292977.4701984,0.5412017236303295,9.993991381848353,1.0645922436635173,-0.5366666666666666,-0.5466666666666666,-0.17,-0.04384857717282598,-0.005735043641850864,-0.6435199173439555
1592292977.4801984,0.56,9.9,0.98,-0.5366666666666666,-0.5466666666666666,-0.17,-0.01308996938995747,0.02399827721492203,-0.5912302841130791
1592292977.4901984,0.23954787234042552,9.841635638297872,0.16328457446808511,-0.5366666666666666,-0.5466666666666666,-0.17,0.017699889904284248,-0.01036579357941446,-0.5547396735220141
1592292977.5001984,0.2209561170212766,9.497688164893617,1.120759973404255,-0.5366666666666666,-0.5466666666666666,-0.17,0.02784011940566919,0.011942711323632409,-0.5344592145192443
1592292977.5101984,0.36,10.06,0.63,-0.5277777777777778,-0.5577777777777778,-0.19,0.09053895494720585,0.0,-0.5039638215133627
1592292977.5201983,0.2659784952031907,9.528658510294276,0.5251538751751644,-0.5277777777777778,-0.5577777777777778,-0.19,0.08400505258501252,0.011391961992917943,-0.4994205942012899
1592292977.5301983,0.49277430547303885,9.92536086884194,0.7234209463152641,-0.5277777777777778,-0.5577777777777778,-0.19,0.13606350572303488,-0.013533674318145152,-0.4892769706337837
1592292977.5401983,0.1538132311254841,9.839816744520302,0.4221814987822893,-0.5277777777777778,-0.5577777777777778,-0.19,0.1357189561624689,0.01235608551101597,-0.47827980201001924
1592292977.5501983,0.4133718609015052,9.915172475745598,0.4389272168323552,-0.5277777777777778,-0.5577777777777778,-0.19,0.14759234023308082,0.015096097219618729,-0.4737131158290146
1592292977.5601983,0.0,9.7,0.44,-0.5155555555555555,-0.6044444444444445,-0.16111111111111112,0.17235126363444003,0.025089107997418484,-0.4799655442984406
1592292977.5701983,0.12174303405572756,9.732975232198143,0.34488854489164084,-0.5155555555555555,-0.6044444444444445,-0.16111111111111112,0.16471544815696484,0.036616453848487066,-0.4951085045016476
1592292977.5801983,-0.034765097739434314,10.067477121327947,0.2292525936442066,-0.5155555555555555,-0.6044444444444445,-0.16111111111111112,0.1621361223659012,0.021836914608686066,-0.490843236909787
1592292977.5901983,0.35534544056884787,10.217007783222831,0.30900259440761024,-0.5155555555555555,-0.6044444444444445,-0.16111111111111112,0.13919113987042123,-0.006907651602583015,-0.4804579746833901
1592292977.6001983,0.12965042759680984,10.07191813202652,0.2606393773421735,-0.5155555555555555,-0.6044444444444445,-0.16111111111111112,0.1180887055042067,-0.024493013574428443,-0.451442127429845
1592292977.6101983,0.10848591549295775,9.86405985915493,0.2715140845070423,-0.5011111111111111,-0.5822222222222222,-0.17555555555555555,0.059678046186204876,-0.03220946752062951,-0.38955180443401427
1592292977.6201982,0.2,9.8,0.18,-0.5011111111111111,-0.5822222222222222,-0.17555555555555555,0.032724923474893676,-0.05017821599483697,-0.3556108350938446
1592292977.6301982,0.02081589958158996,9.612175732217572,0.2216317991631799,-0.5011111111111111,-0.5822222222222222,-0.17555555555555555,0.021200456002912295,-0.05238954450579736,-0.33892203695075557
1592292977.6401982,0.05,9.69,0.28,-0.5011111111111111,-0.5822222222222222,-0.17555555555555555,0.038179077387375956,-0.053450708342326333,-0.3272492347489368
1592292977.6501982,0.09717419635099914,9.784348392701999,0.28,-0.5011111111111111,-0.5822222222222222,-0.17555555555555555,0.052759145951149805,-0.04658949960643276,-0.33582574566880374
1592292977.6601982,-0.15,9.68,0.14,-0.4811111111111111,-0.6077777777777778,-0.14666666666666667,0.039269908169872414,-0.016362461737446838,-0.36324665057131983
1592292977.6701982,0.04100886106820584,11.62481749451264,0.608839931712869,-0.4811111111111111,-0.6077777777777778,-0.14666666666666667,0.02695782412452586,-0.022044962066068326,-0.3859766518858058
1592292977.6801982,-1.48,9.45,-0.5,-0.4811111111111111,-0.6077777777777778,-0.14666666666666667,0.05126904677733343,0.006544984694978735,-0.19962203319685143
1592292977.6901982,-0.2470527412632253,10.085442048733567,0.0026631131773003913,-0.4811111111111111,-0.6077777777777778,-0.14666666666666667,0.025404877103781576,-0.07828949183427134,-0.03202221371223546
1592292977.7001982,-0.24379788548674997,9.593667444734313,0.49253466977893723,-0.4811111111111111,-0.6077777777777778,-0.14666666666666667,0.01616909876336982,-0.07594386973501757,-0.03334635103449519
1592292977.7101982,-0.06,10.05,0.1,-0.4811111111111111,-0.6144444444444445,-0.16111111111111112,0.015271630954950384,-0.05890486225480862,-0.028361600344907853
1592292977.7201982,-0.06963279270146985,9.633060060821085,0.3280415610745058,-0.4811111111111111,-0.6144444444444445,-0.16111111111111112,-0.009830829076627905,-0.060926299409883915,-0.03594400768574384
1592292977.7301981,-0.03931285330367899,9.870379946251507,0.17893290705217313,-0.4811111111111111,-0.6144444444444445,-0.16111111111111112,-0.01165786859340226,-0.0481464665835316,-0.031184356231334604
1592292977.7401981,-0.029046569654142457,9.740635620230572,0.29841094942357077,-0.4811111111111111,-0.6144444444444445,-0.16111111111111112,-0.02160860941588359,-0.049831538938094416,-0.025123775703092738
1592292977.7501981,-0.0061298195129947,9.755913453658003,0.2602163658549912,-0.4811111111111111,-0.6144444444444445,-0.16111111111111112,-0.016608950118134794,-0.04149877344184643,-0.02595705225271754
1592292977.760198,0.00907004334930413,9.81,0.22744261921058637,-0.4888888888888889,-0.6,-0.17555555555555555,-0.009918919576564739,-0.02029465409752196,-0.026357463214584053
1592292977.770198,-0.02920784850558978,9.81,0.12217841660962811,-0.4888888888888889,-0.6,-0.17555555555555555,-0.014094389849003602,-0.0025489054396567873,-0.03366453619135207
1592292977.780198,-0.16162653360190443,9.866411371543673,0.04478483794176892,-0.4888888888888889,-0.6,-0.17555555555555555,-0.02341108925685645,0.007048627519409609,-0.032790166581345405
1592292977.790198,-0.36,9.79,0.17,-0.4888888888888889,-0.6,-0.17555555555555555,-0.044724062082354694,0.01854412330243975,-0.03599741582238304
1592292977.800198,-0.36,9.734304978087424,0.3185200584335318,-0.4888888888888889,-0.6,-0.17555555555555555,-0.05214953194540535,0.014493867013503027,-0.036672458537205826
1592292977.810198,-0.34,9.71,0.48,-0.4866666666666667,-0.6133333333333333,-0.16111111111111112,-0.062177354602297986,0.011999138607461015,-0.04036073895236887
1592292977.820198,-0.3056420819139666,9.764972668937654,0.41815574744513984,-0.4866666666666667,-0.6133333333333333,-0.16111111111111112,-0.0509337522010769,0.011999138607461015,-0.03961116545895413
1592292977.830198,-0.25,9.77,0.3,-0.4866666666666667,-0.6133333333333333,-0.16111111111111112,-0.039269908169872414,0.022907446432425576,-0.0370882466048795
1592292977.840198,-0.20319946776339665,9.7621999112939,0.30780008870610054,-0.4866666666666667,-0.6133333333333333,-0.16111111111111112,-0.03501561973646369,0.03396859635928825,-0.04219339272496997
1592292977.850198,-0.216537930031275,9.753365517492181,0.3498068950469125,-0.4866666666666667,-0.6133333333333333,-0.16111111111111112,-0.03453946403193643,0.05300986164489806,-0.049422909496228615
1592292977.860198,-0.28502661239824667,9.75,0.3883422041327489,-0.4866666666666667,-0.6062002539483754,-0.16111111111111112,-0.03490658503988659,0.07309146835190325,-0.06136358595890618
1592292977.870198,-0.3372711518374324,9.835088073307379,0.3049119266926218,-0.4866666666666667,-0.6055555555555555,-0.16111111111111112,-0.03490658503988659,0.07314519665879231,-0.07249032011196502
1592292977.880198,-0.41962952217287475,9.778065927198874,0.2734568259423751,-0.4866666666666667,-0.6055555555555555,-0.16111111111111112,-0.03490658503988659,0.07405079947150317,-0.08370216991390939
1592292977.890198,-0.4879897516752069,9.77,0.3183247930626725,-0.4866666666666667,-0.6055555555555555,-0.16111111111111112,-0.04544941940599345,0.06363365884365216,-0.08719336790794494
1592292977.900198,-0.6531317348892333,9.725509526848391,0.3719055520102106,-0.4866666666666667,-0.6055555555555555,-0.16111111111111112,-0.046623752492211276,0.06003274687535396,-0.08564874334499624
1592292977.910198,-0.54,9.73,0.5,-0.4666666666666667,-0.5877777777777777,-0.15444444444444444,-0.04363323129985824,0.04799655442984406,-0.05999569303730508
1592292977.920198,-0.49245296442687747,9.745849011857707,0.46037747035573123,-0.4666666666666667,-0.5877777777777777,-0.15444444444444444,-0.03153121829528115,0.035894541425266976,-0.04357153253109332
1592292977.930198,-0.44438102172066496,9.714381021720666,0.3431430651619949,-0.4666666666666667,-0.5877777777777777,-0.15444444444444444,-0.01961938780656931,0.034667637372302246,-0.02469955393930818
1592292977.940198,-0.4134061197423266,9.763187760515347,0.40091701402046226,-0.4666666666666667,-0.5877777777777777,-0.15444444444444444,-0.009841296339111285,0.038774508134699244,-0.019039523337612923
