time,acc_x,acc_y,acc_z,mag_x,mag_y,mag_z,gyr_x,gyr_y,gyr_z
1592293083.4500973,-0.49692285271882686,9.82,0.23076855815648056,-0.3211111111111111,-0.5633333333333334,0.22666666666666666,0.01166347390980312,0.002181661564992912,0.0037759893939762097
1592293083.4600973,-0.44306045988854026,9.79,0.25673488502786496,-0.3211111111111111,-0.5633333333333334,0.19111111111111112,0.01598396853894938,0.011360875141132596,0.00811070720014119
1592293083.4700973,-0.5490810823596197,9.79091891764038,0.22172974123657696,-0.3211111111111111,-0.5633333333333334,0.19111111111111112,0.022117330744540885,0.024399230674404384,0.012199615337202192
1592293083.4800973,-0.54,9.803403888103173,0.14,-0.3211111111111111,-0.5633333333333334,0.19111111111111112,0.025367587941651944,0.027526160512207472,0.014552106764765206
1592293083.4900973,-0.5333071005707398,9.840669289942927,0.14602360948633417,-0.3211111111111111,-0.5633333333333334,0.19111111111111112,0.028142575723260156,0.017960057644712552,0.019055180752951047
1592293083.5000973,-0.4589638058775568,9.848103619412244,0.21293257471019889,-0.3211111111111111,-0.5633333333333334,0.19111111111111112,0.02570969709355427,0.011472381298830197,0.02473189755559811
1592293083.5100973,-0.43790491192897035,9.811047544035516,0.2441901761420593,-0.3288888888888889,-0.5633333333333334,0.21333333333333335,0.026294208107910954,0.0033867616754853806,0.02945243112740431
1592293083.5200973,-0.4313649920775468,9.816900456706124,0.2717345512163296,-0.3288888888888889,-0.5633333333333334,0.21333333333333335,0.027721579860630178,0.004926836002759298,0.02945243112740431
1592293083.5300972,-0.5283684148497348,9.790815792575131,0.20407896287566293,-0.3288888888888889,-0.5633333333333334,0.21333333333333335,0.032168027684249235,0.010084444538394107,0.029808387788638983
1592293083.5400972,-0.5094858829214414,9.798971765842884,0.25514117078558607,-0.3288888888888889,-0.5633333333333334,0.21333333333333335,0.03840340328141551,0.012809562022408032,0.03415224309844946
1592293083.5500972,-0.5022473422614938,9.784494684522988,0.3275265773850614,-0.3288888888888889,-0.5633333333333334,0.21333333333333335,0.04156181247030471,0.008861550536296541,0.03888985688178325
1592293083.5600972,-0.4701167700568211,9.799985403742898,0.3299270187144868,-0.31444444444444447,-0.5755555555555556,0.21333333333333335,0.057836322337491676,0.0054525617078266,0.04691686907993737
1592293083.5700972,-0.55,9.791582489382554,0.26892257432211697,-0.31444444444444447,-0.5755555555555556,0.21333333333333335,0.07481189055872706,0.004018077503692924,0.05505940756426215
1592293083.5800972,-0.55,9.809852335837961,0.14103364913426986,-0.31444444444444447,-0.5755555555555556,0.21333333333333335,0.09474120146376847,3.2215322684638927e-05,0.061038200835774575
1592293083.5900972,-0.43100676899609114,9.839748307750977,0.1796644103346363,-0.31444444444444447,-0.5755555555555556,0.21333333333333335,0.10247403103564524,-0.003245036982194386,0.07623002973670867
1592293083.6000972,-0.6954744680851064,9.825251418439716,0.2316200354609929,-0.31444444444444447,-0.5755555555555556,0.21333333333333335,0.10977778659851953,-0.022578340464429837,0.07394492376013437
1592293083.6100972,-0.5187663843278285,9.75784720579189,0.21938319216391428,-0.3288888888888889,-0.5633333333333334,0.22666666666666666,0.11534287673948106,0.028546080977881985,0.016429745034895575
1592293083.6200972,-0.09657388324684031,9.919191517890399,-0.006467856876815732,-0.3288888888888889,-0.5633333333333334,0.22666666666666666,0.13190233296484602,0.010214339769981278,0.039655205214567675
1592293083.6300972,-0.49,9.9,-0.16,-0.3288888888888889,-0.5633333333333334,0.22666666666666666,0.12980886311707826,0.019634954084936207,0.022907446432425576
1592293083.6400971,-0.5949051710163722,9.908742097584698,-0.17748419516939537,-0.3288888888888889,-0.5633333333333334,0.22666666666666666,0.10882933498933073,0.025356643574321897,0.026721906092016034
1592293083.6500971,-0.4311116228772829,9.840000200256329,-0.07888917814802947,-0.3288888888888889,-0.5633333333333334,0.22666666666666666,0.08205478348869429,0.03466415392757992,0.03236129865101039
1592293083.6600971,-0.38,9.87,0.01,-0.3288888888888889,-0.5488888888888889,0.22666666666666666,0.05999569303730508,0.028361600344907853,0.04145156973486533
1592293083.670097,-0.5083707069954556,9.813837815689489,0.14639387618267152,-0.3288888888888889,-0.5488888888888889,0.22666666666666666,0.052994157099231276,0.041489480228796234,0.04232676172712455
1592293083.680097,-1.0540265030792457,9.882039011765833,0.1830327574225396,-0.3288888888888889,-0.5488888888888889,0.22666666666666666,0.07173105715035734,0.06716096994834958,0.06249251950955063
1592293083.690097,-1.41,9.68,0.26,-0.3288888888888889,-0.5488888888888889,0.22666666666666666,0.09272061651219875,0.08290313946973066,0.09817477042468103
1592293083.700097,-1.257769286534163,9.832230713465837,0.2660892285386335,-0.3288888888888889,-0.5488888888888889,0.22666666666666666,0.0893994575464001,0.06297618567493872,0.09817477042468103
1592293083.710097,-1.004794710327456,9.939129722921914,0.0052380352644836314,-0.3157015113350126,-0.5549753708368318,0.23376756227260007,0.08427876776005017,-0.04044852747504082,0.08821578762579337
1592293083.720097,-0.8595493122622183,10.020450687737782,-0.11022534386889084,-0.31444444444444447,-0.5555555555555556,0.23444444444444446,0.05093720053840892,-0.09746494828687569,0.1007251500329234
1592293083.730097,-0.82,10.06,-0.13,-0.31444444444444447,-0.5555555555555556,0.23444444444444446,0.02181661564992912,-0.1308996938995747,0.13308135546456762
1592293083.740097,-0.8455879845747919,10.042941343616805,-0.027648061700832144,-0.31444444444444447,-0.5555555555555556,0.23444444444444446,-0.005165140211757527,-0.14671658526677034,0.17401919194436805
1592293083.750097,-0.8800360558081204,10.03249098604797,0.08761718137639128,-0.31444444444444447,-0.5555555555555556,0.23444444444444446,-0.018827646964044882,-0.1559966680540703,0.22039501500674671
1592293083.760097,-1.113085575870193,10.059098118591765,0.09090188140823573,-0.33492089826827853,-0.5684880527074508,0.21396799062061034,-0.014410353506315709,-0.16980887540195005,0.30009414674676227
1592293083.770097,-1.1004418072633686,10.050220903631685,0.11933728910494709,-0.33555555555555555,-0.5688888888888889,0.21333333333333335,-0.004580194763251668,-0.1637691984633123,0.38323190576255955
1592293083.780097,-1.1458248609031796,10.059164972180637,-0.03580452707081089,-0.33555555555555555,-0.5688888888888889,0.21333333333333335,-0.004363323129985824,-0.18561897168026337,0.4610437629139952
1592293083.790097,-1.0490933755912508,10.115039976950227,-0.031653341016591036,-0.33555555555555555,-0.5688888888888889,0.21333333333333335,-0.0013613580737256788,-0.1836202745143769,0.5470181521724968
1592293083.800097,-1.0881086774130206,10.12,0.05247201842232099,-0.33555555555555555,-0.5688888888888889,0.21333333333333335,-0.001090830782496456,-0.1795111124431678,0.6201149161939669
1592293083.810097,-0.9010767366432619,10.076474320134013,0.15964108778557937,-0.33555555555555555,-0.5572820409246256,0.20656267202084644,0.00270750133165594,-0.16925917029007942,0.7422447001360833
1592293083.820097,-0.47,9.92,0.29,-0.33555555555555555,-0.5555555555555556,0.20555555555555555,0.02945243112740431,-0.13635384781205698,0.8617563181722002
1592293083.830097,-0.2917519392307383,9.860583979743579,0.27302399421245127,-0.33555555555555555,-0.5555555555555556,0.20555555555555555,0.07111781790042064,-0.11968769310285046,0.9580496564920602
1592293083.840097,-0.31803612595951664,9.908036125959518,0.20229118638056393,-0.33555555555555555,-0.5555555555555556,0.20555555555555555,0.13868202939855312,-0.07767921156613997,1.072274361681838
1592293083.850097,-0.08971941439926356,9.888411195099932,0.17121492679990796,-0.33555555555555555,-0.5555555555555556,0.20555555555555555,0.17054683266896328,-0.08499305685359732,1.1422833948780382
1592293083.860097,0.0,9.81,0.23,-0.37444444444444447,-0.5633333333333334,0.20555555555555555,0.21162117180431245,-0.10362892433716332,1.2326387842209952
1592293083.870097,0.16627228096676736,9.817229229607252,0.07095694864048338,-0.37444444444444447,-0.5633333333333334,0.20555555555555555,0.21398693166110963,-0.12492076304833781,1.2783768081190738
1592293083.880097,0.33409527195165306,9.82,-0.13194809811589053,-0.37444444444444447,-0.5633333333333334,0.20555555555555555,0.2169582155510237,-0.22185706563110819,1.356811235882835
1592293083.890097,0.6139326639102185,9.725540460720614,0.0016893089190785637,-0.37444444444444447,-0.5633333333333334,0.20555555555555555,0.20368020720776442,-0.2536830397773235,1.388086616522605
1592293083.900097,0.544510551787417,9.705751758631235,0.05986884479067341,-0.37444444444444447,-0.5633333333333334,0.20555555555555555,0.18268937917840766,-0.2785680335264012,1.4176947734071614
1592293083.910097,0.8,9.54,0.23,-0.38666666666666666,-0.5422222222222223,0.18444444444444444,0.1832595714594046,-0.27052603405912107,1.4704398948052226
1592293083.9200969,0.7872138376734461,9.546393081163277,0.16606918836723056,-0.38666666666666666,-0.5422222222222223,0.18444444444444444,0.2048782576158969,-0.27471029589586154,1.492755957934505
1592293083.9300969,1.1093437817115797,9.55,-0.08956252114105309,-0.38666666666666666,-0.5422222222222223,0.18444444444444444,0.2639784972456694,-0.2700854400157568,1.5332887947984812
1592293083.9400969,1.3712601007700351,9.55,-0.15625202015400705,-0.38666666666666666,-0.5422222222222223,0.18444444444444444,0.2996253114428433,-0.2522811399821679,1.560107242876596
1592293083.9500968,1.5432473736194667,9.480342102900241,-0.16,-0.38666666666666666,-0.5422222222222223,0.18444444444444444,0.3143177232955801,-0.2478516808381694,1.5810659251350216
1592293083.9600968,1.8422972105300708,9.378523935221516,-0.22254155668117287,-0.42339742217783166,-0.5183968672960612,0.19040078317598472,0.3293594557304716,-0.22898489121798096,1.6029849011399504
1592293083.9700968,1.9988350245758681,9.344232995084827,-0.28153400983034726,-0.42777777777777776,-0.5155555555555555,0.19111111111111112,0.3383918108940046,-0.21621197474826345,1.6068606764230235
1592293083.9800968,2.2092399171146284,9.32,-0.517403825940719,-0.42777777777777776,-0.5155555555555555,0.19111111111111112,0.36526248777459025,-0.19448554005790192,1.6060550347237903
1592293083.9900968,2.356993476501119,9.329132898433407,-0.5947973906004476,-0.42777777777777776,-0.5155555555555555,0.19111111111111112,0.3765761757714232,-0.17713713371055267,1.5937479757412931
1592293084.0000968,2.4728785545448035,9.33,-0.6274342812119476,-0.42777777777777776,-0.5155555555555555,0.19111111111111112,0.3804200665879394,-0.16215698468318393,1.576901709262956
1592293084.0100968,2.52,9.301634503603815,-0.6778206618615826,-0.4698007354017584,-0.4966452246247643,0.2236789032696961,0.38488496953673484,-0.1271096423758904,1.5428891335999473
1592293084.0200968,2.569322951398423,9.321921311732632,-0.7348032793315813,-0.4722222222222222,-0.4955555555555556,0.22555555555555556,0.38267202205818335,-0.11050026396793228,1.5150402098737703
1592293084.0300968,2.8701419531383614,9.487413773445072,-1.1702129297075423,-0.4722222222222222,-0.4955555555555556,0.22555555555555556,0.3712409147478606,-0.08871574208127853,1.421458725827789
1592293084.0400968,2.9719787683758043,9.54541643907189,-1.2477082195359441,-0.4722222222222222,-0.4955555555555556,0.22555555555555556,0.33308996041757394,-0.09402729744027101,1.3119291798055515
1592293084.0500968,3.0192914733332157,9.445222737778092,-1.2696457366666078,-0.4722222222222222,-0.4955555555555556,0.22555555555555556,0.28119368206977186,-0.10418868694085223,1.1998863210264468
1592293084.0600967,3.162621178361398,9.43904847134456,-1.2554757643277203,-0.48221357749611393,-0.47557284500777214,0.23100538570495102,0.1841153976776623,-0.12156724747095507,1.0155784799895713
1592293084.0700967,3.375802587665158,9.458445572166598,-1.25,-0.48444444444444446,-0.4711111111111111,0.23222222222222222,0.09428641974349035,-0.16396927661361405,0.848841944959501
1592293084.0800967,3.0953726592226007,9.416301758225362,-1.1800828131605778,-0.48444444444444446,-0.4711111111111111,0.23222222222222222,0.009220397001614936,-0.1550535211805691,0.7063154681037028
1592293084.0900967,3.6630361468674297,9.550122547855413,-1.2663342516505962,-0.48444444444444446,-0.4711111111111111,0.23222222222222222,-0.05458832676537732,-0.14316318526684654,0.5747675631458726
1592293084.1000967,3.259430857142857,9.356989714285714,-1.099264,-0.48444444444444446,-0.4711111111111111,0.23222222222222222,-0.09315844482169905,-0.14039977035093013,0.47753205665566
1592293084.1100967,3.314928008881796,9.30045172258266,-0.9471047427401729,-0.4928405170253694,-0.4341683917550413,0.22130732786701976,-0.14067236146188894,-0.12478925519372357,0.3539287008333714
1592293084.1200967,3.3745087202481816,9.128936625042362,-0.8481156964467269,-0.4955555555555556,-0.4222222222222222,0.21777777777777776,-0.16740656600258091,-0.05250371400233014,0.2568825303960779
1592293084.1300967,3.556020819207913,9.289820125234316,-0.84,-0.4955555555555556,-0.4222222222222222,0.21777777777777776,-0.16772598971510266,0.010325542366840683,0.19839454946146456
1592293084.1400967,3.849812919166961,9.244707024355808,-0.7991334274620544,-0.4955555555555556,-0.4222222222222222,0.21777777777777776,-0.16511396910997714,0.08930257738187011,0.09913776646669431
1592293084.1500967,3.4392325218851183,9.182260462885239,-0.5819534716392853,-0.4955555555555556,-0.4222222222222222,0.21777777777777776,-0.16244601258369096,0.15902740463672338,0.03860525878674919
1592293084.1600966,3.5905764543118783,9.301466170366954,-0.6214661703669544,-0.5422990827971393,-0.43975104493781614,0.21777777777777776,-0.14327802538033715,0.2552328078310868,-0.034038570045065886
1592293084.1700966,3.544713027390098,9.325605116035877,-0.5110823311748381,-0.5488888888888889,-0.44222222222222224,0.21777777777777776,-0.11748308511872772,0.27852319299171596,-0.07874839171439746
1592293084.1800966,3.3148914273681993,9.150400600110546,-0.5977630089753376,-0.5488888888888889,-0.44222222222222224,0.21777777777777776,-0.07611229938058675,0.3113329475794366,-0.17656164133820634
1592293084.1900966,3.2194731746672045,9.105344090359015,-0.5049786204114562,-0.5488888888888889,-0.44222222222222224,0.21777777777777776,-0.06023850079276355,0.3315773555946952,-0.22042755123805916
1592293084.2000966,3.0278881472854327,9.164269396165562,-0.3757077584662247,-0.5488888888888889,-0.44222222222222224,0.21777777777777776,-0.04238799157305571,0.3497669207559645,-0.30495194796447006
1592293084.2100966,2.7671896268103087,9.66106828371448,-0.2810202238493049,-0.5414372802632004,-0.43197626036190045,0.2047374626828228,-0.022809808932137614,0.33552548185893144,-0.4133513657596337
1592293084.2200966,2.6742590576893175,9.72677460737055,-0.30645078525890224,-0.54,-0.43,0.20222222222222222,-0.020817252835005545,0.3308454906255958,-0.44440418091488554
1592293084.2300966,2.6276146788990826,9.449724770642202,-0.5957798165137614,-0.54,-0.43,0.20222222222222222,-0.03429612010656288,0.2847969028282949,-0.6019584547446039
1592293084.2400966,2.737966268909142,9.64492060509255,-0.6737301512731373,-0.54,-0.43,0.20222222222222222,-0.0727166371306001,0.20274519354677456,-0.7069708841430348
1592293084.2500966,2.627860441150241,9.644035553617789,-0.637228442894231,-0.54,-0.43,0.20222222222222222,-0.11707077253262019,0.13723068041948194,-0.7847777005605227
1592293084.2600965,2.57,9.501824931370102,-0.4940981407536811,-0.5382829354185731,-0.44459504894212903,0.17990038266367192,-0.2254492623105393,0.016269290578148257,-0.9556085661316138
1592293084.2700965,2.4094514963402207,9.421835448902067,-0.5161919762809228,-0.5377777777777778,-0.4488888888888889,0.17333333333333334,-0.25198191075668136,-0.011999138607461015,-0.9970193352017607
1592293084.2800965,2.115862675219767,9.417941791399382,-0.6173597053932051,-0.5377777777777778,-0.4488888888888889,0.17333333333333334,-0.284035567705145,-0.05618120629318116,-1.0541961286773986
1592293084.2900965,2.7888917757097644,9.561489914497614,-0.632139449194577,-0.5377777777777778,-0.4488888888888889,0.17333333333333334,-0.33092803824574757,-0.07792094545789957,-1.1453274908413285
1592293084.3000965,2.476247426848993,9.418675562417292,-0.5937351124834582,-0.5377777777777778,-0.4488888888888889,0.17333333333333334,-0.35461632013032907,-0.05434890748686099,-1.1838995915207782
1592293084.3100965,2.455889502762431,9.397775322283609,-0.2992375690607734,-0.528585226110088,-0.4656026191937794,0.16831921424186616,-0.3419153843082252,-0.05431734627891745,-1.2045753041120404
1592293084.3200965,2.549003907036694,9.419003907036695,-0.1953385427155919,-0.5255555555555556,-0.4711111111111111,0.16666666666666666,-0.33448522100335976,-0.0551977423606783,-1.209548822338838
1592293084.3300965,1.8843399289132685,9.245922028490666,-0.25804455514819064,-0.5255555555555556,-0.4711111111111111,0.16666666666666666,-0.30738274892253087,-0.031699119407762516,-1.2170055680938445
1592293084.3400965,2.1768806721908875,9.506128403314532,-0.12440893159714969,-0.5255555555555556,-0.4711111111111111,0.16666666666666666,-0.2764494049727691,-0.047527337428678304,-1.2307737909612895
1592293084.3500965,1.9561925739458779,9.671532410320957,-0.020774071743234743,-0.5255555555555556,-0.4711111111111111,0.16666666666666666,-0.26406548749268044,-0.04850060886788561,-1.2401901615699322
1592293084.3600965,1.7973994533385396,9.564334244435768,0.04641643889105818,-0.5150352509870276,-0.503481279014274,0.15533710790055968,-0.24243543765227,-0.02565645926734636,-1.2483139927497118
1592293084.3700964,1.6655400322407308,9.58168767825404,0.06421692225023767,-0.5111111111111111,-0.5155555555555555,0.1511111111111111,-0.21583967004803453,-0.008424236386942103,-1.2390522001058502
1592293084.3800964,1.332276861415138,9.500461435691896,0.04127382971070346,-0.5111111111111111,-0.5155555555555555,0.1511111111111111,-0.13779371529783724,0.04932370105320199,-1.1894432080647437
1592293084.3900964,1.5706127363326419,9.961687289893426,0.059538182771857046,-0.5111111111111111,-0.5155555555555555,0.1511111111111111,-0.06061716723749427,0.0649296197809564,-1.1163064393320654
1592293084.4000964,0.7660648414699517,9.57812265480752,0.0884476562965316,-0.5111111111111111,-0.5155555555555555,0.1511111111111111,0.0005565794657459711,0.1274119330738941,-1.0462274786670585
1592293084.4100964,1.173921549944418,9.7427667143084,0.09283881213276163,-0.4936059852134173,-0.5394261817796834,0.16384211176397934,0.12070083317428237,0.15205498580879262,-0.9515079763526457
1592293084.4200964,1.1115082513487782,9.806081006029832,0.12346953348143447,-0.4866666666666667,-0.5488888888888889,0.1688888888888889,0.17167901449900358,0.15821949199564878,-0.9096860155106861
1592293084.4300964,0.5363693989071039,9.568143169398907,0.0662032786885246,-0.4866666666666667,-0.5488888888888889,0.1688888888888889,0.21803716426905498,0.17316598905166197,-0.8935329937734352
1592293084.4400964,1.0419552582259861,9.763738523948474,0.02447821032903945,-0.4866666666666667,-0.5488888888888889,0.1688888888888889,0.2134685168822446,0.12011961102959011,-0.9405094200980085
1592293084.4500964,1.1149982450666875,9.871364753139382,-0.1945515170423524,-0.4866666666666667,-0.5488888888888889,0.1688888888888889,0.19158909950103897,0.09371207202334697,-0.9626583569866503
1592293084.4600964,1.0072466848265333,9.874898673930613,-0.28097135330918666,-0.4789968170343541,-0.5732929559007925,0.15494370773922964,0.17177268936452492,0.09520261817170486,-0.9436082673111347
1592293084.4700963,0.4680708859546119,10.142776965659372,-0.24,-0.47444444444444445,-0.5877777777777777,0.14666666666666667,0.1692105733623742,0.09695213756676108,-0.8653819993021264
1592293084.4800963,0.08409841111979352,9.93634107646042,-0.28221638133124954,-0.47444444444444445,-0.5877777777777777,0.14666666666666667,0.15712183905628868,0.09906317074513717,-0.766702417431722
1592293084.4900963,-0.20377924153630064,10.291692255533492,0.013542887586574348,-0.47444444444444445,-0.5877777777777777,0.14666666666666667,0.1321923973231289,0.03272930856497684,-0.6865620896887789
1592293084.5000963,-0.16696990357455926,9.810405181649946,0.14,-0.47444444444444445,-0.5877777777777777,0.14666666666666667,0.052778700482261076,-0.01563520580034854,-0.6645803935859863
1592293084.5100963,0.16565668562855534,9.840707320122522,-0.5193942614240169,-0.4607968507984136,-0.5992704882165406,0.1366105450327492,-0.015447935448802016,-0.09965128220397688,-0.6406592315801877
1592293084.5200963,0.21203382971835544,10.109272418258335,-0.661157332470055,-0.4533333333333333,-0.6055555555555555,0.13111111111111112,-0.046620744546837845,-0.1404871924547975,-0.6238717796914481
1592293084.5300963,0.38263503097233514,10.171053339686633,-0.049475011912436584,-0.4533333333333333,-0.6055555555555555,0.13111111111111112,-0.15231461280312833,-0.1598928857873261,-0.5896800306398354
1592293084.5400963,0.05404376336757,9.790031259548265,-0.44428749383035226,-0.4533333333333333,-0.6055555555555555,0.13111111111111112,-0.18940026653092723,-0.16102366780757296,-0.561510599828537
1592293084.5500963,0.06807349102608207,9.716921551567149,-0.20346573319034417,-0.4533333333333333,-0.6055555555555555,0.13111111111111112,-0.218291813601429,-0.17233014052768686,-0.5362484043615834
1592293084.5600963,0.11152774727860212,9.923984691156633,-0.16046459829971454,-0.44177947876037404,-0.6185536419501347,0.13544380657597083,-0.2543239614385159,-0.19634745342966348,-0.5214719686853855
1592293084.5700963,-0.09830220228384992,9.884905383360522,-0.34018882544861334,-0.43555555555555553,-0.6255555555555555,0.13777777777777778,-0.27279004178147126,-0.20484979078583765,-0.5160041109558077
1592293084.5800962,-0.013483920570534824,10.031861396113364,-0.3152554415546541,-0.43555555555555553,-0.6255555555555555,0.13777777777777778,-0.30438435845123996,-0.22384631965287768,-0.47908111504553613
1592293084.5900962,0.11175822640367016,10.31584616101162,-0.3706373861810391,-0.43555555555555553,-0.6255555555555555,0.13777777777777778,-0.3191219471783813,-0.22486457539296764,-0.4289721964215155
1592293084.6000962,-0.08854819081616097,10.169444669803667,-0.15290361836767807,-0.43555555555555553,-0.6255555555555555,0.13777777777777778,-0.32288591161895097,-0.18913993347252805,-0.34473584690133263
1592293084.6100962,-0.22827666985173997,10.170121135530007,0.21184446567826648,-0.4308171596680674,-0.6343554336323193,0.12491641751173854,-0.32886693784169185,-0.1702702020664027,-0.21682127037688959
1592293084.6200962,-0.18969834457388104,10.26,0.22910852237890864,-0.42777777777777776,-0.64,0.11666666666666667,-0.33328097386299105,-0.180597569815939,-0.13615641479734641
1592293084.6300962,-0.1669317130819032,10.204611293803309,0.08461720275408488,-0.42777777777777776,-0.64,0.11666666666666667,-0.33018573978136734,-0.20079702194974758,0.05597544745431652
1592293084.6400962,-0.4252258950558818,10.182774199659026,0.18941939761318433,-0.42777777777777776,-0.64,0.11666666666666667,-0.3181918161125527,-0.20498469907581407,0.22689285441823148
1592293084.6500962,-0.5967554141948396,10.10417161032092,0.3687425845186191,-0.42777777777777776,-0.64,0.11666666666666667,-0.3099476262606815,-0.22541200250593857,0.34935522345649117
1592293084.6600962,-0.48477329327588253,10.220257342767917,0.46995098232992055,-0.4183217597167868,-0.6422249454261155,0.11666666666666667,-0.28904876936819723,-0.28256928540289444,0.4794969920083427
1592293084.6700962,-0.28780897757597484,10.419332855378977,0.4437149002270283,-0.4088888888888889,-0.6444444444444445,0.11666666666666667,-0.2651339228581298,-0.32051733986849984,0.565747456891899
1592293084.6800961,-0.13404919714911673,10.159448126681273,0.5371901605701767,-0.4088888888888889,-0.6444444444444445,0.11666666666666667,-0.1978218704809132,-0.31723636471098504,0.794548962806464
1592293084.6900961,0.05197594775406181,10.050658649251353,0.4938523415100351,-0.4088888888888889,-0.6444444444444445,0.11666666666666667,-0.15552505112310294,-0.3096914288942258,0.9005798510186841
1592293084.7000961,0.3767939972714871,9.989818099135972,0.4854843110504775,-0.4088888888888889,-0.6444444444444445,0.11666666666666667,-0.04612492889898498,-0.2936775408576168,1.1287241306747742
1592293084.7100961,0.5216910725561535,9.803487686802779,0.74,-0.4188038942511685,-0.6409450307871694,0.08575517936073608,0.04354211280108279,-0.23608717752626757,1.315827415200208
1592293084.720096,0.8291165474642392,9.845123537061118,0.7042400845253576,-0.42777777777777776,-0.6377777777777778,0.057777777777777775,0.10500505205220802,-0.20701883048596426,1.4144337486804939
1592293084.730096,0.9332185222618224,9.721256449811161,0.4143201766051386,-0.42777777777777776,-0.6377777777777778,0.057777777777777775,0.1977313720241251,-0.15482099962489723,1.5876037319038092
1592293084.740096,1.144805965895597,9.657309172089489,0.24913646511186055,-0.42777777777777776,-0.6377777777777778,0.057777777777777775,0.2403704929845132,-0.13430871496562571,1.6805183179965664
1592293084.750096,1.2770788134390398,9.615138587562601,0.0820896611853444,-0.42777777777777776,-0.6377777777777778,0.057777777777777775,0.2654347015370983,-0.12199163694437332,1.7480086096656453
1592293084.760096,1.5486170181818182,9.667040872727274,0.08976203636363636,-0.4527500929292929,-0.630228008080808,0.06184303838383839,0.2667588202018391,-0.09453245867532364,1.8216590055021626
1592293084.770096,1.7139697573944832,9.698341641741443,0.17688434695912264,-0.47555555555555556,-0.6233333333333333,0.06555555555555556,0.2550735042804865,-0.07049833796907805,1.8618618090573746
1592293084.780096,1.6325929547244629,9.422076916809257,0.07396154159537195,-0.47555555555555556,-0.6233333333333333,0.06555555555555556,0.23598480726388388,0.0076253275745717004,1.9677709769106118
1592293084.790096,1.9218916548127074,9.257192745376956,0.2238795637743006,-0.47555555555555556,-0.6233333333333333,0.06555555555555556,0.2327977454666644,0.027387740345465726,1.979434675472301
1592293084.800096,1.9559724213119056,9.249692919585714,0.19597242131190568,-0.47555555555555556,-0.6233333333333333,0.06555555555555556,0.23018762662465922,0.027844099351043372,1.9446905966532468
1592293084.810096,2.1536919739696314,9.117420514409668,-0.03111248837929964,-0.4953681093550942,-0.60293805736322,0.06905188857900355,0.2153977381719006,0.014791557240261363,1.8691065341327153
1592293084.820096,2.4355876630625457,8.982926354734795,-0.1652074761585813,-0.5133333333333333,-0.5844444444444444,0.07222222222222222,0.2035291647910961,0.003339084064954944,1.8226500293599057
1592293084.830096,2.9124987496248878,9.25500083358341,-0.4164305958454203,-0.5133333333333333,-0.5844444444444444,0.07222222222222222,0.1649885650368877,-0.03732219090793766,1.7018913379997298
1592293084.840096,3.2225266837567,9.324871125611745,-0.33168445583780004,-0.5133333333333333,-0.5844444444444444,0.07222222222222222,0.10214660452995361,-0.005386278867288489,1.596960504328362
1592293084.850096,3.3118215949521357,9.2978410944902,-0.24203899907613075,-0.5133333333333333,-0.5844444444444444,0.07222222222222222,0.05628245556501052,0.030724791864977428,1.513053440655793
1592293084.860096,3.356439136485743,9.10104314334725,0.02582742661099783,-0.534730268670457,-0.5700139531705702,0.06973420648534737,0.013886494401573569,0.07157303809333763,1.4093277392688113
1592293084.870096,3.528053419502618,9.101608311518325,0.024534113219895286,-0.5611111111111111,-0.5522222222222222,0.06666666666666667,0.002816090675607977,0.0837117142177837,1.3347942749468047
1592293084.880096,3.6536023707170657,9.124120011192227,-0.30906824714471043,-0.5611111111111111,-0.5522222222222222,0.06666666666666667,-0.0278782973517625,0.11357062617583717,1.1852813340419903
1592293084.890096,3.7133053194537293,9.023891223378856,-0.4455228726960176,-0.5611111111111111,-0.5522222222222222,0.06666666666666667,-0.020929658025807752,0.12134541845886168,1.1063701988134929
1592293084.900096,3.88,9.01,-0.64,-0.5611111111111111,-0.5522222222222222,0.06666666666666667,-0.009817477042468103,0.11780972450961724,1.0755591515415055
1592293084.910096,3.6910787706085895,9.225290386050613,-0.4137343103331298,-0.5737459574371848,-0.5236768286707224,0.06105117941063392,-0.004707320787699612,0.14760615329473534,0.9509645765002809
1592293084.920096,3.83,9.37,-0.68,-0.5911111111111111,-0.48444444444444446,0.05333333333333334,-0.002181661564992912,0.14508049407202864,0.8966629032120867
1592293084.930096,4.021008396352313,9.211193282918149,-0.3310823509786477,-0.5911111111111111,-0.48444444444444446,0.05333333333333334,-0.060467957743294706,0.12933659841108863,0.7009803316289798
1592293084.940096,4.112821211035471,9.199599665591782,-0.30185286038456943,-0.5911111111111111,-0.48444444444444446,0.05333333333333334,-0.10489649237506819,0.10435004777527085,0.532155771811099
1592293084.950096,4.122343585985622,9.263828207007188,-0.2574478619952071,-0.5911111111111111,-0.48444444444444446,0.05333333333333334,-0.14979316131785625,0.07709964144140659,0.3819372953204905
1592293084.960096,4.202365571664526,9.192903285006423,-0.24290328500642322,-0.6053086193185294,-0.48261250790155175,0.04646357129748578,-0.1985546245471412,0.04182692442695211,0.2189286770444424
1592293084.9700959,4.22830735597749,9.1476150763127,-0.19449981782114084,-0.6255555555555555,-0.48,0.03666666666666667,-0.23276644582614914,0.027493166381190075,0.11304806553662432
1592293084.9800959,4.283126028806584,9.248290123456789,-0.3944732510288066,-0.6255555555555555,-0.48,0.03666666666666667,-0.2992606715975493,0.012919470967497826,-0.13090819497280248
1592293084.9900959,4.209818795328557,9.161727469927037,-0.4197269878831701,-0.6255555555555555,-0.48,0.03666666666666667,-0.34242177097297216,0.023492526007454186,-0.2989772403244825
1592293085.0000958,4.352708446411423,9.199062669617135,-0.2078147050227548,-0.6255555555555555,-0.48,0.03666666666666667,-0.37190493488379334,0.038417456090377354,-0.43745643664158584
1592293085.0100958,4.168374660213486,9.153302724922098,0.09339455015580456,-0.6255555555555555,-0.47788116864461094,0.032005237684810714,-0.3835463872958309,0.0812590463729666,-0.5663942665037364
1592293085.0200958,3.890534487664106,9.107327561679469,0.1797862049343576,-0.6255555555555555,-0.47444444444444445,0.024444444444444446,-0.36819939387049266,0.10754275584121127,-0.6310132636081984
1592293085.0300958,3.8231231645343344,8.886971577415153,0.1689905258050512,-0.6255555555555555,-0.47444444444444445,0.024444444444444446,-0.2982579393189059,0.20024139353848494,-0.7088988878396292
1592293085.0400958,3.8152211299301197,8.997269217102925,0.22829326068932845,-0.6255555555555555,-0.47444444444444445,0.024444444444444446,-0.23993452908227916,0.24476118720600995,-0.7935400530399168
1592293085.0500958,3.9722061976617176,9.145099720862495,0.30848112787734133,-0.6255555555555555,-0.47444444444444445,0.024444444444444446,-0.19725293266795815,0.25314771712473794,-0.8749272867895241
1592293085.0600958,3.7438761579717212,9.178469039492931,0.3753362778558522,-0.6195231084470193,-0.47685742328785896,0.019216323617046366,-0.18660542825422108,0.2726468766537072,-0.949971700623464
1592293085.0700958,3.3146821661199066,9.219829315837018,0.4574573289592545,-0.6088888888888889,-0.4811111111111111,0.01,-0.21065040345995983,0.26905639720828656,-1.0623000056188374
1592293085.0800958,3.324720480416747,9.177578381246382,0.4103108720818059,-0.6088888888888889,-0.4811111111111111,0.01,-0.2691166146026898,0.21211586556357503,-1.1758679925393423
1592293085.0900958,3.33,8.94,0.31,-0.6088888888888889,-0.4811111111111111,0.01,-0.31634092692397225,0.18216874067690814,-1.2282754610910094
1592293085.1000957,3.0671655902987505,9.377063374064955,0.6589938670259723,-0.6088888888888889,-0.4811111111111111,0.01,-0.34688641884615895,0.15980559462958785,-1.206252721350925
1592293085.1100957,2.5997813877649616,9.16,0.6514910320671539,-0.6001778153538526,-0.494969637189578,0.007624252672262818,-0.32758645093201544,0.15157396420260663,-1.149846776554518
1592293085.1200957,2.78,9.16,0.6,-0.5844444444444444,-0.52,0.0033333333333333335,-0.3065234498815041,0.12980886311707826,-1.1224648751888533
1592293085.1300957,2.5932067438692097,9.229491655313351,0.6001788147138964,-0.5844444444444444,-0.52,0.0033333333333333335,-0.21414715470025858,0.1569351979156288,-0.9693768435011043
1592293085.1400957,2.31,8.98,0.29,-0.5844444444444444,-0.52,0.0033333333333333335,-0.15162547876700738,0.20180369476184434,-0.8737554567796613
1592293085.1500957,2.3459964770443307,9.686676452654636,0.6813423364422664,-0.5844444444444444,-0.52,0.0033333333333333335,-0.04384870739241478,0.2877632099950929,-0.7176176667258392
1592293085.1600957,2.236298444503032,9.773232269970999,0.7313814922225151,-0.5799355537979318,-0.5262430793567098,0.0033333333333333335,0.017781720875759525,0.3282014469084005,-0.6348816336147031
1592293085.1700957,2.14,9.56,0.47,-0.57,-0.54,0.0033333333333333335,0.042542400517361786,0.3327033886614191,-0.5988660995905543
1592293085.1800957,2.102571310884564,9.489134486664607,0.8190335701781485,-0.57,-0.54,0.0033333333333333335,0.028658599272816478,0.2681307781441213,-0.5725779876005123
1592293085.1900957,1.7814362695789625,9.560472769076016,0.5444364611773722,-0.57,-0.54,0.0033333333333333335,0.011513236377168074,0.22760283291222275,-0.5169824169104624
1592293085.2000957,1.803297893208835,9.756569108242772,0.5611302914982934,-0.57,-0.54,0.0033333333333333335,-0.008671524833165753,0.21376221983356097,-0.445087975040677
1592293085.2100956,1.7686616223502023,10.182646121798799,0.8072307315279991,-0.5614358942939999,-0.5485641057060001,-0.007800004084466771,-0.008567218687882119,0.169837313707079,-0.37734521405232285
1592293085.2200956,2.43,9.93,0.51,-0.5366666666666666,-0.5733333333333334,-0.04,-0.020725784867432664,0.1341721862470641,-0.3392483733563978
1592293085.2300956,1.1732618965318586,10.092487613780389,0.44555190690171675,-0.5366666666666666,-0.5733333333333334,-0.04,0.022226352756846788,0.0752457688039621,-0.0832840944301808
1592293085.2400956,0.36695665310865777,9.933840557815223,0.6371586287042418,-0.5366666666666666,-0.5733333333333334,-0.04,0.030243305628954442,0.15519792739544308,0.16293274796776192
1592293085.2500956,0.38602866527321583,10.000189310241863,0.7059444610331442,-0.5366666666666666,-0.5733333333333334,-0.04,-0.00731641605516524,0.0633723501158313,0.1628329914760571
1592293085.2600956,1.8412265896328994,9.816074523678147,0.5653091629069428,-0.533752042152185,-0.5733333333333334,-0.03973503413504712,-0.09706790061643006,-0.19734941300677383,0.007811359604828153
1592293085.2700956,1.43,9.58,0.71,-0.5244444444444445,-0.5733333333333334,-0.03888888888888889,-0.17016960206944715,-0.3294308963139297,-0.05781403147231216
1592293085.2800956,1.9710871473354232,10.125543573667711,0.06139937304075235,-0.5244444444444445,-0.5733333333333334,-0.03888888888888889,-0.2593385009100953,-0.33815754257390135,-0.011177438689872397
1592293085.2900956,2.343675195298502,10.162956831266872,0.027267015456652083,-0.5244444444444445,-0.5733333333333334,-0.03888888888888889,-0.27714938011397383,-0.29227849085703494,0.10859472045648322
1592293085.3000956,1.8748940085642496,9.746739568956365,0.44037937502211844,-0.5244444444444445,-0.5733333333333334,-0.03888888888888889,-0.2753460414852789,-0.20582328864642732,0.2674485300784926
1592293085.3100955,1.3395988549198077,9.659598854919809,0.6716618343303851,-0.5244444444444445,-0.5728430449019872,-0.03857688715985042,-0.23644773096069846,-0.1815998848546711,0.40100376016600253
1592293085.3200955,1.3123811011672284,9.385716517508426,1.126571964202022,-0.5244444444444445,-0.5611111111111111,-0.03111111111111111,-0.21594305957839832,-0.20373572169734366,0.5640838206183676
1592293085.3300955,1.5565283789100925,9.100244688176273,0.9655011804052724,-0.5244444444444445,-0.5611111111111111,-0.03111111111111111,-0.17524235149477774,-0.2774097439235515,0.7101095668100098
1592293085.3400955,2.0566338005023828,9.463309857501702,0.8900070427494894,-0.5244444444444445,-0.5611111111111111,-0.03111111111111111,-0.10106854369706322,-0.3010716007034028,0.9388711428523727
1592293085.3500955,1.911833899351652,9.347225723262445,0.9152350943464759,-0.5244444444444445,-0.5611111111111111,-0.03111111111111111,0.005129319589241732,-0.30476409076625927,1.1635471952468948
1592293085.3600955,2.0539422696718073,9.390988533017003,0.8638790035587188,-0.5248978515882431,-0.5609977593251615,-0.031243354861385703,0.06859595993022592,-0.27629548939588366,1.3419142351590525
1592293085.3700955,2.86,8.87,0.51,-0.5511111111111111,-0.5544444444444444,-0.03888888888888889,0.12435470920459597,-0.2945243112740431,1.4791665410651942
1592293085.3800955,3.0636447787098637,9.022733584032398,0.6321868672259184,-0.5511111111111111,-0.5544444444444444,-0.03888888888888889,0.17378130271638215,-0.2606476572940548,1.5863500528379442
1592293085.3900955,3.3332952916959795,9.01835456890487,0.7095612183746319,-0.5511111111111111,-0.5544444444444444,-0.03888888888888889,0.23191521745013638,-0.21364727650558818,1.7078930275559967
1592293085.4000955,3.5355257079460922,8.54346379790117,0.6165362020988305,-0.5511111111111111,-0.5544444444444444,-0.03888888888888889,0.2802581222416167,-0.15968183041196302,1.7974801212735343
1592293085.4100955,3.4932759881460957,8.461982834930533,0.6990516876419197,-0.5513984784923476,-0.5541474981505001,-0.03888888888888889,0.33551512328894156,-0.12296294800417493,1.9113800788808346
1592293085.4200954,3.87,8.69,0.59,-0.5844444444444444,-0.52,-0.03888888888888889,0.40797071265367457,-0.08835729338221293,2.0649426712657912
1592293085.4300954,3.721213582704764,8.243122003196591,0.43361831590163474,-0.5844444444444444,-0.52,-0.03888888888888889,0.46474386221677116,-0.0686465442525798,2.133456834181225
1592293085.4400954,4.2402196337099145,8.61470282787173,0.5125387692091783,-0.5844444444444444,-0.52,-0.03888888888888889,0.4999972267495041,-0.12639966290505034,2.119976772041401
1592293085.4500954,4.193937137224839,8.507509582740116,0.6034213120140182,-0.5844444444444444,-0.52,-0.03888888888888889,0.48704154890670337,-0.10510395310416405,2.0581040427132526
1592293085.4600954,4.27815080495017,8.920922133391741,0.40437082466323515,-0.5844444444444444,-0.52,-0.03888888888888889,0.5196111087376767,-0.12180629147902218,2.0263695998010225
1592293085.4700954,4.745163672048412,8.389646253417135,0.14926610434823245,-0.6166666666666667,-0.45444444444444443,-0.05333333333333334,0.5393150324323737,-0.10402920232120749,1.8843237875727572
1592293085.4800954,4.88020785495599,8.298274492920015,0.1,-0.6166666666666667,-0.45444444444444443,-0.05333333333333334,0.5399385638773169,-0.13244182826140624,1.7692753463359978
1592293085.4900954,4.8849600073549695,8.400228004045232,0.05053599338052772,-0.6166666666666667,-0.45444444444444443,-0.05333333333333334,0.551110837691986,-0.1303586410291538,1.7307492059503007
1592293085.5000954,5.1730282174810736,8.4931736516101,-0.12140290506031079,-0.6166666666666667,-0.45444444444444443,-0.05333333333333334,0.5651147314946477,-0.12398052267544608,1.6674370312321456
1592293085.5100954,5.750357880247764,8.546348752128084,-0.28852464954540513,-0.6166666666666667,-0.45444444444444443,-0.05333333333333334,0.5609715146012648,-0.1620981180945689,1.555570175110807
1592293085.5200953,5.68,8.6,-0.42,-0.6555555555555556,-0.39444444444444443,-0.022222222222222223,0.5475970528132209,-0.1679879405044542,1.3940817400304706
1592293085.5300953,6.099142561983471,8.740974253019708,-0.6831722822631914,-0.6555555555555556,-0.39444444444444443,-0.022222222222222223,0.470080887197451,-0.18972463355572936,1.116117096472115
1592293085.5400953,5.79,8.63,-0.81,-0.6555555555555556,-0.39444444444444443,-0.022222222222222223,0.41560652813114973,-0.1810779098944117,0.9250245035569946
1592293085.5500953,5.725433438338584,8.898897833780579,-0.8570077392758527,-0.6555555555555556,-0.39444444444444443,-0.022222222222222223,0.34730498572772367,-0.17016099013583974,0.6648481894912692
1592293085.5600953,5.970113172325283,9.029393691906817,-0.7672918368140629,-0.6555555555555556,-0.39444444444444443,-0.022222222222222223,0.29748287106638627,-0.15503641961364806,0.47267717579753943
1592293085.5700953,5.97,8.94,-0.73,-0.6766666666666666,-0.35,0.012222222222222223,0.23343778745424157,-0.16471544815696484,0.20180369476184434
1592293085.5800953,6.100956435590543,8.724782177952713,-0.816745120089967,-0.6766666666666666,-0.35,0.012222222222222223,0.15763788498210712,-0.14468884414131145,-0.06118702851154572
1592293085.5900953,6.088304938588109,8.461717901507912,-0.7061092595613769,-0.6766666666666666,-0.35,0.012222222222222223,0.12025446475494841,-0.11184799755374947,-0.267929924422339
1592293085.6000953,6.247625336089111,8.577516507233918,-0.8406101732116401,-0.6766666666666666,-0.35,0.012222222222222223,0.06909075131781331,-0.07345407444779914,-0.4534337336314862
1592293085.6100953,6.186252446362921,8.41641267170267,-0.6948495601119383,-0.6766666666666666,-0.35,0.012222222222222223,0.022227545190951145,-0.026590868320936975,-0.5923496660789705
1592293085.6200953,5.93,8.57,-0.76,-0.6844444444444444,-0.3422222222222222,-0.008888888888888889,-0.02945243112740431,0.04581489286485115,-0.7646723785300156
1592293085.6300952,5.530941928170248,8.357008295975678,-0.5429087442675323,-0.6844444444444444,-0.3422222222222222,-0.008888888888888889,-0.08239552403217072,0.10770822788947333,-0.906323334796406
1592293085.6400952,5.64574250113168,8.35915874490744,-0.615047530555357,-0.6844444444444444,-0.3422222222222222,-0.008888888888888889,-0.12577510483003523,0.13345400985167877,-1.0239286255905666
1592293085.6500952,5.6363414634146345,8.420487804878048,-0.21378048780487804,-0.6844444444444444,-0.3422222222222222,-0.008888888888888889,-0.16600582115577164,0.14116946663234622,-1.1071267301617993
1592293085.6600952,5.6662100765533205,8.375684885170019,-0.32578778707495104,-0.6844444444444444,-0.3422222222222222,-0.008888888888888889,-0.19777288373187463,0.133024065971807,-1.1633299947195201
1592293085.6700952,5.56,8.38,-0.04,-0.6555555555555556,-0.36,-0.022222222222222223,-0.26398104936414235,0.15053464798451094,-1.2217304763960306
1592293085.6800952,5.1054348419501006,8.596141289512474,0.08298138341431457,-0.6555555555555556,-0.36,-0.022222222222222223,-0.30495494515095917,0.15376902646505713,-1.2923100925188638
1592293085.6900952,4.8296163872479845,8.651846554899194,0.05280558677923134,-0.6555555555555556,-0.36,-0.022222222222222223,-0.3618157324934697,0.16449309743448098,-1.3656651716024615
1592293085.7000952,4.71918502163423,8.649274229447482,0.22154074891828848,-0.6555555555555556,-0.36,-0.022222222222222223,-0.38532023620491074,0.16564145299226904,-1.402561147369654
1592293085.7100952,4.569818023183347,8.79117287797582,0.22900909884083262,-0.6555555555555556,-0.36,-0.022222222222222223,-0.4024283187838396,0.17541750018022842,-1.4172252181515932
1592293085.7200952,4.3,8.22,0.41,-0.65,-0.4,-0.03,-0.4036073895236887,0.19525871006686563,-1.4508049407202865
1592293085.7300951,4.221372578884574,8.473903739243013,0.41219252151397456,-0.65,-0.4,-0.03,-0.34288059922749314,0.2041720212242761,-1.4773134883620773
1592293085.7400951,4.033643440288589,8.487247958989938,0.36182172014429465,-0.65,-0.4,-0.03,-0.24639230908802803,0.22026331854667283,-1.4877959507479146
1592293085.7500951,4.031307187210049,8.474061630147741,0.37,-0.65,-0.4,-0.03,-0.15000807357887144,0.2598438375252896,-1.4935673408867554
1592293085.7600951,3.926532010563129,8.72103168938691,0.37,-0.65,-0.4,-0.03,-0.07980013813740756,0.29168231987665105,-1.5009146829678388
1592293085.770095,4.0,8.88,0.65,-0.6288888888888889,-0.4266666666666667,-0.04555555555555556,-0.004363323129985824,0.31634092692397225,-1.5293447570600311
1592293085.780095,3.52325296108291,9.131895093062605,0.5228807106598985,-0.6288888888888889,-0.4266666666666667,-0.04555555555555556,0.014422130332879327,0.33622320981576886,-1.5544804699259067
1592293085.790095,3.233708802468838,9.45544277551414,0.6516932275719073,-0.6288888888888889,-0.4266666666666667,-0.04555555555555556,-0.018827843978514967,0.3577177267402167,-1.572395188009331
1592293085.800095,2.3605069450588343,8.76037512164912,0.2946615942670088,-0.6288888888888889,-0.4266666666666667,-0.04555555555555556,-0.04271051758567186,0.3633799282242109,-1.5692954331976758
1592293085.810095,3.213987436963638,9.977512518800317,0.3837204282049014,-0.6288888888888889,-0.4266666666666667,-0.04555555555555556,-0.07023581754760164,0.36418949587015,-1.5336744567763552
1592293085.820095,1.94,9.22,0.19,-0.5844444444444444,-0.4722222222222222,-0.05333333333333334,-0.06544984694978735,0.3097959422289935,-1.4311699866353502
1592293085.830095,2.436286913273236,9.60924463786136,0.36516008703761266,-0.5844444444444444,-0.4722222222222222,-0.05333333333333334,-0.11852485106239469,0.34694844510781864,-1.3218354781633792
1592293085.840095,2.184526065222566,9.049386336586528,0.32972054272792195,-0.5844444444444444,-0.4722222222222222,-0.05333333333333334,-0.09130074484239463,0.30685249076881177,-1.215423080409927
1592293085.850095,2.6376756013991005,9.539978406738525,0.2485837675779856,-0.5844444444444444,-0.4722222222222222,-0.05333333333333334,-0.1119911751831591,0.282841213029096,-1.1665202787918738
1592293085.860095,2.226000071382683,9.697163609108431,0.15876365193803985,-0.5844444444444444,-0.4722222222222222,-0.05333333333333334,-0.11770659042642667,0.25099818524517664,-1.118347493170047
1592293085.870095,1.94,10.22,0.36,-0.5577777777777778,-0.4988888888888889,-0.07444444444444444,-0.17671458676442586,0.23561944901923448,-1.0264717663291651
1592293085.880095,1.3822998798733208,9.52095828328055,-0.028690346183247787,-0.5577777777777778,-0.4988888888888889,-0.07444444444444444,-0.21715198287618498,0.2291476370673101,-0.9049087000177014
1592293085.890095,2.1,9.82,0.38,-0.5577777777777778,-0.4988888888888889,-0.07444444444444444,-0.24107360293171679,0.25198191075668136,-0.7548549014875475
1592293085.900095,1.795436428856118,9.829824631327222,0.47824631327222,-0.5577777777777778,-0.4988888888888889,-0.07444444444444444,-0.22928489162546273,0.2294761891720145,-0.5780242318937368
1592293085.910095,1.5383436674816626,9.773174376528118,0.5205897310513448,-0.5577777777777778,-0.4988888888888889,-0.07444444444444444,-0.2414718921877923,0.22464681151584984,-0.4066170156562078
1592293085.920095,1.5421935966283733,9.66111707792355,0.9601151066095666,-0.5366666666666666,-0.5377777777777778,-0.0811111111111111,-0.19632000415833534,0.21968903862835454,-0.1375407037365107
1592293085.930095,1.96,10.21,0.87,-0.5366666666666666,-0.5377777777777778,-0.0811111111111111,-0.14180800172453928,0.19198621771937624,0.015271630954950384
1592293085.940095,1.6037727759914255,9.626183160652614,0.6523055853280934,-0.5366666666666666,-0.5377777777777778,-0.0811111111111111,-0.09539384693285041,0.19090681877073232,0.17178447850831974
1592293085.950095,1.7485712010476206,9.72201684687395,0.7932771770868358,-0.5366666666666666,-0.5377777777777778,-0.0811111111111111,-0.04963730800927125,0.15350461330049583,0.31679029693203703
1592293085.960095,1.6223911235378436,9.744283919375675,0.7190536020810844,-0.5366666666666666,-0.5377777777777778,-0.0811111111111111,-0.00753532059960306,0.13812119482388632,0.43014180149652836
1592293085.970095,2.078076618567233,9.863845996679862,0.6534613714723535,-0.5244444444444445,-0.5255555555555556,-0.0811111111111111,0.053996165522520394,0.12259258079638033,0.6224030268435776
1592293085.980095,1.78,9.71,0.49,-0.5244444444444445,-0.5255555555555556,-0.0811111111111111,0.09490227807719166,0.10581058590215622,0.7744898555724837
1592293085.990095,2.142597562476918,9.71,0.5472522467068818,-0.5244444444444445,-0.5255555555555556,-0.0811111111111111,0.11988328330717082,0.10268796024840884,0.9420707656569273
1592293086.000095,2.35952749861659,9.472545474018672,0.09018189607468628,-0.5244444444444445,-0.5255555555555556,-0.0811111111111111,0.15763496896261203,0.10100698546860518,1.1608582204745277
1592293086.010095,2.7937742989236183,9.509980543010656,0.2399221720426269,-0.5244444444444445,-0.5255555555555556,-0.0811111111111111,0.16580203408287922,0.14265901758196786,1.2923479689108297
1592293086.0200949,2.9679536732456144,8.951595851608186,0.5122779605263158,-0.5433333333333333,-0.4988888888888889,-0.08888888888888889,0.23202545861902743,0.17411314871547062,1.4632027747891863
1592293086.0300949,2.9470566490403445,9.10858867019193,0.6718142871132002,-0.5433333333333333,-0.4988888888888889,-0.08888888888888889,0.2597761381074861,0.22890734674109717,1.5292700107968065
1592293086.0400949,3.2059606191129832,9.065320206370995,0.37191129833861886,-0.5433333333333333,-0.4988888888888889,-0.08888888888888889,0.34144185866585003,0.2634942105584359,1.5650638243829378
1592293086.0500948,3.49,9.16,0.05,-0.5433333333333333,-0.4988888888888889,-0.08888888888888889,0.3610649890063269,0.31306843457648287,1.579522973054868
1592293086.0600948,3.5345740463395297,8.994439256453177,0.19645758082988285,-0.5433333333333333,-0.4988888888888889,-0.08888888888888889,0.35967576781068167,0.33807441609809663,1.5920259638156748
1592293086.0700948,3.87,9.06,0.15,-0.5777777777777777,-0.4722222222222222,-0.08888888888888889,0.3687008044838021,0.37742745074377376,1.6471544815696486
1592293086.0800948,3.796361323155216,9.084546225614927,0.24818490245971164,-0.5777777777777777,-0.4722222222222222,-0.08888888888888889,0.36959333043363096,0.40420322923864016,1.694458356910579
1592293086.0900948,3.18,9.14,-0.11,-0.5777777777777777,-0.4722222222222222,-0.08888888888888889,0.36760997370130566,0.4265148359561142,1.7038776822594641
1592293086.1000948,3.4157565605806814,8.953020658849805,0.28834729201563375,-0.5777777777777777,-0.4722222222222222,-0.08888888888888889,0.37470433269322007,0.4318356052000501,1.650669989820106
1592293086.1100948,3.9297587793111184,9.252729271850107,0.10414473241332883,-0.5777777777777777,-0.4722222222222222,-0.08888888888888889,0.36357068104139023,0.3628471565917142,1.5052973294308547
1592293086.1200948,4.26,8.68,0.41,-0.6144444444444445,-0.4266666666666667,-0.08888888888888889,0.32834006553143325,0.2814343418840856,1.3875367553354918
1592293086.1300948,4.505372053736626,8.840761000723996,0.08001689325074413,-0.6144444444444445,-0.4266666666666667,-0.08888888888888889,0.31911043141487166,0.24728469565280772,1.3432345115759963
1592293086.1400948,4.77545604719764,8.699454395280235,0.130818407079646,-0.6144444444444445,-0.4266666666666667,-0.08888888888888889,0.31321722518233136,0.24847135343983437,1.3007557413940958
1592293086.1500947,5.170286611700039,8.660401256380055,0.18959874361994503,-0.6144444444444445,-0.4266666666666667,-0.08888888888888889,0.324054903617704,0.23125925233789893,1.1776282777986327
1592293086.1600947,5.252624656458578,8.775674519042012,0.07432548095798978,-0.6144444444444445,-0.4266666666666667,-0.08888888888888889,0.3465091220660005,0.2321574210758308,1.0429029671088539
1592293086.1700947,5.61,8.69,-0.44,-0.6088888888888889,-0.3655555555555556,-0.09555555555555556,0.37306412761378793,0.2476185876266955,0.8115781021773633
1592293086.1800947,5.756072636856479,8.750147556352667,-0.21659479069009088,-0.6088888888888889,-0.3655555555555556,-0.09555555555555556,0.35806737196546096,0.25230507376679767,0.6194321704331743
1592293086.1900947,5.868711618735435,8.848711618735434,-0.22928423263079722,-0.6088888888888889,-0.3655555555555556,-0.09555555555555556,0.32227916510570287,0.25629838702190116,0.3471095957222431
1592293086.2000947,5.336611929255078,8.810489772537414,-0.09171420388094612,-0.6088888888888889,-0.3655555555555556,-0.09555555555555556,0.275463685571356,0.2574227081951578,0.1011799770759843
1592293086.2100947,5.3373856849986625,8.654900615028078,-0.18601390498261877,-0.6088888888888889,-0.3655555555555556,-0.09555555555555556,0.24346888025828778,0.2904678481092555,-0.04200889588205045
1592293086.2200947,5.2,8.48,0.33,-0.6288888888888889,-0.3411111111111111,-0.08888888888888889,0.20398535632683729,0.3010692959690219,-0.234528618236738
1592293086.2300947,5.354192251179336,8.599148557729487,0.15478153275075401,-0.6288888888888889,-0.3411111111111111,-0.08888888888888889,0.1978690779992429,0.25519720851206396,-0.33162453668729897
1592293086.2400947,5.207239829238642,8.475923496649798,-0.0457219190862571,-0.6288888888888889,-0.3411111111111111,-0.08888888888888889,0.2121376441436432,0.23350958225963728,-0.48805186601183526
1592293086.2500947,5.729368238857637,8.584696451752487,0.020582431847684976,-0.6288888888888889,-0.3411111111111111,-0.08888888888888889,0.20020056056533556,0.20841490341129487,-0.5901313818436157
1592293086.2600946,5.597171126924662,8.384085393177866,0.1019715356073778,-0.6288888888888889,-0.3411111111111111,-0.08888888888888889,0.1935351900004598,0.19294301410415965,-0.6653227198646662
1592293086.2700946,5.44064769096718,8.319352309032821,0.02484461225675283,-0.6288888888888889,-0.3310578629747959,-0.113565043405299,0.16487512829474532,0.12641629384058334,-0.8416917484784736
1592293086.2800946,5.107868199270725,8.30315568327256,0.035792422303252754,-0.6288888888888889,-0.3288888888888889,-0.11888888888888889,0.15926129424448257,0.11344640137963141,-0.8726646259971648
1592293086.2900946,5.33363627254509,8.667207665330661,-0.2707141783567134,-0.6288888888888889,-0.3288888888888889,-0.11888888888888889,0.14077384386395908,0.10625683734276117,-0.9106666073349075
1592293086.3000946,5.095406717927965,8.501412383650344,-0.2334237150951032,-0.6288888888888889,-0.3288888888888889,-0.11888888888888889,0.11391169302056676,0.052324119853078686,-0.9809120333964397
1592293086.3100946,4.973541066173125,8.63033223095361,-0.11870202372644802,-0.6288888888888889,-0.3288888888888889,-0.11888888888888889,0.11235557059713495,0.04908738521234052,-0.9850201965942997
1592293086.3200946,4.432847196908945,8.570967777210761,-0.036353430050302546,-0.6309085238916834,-0.3571637789280131,-0.11888888888888889,0.050889637747422334,0.0183544187874842,-0.9602355462516737
1592293086.3300946,4.09781366831165,8.677037535516675,-0.07811126065500225,-0.6311111111111111,-0.36,-0.11888888888888889,0.023937593941243448,-0.027687069870012855,-0.9279554893629622
1592293086.3400946,3.9849888945839744,8.73167036847201,-0.08167036847200866,-0.6311111111111111,-0.36,-0.11888888888888889,0.003001601771313287,-0.09834728805569606,-0.8558587560525268
1592293086.3500946,3.900532967688089,8.846995349946345,0.09205198521521403,-0.6311111111111111,-0.36,-0.11888888888888889,0.010439564038137656,-0.14532904273368963,-0.8223207108945537
1592293086.3600945,3.799811716712103,8.980251044383863,0.15662482593602292,-0.6311111111111111,-0.36,-0.11888888888888889,0.02950035434220008,-0.19097754101938685,-0.8079374354533468
1592293086.3700945,4.08,9.23,0.0,-0.6111111111111112,-0.38,-0.10111111111111111,0.05890486225480862,-0.26616271092913524,-0.8639379797371932
1592293086.3800945,3.8665171813502877,9.112928776869513,-0.02065962761126249,-0.6111111111111112,-0.38,-0.10111111111111111,0.05965606751325125,-0.2781819950642173,-0.9014982426593245
1592293086.3900945,3.7879011919615597,9.2390119196156,-0.4864803950197776,-0.6111111111111112,-0.38,-0.10111111111111111,0.07366471290183844,-0.2728760592698023,-0.9399594072205684
1592293086.4000945,3.771982451980081,9.223964903960162,-0.4138771638605644,-0.6111111111111112,-0.38,-0.10111111111111111,0.055613227987019336,-0.2352567872319307,-0.9572183680808651
1592293086.4100945,3.6149075033034537,9.19302739187886,-0.35279793578800756,-0.6111111111111112,-0.38,-0.10111111111111111,0.038003868950381645,-0.22095823296128556,-0.9735515334257607
1592293086.4200945,3.615565315953528,9.146415415131766,-0.12009634457353358,-0.6167085419224836,-0.4079871540568622,-0.10111111111111111,0.007646325040128882,-0.24620845160239718,-1.025534869729067
1592293086.4300945,3.723720681331694,9.318921300724142,-0.1396404335747142,-0.6177777777777778,-0.41333333333333333,-0.10111111111111111,-0.018103583066351608,-0.2491937270070499,-1.0136609009760098
1592293086.4400945,3.1170826010544816,9.279812124062476,-0.3517901433203792,-0.6177777777777778,-0.41333333333333333,-0.10111111111111111,-0.03330107999453301,-0.24870941840919195,-0.9603432924317679
1592293086.4500945,2.8647313218728687,9.51355384145051,-0.032065940784986924,-0.6177777777777778,-0.41333333333333333,-0.10111111111111111,-0.033957742084709884,-0.2525047902298988,-0.906892799098244
1592293086.4600945,2.6397653442839335,9.389812275427147,-0.03339590819095109,-0.6177777777777778,-0.41333333333333333,-0.10111111111111111,-0.030175385487762378,-0.2588973315705822,-0.8853739204810651
1592293086.4700944,2.9214094346878605,9.432051019100117,0.11544833995641585,-0.6126923186486063,-0.43367516985001925,-0.09009261633123959,-0.011719474261224262,-0.2792736201870172,-0.8747903546929103
1592293086.4800944,2.8536175132968475,9.38124643490326,0.010243582825869096,-0.6111111111111112,-0.44,-0.08666666666666667,0.0012002249741273731,-0.251789693137874,-0.8485835253550663
1592293086.4900944,2.898295713315489,9.463130518157485,-0.25834804841995923,-0.6111111111111112,-0.44,-0.08666666666666667,0.011663360924622328,-0.23745962402709256,-0.8413302709949122
1592293086.5000944,2.947677549089189,9.42019186184055,-0.12593068370002364,-0.6111111111111112,-0.44,-0.08666666666666667,0.0032159508228986455,-0.21031885868771244,-0.8463862879323276
1592293086.5100944,2.972779146650595,9.367220853349405,0.06250615992767625,-0.6111111111111112,-0.44,-0.08666666666666667,0.0020151935131872646,-0.1834855959753247,-0.872272133429439
1592293086.5200944,2.846471954476832,9.39100801300662,0.05114930515232455,-0.6111111111111112,-0.45215052237233166,-0.0950201507976447,0.015546523859144706,-0.16053247335168164,-0.9326140812879118
1592293086.5300944,2.7565274816943184,9.25351654462879,-0.16213180090833257,-0.6111111111111112,-0.4577777777777778,-0.09888888888888889,0.020725784867432664,-0.13318205686964377,-0.9864346671334715
1592293086.5400944,2.6763006565542224,9.455664478152592,-0.17724473624632103,-0.6111111111111112,-0.4577777777777778,-0.09888888888888889,0.019832523617650078,-0.13010941576871923,-0.9735969731746996
1592293086.5500944,1.676528223792193,9.675289374152573,-0.23611574966102905,-0.6111111111111112,-0.4577777777777778,-0.09888888888888889,0.022339495145114213,-0.08762703693672666,-0.8640821471966368
1592293086.5600944,0.7678208000000001,8.256365866666666,-0.2315216,-0.6111111111111112,-0.4577777777777778,-0.09888888888888889,-0.018749955798891615,-0.08055549709287309,-0.8468246191778965
1592293086.5700943,2.6667372989532803,10.673359714066887,0.9594959699478465,-0.5954504378553396,-0.46766872930773873,-0.07828273986813686,0.010301645342660731,-0.2493170357016194,-0.9177301122662288
1592293086.5800943,2.8476805170056756,10.578092298769626,1.1705435187870252,-0.59,-0.4711111111111111,-0.07111111111111111,-0.0409116900646849,-0.24095353427149502,-1.0210095234854897
1592293086.5900943,2.1637353943182136,10.056662443336993,-0.671515612242025,-0.59,-0.4711111111111111,-0.07111111111111111,-0.014029938309018886,-0.15742613584383702,-1.1427928356024841
1592293086.6000943,2.193758215354173,9.021931874396364,-0.13985559821912308,-0.59,-0.4711111111111111,-0.07111111111111111,-0.03903625232418586,-0.07687706450177209,-1.1500065601346443
1592293086.6100943,1.9906027043422108,9.314838463495294,-0.2190959434866837,-0.59,-0.4711111111111111,-0.07111111111111111,-0.003057903735148866,-0.030262928452637474,-1.1377759530507572
1592293086.6200943,1.5955861796122908,9.587287353290254,-0.12465514967690888,-0.5854565768458687,-0.48655874983515757,-0.0765632188960687,0.025385011850721294,0.036271382224237786,-1.1151337385452602
1592293086.6300943,1.62629161364476,9.575987849431469,-0.041914946020278315,-0.5844444444444444,-0.49,-0.07777777777777778,0.03930967081240995,0.06725349474417007,-1.0892360229086473
1592293086.6400943,1.8463920692543982,9.852650656241273,-0.1451449315833566,-0.5844444444444444,-0.49,-0.07777777777777778,0.09390380694095404,0.12349227968451668,-1.020925252770424
1592293086.6500943,1.6020690872296868,9.900598395180836,-0.2530425677106619,-0.5844444444444444,-0.49,-0.07777777777777778,0.11589468080795093,0.14918271804867297,-0.9636903825018933
1592293086.6600943,1.348916855030851,9.661969373001813,-0.256586433705989,-0.5844444444444444,-0.49,-0.07777777777777778,0.14377483802027274,0.13990680586626436,-0.9248669665070942
1592293086.6700943,1.2982007648750409,9.603481070825056,-0.2805606119000326,-0.5640707031777561,-0.5146182706972485,-0.08966246018334602,0.14598786503924827,0.1230804186068227,-0.8852653692130508
1592293086.6800942,1.189730963247658,9.875571703098727,-0.17474217311233886,-0.5577777777777778,-0.5222222222222223,-0.09333333333333334,0.14235219430924134,0.10960526031651685,-0.8595355267977303
1592293086.6900942,1.2977481653147935,10.205916055104932,-0.31811458735676584,-0.5577777777777778,-0.5222222222222223,-0.09333333333333334,0.1161364150883509,0.10174994830100217,-0.8214184716387251
1592293086.7000942,0.7912327145292669,9.766986171623413,-0.3845662057207805,-0.5577777777777778,-0.5222222222222223,-0.09333333333333334,0.0633777540573496,0.08991135013679907,-0.7971731537398377
1592293086.7100942,0.8711090956206271,9.823160842785098,-0.24478741005043156,-0.5577777777777778,-0.5222222222222223,-0.09333333333333334,0.03613116310930743,0.06018858397899037,-0.7589325738114325
1592293086.7200942,0.9061430860241557,10.115458774956865,-0.3035303179689426,-0.5462381206693507,-0.5469500588831375,-0.08838776600115028,0.003275886909636032,0.038531943802998035,-0.7107330885052531
1592293086.7300942,0.8211420299179668,10.137656425928904,-0.376057584043751,-0.5422222222222223,-0.5555555555555556,-0.08666666666666667,-0.011139036870964694,0.02782539656956457,-0.6857458497816136
1592293086.7400942,0.6639839795293987,10.092012015352951,-0.45800801023530063,-0.5422222222222223,-0.5555555555555556,-0.08666666666666667,-0.05804224611173861,-0.01276949195892031,-0.6319115004964851
1592293086.7500942,0.5658070659937149,9.991291305589943,-0.4329035329968574,-0.5422222222222223,-0.5555555555555556,-0.08666666666666667,-0.09898388202975342,-0.053661582210383446,-0.5991126038708003
1592293086.7600942,0.8151260504201681,10.09381588999236,-0.4325057295645531,-0.5422222222222223,-0.5555555555555556,-0.08666666666666667,-0.12436220918705776,-0.07322607876557473,-0.5605366058882505
1592293086.7700942,0.7978742618964918,10.004619659604028,-0.4534907954150747,-0.5332283586121724,-0.5585535100922389,-0.08666666666666667,-0.14447350869045195,-0.08589790379930759,-0.5237476802518317
1592293086.7800941,0.5636151226158038,9.836351498637603,-0.4181757493188011,-0.5288888888888889,-0.56,-0.08666666666666667,-0.17149502091599952,-0.08792735149477938,-0.49738324363413217
1592293086.7900941,0.5995693256415358,10.077371692858563,-0.38577581062263777,-0.5288888888888889,-0.56,-0.08666666666666667,-0.1810779098944117,-0.10200683704715803,-0.47581845607491147
1592293086.8000941,0.48930937396488905,9.859915771542138,-0.3225940472247196,-0.5288888888888889,-0.56,-0.08666666666666667,-0.19203644146192908,-0.08998894560622771,-0.4576240311788098
1592293086.810094,0.43592371777154815,9.866245508745608,-0.28815256445690374,-0.5288888888888889,-0.56,-0.08666666666666667,-0.2053960240181985,-0.07708754314690723,-0.4475253557824084
1592293086.820094,0.44,9.88164932936415,-0.20164932936415025,-0.5098947869165616,-0.5726627346482182,-0.08666666666666667,-0.22793766080917924,-0.06842380842587203,-0.44940695814434645
1592293086.830094,0.5225677966101695,9.897181598062954,-0.1031594027441485,-0.5022222222222222,-0.5777777777777777,-0.08666666666666667,-0.23838865370182144,-0.06396732075556154,-0.45460619375970873
1592293086.840094,0.26682288969445883,9.719193164163645,-0.14630398757120663,-0.5022222222222222,-0.5777777777777777,-0.08666666666666667,-0.23750639985443536,-0.04859620066268714,-0.46759938717239447
1592293086.850094,0.21576448061273337,9.718529200574437,-0.007412158927716572,-0.5022222222222222,-0.5777777777777777,-0.08666666666666667,-0.24321033104106876,-0.03021603878407434,-0.4783421176056487
1592293086.860094,0.29992736974727635,9.775527310457274,0.10105462091454828,-0.5022222222222222,-0.5777777777777777,-0.08666666666666667,-0.23951072286892705,-0.022911407798196143,-0.48371800865776443
1592293086.870094,0.3604320795772459,9.924034815045074,0.23893378924463787,-0.5022222222222222,-0.5826000759852173,-0.09711497944945256,-0.16833990890738593,0.020235470502654958,-0.4914774202902823
1592293086.880094,0.25068541868735855,9.86581393469124,0.21034270934367927,-0.5022222222222222,-0.5844444444444444,-0.10111111111111111,-0.1305271785377862,0.04571208744192916,-0.4979035035506328
1592293086.890094,0.17704466121551188,10.277215607516856,0.20522330607755943,-0.5022222222222222,-0.5844444444444444,-0.10111111111111111,-0.1024893757260028,0.06857237810090713,-0.5104338256101566
1592293086.900094,-0.028260390021824316,9.622248374909066,0.44214441602327936,-0.5022222222222222,-0.5844444444444444,-0.10111111111111111,-0.0871495028492829,0.12003554356410412,-0.31883289404702075
1592293086.910094,0.27674794160932337,9.72299749413309,0.3215011336064596,-0.5022222222222222,-0.5844444444444444,-0.10111111111111111,-0.11881855098922527,0.012136159553768788,-0.08164947157149857
1592293086.920094,0.3114739326324823,9.846695987985411,0.613996996352714,-0.4980185463300675,-0.5921511835800615,-0.10111111111111111,-0.12553657907192212,-0.027877150716122685,0.006469391830197284
1592293086.930094,0.07551408620274501,9.679671723252268,0.7976803916847259,-0.4955555555555556,-0.5966666666666667,-0.10111111111111111,-0.1032851887522784,-0.0003628222780853452,-0.009526273640703659
1592293086.940094,-0.2685197698055945,9.595679846537063,0.4037005754860137,-0.4955555555555556,-0.5966666666666667,-0.10111111111111111,-0.06584036855497348,-0.02235545676111563,-0.01496184338282617
1592293086.950094,-0.21886942675159235,9.69891321656051,0.3351811305732484,-0.4955555555555556,-0.5966666666666667,-0.10111111111111111,-0.06027708569138855,-0.02541240557606841,-0.014504097751103852
1592293086.960094,-0.14480745618930685,9.873882873832645,0.39029281541838745,-0.4955555555555556,-0.5966666666666667,-0.10111111111111111,-0.0420869034800452,-0.02027028783011608,-0.015271630954950384
1592293086.970094,-0.20131438442211058,9.761533448492463,0.4510953203517588,-0.4884915462730318,-0.5961232813372418,-0.10437142308766052,-0.022636837147147815,-0.010422632891535999,-0.013137761756213204
1592293086.980094,-0.1536518903811816,9.7200341588386,0.3645050850089279,-0.4811111111111111,-0.5955555555555555,-0.10777777777777778,-0.005349906362350059,-0.00435959697872196,-0.011503983915646965
1592293086.990094,-0.24147703754804378,9.777121316645314,0.19564427909727014,-0.4811111111111111,-0.5955555555555555,-0.10777777777777778,0.01278417771154896,0.012474274051527113,-0.011842130786643427
1592293087.000094,-0.2684823625922888,9.8118293683347,0.15727645611156688,-0.4811111111111111,-0.5955555555555555,-0.10777777777777778,0.023106999561627144,0.017287743959843338,-0.008395549139771738
1592293087.010094,-0.26,9.824679171827995,0.19532082817200497,-0.4811111111111111,-0.5955555555555555,-0.10777777777777778,0.026810423915605956,0.018203844324668605,-0.006544984694978735
1592293087.020094,-0.26719847979523775,9.79,0.23,-0.48551018209708974,-0.5927561467462964,-0.09498048036402182,0.02853563578426217,0.020725784867432664,-0.00772283319715235
1592293087.030094,-0.3237003951211132,9.758785432056348,0.2487287407661914,-0.49333333333333335,-0.5877777777777777,-0.07222222222222222,0.03544890840091472,0.020044788635927402,-0.011860465736983884
1592293087.040094,-0.34490389673451216,9.758685711973456,0.2498077934690244,-0.49333333333333335,-0.5877777777777777,-0.07222222222222222,0.03968244021750774,0.017040760472307966,-0.01308996938995747
1592293087.050094,-0.29391410206466695,9.8186969224776,0.18956564082586677,-0.49333333333333335,-0.5877777777777777,-0.07222222222222222,0.0580509376512143,-0.0007586309522601472,-0.011382651362542148
1592293087.0600939,-0.277978175313059,9.821912701252236,0.14409821109123433,-0.49333333333333335,-0.5877777777777777,-0.07222222222222222,0.0689250308775592,-0.009370431561319422,-0.012863470769341436
1592293087.0700939,-0.30258220211161385,9.838544494720965,0.10258220211161387,-0.49333333333333335,-0.5902243170772582,-0.0746687615217027,0.07539022755100733,-0.016644136292444416,-0.019168924191810835
1592293087.0800939,-0.31894445478228506,9.808694408262001,0.11341668217342762,-0.49333333333333335,-0.5955555555555555,-0.08,0.07271296021838437,-0.03169468312570113,-0.022907446432425576
1592293087.0900939,-0.29930281839372747,9.888137317228226,0.01977113795295614,-0.49333333333333335,-0.5955555555555555,-0.08,0.074176493209759,-0.04553565497859226,-0.023490887181529422
1592293087.1000938,-0.3161410495063503,9.88294611088857,-0.029087160394919768,-0.49333333333333335,-0.5955555555555555,-0.08,0.06904371014186668,-0.05536078673976447,-0.027420132593516913
1592293087.1100938,-0.34,9.847896470759542,0.0018447061393130817,-0.49333333333333335,-0.5955555555555555,-0.08,0.059621473809615494,-0.06539338050859736,-0.02882051923438244
1592293087.1200938,-0.3037888306549582,9.84792961021832,0.029052792336260458,-0.4876334270475397,-0.5932085353202288,-0.08201173163028011,0.048409851740653514,-0.07462818219088366,-0.027167445234709032
1592293087.1300938,-0.23851229855810008,9.83480983884648,0.0277852417302799,-0.47444444444444445,-0.5877777777777777,-0.08666666666666667,0.03603890255036196,-0.0782982236901049,-0.02945243112740431
1592293087.1400938,-0.25243217790199596,9.868783911049002,-0.024639851748336727,-0.47444444444444445,-0.5877777777777777,-0.08666666666666667,0.029105997825456444,-0.07337801316284548,-0.02945243112740431
1592293087.1500938,-0.13775009124390325,9.910812568432927,-0.08856265967683069,-0.47444444444444445,-0.5877777777777777,-0.08666666666666667,0.018053269356648024,-0.06604982378649209,-0.030788688882796632
1592293087.1600938,-0.1006393709147616,9.882979528186072,-0.0236188991008328,-0.47444444444444445,-0.5877777777777777,-0.08666666666666667,0.00995696613751908,-0.057953520567363144,-0.034836840492361104
1592293087.1700938,-0.09497856031571358,9.857224604409364,0.035550791181269685,-0.47783659461077593,-0.5862358913385362,-0.08851693039375656,-0.0033879789290233533,-0.038250852918694934,-0.04514229735827562
1592293087.1800938,-0.16513911326512296,9.85,0.055139113265122955,-0.4866666666666667,-0.5822222222222222,-0.09333333333333334,-0.02521050722289826,0.001803170108779369,-0.06719231744582685
1592293087.1900938,-0.3052384128042681,9.85,0.03613439774042328,-0.4866666666666667,-0.5822222222222222,-0.09333333333333334,-0.0333574311655388,0.01544581555374417,-0.07090400086226964
1592293087.2000937,-0.5444867945205479,9.84260997260274,0.014780054794520547,-0.4866666666666667,-0.5822222222222222,-0.09333333333333334,-0.04088216204355715,0.029420441393991043,-0.06714207515700525
1592293087.2100937,-0.6324659052824254,9.804414138028823,0.08727525844956044,-0.4866666666666667,-0.5822222222222222,-0.09333333333333334,-0.04709000821559374,0.035359858147011744,-0.04946931237873006
1592293087.2200937,-0.47540673635307784,9.754928222996517,0.21244018583042973,-0.4866666666666667,-0.587198296554394,-0.09167464188927604,-0.050731461042572805,0.029196687687503338,-0.019655833168903153
1592293087.2300937,-0.2984384188173799,9.8,0.21548709572035282,-0.4866666666666667,-0.6022222222222222,-0.08666666666666667,-0.04205011902669187,0.020939888472177474,-0.00859849769761107
1592293087.2400937,-0.4510332644852701,9.803793347102946,0.13241330579410807,-0.4866666666666667,-0.6022222222222222,-0.08666666666666667,-0.03340196427853141,0.024110988885621333,-0.013917549347674914
1592293087.2500937,-0.40779631952493606,9.80633889585748,0.1322036804750639,-0.4866666666666667,-0.6022222222222222,-0.08666666666666667,-0.03232555896523515,0.018995205325579075,-0.014872266445291863
1592293087.2600937,-0.34120004445785235,9.786360013337355,0.19879995554214763,-0.4866666666666667,-0.6022222222222222,-0.08666666666666667,-0.030146200959951873,0.009551320636018172,-0.012692908440008577
1592293087.2700937,-0.37168543515549257,9.755056305466479,0.25,-0.4846066903655091,-0.5997877047753996,-0.08554304322967161,-0.015063210605576386,0.0001715685077399527,-0.011815286152509714
1592293087.2800937,-0.361248061090562,9.808127908364156,0.23124806109056198,-0.47444444444444445,-0.5877777777777777,-0.08,0.0023526855058353343,-0.005897462544528925,-0.01039692802011686
1592293087.2900937,-0.36349143075380724,9.816508569246192,0.16301713849238553,-0.47444444444444445,-0.5877777777777777,-0.08,0.010776660323262594,-0.010198333056588876,-0.009817477042468103
