time,acc_x,acc_y,acc_z,mag_x,mag_y,mag_z,gyr_x,gyr_y,gyr_z
1592293104.2500775,-0.34,9.82,0.73,-0.3422222222222222,-0.5311111111111111,0.19666666666666666,0.039269908169872414,-0.01090830782496456,0.015271630954950384
1592293104.2600775,-0.33976480172391144,9.818824008619558,0.7478832155152024,-0.3422222222222222,-0.5311111111111111,0.19666666666666666,0.04261936897322605,-0.01078002706519078,0.016311149433537325
1592293104.2700775,-0.337829776292106,9.7722370789406,0.6644741578812035,-0.3422222222222222,-0.5311111111111111,0.19666666666666666,0.04691301642192845,-0.004356030355404978,0.014180800172453926
1592293104.2800775,-0.4,9.79,0.702145496033902,-0.3422222222222222,-0.5311111111111111,0.19666666666666666,0.056022432093569975,0.004597360441736259,0.014414837484204362
1592293104.2900774,-0.4,9.79,0.7249331739650113,-0.3422222222222222,-0.5311111111111111,0.19666666666666666,0.060165348851714866,0.00708311049662319,0.016900587539091294
1592293104.3000774,-0.42656594813538806,9.784292564830764,0.7396978444061642,-0.3233333333333333,-0.5644444444444444,0.16,0.06738352086587063,0.004082375418790219,0.020196849507327416
1592293104.3100774,-0.39064765458422174,9.83,0.6261140724946695,-0.3233333333333333,-0.5644444444444444,0.16,0.0762168584633731,0.0010201826268070532,0.026462531402672552
1592293104.3200774,-0.4015838957963292,9.830791947898165,0.5707919478981646,-0.3233333333333333,-0.5644444444444444,0.16,0.07400371698066874,0.0002591643436353924,0.030629650024445898
1592293104.3300774,-0.4275733163734012,9.838377146491414,0.5843276093562292,-0.3233333333333333,-0.5644444444444444,0.16,0.07193582302601115,0.0030364578724696415,0.03145706683613243
1592293104.3400774,-0.531311921418981,9.816147445410218,0.6436068122394177,-0.3233333333333333,-0.5644444444444444,0.16,0.07112752828517573,-0.00019672109087209106,0.02903218261362613
1592293104.3500774,-0.52,9.86,0.69,-0.3288888888888889,-0.5377777777777778,0.17333333333333334,0.07199483164476608,-0.01308996938995747,0.02945243112740431
1592293104.3600774,-0.4937732753085539,9.877484483127631,0.6025775843618463,-0.3288888888888889,-0.5377777777777778,0.17333333333333334,0.07104120102418311,-0.017858122492872348,0.03898873733323407
1592293104.3700774,-0.5157687298649668,9.87036054561656,0.5036054561656043,-0.3288888888888889,-0.5377777777777778,0.17333333333333334,0.06315019710768296,-0.015232301529246556,0.05723448322396546
1592293104.3800774,-0.6691006923024196,9.879943793268902,0.5994379326890122,-0.3288888888888889,-0.5377777777777778,0.17333333333333334,0.06001408664704489,-0.014186931375700531,0.07082429522006378
1592293104.3900774,-0.7076939070692461,9.917693907069246,0.6226163442415477,-0.3288888888888889,-0.5377777777777778,0.17333333333333334,0.06164040000305285,-0.015003153655327815,0.09228519141699072
1592293104.4000773,-0.79,9.93,0.69,-0.3088888888888889,-0.5455555555555556,0.1688888888888889,0.06763150851478027,0.0,0.1341721862470641
1592293104.4100773,-0.9617692157246235,9.939542734206922,0.6995427342069235,-0.3088888888888889,-0.5455555555555556,0.1688888888888889,0.08116386920350259,0.013532360688722316,0.17476926831323103
1592293104.4200773,-1.0107550596162578,10.01302023846503,0.6254696423024539,-0.3088888888888889,-0.5455555555555556,0.1688888888888889,0.10453493083640054,0.011030863709872885,0.2325960302651488
1592293104.4300773,-1.0217331059475592,10.05173310594756,0.5665337881048816,-0.3088888888888889,-0.5455555555555556,0.1688888888888889,0.1147458177967259,-0.016134342999943315,0.2927251729742829
1592293104.4400773,-1.0440860157748881,10.074086015774888,0.5218279684502238,-0.3088888888888889,-0.5455555555555556,0.1688888888888889,0.10336697147498418,-0.04133035985522851,0.33986610773578424
1592293104.4500773,-0.97,10.19,0.48,-0.3288888888888889,-0.5222222222222223,0.19,0.06763150851478027,-0.10362892433716332,0.41887902047863906
1592293104.4600773,-0.8381469660701395,10.19,0.49648162924123257,-0.3288888888888889,-0.5222222222222223,0.19,0.03526990517512592,-0.14857559564223882,0.4791075600274402
1592293104.4700773,-0.9259118796758912,10.035450827098812,0.5482966165316213,-0.3288888888888889,-0.5222222222222223,0.19,-8.74550967768159e-05,-0.1634388070622981,0.5783655179510181
1592293104.4800773,-0.920330128052554,10.03,0.77240705479126,-0.3288888888888889,-0.5222222222222223,0.19,0.023170015378571777,-0.15835052038293185,0.6795110111131913
1592293104.4900773,-0.9432027003833171,9.968126132311154,0.8728108015332685,-0.3288888888888889,-0.5222222222222223,0.19,0.0585889109623137,-0.14298433157288734,0.7630090992574695
1592293104.5000772,-1.06,9.93,0.9,-0.33555555555555555,-0.5311111111111111,0.17555555555555555,0.11017390903214205,-0.10799224746714915,0.8890270877346116
1592293104.5100772,-0.9812091490446859,9.969395425477657,0.821209149044686,-0.33555555555555555,-0.5311111111111111,0.17555555555555555,0.14627185298462372,-0.10885172232316061,0.9663798247756438
1592293104.5200772,-0.657132674122786,10.017794364709834,0.5104411270580329,-0.33555555555555555,-0.5311111111111111,0.17555555555555555,0.17111607435977527,-0.12454718719415374,1.085143806663253
1592293104.5300772,-0.53,9.92,0.53,-0.33555555555555555,-0.5311111111111111,0.17555555555555555,0.16471544815696484,-0.13308135546456762,1.1715522604011936
1592293104.5400772,-0.4144693581716683,9.865274959133949,0.5604028004811399,-0.33555555555555555,-0.5311111111111111,0.17555555555555555,0.1633888757314078,-0.1397142175923527,1.2186455815084678
1592293104.5500772,-0.27,9.82,0.59,-0.35555555555555557,-0.5222222222222223,0.19,0.1778054175469223,-0.14289883250703572,1.301361123518272
1592293104.5600772,0.0037653368001950294,9.691169253270496,0.5658442349882181,-0.35555555555555557,-0.5222222222222223,0.19,0.17868374594857575,-0.1508037881219165,1.3303459607728347
1592293104.5700772,0.09,9.64,0.45,-0.35555555555555557,-0.5222222222222223,0.19,0.20071286397934787,-0.148352986419518,1.3504485087306126
1592293104.5800772,0.28393191869193,9.575356027102691,0.44191950338783625,-0.35555555555555557,-0.5222222222222223,0.19,0.21481599108719837,-0.15893033175040586,1.3354639361785214
1592293104.5900772,0.4548133533264936,9.582025885881146,0.3886062662773262,-0.35555555555555557,-0.5222222222222223,0.19,0.22697587842062414,-0.14622616339990038,1.327099082561991
1592293104.6000772,0.7792643452672878,9.58002627338331,0.3799737266166889,-0.3943422701760122,-0.5100321119129358,0.16007882014993344,0.23125325990772105,-0.10263840290813331,1.3003362103109106
1592293104.6100771,0.9870031627035258,9.669500527117254,0.20925079067588145,-0.39444444444444443,-0.51,0.16,0.2377330055347872,-0.08219484695555304,1.277867973660661
1592293104.6200771,0.7511751200655968,9.630195853344267,0.1502937800163992,-0.39444444444444443,-0.51,0.16,0.23237366202884266,-0.026457674493729426,1.2317776195095376
1592293104.6300771,1.2870542817033224,9.68858773982218,-0.025763219466541892,-0.39444444444444443,-0.51,0.16,0.2461939738546462,-0.05387397314571711,1.1484658503410923
1592293104.640077,1.2264120079094014,9.739058661393733,-0.17717598418119718,-0.39444444444444443,-0.51,0.16,0.23850055214474597,-0.0375952180926441,1.120597715038871
1592293104.650077,1.0216303592470617,9.779742574855726,0.047768982082968287,-0.4208822887606463,-0.48466373253030653,0.16,0.18263675279617725,-0.004616049674391141,1.0683258264866018
1592293104.660077,1.2354229050717254,9.925931645371168,0.06389825194011131,-0.4211111111111111,-0.48444444444444446,0.16,0.14654123423487153,-0.03165247700048194,1.0156191244789128
1592293104.670077,1.3879440784823724,9.825825110966612,-0.3259512029628792,-0.4211111111111111,-0.48444444444444446,0.16,0.06242524405494865,-0.07734372968490491,0.9399833583451395
1592293104.680077,1.672104320412696,9.82,0.019926201905853702,-0.4211111111111111,-0.48444444444444446,0.16,-0.00791671007031694,-0.09657904841520693,0.8797522515263394
1592293104.690077,1.3691958372753075,9.764055250709555,0.011351750236518448,-0.4211111111111111,-0.48444444444444446,0.16,-0.04236481285316879,-0.10522077359485975,0.8462495135950026
1592293104.700077,1.16,9.53,-0.03,-0.4688888888888889,-0.47555555555555556,0.1688888888888889,-0.09708393964218458,-0.14726215563702155,0.7755806863549802
1592293104.710077,1.5631146508612705,9.310119281348397,-0.21323393220966846,-0.4688888888888889,-0.47555555555555556,0.1688888888888889,-0.12773177906885144,-0.14792841301586213,0.7515954207167191
1592293104.720077,1.7811805384045443,9.645538404544332,0.0776043467522845,-0.4688888888888889,-0.47555555555555556,0.1688888888888889,-0.16631761428773947,-0.15576344256146385,0.7077275902090309
1592293104.730077,1.8637624105287462,9.620910875086585,0.20726737474024473,-0.4688888888888889,-0.47555555555555556,0.1688888888888889,-0.1620240102115118,-0.16878068811191382,0.7044217973024804
1592293104.740077,2.0718952901403234,9.466612791182328,0.12725790765525866,-0.4688888888888889,-0.47555555555555556,0.1688888888888889,-0.1783596482936814,-0.16274490046406254,0.6823058390960224
1592293104.750077,2.537441268044155,9.893255024058872,0.6221086894990092,-0.4718844545082869,-0.4715614680630248,0.15391106079189862,-0.18501360759735036,-0.15271630954950383,0.6168340863970591
1592293104.760077,2.2831744664186413,9.64642843156452,0.40666653612688464,-0.4722222222222222,-0.4711111111111111,0.15222222222222223,-0.18361452399403405,-0.1453575270708338,0.557882004351591
1592293104.770077,2.5847501079447324,9.745066386010363,0.460607189119171,-0.4722222222222222,-0.4711111111111111,0.15222222222222223,-0.17038832164829937,-0.10517444456985517,0.46895926894206014
1592293104.780077,2.121429222977028,9.566571689190813,0.6741815694087712,-0.4722222222222222,-0.4711111111111111,0.15222222222222223,-0.1529401630351747,-0.07421336134729842,0.3747585694094654
1592293104.790077,2.6067104587909267,9.52734578671867,0.37850456738170996,-0.4722222222222222,-0.4711111111111111,0.15222222222222223,-0.138651724336737,-0.08064400126494634,0.296563223249825
1592293104.800077,2.4907740070304545,9.72153651565426,0.5438424389763133,-0.5032048432018865,-0.4582907162229742,0.13192326364933876,-0.14025555947946727,-0.02852996077120859,0.11525163512047298
1592293104.810077,2.576020187454939,9.256443162701274,0.22073540014419613,-0.5044444444444445,-0.4577777777777778,0.13111111111111112,-0.12298415805561941,-0.019240933737401437,0.013027838436952988
1592293104.820077,3.1308355550953846,9.257164600212253,-0.2515950094478813,-0.5044444444444445,-0.4577777777777778,0.13111111111111112,-0.09900876904820491,-0.010496828597534102,-0.12698653294092793
1592293104.830077,2.2954603272909173,8.864355303589718,0.08046592506133732,-0.5044444444444445,-0.4577777777777778,0.13111111111111112,-0.10004088331235236,0.05129269214099966,-0.22527252370197187
1592293104.840077,2.590639709028669,9.53494437312794,0.05366495507060334,-0.5044444444444445,-0.4577777777777778,0.13111111111111112,-0.06739229123791701,0.004749804896313201,-0.30930093750291837
1592293104.850077,2.5521912421805184,10.20488710157879,0.7920375335120644,-0.5091483798364942,-0.4577777777777778,0.12546638864065138,-0.07410468099560001,0.0227638220041076,-0.4117123564708595
1592293104.860077,2.50235367461935,9.662378611677257,-0.4022975662390601,-0.51,-0.4577777777777778,0.12444444444444444,-0.037988217964767715,-0.035994695611344094,-0.5101202868355275
1592293104.870077,3.0128031894576015,9.827560160427806,0.4013992074102368,-0.51,-0.4577777777777778,0.12444444444444444,-0.07033850739297269,-0.023506142949079357,-0.6236489062209053
1592293104.880077,3.0533701895462375,9.531565671070267,0.14830605016274168,-0.51,-0.4577777777777778,0.12444444444444444,-0.07526732399225547,0.012195981037578359,-0.7396836236229647
1592293104.8900769,2.6776520786033036,9.417346747044547,-0.03622484929147424,-0.51,-0.4577777777777778,0.12444444444444444,-0.07675330658173628,0.007446566200562003,-0.794776079957844
1592293104.9000769,2.3710428211586905,9.153696473551639,0.39943198992443313,-0.5158767842149454,-0.4754081304226141,0.09897837951301428,-0.12469597163075732,0.027498277846518974,-0.9377061670167783
1592293104.9100769,2.2451876520559964,9.49203086986001,0.519494276712001,-0.5166666666666667,-0.4777777777777778,0.09555555555555556,-0.12946364147391193,0.016555542222937977,-1.0118638658579129
1592293104.9200768,2.008399041769668,9.68,0.2933459058589668,-0.5166666666666667,-0.4777777777777778,0.09555555555555556,-0.18531296540212278,0.052332578295617965,-1.0949532771886945
1592293104.9300768,2.332988426202124,9.860798950005966,0.2155621047607684,-0.5166666666666667,-0.4777777777777778,0.09555555555555556,-0.2177982597936708,0.05529995351088733,-1.1527564429611579
1592293104.9400768,2.204253336315515,9.738810855140535,0.13656527249683142,-0.5166666666666667,-0.4777777777777778,0.09555555555555556,-0.2426428768286117,0.07009130631149896,-1.1677120285701728
1592293104.9500768,1.4532140169485979,10.011835225599581,0.41572064260707386,-0.503074705435403,-0.4952531565036882,0.1013806817975257,-0.309604530211635,0.11817984246971568,-1.1827252186286779
1592293104.9600768,1.4463453208821775,9.808587323663819,0.32524657262070333,-0.5011111111111111,-0.49777777777777776,0.10222222222222223,-0.32380309375790756,0.11822551027817302,-1.1921043966250864
1592293104.9700768,1.4655494911882476,9.556648473564742,0.3604027136626795,-0.5011111111111111,-0.49777777777777776,0.10222222222222223,-0.3836626772217024,0.10318142470349614,-1.2084007462449327
1592293104.9800768,1.3657783113245299,9.733154461784713,0.5360436174469788,-0.5011111111111111,-0.49777777777777776,0.10222222222222223,-0.4144719593556936,0.0947035364784439,-1.2077387710194862
1592293104.9900768,1.3635544340302812,9.898222782984858,0.790610129776496,-0.5011111111111111,-0.49777777777777776,0.10222222222222223,-0.46418757556904466,0.1349534436577075,-1.1612110449851
1592293105.0000768,1.499658756856684,10.005419886656362,0.7603412431433161,-0.4913750408286275,-0.5314114751172666,0.08540537355247783,-0.5086406382430821,0.2055371215458082,-1.0716968958470532
1592293105.0100768,0.9534445498412174,9.603388460428093,0.9790967954798531,-0.4888888888888889,-0.54,0.0811111111111111,-0.5358075145940822,0.2794439254898929,-1.0213811177048657
1592293105.0200768,-0.5317973136051208,9.215897476257936,1.0807689280654809,-0.4888888888888889,-0.54,0.0811111111111111,-0.4925798670533208,0.3431362215545619,-0.9245768159353625
1592293105.0300767,0.8227567697100409,9.915073088904865,1.2544332614426073,-0.4888888888888889,-0.54,0.0811111111111111,-0.5043453116748712,0.43033533157521286,-0.8460226329418745
1592293105.0400767,0.449465755707382,10.082381936343943,1.262854190968172,-0.4888888888888889,-0.54,0.0811111111111111,-0.46278549570988353,0.4156557891113291,-0.8088924517059298
1592293105.0500767,-0.4788625659050967,9.638352196836555,1.7058439367311071,-0.4613420035149385,-0.5656471001757469,0.0735119703182972,-0.42192483473874287,0.32377989441419486,-0.7373459363385644
1592293105.0600767,-0.40993353327389154,9.87152468185134,1.5396676663694577,-0.45666666666666667,-0.57,0.07222222222222222,-0.400421459819959,0.24898360713064138,-0.6932336168204948
1592293105.0700767,-0.8204071355197555,10.35296920802746,1.1613902738456143,-0.45666666666666667,-0.57,0.07222222222222222,-0.3931627114282426,0.1833993108373242,-0.5700441218114483
1592293105.0800767,-0.8867064347659431,10.174737434718029,1.0783532173829717,-0.45666666666666667,-0.57,0.07222222222222222,-0.3953363405964285,0.09454689961398507,-0.4405329078624907
1592293105.0900767,-1.1062364465862184,10.14281061758142,0.9781302707720262,-0.45666666666666667,-0.57,0.07222222222222222,-0.3913016600986639,-0.003165914821350105,-0.3203687042747748
1592293105.1000767,-0.43037553070621315,10.482784189439693,1.0180320516653711,-0.46563289415110265,-0.57,0.04613865135840858,-0.43984132704776,-0.06574918453639719,-0.1323761607274051
1592293105.1100767,-0.516068761213335,10.6,1.2012450452705803,-0.4688888888888889,-0.57,0.03666666666666667,-0.45547353268503227,-0.10717304342600281,0.0015708655078684464
1592293105.1200767,-0.4131826212656601,10.473610397258806,1.338218492343934,-0.4688888888888889,-0.57,0.03666666666666667,-0.4653909108792919,-0.19788086800068705,0.2851836565853437
1592293105.1300766,0.12735355323271225,9.826254215801182,1.3874033056665152,-0.4688888888888889,-0.57,0.03666666666666667,-0.467615050001332,-0.20173559448336667,0.5145195473218258
1592293105.1400766,0.08604010474584783,9.867684829787997,1.7281547512286113,-0.4688888888888889,-0.57,0.03666666666666667,-0.4500709035117117,-0.19195546143300962,0.6311730740900259
1592293105.1500766,-0.04272250285155613,9.666998207593288,1.452443213296399,-0.44855148190393423,-0.5996587185197255,0.016329259681712022,-0.34931142507852975,-0.2163328782378168,0.8939348841989535
1592293105.1600766,-0.018158561602509955,9.515396404006275,1.3969820200313743,-0.44222222222222224,-0.6088888888888889,0.01,-0.3006089803848068,-0.2250124458474779,0.9907993488417626
1592293105.1700766,0.6285818550430816,9.85037303598581,2.180422706538266,-0.44222222222222224,-0.6088888888888889,0.01,-0.19040155518070856,-0.2771171288844902,1.1161369508918513
1592293105.1800766,0.4584134105161601,9.46888422575977,1.4721799324650264,-0.44222222222222224,-0.6088888888888889,0.01,-0.12382547473305916,-0.3654473082729496,1.1842827239587337
1592293105.1900766,0.5709354838709677,9.440729249728163,1.5499372961217832,-0.44222222222222224,-0.6088888888888889,0.01,-0.10518823115959454,-0.393133002243773,1.219742467936245
1592293105.2000766,1.3832345182765984,9.427625926391157,1.9543914081145584,-0.44222222222222224,-0.5869633909754497,-0.012708551410347666,-0.032881881980276126,-0.4462113128423746,1.3182835934717798
1592293105.2100766,1.192913278590026,9.35317444422191,1.572674944922892,-0.44222222222222224,-0.5777777777777777,-0.022222222222222223,0.010829483121114225,-0.49632966642321913,1.3638855864616937
1592293105.2200766,0.8467615340102057,9.08850544478931,1.4098932084801936,-0.44222222222222224,-0.5777777777777777,-0.022222222222222223,0.06944825909308819,-0.5710324409153276,1.4240621128275561
1592293105.2300766,1.3962772376801877,9.269621186724773,1.1794954743546766,-0.44222222222222224,-0.5777777777777777,-0.022222222222222223,0.14113350042440026,-0.6725951803087329,1.4102928092288785
1592293105.2400765,1.6234950999891513,9.405214985715835,1.1680927928253717,-0.44222222222222224,-0.5777777777777777,-0.022222222222222223,0.1662813404197204,-0.6999056370899556,1.4095470168217237
1592293105.2500765,2.0198309325759114,9.630347602623926,1.21844525596808,-0.4838510553564317,-0.5597124350968944,-0.019080423495112072,0.20750276368060838,-0.6878254265168231,1.4521780876862287
1592293105.2600765,2.2069335793357934,9.501638376383765,1.1572472324723249,-0.5011111111111111,-0.5522222222222222,-0.017777777777777778,0.2431449738567082,-0.6892758454303132,1.4741342287246886
1592293105.2700765,2.6032760699216397,9.368251959011452,1.2913833634719711,-0.5011111111111111,-0.5522222222222222,-0.017777777777777778,0.2756333445492002,-0.6271113183510729,1.5077796439865367
1592293105.2800765,3.0370578937435124,9.24202533735963,0.946950552043031,-0.5011111111111111,-0.5522222222222222,-0.017777777777777778,0.2805016748741008,-0.5735025082222265,1.5107215518713357
1592293105.2900765,2.9471583118684364,9.128572221121457,1.2371111551416685,-0.5011111111111111,-0.5522222222222222,-0.017777777777777778,0.273175842934375,-0.4821526524526388,1.5103330916239088
1592293105.3000765,3.2746252078878593,9.294928427179853,1.1155348657638395,-0.5259093938913968,-0.5327857303133496,-0.012415986906364668,0.2747165904819599,-0.4173204269951309,1.4805330599552888
1592293105.3100765,3.5185446600327737,9.17242192509559,0.8439397249863443,-0.5422222222222223,-0.52,-0.008888888888888889,0.2544277633663912,-0.32160907459002697,1.4087909222923587
1592293105.3200765,3.1830088831884473,9.248994347061897,1.0759935394993112,-0.5422222222222223,-0.52,-0.008888888888888889,0.2694071176614941,-0.3090859772605367,1.3062176549228195
1592293105.3300765,3.026496714848883,9.225222076215505,0.86942444152431,-0.5422222222222223,-0.52,-0.008888888888888889,0.25232908449586744,-0.31955780266914774,1.206034553835799
1592293105.3400764,3.328943822451204,9.405920737144555,0.7930230853066481,-0.5422222222222223,-0.52,-0.008888888888888889,0.22799731621064506,-0.30885343762958417,1.1409895660752924
1592293105.3500764,3.4822732157532084,9.29548865288577,0.7372084202541248,-0.5665907734018867,-0.5067713579310393,-0.007496400250050924,0.21077831039370154,-0.32266621461705236,1.07682727077092
1592293105.3600764,3.420879363676536,8.99839151568714,0.7216836058329651,-0.5811111111111111,-0.4988888888888889,-0.006666666666666667,0.19346893777547838,-0.31797162976850846,1.0468741099880006
1592293105.3700764,3.9498475046210717,8.99176370918053,0.6567174984596427,-0.5811111111111111,-0.4988888888888889,-0.006666666666666667,0.1737912543624121,-0.2578808319336843,1.0079709939727948
1592293105.3800764,4.250120247695852,9.083734158986175,0.4240949020737327,-0.5811111111111111,-0.4988888888888889,-0.006666666666666667,0.1582885163613303,-0.18254913335257278,0.9670145767369057
1592293105.3900764,4.135068080786867,8.969283139066821,0.42457348874654344,-0.5811111111111111,-0.4988888888888889,-0.006666666666666667,0.1522271176287035,-0.14349077305871913,0.9498299168953789
1592293105.4000764,4.032033875788774,8.782963799402191,0.7838937230156094,-0.5917305435624931,-0.4736677368168567,0.005280194841138049,0.15410645763273045,-0.0756246063960077,0.9116112338049316
1592293105.4100764,4.222148208139299,8.868098805426198,0.7796800971856651,-0.5988888888888889,-0.45666666666666667,0.013333333333333334,0.14470657698055941,-0.0545415391248228,0.886638038013157
1592293105.4200764,4.220363695758698,8.704100833015735,0.6757461752055317,-0.5988888888888889,-0.45666666666666667,0.013333333333333334,0.14844272591493654,-0.03887127713529322,0.810455259754873
1592293105.4300764,4.563763936793134,8.839085184888104,0.6409497072270796,-0.5988888888888889,-0.45666666666666667,0.013333333333333334,0.14903323539028232,-0.036855153382406525,0.7790085741841182
1592293105.4400764,4.294787222428438,8.647802353763183,0.5825895761916199,-0.5988888888888889,-0.45666666666666667,0.013333333333333334,0.20546829932078461,-0.06359708519211542,0.71200956254964
1592293105.4500763,4.387048785823671,8.513184673563146,0.6262915273306873,-0.6024746417198834,-0.4453117827018505,-0.0022049289343098136,0.2559638845997651,-0.04588900812944305,0.6308815415698535
1592293105.4600763,4.429723685798174,8.536356835458312,0.4616080119052407,-0.6055555555555555,-0.43555555555555553,-0.015555555555555555,0.29329918322149795,-0.0409390376510008,0.581944511943437
1592293105.4700763,4.751796976466309,9.055668346407606,0.23421658267961973,-0.6055555555555555,-0.43555555555555553,-0.015555555555555555,0.3294585793539448,0.020424189905385484,0.48093566909274454
1592293105.4800763,4.624758052867254,9.208084645384949,0.42187490972121916,-0.6055555555555555,-0.43555555555555553,-0.015555555555555555,0.33260223116288334,0.06835284656508632,0.40657420344881157
1592293105.4900763,4.647661449120582,9.209138938023562,0.5182925608250175,-0.6055555555555555,-0.43555555555555553,-0.015555555555555555,0.32040219007991094,0.09079405127577618,0.37062416599867276
1592293105.5000763,4.63377143056671,8.885847620377806,0.41967142707496774,-0.6196597879348673,-0.4324894180817921,-0.0032910056605018004,0.285601316235002,0.06702376048008934,0.24173589440998236
1592293105.5100763,4.703731543095642,8.897756034177265,0.40790250817025636,-0.6311111111111111,-0.43,0.006666666666666667,0.2582049764567075,0.046440132999544255,0.18755374321088827
1592293105.5200763,5.279971564709499,8.838311558561328,0.26520750076852134,-0.6311111111111111,-0.43,0.006666666666666667,0.21987651075878187,0.007829301294106132,0.055315482391346565
1592293105.5300763,5.3143800626030435,8.689827244271344,0.20455281833170058,-0.6311111111111111,-0.43,0.006666666666666667,0.21789899405345742,0.004306788949984514,-0.06093910227895903
1592293105.5400763,5.273799615515096,8.706960307587924,0.14,-0.6311111111111111,-0.43,0.006666666666666667,0.2241176789196357,0.013436597739930901,-0.10777366190268192
1592293105.5500762,5.069683213874878,8.586405627820547,0.004373064330590204,-0.6241144834773718,-0.4326910106283613,0.002899251786960839,0.2525616408407158,0.11919090295990853,-0.2523404051842711
1592293105.5600762,4.570209113755987,8.760388828299114,-0.22119588411019964,-0.6166666666666667,-0.43555555555555553,-0.0011111111111111111,0.2732311019823141,0.19462445680426563,-0.3388097961737534
1592293105.5700762,4.595819199618866,8.741096474511671,-0.11840971891376847,-0.6166666666666667,-0.43555555555555553,-0.0011111111111111111,0.27598018797160334,0.2516993289377283,-0.39858166862554184
1592293105.5800762,4.577033912482375,8.679373610878761,0.0809358793585546,-0.6166666666666667,-0.43555555555555553,-0.0011111111111111111,0.24634086379447226,0.24427857498365693,-0.4731126774836023
1592293105.5900762,4.48,8.73,0.14,-0.6166666666666667,-0.43555555555555553,-0.0011111111111111111,0.2247111411942699,0.2203478180642841,-0.5126904677733343
1592293105.6000762,4.62519168620493,8.756182117736518,0.3317372156390596,-0.6129113420498631,-0.43287318082926723,-0.0005746361658534524,0.167760974984251,0.12476246605054658,-0.648711488120863
1592293105.6100762,4.769972604947224,8.570191765369431,0.42980823463056966,-0.6088888888888889,-0.43,0.0,0.15805690666793365,0.07959478708201419,-0.6917182029169191
1592293105.6200762,4.850561240052131,8.897384576990268,0.37906552422150125,-0.6088888888888889,-0.43,0.0,0.11775875676238305,0.09825650030778298,-0.7333440923210235
1592293105.6300762,4.95,9.18,0.4,-0.6088888888888889,-0.43,0.0,0.11890055529211369,0.13308135546456762,-0.7264933011426397
1592293105.6400762,4.592919555408826,9.032315395620117,0.3464597777044129,-0.6088888888888889,-0.43,0.0,0.1306178329248524,0.24973434558218136,-0.7481250505655362
1592293105.6500762,4.300449315732107,9.096382463364417,0.2554378103427395,-0.6061623134579415,-0.43727086781585994,-0.012269589439263654,0.14458283638065597,0.33100934444149027,-0.8257978747466727
1592293105.6600761,4.33,8.99,0.35,-0.6022222222222222,-0.4477777777777778,-0.03,0.15489797111449674,0.37742745074377376,-0.8857545953871222
1592293105.6700761,3.9815845262812806,8.973723090372637,0.38255381925472626,-0.6022222222222222,-0.4477777777777778,-0.03,0.1456796106180703,0.3650440002094448,-1.1317126193360156
1592293105.6800761,3.41,9.06,0.21,-0.6022222222222222,-0.4477777777777778,-0.03,0.13744467859455345,0.3403392041388943,-1.237002107350981
1592293105.690076,3.7290439243070823,8.776539074960128,0.3748950385792491,-0.6022222222222222,-0.4477777777777778,-0.03,0.11004460239599974,0.3083568298996221,-1.4888233487346814
1592293105.700076,3.4362802643633032,9.01828883653972,-0.005855581730140034,-0.6022222222222222,-0.45054072329101774,-0.026316072649013363,0.07275006885810228,0.24208566576705415,-1.6548809854720132
1592293105.710076,2.890164607397271,9.031452086771038,0.005082303698635651,-0.6022222222222222,-0.45444444444444443,-0.021111111111111112,0.04085757687910097,0.24114911421862842,-1.7000940838641694
1592293105.720076,2.931106958394975,9.126055438760414,0.1493425731267357,-0.6022222222222222,-0.45444444444444443,-0.021111111111111112,0.015407499960769388,0.3189038370891649,-1.6010942091104166
1592293105.730076,3.1393823865802517,9.480813000381243,0.2518356843309188,-0.6022222222222222,-0.45444444444444443,-0.021111111111111112,-0.01288941538886753,0.3270044944075341,-1.5730447357257267
1592293105.740076,3.59,9.76,0.34,-0.6022222222222222,-0.45444444444444443,-0.021111111111111112,-0.02945243112740431,0.31525009614147576,-1.576250480707379
1592293105.750076,2.187589304365991,9.289229162314601,0.8751681637768958,-0.5852986096604229,-0.48023280644337674,-0.0372288373604438,-0.029644300673855536,0.2922963913742169,-1.4054307553409895
1592293105.760076,2.5455033557046978,9.55275167785235,1.2020805369127516,-0.5555555555555556,-0.5255555555555556,-0.06555555555555556,0.012145558846722283,0.3888262663702636,-1.1634918262298608
1592293105.770076,2.323708400124411,9.581396990214609,0.9770459602363806,-0.5555555555555556,-0.5255555555555556,-0.06555555555555556,0.0942550401556683,0.39428476240984983,-1.047703205822788
1592293105.780076,2.12,9.23,0.59,-0.5555555555555556,-0.5255555555555556,-0.06555555555555556,0.12980886311707826,0.39706240482870997,-1.0199267816341864
1592293105.790076,1.8723112784651246,9.664445938676707,0.9864622556930249,-0.5555555555555556,-0.5255555555555556,-0.06555555555555556,0.1997892665335978,0.3479595676472432,-1.0613938033381778
1592293105.800076,1.3836137776972772,9.921128116887038,0.7199082291855341,-0.5409666458706488,-0.5355593793394916,-0.05763586172660616,0.2341244055984737,0.2796543902966232,-1.1215146214941571
1592293105.810076,0.79,9.39,0.32,-0.5166666666666667,-0.5522222222222222,-0.044444444444444446,0.2552544031041707,0.2476185876266955,-1.1399181677087964
1592293105.820076,1.2551115124412338,9.179776975117532,-0.23866959064327484,-0.5166666666666667,-0.5522222222222222,-0.044444444444444446,0.19831309254427376,0.10687793274021815,-1.191647762466998
1592293105.830076,1.2935956664916717,9.762285591562067,-0.007528277573617154,-0.5166666666666667,-0.5522222222222222,-0.044444444444444446,0.15855035141215443,0.005605286531276114,-1.146332323512618
1592293105.840076,1.39,10.33,-0.12,-0.5166666666666667,-0.5522222222222222,-0.044444444444444446,0.11999138607461016,-0.01308996938995747,-1.0908307824964558
1592293105.850076,0.7879485466087537,10.322966922819912,0.10674908118944203,-0.5058302706314735,-0.564864684263281,-0.044444444444444446,0.09708393964218458,0.010018294871120142,-0.7640808588641314
1592293105.860076,0.41,10.08,0.1,-0.48333333333333334,-0.5911111111111111,-0.044444444444444446,0.09708393964218458,0.08290313946973066,-0.4254240051736178
1592293105.870076,0.4852518640212309,10.116834576014154,0.2049308732465563,-0.48333333333333334,-0.5911111111111111,-0.044444444444444446,0.09665110879536512,0.06212725882239667,-0.2877837958850301
1592293105.880076,0.25,9.96,0.03,-0.48333333333333334,-0.5911111111111111,-0.044444444444444446,0.09599310885968812,0.030543261909900768,-0.07853981633974483
1592293105.890076,0.3967245691111862,10.53817438323758,0.4673768164920581,-0.48333333333333334,-0.5911111111111111,-0.044444444444444446,0.14370351835767217,0.010443515851131666,0.15465127156747185
1592293105.900076,0.6238745734055544,9.864569648392248,0.3995031153135665,-0.4775717252679587,-0.5911111111111111,-0.053086856542506375,0.14729829011110906,-0.0016977055179039358,0.2940945569380854
1592293105.910076,0.93,9.95,0.25,-0.4633333333333333,-0.5911111111111111,-0.07444444444444444,0.15817046346198613,-0.04363323129985824,0.3523383427463553
1592293105.920076,1.37642354794037,10.073340483884108,0.12004290330464062,-0.4633333333333333,-0.5911111111111111,-0.07444444444444444,0.13925726987008738,-0.05051920613707227,0.4112829852097308
1592293105.930076,1.2242666287663444,10.14601478112564,0.12286668561682774,-0.4633333333333333,-0.5911111111111111,-0.07444444444444444,0.13327204930516892,-0.01324996617329123,0.48073638151426956
1592293105.9400759,1.2058705633056683,10.161283771852375,0.13055094472894227,-0.4633333333333333,-0.5911111111111111,-0.07444444444444444,0.13232077885416904,0.019394848033306003,0.5539521100578126
1592293105.9500759,0.9281417687976151,9.989159489897318,0.2984961907916529,-0.4648033749217916,-0.5919026719664349,-0.07229592212285156,0.13607879152415522,0.043671892741967255,0.6261998294921012
1592293105.9600759,1.0,10.07,0.55,-0.4777777777777778,-0.5988888888888889,-0.05333333333333334,0.16253378659197193,0.06326818538479445,0.7134033317526822
1592293105.9700758,1.02789961619547,9.781083301800097,0.40421401156819287,-0.4777777777777778,-0.5988888888888889,-0.05333333333333334,0.1920438579750598,0.04621837465463611,0.8364899553322398
1592293105.9800758,1.2527193628907642,9.602526090574111,0.3779049090692975,-0.4777777777777778,-0.5988888888888889,-0.05333333333333334,0.19584059885632094,0.013728571525931741,0.9073118907511851
1592293105.9900758,1.6877325716741578,9.719069713303368,0.39,-0.4777777777777778,-0.5988888888888889,-0.05333333333333334,0.20185231460350103,-0.01941404537087621,0.9457767177718607
1592293106.0000758,1.7589115719351025,9.533212635650585,0.37694316106156656,-0.4783995320129413,-0.5969200004775378,-0.054576841803660334,0.1967112367551087,-0.04044547846625572,0.9598576008026807
1592293106.0100758,2.04,9.37,0.25,-0.48444444444444446,-0.5777777777777777,-0.06666666666666667,0.22143864884678055,-0.07308566242726255,0.9697485656393494
1592293106.0200758,2.136368287932087,9.53323807308777,0.42196819490071813,-0.48444444444444446,-0.5777777777777777,-0.06666666666666667,0.25969183942829244,-0.07025226776313062,1.0026120113358885
1592293106.0300758,2.3363655224443605,9.374801961523954,0.11246699358732554,-0.48444444444444446,-0.5777777777777777,-0.06666666666666667,0.30248684106359003,-0.027878729758993262,1.0384011592490994
1592293106.0400758,2.4765180191397773,9.374456757622115,0.11654594613824754,-0.48444444444444446,-0.5777777777777777,-0.06666666666666667,0.3304062563577546,0.011130110213429412,1.068673847356431
1592293106.0500758,2.7264083065223748,9.56743450465884,0.1641047925458572,-0.48444444444444446,-0.5757253815048491,-0.06598253457569046,0.3500447403297428,0.04310328981704847,1.082719810920392
1592293106.0600758,2.66,9.52,0.24,-0.48444444444444446,-0.5377777777777778,-0.05333333333333334,0.34797501961636945,0.09381144729469522,1.0941032748439452
1592293106.0700758,3.030220886193289,9.304944778451677,-0.0025092035913870277,-0.48444444444444446,-0.5377777777777778,-0.05333333333333334,0.3703430743940235,0.12110631180301339,1.0957254656325777
1592293106.0800757,3.2164072797204435,9.221556321677337,-0.0772764370646591,-0.48444444444444446,-0.5377777777777778,-0.05333333333333334,0.3766436407690059,0.1518999836638433,1.0741513737723456
1592293106.0900757,3.2206182041864926,9.168145387440523,-0.1918546125594775,-0.48444444444444446,-0.5377777777777778,-0.05333333333333334,0.38012080989219016,0.18227582456643515,1.0434411486074566
1592293106.1000757,3.1902648671141423,9.259205398657572,-0.10079460134242758,-0.48444444444444446,-0.5377777777777778,-0.05333333333333334,0.38177632761369074,0.2037975549459418,1.0136418296204475
1592293106.1100757,3.16,9.22,-0.19,-0.5311111111111111,-0.49777777777777776,-0.07444444444444444,0.3785182815262702,0.21489366415180183,0.9915651812892784
1592293106.1200757,3.0816356586904314,9.172713173808628,-0.2885503891669801,-0.5311111111111111,-0.49777777777777776,-0.07444444444444444,0.3721720141891977,0.23192922728294443,0.9978708592803746
1592293106.1300757,3.037602326736185,9.10266936227566,-0.21458891962828971,-0.5311111111111111,-0.49777777777777776,-0.07444444444444444,0.3578596628019323,0.2566142853607921,1.0120369264703286
1592293106.1400757,3.052486991591797,8.656801822077384,-0.2508120127473398,-0.5311111111111111,-0.49777777777777776,-0.07444444444444444,0.34494614306668864,0.2643022435561257,1.0022907772658867
1592293106.1500757,3.490486667506887,8.94376712698727,-0.484915287805405,-0.5311111111111111,-0.49777777777777776,-0.07444444444444444,0.3746016724660326,0.21487636122388584,0.9800491302163787
1592293106.1600757,3.74,9.11,-0.47,-0.5511111111111111,-0.4777777777777778,-0.044444444444444446,0.3490658503988659,0.19962203319685143,0.8977537339945831
1592293106.1700757,4.165332815533981,9.29749359223301,-0.5610803883495146,-0.5511111111111111,-0.4777777777777778,-0.044444444444444446,0.3545124638111818,0.1525758359621346,0.7845854838738983
1592293106.1800756,4.101271787331926,9.052439944034717,-0.575269273637032,-0.5511111111111111,-0.4777777777777778,-0.044444444444444446,0.3373165973793703,0.12598281986929147,0.6598613349797212
1592293106.1900756,4.48845176730486,9.162154823269514,-0.7180127025036819,-0.5511111111111111,-0.4777777777777778,-0.044444444444444446,0.2994352587677749,0.10893246648843935,0.5327816750868846
1592293106.2000756,4.411237113402062,9.169876288659793,-0.8183917525773196,-0.5511111111111111,-0.4777777777777778,-0.044444444444444446,0.25058294839232503,0.11230159134191864,0.4249696797755471
1592293106.2100756,4.75,9.44,-0.79,-0.5577777777777778,-0.4533333333333333,-0.051111111111111114,0.19962203319685143,0.0818123086872342,0.2912518189265538
1592293106.2200756,4.207883036250751,9.19001401962748,-0.5593731223713199,-0.5577777777777778,-0.4533333333333333,-0.051111111111111114,0.11513431618547312,0.10336457319620183,0.1874603514085017
1592293106.2300756,4.072565115816682,8.92790287304901,-0.9146622427676707,-0.5577777777777778,-0.4533333333333333,-0.051111111111111114,0.05890678712272683,0.08988108389222874,0.11141981368072558
1592293106.2400756,3.95,9.0,-0.72,-0.5577777777777778,-0.4533333333333333,-0.051111111111111114,0.025089107997418484,0.05999569303730508,0.061086523819801536
1592293106.2500756,4.240178305640776,9.163225296922937,-0.6111831353847088,-0.5577777777777778,-0.4533333333333333,-0.051111111111111114,-0.014477820528284498,0.04317974841388131,0.014595382802100529
1592293106.2600756,3.7,8.99,-0.68,-0.5777777777777777,-0.4266666666666667,-0.044444444444444446,-0.03490658503988659,0.02945243112740431,-0.03599741582238304
1592293106.2700756,4.052228850938701,8.573168118072834,-0.6688557453064917,-0.5777777777777777,-0.4266666666666667,-0.044444444444444446,-0.019199923317374783,-0.021743025900804586,-0.10318087811523033
1592293106.2800756,4.01,8.21,-0.88,-0.5777777777777777,-0.4266666666666667,-0.044444444444444446,-0.01090830782496456,-0.0272707695624114,-0.1778054175469223
1592293106.2900755,4.739492974954184,8.788690058032987,-0.5443662186927306,-0.5777777777777777,-0.4266666666666667,-0.044444444444444446,0.006236168634646908,-0.040585052276839166,-0.2796982250545519
1592293106.3000755,4.611383628588881,9.405216287416005,-0.38422953573610263,-0.5777777777777777,-0.4266666666666667,-0.044444444444444446,0.03156506199516189,-0.028357310654521586,-0.3233687308485433
1592293106.3100755,3.97,8.86,-0.54,-0.5911111111111111,-0.41888888888888887,-0.051111111111111114,0.03381575425739013,0.020725784867432664,-0.3937899124812206
1592293106.3200755,4.198376646493414,9.136500533997864,-0.74875044499822,-0.5911111111111111,-0.41888888888888887,-0.051111111111111114,0.07334468134215223,0.034524464181938386,-0.42084243822029166
1592293106.3300755,3.917457570873234,9.102316298473498,-0.6622598843272969,-0.5911111111111111,-0.41888888888888887,-0.051111111111111114,0.08596609136350447,0.09444006865584183,-0.44496034286042085
1592293106.3400755,4.03055535841022,9.368129701916253,-0.6238516678495387,-0.5911111111111111,-0.41888888888888887,-0.051111111111111114,0.08786640017539146,0.06896270529244747,-0.4820623935765474
1592293106.3500755,3.8072959545777145,9.449991483321506,-0.4154762242725337,-0.5911111111111111,-0.41888888888888887,-0.051111111111111114,0.0659479594589841,0.045420676374824755,-0.51615774580207
1592293106.3600755,3.93,9.67,-1.1,-0.5866666666666667,-0.4311111111111111,-0.057777777777777775,0.04363323129985824,-0.031634092692397225,-0.5115996369908379
1592293106.3700755,3.345534469299308,8.999184634848852,-0.864136046730733,-0.5866666666666667,-0.4311111111111111,-0.057777777777777775,-0.006324698481883136,0.049165727469943694,-0.4193873348794519
1592293106.3800755,3.7682415183070206,9.17,-0.9202917606411056,-0.5866666666666667,-0.4311111111111111,-0.057777777777777775,-0.010401785243898915,0.02631695349142627,-0.37455186920814093
1592293106.3900754,3.5577425700082257,9.17,-0.6310950967418905,-0.5866666666666667,-0.4311111111111111,-0.057777777777777775,-0.03123799795563221,0.05040246031148479,-0.33327866818356394
1592293106.4000754,3.8802541039304748,9.17,-0.5410918779728908,-0.5866666666666667,-0.4311111111111111,-0.057777777777777775,-0.01896571276100876,0.06185659315980002,-0.3308242111446392
1592293106.4100754,3.93,9.42,-0.26,-0.5933333333333334,-0.41888888888888887,-0.04888888888888889,-0.006544984694978735,0.04799655442984406,-0.40142572795869574
1592293106.4200754,4.155579246816581,8.95375182877269,-0.5393310755892712,-0.5933333333333334,-0.41888888888888887,-0.04888888888888889,-0.0015339309158470212,0.025863210698202275,-0.5531934491682974
1592293106.4300754,3.922986581138127,9.208074664528453,-0.6053439615121572,-0.5933333333333334,-0.41888888888888887,-0.04888888888888889,0.0027238741537879926,0.001639448976197831,-0.7232528368196818
1592293106.4400754,3.638126480257344,9.206808300045953,-0.5389762805330695,-0.5933333333333334,-0.41888888888888887,-0.04888888888888889,-0.009320782521299562,0.01190169686730164,-0.8465215508118649
1592293106.4500754,3.8456990349605853,9.243874827671533,-0.9689480009897842,-0.5933333333333334,-0.41888888888888887,-0.04888888888888889,-0.012555447268038497,0.005432367373823774,-0.8942328558262641
1592293106.4600754,3.1,9.25,-0.83,-0.5988888888888889,-0.44555555555555554,-0.06333333333333334,-0.061086523819801536,0.05781403147231216,-0.9010262263420725
1592293106.4700754,3.4462993618147872,9.402208009363767,-0.844480673299334,-0.5988888888888889,-0.44555555555555554,-0.06333333333333334,-0.07777477864857335,0.0419119724938573,-0.8742796380126291
1592293106.4800754,2.826169882880519,9.294084631347948,-0.6282980702716886,-0.5988888888888889,-0.44555555555555554,-0.06333333333333334,-0.12130734072539275,0.04623269383030079,-0.8541971051760281
1592293106.4900753,3.160320404721754,9.871408094435075,-0.37070404721753797,-0.5988888888888889,-0.44555555555555554,-0.06333333333333334,-0.1289309558810809,-0.0003577851386097144,-0.8355170551212304
1592293106.5000753,2.69903658625999,9.763775203460664,-0.31688760173033215,-0.5988888888888889,-0.44555555555555554,-0.06333333333333334,-0.13647869471076488,-0.008744161616036368,-0.8162283892231492
1592293106.5100753,2.77,9.47,-0.42,-0.5666666666666667,-0.4533333333333333,-0.06888888888888889,-0.15053464798451094,-0.042542400517361786,-0.8017606251348951
1592293106.5200753,2.7498866401238664,9.57992811324928,-0.4000276487502765,-0.5666666666666667,-0.4533333333333333,-0.06888888888888889,-0.15599453231749402,-0.0643659529921077,-0.8105020498477374
1592293106.5300753,2.400427794791444,9.33922702561546,-0.46978610260427794,-0.5666666666666667,-0.4533333333333333,-0.06888888888888889,-0.17866211967987933,-0.09693863537799191,-0.8739752647629918
1592293106.5400753,2.735651063676743,9.48217446816163,-0.29713481630671296,-0.5666666666666667,-0.4533333333333333,-0.06888888888888889,-0.1935341424775553,-0.14783784845301726,-0.9420812569507504
1592293106.5500753,2.403781761945009,9.648109119027495,-0.42535704652124656,-0.5666666666666667,-0.4533333333333333,-0.06888888888888889,-0.21328031975544148,-0.17663435698326793,-0.9799280967333656
1592293106.5600753,2.82,9.42,-0.29,-0.5466666666666666,-0.46555555555555556,-0.05444444444444444,-0.234528618236738,-0.22907446432425577,-1.016654289286697
1592293106.5700753,2.624787863924605,9.615212136075396,-0.29887327891251797,-0.5466666666666666,-0.46555555555555556,-0.05444444444444444,-0.2703418276207077,-0.2348820117919265,-0.9963278731498493
1592293106.5800753,2.2251703089078565,9.57086171815131,-0.18459583014031655,-0.5466666666666666,-0.46555555555555556,-0.05444444444444444,-0.30839178188473565,-0.22237863753206474,-0.9353943284432964
1592293106.5900753,2.378344532803181,9.602062425447317,-0.3121572564612326,-0.5466666666666666,-0.46555555555555556,-0.05444444444444444,-0.29880919434557385,-0.25191381515713784,-0.8732137064063502
1592293106.6000752,2.203234592445328,9.618739562624254,-0.08701590457256464,-0.5466666666666666,-0.46555555555555556,-0.05444444444444444,-0.3069955649140081,-0.2337218805606174,-0.8159091124273109
1592293106.6100752,2.41,9.67,-0.25,-0.5644444444444444,-0.49777777777777776,-0.05444444444444444,-0.2552544031041707,-0.22798363354175932,-0.7112216701876892
1592293106.6200752,1.9053148904956512,9.422657445247825,-0.036145342135596774,-0.5644444444444444,-0.49777777777777776,-0.05444444444444444,-0.21718780371008578,-0.16160601460767637,-0.6253940457389394
1592293106.6300752,2.1793942044057864,9.558135340833886,-0.3614765528977971,-0.5644444444444444,-0.49777777777777776,-0.05444444444444444,-0.15948844322797964,-0.16932966649221853,-0.5807313601201198
1592293106.6400752,1.866152125279642,9.403008462211845,-0.010352105826281488,-0.5644444444444444,-0.49777777777777776,-0.05444444444444444,-0.16032846436512738,-0.15374507088274822,-0.5756393933755656
1592293106.6500752,2.2414809843400447,9.745700029180039,0.19363096975002433,-0.5644444444444444,-0.49777777777777776,-0.05444444444444444,-0.14875789143188675,-0.16442559974420112,-0.5836497900216553
1592293106.6600752,2.0025278043270482,9.83586584412199,0.15412003649317924,-0.5455555555555556,-0.51,-0.05444444444444444,-0.13521121939096167,-0.1365793310366255,-0.616543335149106
1592293106.6700752,2.3932646048109967,10.087848797250858,0.3436357388316151,-0.5455555555555556,-0.51,-0.05444444444444444,-0.1256284696853255,-0.12696520596380742,-0.6642657158445153
1592293106.6800752,1.8925201238390092,9.882074303405574,-0.30263777089783284,-0.5455555555555556,-0.51,-0.05444444444444444,-0.0883458109529235,-0.1641386249444249,-0.7155248794231598
1592293106.6900752,1.3418799330303754,8.930042453958384,-0.2900424539583832,-0.5455555555555556,-0.51,-0.05444444444444444,-0.12288628816857931,-0.06810700220076443,-0.6993856604840206
1592293106.7000751,0.6730925615881368,8.470251136091845,0.16974886390815597,-0.5455555555555556,-0.51,-0.05444444444444444,-0.13109354400036277,-0.07357850608862007,-0.6510540428079625
1592293106.7100751,0.57,9.15,0.42,-0.5311111111111111,-0.51,-0.06888888888888889,-0.06544984694978735,-0.17671458676442586,-0.6774059159302992
1592293106.7200751,1.1673103836563983,9.824382691224965,0.07317461594144614,-0.5311111111111111,-0.51,-0.06888888888888889,-0.2209846112613692,-0.1315254322684933,-0.7310023549836145
1592293106.7300751,1.2632846177609847,10.260709583897722,-0.2871616644091157,-0.5311111111111111,-0.51,-0.06888888888888889,-0.18627113125641728,-0.20959431743099913,-0.6893491922641384
1592293106.740075,1.8113904124507456,10.231089044215194,-0.22575114349642594,-0.5311111111111111,-0.51,-0.06888888888888889,-0.23942913821426695,-0.2122363206209273,-0.6420809303382129
1592293106.750075,1.5373237233431678,9.658040512444805,0.13136605746193297,-0.5311111111111111,-0.51,-0.06888888888888889,-0.23127567327966428,-0.22129572610381915,-0.5877244974408616
1592293106.760075,1.72,9.63,0.09,-0.5377777777777778,-0.5288888888888889,-0.06333333333333334,-0.2454369260617026,-0.16253378659197193,-0.5268712679457882
1592293106.770075,1.7298936427362823,9.778404641044235,0.35712835387962294,-0.5377777777777778,-0.5288888888888889,-0.06333333333333334,-0.20118853686588972,-0.12476077142481462,-0.47938519173564764
1592293106.780075,1.286792130025663,9.616981058291579,0.12094366369302212,-0.5377777777777778,-0.5288888888888889,-0.06333333333333334,-0.1449157830229204,-0.05034282040033943,-0.4570786534210268
1592293106.790075,0.95,9.54,0.4,-0.5377777777777778,-0.5288888888888889,-0.06333333333333334,-0.08508480103472357,0.001090830782496456,-0.42978732830360367
1592293106.800075,1.055396966384258,9.765850642251982,0.347301516807871,-0.5377777777777778,-0.5288888888888889,-0.06333333333333334,-0.016923863955891405,0.024906097954618536,-0.4125417900065498
1592293106.810075,0.95,9.89,0.16,-0.5222222222222223,-0.5422222222222223,-0.07111111111111111,0.05563236990731925,0.06981317007977318,-0.3839724354387525
1592293106.820075,0.8733249868745204,9.813324986874521,0.10888332458301361,-0.5222222222222223,-0.5422222222222223,-0.07111111111111111,0.07236026282043784,0.07631846176820818,-0.3672445425256339
1592293106.830075,1.08,10.13,-0.07,-0.5222222222222223,-0.5422222222222223,-0.07111111111111111,0.08835729338221293,0.07199483164476608,-0.3425208657038872
1592293106.840075,0.8608030358673032,9.944525645733872,-0.08686130493328437,-0.5222222222222223,-0.5422222222222223,-0.07111111111111111,0.06260733074621261,0.08395017144005194,-0.3241280352496012
1592293106.850075,0.779258031398383,9.950741968601617,-0.16333554348291054,-0.5222222222222223,-0.5422222222222223,-0.07111111111111111,0.039148142206450055,0.0781759649889934,-0.29759410143908116
1592293106.860075,0.64,9.66,0.14,-0.5022222222222222,-0.5544444444444444,-0.07222222222222222,-0.0272707695624114,0.06326818538479445,-0.2923426497090502
1592293106.870075,0.7675384134183055,9.719517926261876,0.0379692692653556,-0.5022222222222222,-0.5544444444444444,-0.07222222222222222,-0.03469065368547522,0.04286350404636893,-0.2932701352244332
1592293106.880075,0.7815282184405346,9.62,0.16892125757138737,-0.5022222222222222,-0.5544444444444444,-0.07222222222222222,-0.029138637674733472,0.03493600317607448,-0.3056385460523229
1592293106.890075,0.95,9.62,0.05,-0.5022222222222222,-0.5544444444444444,-0.07222222222222222,0.00545415391248228,0.038179077387375956,-0.32834006553143325
1592293106.900075,0.95,9.83417105130869,-0.09508361540266096,-0.5022222222222222,-0.5544444444444444,-0.07222222222222222,0.012236797071786544,0.05777337984758828,-0.34341260588544276
1592293106.910075,0.6307713685953346,9.659139343050587,0.08183987227626172,-0.509746129359706,-0.5469205373069607,-0.07222222222222222,0.011050728921127063,0.09714221747750289,-0.36704028931665567
1592293106.920075,0.52,9.86,-0.15,-0.51,-0.5466666666666666,-0.07222222222222222,0.01854412330243975,0.11344640137963141,-0.3785182815262702
1592293106.930075,0.3894139735549075,9.745737226860545,0.04587903966763873,-0.51,-0.5466666666666666,-0.07222222222222222,0.0016285114849781297,0.13214260391472057,-0.38742123511440796
1592293106.940075,0.44828355268342657,9.945613523524312,-0.04732997084088583,-0.51,-0.5466666666666666,-0.07222222222222222,-0.01609201066630381,0.11816339129495812,-0.4001268578907047
1592293106.950075,0.3738886849254718,9.91828695205228,0.14027828768632056,-0.51,-0.5466666666666666,-0.07222222222222222,-0.03504298894785278,0.11158288210614861,-0.4058698682015048
1592293106.960075,0.2,9.76,0.26,-0.5222222222222223,-0.5522222222222222,-0.08,-0.05563236990731925,0.08290313946973066,-0.3981532356112064
1592293106.970075,0.2,9.856804049168474,0.15512894673415284,-0.5222222222222223,-0.5522222222222222,-0.08,-0.06971194813442222,0.10226255953199723,-0.3708740527961944
1592293106.980075,0.13280152020476227,9.803201737376872,0.18759869696734663,-0.5222222222222223,-0.5522222222222222,-0.08,-0.05004783747658466,0.09747685193210263,-0.33606378709616613
1592293106.9900749,0.05252031935553479,9.829054880241674,0.18031503991944184,-0.5222222222222223,-0.5522222222222222,-0.08,-0.030071010562720577,0.09497100912556014,-0.31692514083510426
1592293107.0000749,0.03726083342368716,9.836369583288157,0.19910874986446925,-0.5222222222222223,-0.5522222222222222,-0.08,-0.028062803622925108,0.09490227807719166,-0.311477230658295
1592293107.0100749,0.02090862452260161,9.803634498090407,0.16454312261300805,-0.4959582486208491,-0.570404973177019,-0.08,-0.019337047781627734,0.08399341062861414,-0.3017631048883114
1592293107.0200748,-0.06089500660992184,9.755058329661155,0.17797666813553817,-0.49333333333333335,-0.5722222222222222,-0.08,-0.022466023896233398,0.06917648739145289,-0.3049911965628155
1592293107.0300748,0.023901281119389425,9.75,-0.007802562238778871,-0.49333333333333335,-0.5722222222222222,-0.08,-0.018251518797839972,0.03876475718034954,-0.3072949901528419
1592293107.0400748,0.014782752823621341,9.834057490587929,-0.014782752823621341,-0.49333333333333335,-0.5722222222222222,-0.08,-0.028456392307869567,0.04023422913368046,-0.31036505561098215
1592293107.0500748,-0.010666784058226212,9.912000352174678,-0.0031110719805912627,-0.49333333333333335,-0.5722222222222222,-0.08,-0.026785934538914067,0.03318544951869459,-0.31013530753729257
1592293107.0600748,0.049256033508410346,9.905371983245795,0.12119805863971812,-0.48275255043621507,-0.5722222222222222,-0.08,-0.03642109998110549,0.020953437139639056,-0.3060186115677645
1592293107.0700748,0.0071489658377875895,9.882382988612596,0.24570206832442482,-0.4811111111111111,-0.5722222222222222,-0.08,-0.04874852546171002,0.017713236253239104,-0.3006283245197649
1592293107.0800748,0.0662963129698825,9.946296312969883,0.21856480439382342,-0.4811111111111111,-0.5722222222222222,-0.08,-0.05560207041635448,0.0038936564661495084,-0.2927466592911687
1592293107.0900748,-0.019505453970595985,9.842402645307478,0.26427570216577967,-0.4811111111111111,-0.5722222222222222,-0.08,-0.06363052146728727,-0.00285620966177301,-0.2803974577048127
1592293107.1000748,-0.57320384691296,9.616844060072129,-0.2800798449751494,-0.4811111111111111,-0.5722222222222222,-0.08,-0.04035725505810005,-0.01077304269411151,-0.2560009742445641
1592293107.1100748,-0.27532859680284194,9.391259486517036,0.6583739706119813,-0.4624052245366632,-0.5700215296840518,-0.08,0.005115966426224701,0.0722401937116186,-0.04126732801058125
1592293107.1200747,-0.02412585220593999,9.85516730663741,0.3310923908784579,-0.4622222222222222,-0.57,-0.08,0.025750906596124508,0.04191564937738341,-0.018973155486230183
1592293107.1300747,-0.30252559086767783,9.660639369741142,0.3567902888686425,-0.4622222222222222,-0.57,-0.08,0.03014291841890255,0.04276768142310969,-0.009702395827218397
1592293107.1400747,-0.12288424816154062,9.746269451103075,0.1812737171413481,-0.4622222222222222,-0.57,-0.08,0.05113010579073585,0.046582148482068826,-0.009817477042468103
1592293107.1500747,-0.03570772872948641,9.824791844491328,0.06529141771214148,-0.4622222222222222,-0.57,-0.08,0.06323185539496946,0.05899568722937108,-0.014767086802255261
1592293107.1600747,-0.10804821428571429,9.88764642857143,0.044225,-0.4746166666666667,-0.5748692460317459,-0.08,0.05803570387061233,0.07068232846396946,-0.017462058124445498
1592293107.1700747,-0.18930952616480362,9.904138886141062,-0.03172420615293303,-0.49333333333333335,-0.5822222222222222,-0.08,0.03505722306267471,0.0765085769837538,-0.014180800172453926
1592293107.1800747,-0.10019017472146756,9.925754093866056,-0.06660327509284415,-0.49333333333333335,-0.5822222222222222,-0.08,0.011577471784457165,0.06746699075438331,-0.01118620173159441
1592293107.1900747,-0.17947165266350326,9.885264173668247,-0.014080217085310466,-0.49333333333333335,-0.5822222222222222,-0.08,-0.006652258507074835,0.061050765882436166,-0.011518298030503187
1592293107.2000747,-0.2486412602939276,9.854076219118218,0.035434958824289556,-0.49333333333333335,-0.5822222222222222,-0.08,-0.021709971220433735,0.055537476612388545,-0.01214735411713941
1592293107.2100747,-0.24371391985714788,9.868858240428557,0.05514432057140844,-0.49333333333333335,-0.5822222222222222,-0.08,-0.029234823694424126,0.05123756091296547,-0.012684843579567295
1592293107.2200747,-0.2358124543906592,9.863249817562638,0.1328131841401119,-0.48309711073272255,-0.5794305251493284,-0.08279169707289387,-0.04312881161668486,0.03292247237238057,-0.009435646466936018
1592293107.2300746,-0.2163717818971688,9.799115345691506,0.18592945474292205,-0.4688888888888889,-0.5755555555555556,-0.08666666666666667,-0.0545415391248228,-0.0021236372188255127,-0.003620019139128638
1592293107.2400746,-0.04885166498486376,9.816624621594348,0.15535015136226035,-0.4688888888888889,-0.5755555555555556,-0.08666666666666667,-0.04335518502775067,-0.014319823308507713,-0.004071517640137377
1592293107.2500746,0.021480748800234456,9.835740374400118,0.12129812799941386,-0.4688888888888889,-0.5755555555555556,-0.08666666666666667,-0.03238195336129966,-0.015110106317706339,-0.006241856259596574
1592293107.2600746,-0.03211526956059297,9.858634580868177,0.04409625739546633,-0.47233973719781075,-0.5721047072466338,-0.09563887226986342,-0.0265931970814138,0.002080939371488455,-0.012378822844458386
1592293107.2700746,-0.17358919285552793,9.897623784761475,0.01,-0.47444444444444445,-0.57,-0.10111111111111111,-0.034466479335304875,0.02405228850621001,-0.015271630954950384
1592293107.2800746,-0.25592879847425304,9.866885441830895,0.04592879847425302,-0.47444444444444445,-0.57,-0.10111111111111111,-0.05699135227721286,0.03650703421109315,-0.014487786167873846
1592293107.2900746,-0.291880802211041,9.835412798525972,0.19857841400325987,-0.47444444444444445,-0.57,-0.10111111111111111,-0.06992827510671225,0.042452341849541754,-0.01179397491270192
1592293107.3000746,-0.318103325415677,9.811896674584323,0.3224133016627078,-0.47444444444444445,-0.57,-0.10111111111111111,-0.07660262005819263,0.041000209349328784,-0.012883074287861646
1592293107.3100746,-0.3538955137061005,9.7522089725878,0.44168654111830147,-0.48948976788902626,-0.57,-0.07279050227425128,-0.07007312775370847,0.027974658007060914,-0.010705338583896544
1592293107.3200746,-0.3364738776162326,9.744705224476753,0.469410448953507,-0.49333333333333335,-0.57,-0.06555555555555556,-0.05787956148896317,0.01585042134138124,-0.010843997782027798
1592293107.3300745,-0.2777002758543039,9.733850137927153,0.3911757585993357,-0.49333333333333335,-0.57,-0.06555555555555556,-0.017838058621825387,0.0019308005760553435,-0.009356623605140814
1592293107.3400745,-0.28060214618343793,9.77770965782547,0.3116881959910913,-0.49333333333333335,-0.57,-0.06555555555555556,0.005282898559425436,-0.001222198700987829,-0.00988316100171379
1592293107.3500745,-0.2846007367727928,9.809201473545587,0.2438022103183784,-0.49333333333333335,-0.57,-0.06555555555555556,0.027291541375286613,-0.0015055875881777353,-0.013264180837380068
1592293107.3600745,-0.29927219738102845,9.825696263174704,0.23642406579367614,-0.4776300613932361,-0.5657172894708825,-0.06983826608467299,0.03942180923060971,0.0014015137433048923,-0.014570874083297937
1592293107.3700745,-0.3177475573092822,9.809009770762872,0.26324267192784667,-0.4688888888888889,-0.5633333333333334,-0.07222222222222222,0.042542400517361786,0.005562171165841097,-0.014180800172453926
1592293107.3800745,-0.291237303580557,9.807190674104861,0.1909025848465317,-0.4688888888888889,-0.5633333333333334,-0.07222222222222222,0.046464304847602916,0.001838699498689378,-0.0133964193064057
1592293107.3900745,-0.2944034014107007,9.81,0.17440340141070068,-0.4688888888888889,-0.5633333333333334,-0.07222222222222222,0.04956772179298857,-0.0015711673631445182,-0.013875553071529729
1592293107.4000745,-0.2946665386696455,9.82066692266071,0.190666922660709,-0.4688888888888889,-0.5633333333333334,-0.07222222222222222,0.051341796754118006,-0.002181661564992912,-0.012435429033532373
1592293107.4100745,-0.2729759683558475,9.824325322785283,0.2,-0.47204148734150975,-0.5784658059059133,-0.08041897819903641,0.05235987755982988,-0.005276717858265471,-0.010289296566310047
1592293107.4200745,-0.2750589169209397,9.81247054153953,0.13976433231624122,-0.47444444444444445,-0.59,-0.08666666666666667,0.05646656009193433,-0.0068144789710543035,-0.010638813548888992
1592293107.4300745,-0.28,9.824254389874321,0.027346465816917728,-0.47444444444444445,-0.59,-0.08666666666666667,0.05781403147231216,0.0004521225722977562,-0.012463220551026001
1592293107.4400744,-0.28,9.857692014393631,0.024615017992040605,-0.47444444444444445,-0.59,-0.08666666666666667,0.0563036663858167,0.009313952693471217,-0.013845151933205202
1592293107.4500744,-0.28508601962158375,9.859827960756832,0.06034407848633497,-0.47444444444444445,-0.59,-0.08666666666666667,0.051748779172796085,0.016437528018344635,-0.014180800172453926
1592293107.4600744,-0.31605385538553854,9.85,0.08521077107710771,-0.47444444444444445,-0.5859471780511384,-0.09014051405140515,0.04288089188753789,0.023567819613158316,-0.014180800172453926
1592293107.4700744,-0.3190082030125684,9.85,0.06900820301256835,-0.47444444444444445,-0.5822222222222222,-0.09333333333333334,0.03436266099840816,0.02617993877991494,-0.011127667061279687
1592293107.4800744,-0.3168771765805773,9.843122823419423,0.011859763935958868,-0.47444444444444445,-0.5822222222222222,-0.09333333333333334,0.027473638337363465,0.021678837233460476,-0.010567660633543847
1592293107.4900744,-0.3336439363200229,9.853643936320022,0.024109840800057285,-0.47444444444444445,-0.5822222222222222,-0.09333333333333334,0.0183916564178824,0.020379115371551328,-0.009419985251734318
