time,acc_x,acc_y,acc_z,mag_x,mag_y,mag_z,gyr_x,gyr_y,gyr_z
1592293122.9500597,-0.4002253804191789,9.779549239161641,0.9320284237726099,-0.30666666666666664,-0.5466666666666666,0.12777777777777777,0.018568708492340977,-0.011949968227658562,0.015320801334752837
1592293122.9600596,-0.4103930343769737,9.759803482811513,1.0203930343769738,-0.30666666666666664,-0.5466666666666666,0.12777777777777777,0.019763574284030888,-0.009753166942920763,0.017517602619490636
1592293122.9700596,-0.42553081295678064,9.75223459352161,1.0355308129567806,-0.30666666666666664,-0.5466666666666666,0.12777777777777777,0.024717400740071546,-0.007276253714900432,0.01999451584751097
1592293122.9800596,-0.43,9.78,1.01,-0.3211111111111111,-0.5344444444444445,0.12777777777777777,0.03381575425739013,0.002181661564992912,0.02399827721492203
1592293122.9900596,-0.3811950051470259,9.770239001029404,0.9319120082352415,-0.3211111111111111,-0.5344444444444445,0.12777777777777777,0.037010033700902445,0.0011169017504888074,0.03038683610194666
1592293123.0000596,-0.42666833008211225,9.8,0.8249975048768317,-0.3211111111111111,-0.5344444444444445,0.12777777777777777,0.039269908169872414,0.003151349410704387,0.02939185965901182
1592293123.0100596,-0.369945449017188,9.80027275491406,0.9098908980343761,-0.3211111111111111,-0.5344444444444445,0.12777777777777777,0.03924015522423905,0.0010729790151164367,0.02835564975578118
1592293123.0200596,-0.36244370517429486,9.837781474128526,0.8948874103485898,-0.3211111111111111,-0.5344444444444445,0.12777777777777777,0.035148588671123485,-0.0013819609167529015,0.02753733644515807
1592293123.0300596,-0.47,9.78,1.04,-0.32666666666666666,-0.5422222222222223,0.14888888888888888,0.02399827721492203,-0.01308996938995747,0.025089107997418484
1592293123.0400596,-0.5187520704845815,9.773035418502202,1.0748229074889868,-0.32666666666666666,-0.5422222222222223,0.14888888888888888,0.021719123249421244,-0.016128841343958523,0.028127979951419538
1592293123.0500596,-0.54,9.749491513233602,1.0011864691215957,-0.32666666666666666,-0.5422222222222223,0.14888888888888888,0.03189294010046085,-0.02422014642183371,0.04385510050676992
1592293123.0600595,-0.546913797752809,9.719662741573034,1.0715176629213483,-0.32666666666666666,-0.5422222222222223,0.14888888888888888,0.047052880396864075,-0.03701466823012126,0.05664962231505747
1592293123.0700595,-0.8560666966292134,9.70458211235955,1.1393804943820225,-0.32666666666666666,-0.5422222222222223,0.14888888888888888,0.05363304622305716,-0.03372458531702472,0.05335953940196093
1592293123.0800595,-0.8,9.83,1.11,-0.3333333333333333,-0.5344444444444445,0.12777777777777777,0.061086523819801536,-0.04908738521234052,0.04145156973486533
1592293123.0900595,-0.8946168224299066,9.822115264797509,1.0548068535825545,-0.3333333333333333,-0.5344444444444445,0.12777777777777777,0.07312780043879824,-0.07230984726326273,0.05521302872800442
1592293123.1000595,-0.8498566017960506,9.939139610776303,0.79,-0.3333333333333333,-0.5344444444444445,0.12777777777777777,0.07412956625725219,-0.09538718991976208,0.07779311654229834
1592293123.1100595,-0.8389863771970814,9.881621796484671,0.7896959131591245,-0.3333333333333333,-0.5344444444444445,0.12777777777777777,0.07070497649032212,-0.12904973962116098,0.10179002696830225
1592293123.1200595,-0.7636062686459868,10.00222997016642,0.7670818805937961,-0.3333333333333333,-0.5344444444444445,0.12777777777777777,0.055904126787139644,-0.15371782245979848,0.12728037923489427
1592293123.1300595,-0.57,9.97,0.91,-0.31444444444444447,-0.5277777777777778,0.14222222222222222,0.02181661564992912,-0.19634954084936207,0.16689710972195776
1592293123.1400595,-0.6463673532962112,9.978485261477358,0.8590884311358592,-0.31444444444444447,-0.5277777777777778,0.14222222222222222,-0.0003977469509480469,-0.204679926824691,0.1891114723228349
1592293123.1500595,-0.7965374955148906,10.025512498504963,0.8226925008970218,-0.31444444444444447,-0.5277777777777778,0.14222222222222222,-0.013299681314342688,-0.19127308758456874,0.23080833861360167
1592293123.1600595,-0.9897693514644351,10.079935930962343,0.9298590481171548,-0.31444444444444447,-0.5277777777777778,0.14222222222222222,-0.014180800172453926,-0.17128419493462715,0.3042523310640554
1592293123.1700594,-1.1559586574474214,9.99702067127629,1.118589383462979,-0.31444444444444447,-0.5277777777777778,0.14222222222222222,-0.01582655301032149,-0.15398002805433414,0.36770327257441243
1592293123.1800594,-1.1506998428496593,10.02930015715034,1.0910497642744894,-0.3210333507944823,-0.5277777777777778,0.15759633703897716,0.010590220273581797,-0.13433759177378313,0.4659594827605008
1592293123.1900594,-1.175171368984378,9.998535788769528,1.0837071577539055,-0.3211111111111111,-0.5277777777777778,0.15777777777777777,0.029442258109836465,-0.14240949748478493,0.5183587701442384
1592293123.2000594,-1.1409900840893334,10.0094059495464,0.9133662859037344,-0.3211111111111111,-0.5277777777777778,0.15777777777777777,0.046776121943119,-0.15795446062160512,0.6288801709800939
1592293123.2100594,-0.9531810712329419,9.990334849603467,0.9394977255947986,-0.3211111111111111,-0.5277777777777778,0.15777777777777777,0.04047031822885962,-0.18927492298467805,0.6969993816073274
1592293123.2200594,-0.9454603860170063,9.99,0.9490792279659873,-0.3211111111111111,-0.5277777777777778,0.15777777777777777,0.03194242280775747,-0.20515560324161589,0.7308145752415172
1592293123.2300594,-0.83,9.97,1.02,-0.32666666666666666,-0.5344444444444445,0.14222222222222222,0.014180800172453926,-0.26398104936414235,0.8497571795647392
1592293123.2400594,-0.6750791713044415,9.874664105418118,1.0497924670568382,-0.32666666666666666,-0.5344444444444445,0.14222222222222222,0.007031121338989579,-0.28608005666757763,0.8998049313989896
1592293123.2500594,-0.40893327981722194,9.76262743524036,0.9847293834326469,-0.32666666666666666,-0.5344444444444445,0.14222222222222222,-0.0019523745858569135,-0.3207059676855585,0.9905941468911513
1592293123.2600594,-0.11118899521531095,9.827389234449761,0.9318648325358853,-0.32666666666666666,-0.5344444444444445,0.14222222222222222,0.007269656465293187,-0.35960035295759885,1.0294518220797966
1592293123.2700593,0.009321410767696908,9.825030844965104,0.9250308449651047,-0.32666666666666666,-0.5344444444444445,0.14222222222222222,0.011972221297524038,-0.3697378006464246,1.046554560556828
1592293123.2800593,0.20229847571783055,9.728557249202412,0.910855724920241,-0.35105140021269055,-0.5283482610579385,0.1351100082712986,0.03331971819649455,-0.37253336748190047,1.1173308942249378
1592293123.2900593,0.3378131960980106,9.649702742146093,0.9291719794147015,-0.35333333333333333,-0.5277777777777778,0.13444444444444445,0.04118060063197006,-0.35942526564712457,1.1524407274621409
1592293123.3000593,0.7222791669018457,9.619184681379465,0.8940765931026697,-0.35333333333333333,-0.5277777777777778,0.13444444444444445,0.04672784871758341,-0.34532508952305474,1.1663649188833578
1592293123.3100593,0.20325327510917035,9.42703056768559,1.1858864628820962,-0.35333333333333333,-0.5277777777777778,0.13444444444444445,0.04620406699118286,-0.33277436411407935,1.153468286677746
1592293123.3200593,0.39018324607329846,9.607574171029668,1.2846422338568937,-0.35333333333333333,-0.5277777777777778,0.13444444444444445,0.07219377024297008,-0.27126182131467935,1.1421854966127287
1592293123.3300593,0.517876147142747,9.703375491632606,1.2688748361224647,-0.3784997814966196,-0.5204375637301526,0.1208126183559977,0.18500404265063072,-0.2792250877767422,1.157419032127213
1592293123.3400593,0.6438748491102372,9.53702192282232,1.3165651649079086,-0.38,-0.52,0.12,0.20105432999159387,-0.2198457496148815,1.1857644504707805
1592293123.3500593,1.1695077267123484,9.57211731987729,1.1620903695633475,-0.38,-0.52,0.12,0.2776506330461382,-0.18831284607574766,1.2707656328344163
1592293123.3600593,1.193409998402811,9.51687749560773,1.1333524996007027,-0.38,-0.52,0.12,0.30392591016959875,-0.1513726764246655,1.3190609462342273
1592293123.3700593,1.316520551130748,9.382485320620894,1.2340156580043795,-0.38,-0.52,0.12,0.34356174525992317,-0.11142526863975095,1.360814603708048
1592293123.3800592,1.4884300313169605,9.270941981209823,1.142354953024559,-0.4182783455121513,-0.5079696628390381,0.1418733402926579,0.393259015729446,-0.07458751004984254,1.3787073548654993
1592293123.3900592,1.5896551347016148,9.312709343443549,1.204064015165324,-0.41888888888888887,-0.5077777777777778,0.14222222222222222,0.43494323458133965,-0.02836430445679622,1.3881278423812076
1592293123.4000592,1.789573902851934,9.40092173460086,0.8399304596952728,-0.41888888888888887,-0.5077777777777778,0.14222222222222222,0.513494832954062,0.04240296055172842,1.399636439590544
1592293123.4100592,1.6016087857438872,9.271072523829258,0.8768296726067136,-0.41888888888888887,-0.5077777777777778,0.14222222222222222,0.5662495810976924,0.08507964750346766,1.4100983726967988
1592293123.4200592,1.6245866195801453,9.406938983715913,0.584591524426133,-0.41888888888888887,-0.5077777777777778,0.14222222222222222,0.6328740386709152,0.13234966204446225,1.404066169612359
1592293123.4300592,1.6604371751757872,9.515218587587894,-0.3517143075512077,-0.4604333537144604,-0.4845901695030402,0.11710231325792315,0.6752235040231294,0.13464681935962539,1.3516831550970132
1592293123.4400592,2.1796449406946645,9.678240157632422,-0.9024093034037786,-0.4666666666666667,-0.4811111111111111,0.11333333333333333,0.6859735503082495,0.07734518320754824,1.3150871404363147
1592293123.4500592,3.1018859356217447,9.848786964071056,-1.574123413917457,-0.4666666666666667,-0.4811111111111111,0.11333333333333333,0.6417231757221856,-0.117691885062992,1.2585423947436531
1592293123.4600592,3.1098063002952,9.791028347284565,-1.1996425249706821,-0.4666666666666667,-0.4811111111111111,0.11333333333333333,0.5191818571186938,-0.1665605838600278,1.2221791775452706
1592293123.4700592,2.8687569397960386,9.801663582312871,-0.7980560696145215,-0.4666666666666667,-0.4811111111111111,0.11333333333333333,0.2705626714043772,-0.1741546972248429,1.1212863381238092
1592293123.4800591,2.777234657039711,9.875851985559567,-0.514245487364621,-0.481028880866426,-0.45813156839149616,0.13152547131969516,0.0217996821756882,-0.22408657165598855,0.9226750824564987
1592293123.4900591,2.59175042505239,9.805690957257523,-0.286704361235222,-0.48333333333333334,-0.45444444444444443,0.13444444444444445,-0.08594220584771028,-0.2431648184032023,0.8237302702267718
1592293123.5000591,2.8403325322751916,9.876777510758398,-0.31201195998435144,-0.48333333333333334,-0.45444444444444443,0.13444444444444445,-0.28689501895611225,-0.22194035297267084,0.6262475190087881
1592293123.510059,2.4881728264016214,9.33882225224356,-0.38557512303387054,-0.48333333333333334,-0.45444444444444443,0.13444444444444445,-0.375374261529455,-0.22140322816181382,0.46402513081173385
1592293123.520059,2.8005052843858538,9.37709228068865,-0.3401482615677634,-0.48333333333333334,-0.45444444444444443,0.13444444444444445,-0.4192351485998096,-0.21255984764142202,0.3681892216714411
1592293123.530059,2.902408080411224,9.131015617326392,-0.01177389254493666,-0.5215890529563056,-0.44392412154812705,0.14687755332191044,-0.46109006101171635,-0.2163709982485823,0.1225054076324627
1592293123.540059,3.070410712860222,9.263013490859743,-0.14095872914504667,-0.5277777777777778,-0.44222222222222224,0.14888888888888888,-0.46965494242789896,-0.17671463030361254,0.03282959167961634
1592293123.550059,3.31227763413919,9.415791774395608,-0.09633419516485858,-0.5277777777777778,-0.44222222222222224,0.14888888888888888,-0.43729303029248234,-0.115859970248545,-0.1307174187129801
1592293123.560059,3.150870929417857,9.394144149632925,0.16141133822767845,-0.5277777777777778,-0.44222222222222224,0.14888888888888888,-0.4154984319744658,-0.0519438751664929,-0.2067238809086479
1592293123.570059,3.088200656694637,9.247699014958044,0.2698175848230573,-0.5277777777777778,-0.44222222222222224,0.14888888888888888,-0.3872051309682011,0.02973825187457284,-0.29615196133509103
1592293123.580059,3.1659590429232582,9.073160410175747,0.4819658791856982,-0.5183420551135848,-0.44222222222222224,0.1420265451331122,-0.2692721346500147,0.20302334381999546,-0.5019504420195373
1592293123.590059,2.9016380182002024,9.269658240647118,0.7606268958543984,-0.5155555555555555,-0.44222222222222224,0.14,-0.24216443371421323,0.24107360293171679,-0.543233729683235
1592293123.600059,2.4136222605269637,9.080650086185669,0.6771361733563162,-0.5155555555555555,-0.44222222222222224,0.14,-0.19133778986689004,0.2563215960859137,-0.6245563598389521
1592293123.610059,2.8279819406621756,9.661972910993263,0.6706865414934785,-0.5155555555555555,-0.44222222222222224,0.14,-0.15295043870197458,0.2633490179124809,-0.7412497697888146
1592293123.620059,2.628132932782576,9.729628989861059,0.6326451370634623,-0.5155555555555555,-0.44222222222222224,0.14,-0.12301843125541838,0.25967974342547084,-0.7901714390047614
1592293123.630059,2.756525400613706,9.753414933515172,0.6147562222979884,-0.5014295185058908,-0.4591734666818199,0.09668015304769481,-0.0056668900896346824,0.22239640794363869,-0.8728908255477663
1592293123.640059,2.375651900228185,9.514428357856637,0.84837752773625,-0.4988888888888889,-0.4622222222222222,0.08888888888888889,0.029188413857205314,0.24259813958752777,-0.903030903638161
1592293123.650059,2.3514449768241237,9.54655200249987,0.7557033487839175,-0.4988888888888889,-0.4622222222222222,0.08888888888888889,0.114982574722619,0.25011131861252894,-0.98162678172608
1592293123.660059,2.364866585180231,9.115737413805032,0.2555197066488319,-0.4988888888888889,-0.4622222222222222,0.08888888888888889,0.1542667579237581,0.27641605739660585,-1.0650920715732373
1592293123.670059,2.107307652778063,9.693574790848732,0.3461425723036445,-0.4988888888888889,-0.4622222222222222,0.08888888888888889,0.22822673797029486,0.25007418451758945,-1.1318171532294004
1592293123.680059,2.2323345690183602,9.705482938789807,0.37922181032721325,-0.49807294757906273,-0.46548598746152675,0.1003120672264547,0.25356741876375716,0.2560886296286287,-1.1642911145234627
1592293123.690059,2.06,9.458571428571428,0.43357142857142855,-0.49777777777777776,-0.4666666666666667,0.10444444444444445,0.2552024587811947,0.2627084134512298,-1.1766428040528438
1592293123.700059,2.27573741997161,9.668803557461109,0.4336110547814247,-0.49777777777777776,-0.4666666666666667,0.10444444444444445,0.2813294585628102,0.23163021710866963,-1.208680134509803
1592293123.710059,1.7528795836516424,9.297039724980902,0.24479994270435446,-0.49777777777777776,-0.4666666666666667,0.10444444444444445,0.255891432864518,0.25578674560932235,-1.2121660716784362
1592293123.720059,1.9037347618557054,9.289686137151884,0.24615535180797363,-0.49777777777777776,-0.4666666666666667,0.10444444444444445,0.25244366244981803,0.25860349821084433,-1.2056684323254092
1592293123.730059,2.1240865255826415,9.956489418698098,0.4312402893115457,-0.5025987439354704,-0.5028239128493616,0.08917805161175105,0.21883298635347198,0.3175899909957057,-1.148590462368033
1592293123.740059,1.8427336954302285,10.091798913709315,0.48453260913954344,-0.5044444444444445,-0.5166666666666667,0.08333333333333333,0.1988633919494175,0.3455631373839227,-1.1217139406317191
1592293123.750059,1.7862398591102,10.07897566186448,0.3882074082628403,-0.5044444444444445,-0.5166666666666667,0.08333333333333333,0.16950802392330563,0.3620529314276369,-1.0437206678285695
1592293123.7600589,1.0535570693597562,10.061931926448171,0.619736328125,-0.5044444444444445,-0.5166666666666667,0.08333333333333333,0.13265150827359912,0.4150365337116945,-0.9941970859618809
1592293123.7700589,0.8809392986411915,9.766869004529362,0.5966223619929192,-0.5044444444444445,-0.5166666666666667,0.08333333333333333,0.11598925676035986,0.3852464413897332,-1.0017852553451643
1592293123.7800589,0.7324844942360773,9.713114141906154,0.6388027277155381,-0.48138716602623083,-0.5349534736880086,0.08333333333333333,0.09409227556044068,0.3134602410153591,-1.0282125615223785
1592293123.7900589,0.7086100761380204,9.890476267617041,0.7844273448890329,-0.4722222222222222,-0.5422222222222223,0.08333333333333333,0.07590047589468293,0.2824984894577441,-1.0270038401159944
1592293123.8000588,0.5420491203339748,10.427950879666026,1.0142798666269077,-0.4722222222222222,-0.5422222222222223,0.08333333333333333,0.031419498667387684,0.217174949152134,-0.973401691070747
1592293123.8100588,0.28624326970141944,10.203730624898025,0.9699967368249307,-0.4722222222222222,-0.5422222222222223,0.08333333333333333,0.021407531859169108,0.19294027195490768,-0.9318409056028147
1592293123.8200588,0.12495746342699121,9.924702243988937,0.6395929999366701,-0.4722222222222222,-0.5422222222222223,0.08333333333333333,0.04156820349630892,0.13094609410279462,-0.8591969152009445
1592293123.8300588,0.009245087287708592,10.012963632591363,0.5165330922671093,-0.4680345857579919,-0.5701397986504244,0.05611369631583627,0.06124003354312745,0.07901660822893761,-0.7744674822092694
1592293123.8400588,0.05972954345604488,10.374121016232145,0.31245977612472375,-0.46555555555555556,-0.5866666666666667,0.04,0.08536927203256879,0.06556925580935859,-0.637461008091157
1592293123.8500588,-0.02782848207842195,10.288421938898244,0.25927616069280734,-0.46555555555555556,-0.5866666666666667,0.04,0.0442218653174902,0.056357220008471515,-0.503569395785874
1592293123.8600588,-0.11433866279069767,10.291693313953488,0.21239260335917315,-0.46555555555555556,-0.5866666666666667,0.04,0.01700758808200466,0.042240977476526595,-0.4306805869409822
1592293123.8700588,-0.30065548914476575,10.420656148369517,0.20311439746857693,-0.46555555555555556,-0.5866666666666667,0.04,-0.02981001690602086,0.009710186926830103,-0.2604404755480883
1592293123.8800588,-0.0937307492645787,10.52112822287593,0.40919743900328776,-0.45774643825344635,-0.5913521370479322,0.05015185249274192,-0.08618038851140913,0.0007358907922894418,-0.09232063893335984
1592293123.8900588,-0.32588613764866453,10.42477286020667,0.33960460128680053,-0.45444444444444443,-0.5933333333333334,0.05444444444444444,-0.10333985098961619,-0.002651214343623381,0.009924539669863064
1592293123.9000587,-0.32754687844694463,10.421430987572617,0.5617376277667476,-0.45444444444444443,-0.5933333333333334,0.05444444444444444,-0.12917827378025457,-0.022276857095601878,0.17350589131982241
1592293123.9100587,-0.41868160400038457,10.327183863833062,0.216434993749399,-0.45444444444444443,-0.5933333333333334,0.05444444444444444,-0.16019706005878734,-0.02939324262187266,0.2806252662205223
1592293123.9200587,-0.5472072368421053,10.230519736842105,0.03961184210526317,-0.45444444444444443,-0.5933333333333334,0.05444444444444444,-0.17322966947508195,-0.03639427728469919,0.32350955105973345
1592293123.9300587,-0.00034213188632392644,10.04828842085901,0.2546454520371563,-0.4386009176655732,-0.6078565662139653,0.02407768478494129,-0.22262017318463218,-0.08260176398268758,0.4405623045632286
1592293123.9400587,0.27235866161199934,10.048937695731004,0.2606757870446679,-0.42777777777777776,-0.6177777777777778,0.0033333333333333335,-0.26110123452266454,-0.08986489452136454,0.5063485642335936
1592293123.9500587,-0.1918532725964996,10.115183409254376,0.2874562455046752,-0.42777777777777776,-0.6177777777777778,0.0033333333333333335,-0.36117561509623247,-0.10166276134919679,0.6681920441254244
1592293123.9600587,-0.08312898374274869,10.246134784788369,0.24623719830981883,-0.42777777777777776,-0.6177777777777778,0.0033333333333333335,-0.40062488957501236,-0.1526449051711323,0.803469330346867
1592293123.9700587,0.05351022041172619,10.401616352658763,0.30940896195533574,-0.42777777777777776,-0.6177777777777778,0.0033333333333333335,-0.4201422401368883,-0.17050513549228746,0.8734804677582936
1592293123.9800587,-0.1838990291262136,9.976353398058253,0.4862271844660194,-0.4450381877022654,-0.6098114347357065,0.007316504854368931,-0.505946591795877,-0.18826701428056938,1.0996247849095993
1592293123.9900587,-0.18693884098656507,9.916734710246642,0.498979346300381,-0.45666666666666667,-0.6044444444444445,0.01,-0.5042977421615598,-0.23308155584959472,1.1778745292544364
1592293124.0000587,0.0856376348165411,9.688650208660777,0.692878434773183,-0.45666666666666667,-0.6044444444444445,0.01,-0.5265540277973477,-0.29903487379830607,1.2973020340453632
1592293124.0100586,1.021231306678152,9.792493719043858,0.8187459622424809,-0.45666666666666667,-0.6044444444444445,0.01,-0.529598540658038,-0.3858797253820479,1.3177234547517132
1592293124.0200586,1.3050632580405093,10.034542510610052,0.9622712553050264,-0.45666666666666667,-0.6044444444444445,0.01,-0.5108563704303485,-0.3642033352990627,1.4005371843182775
1592293124.0300586,1.5947264904732636,9.693167383732842,1.433072848069775,-0.46989944813546536,-0.5936176232427001,-0.0008268212017443731,-0.47075562746877747,-0.22907625220507116,1.5353059667423385
1592293124.0400586,1.9694817565385856,9.434664191152729,1.6506409428479174,-0.4811111111111111,-0.5844444444444444,-0.01,-0.42567020818200174,-0.15817380956868088,1.5994372389933789
1592293124.0500586,1.5151365895105435,9.248372769638765,1.4472434923659208,-0.4811111111111111,-0.5844444444444444,-0.01,-0.364815672988585,-0.08963953001405447,1.6209950736299201
1592293124.0600586,1.5216028100124677,9.143273232952911,1.6061323966625107,-0.4811111111111111,-0.5844444444444444,-0.01,-0.3456185186013672,-0.07459592481182326,1.5703194348679752
1592293124.0700586,1.72,9.296692486444616,1.5226523366899045,-0.4811111111111111,-0.5844444444444444,-0.01,-0.32564199853403464,-0.08990228492814227,1.5380621792796914
1592293124.0800586,2.1407056829655273,9.005991994807442,1.0678295831530362,-0.5031705851242848,-0.5634354215747552,-0.016827932432649007,-0.31548976266238127,-0.12177505882317083,1.3808755758427527
1592293124.0900586,2.5540721068726864,9.204674070497344,0.9088266537904394,-0.5277777777777778,-0.54,-0.024444444444444446,-0.27889381051071954,-0.14909916875101809,1.3053710195815966
1592293124.1000586,2.2255646472593758,9.207802779963282,1.2766837136113296,-0.5277777777777778,-0.54,-0.024444444444444446,-0.2691944080315086,-0.12120763521930081,1.197617938018106
1592293124.1100585,2.653034679334917,9.359326365795724,1.21,-0.5277777777777778,-0.54,-0.024444444444444446,-0.2531769016281477,-0.12479394349022259,1.129665498414005
1592293124.1200585,2.8331465008265764,9.569100999763835,1.29308962449815,-0.5277777777777778,-0.54,-0.024444444444444446,-0.2459945996670893,-0.1113444933444538,1.0798796460599216
1592293124.1300585,2.879626208307215,9.304491108838375,1.4274065520768038,-0.5418241635783122,-0.518345155224176,-0.047855087445335204,-0.21498399390878992,-0.06049437807419114,1.0483962738561659
1592293124.1400585,3.1063543332267347,9.046650143907899,1.4648768787975694,-0.5544444444444444,-0.4988888888888889,-0.06888888888888889,-0.18105645607505655,-0.0364488181353189,1.0381377602620867
1592293124.1500585,3.4529740665808353,9.175868257179642,1.3136327806826242,-0.5544444444444444,-0.4988888888888889,-0.06888888888888889,-0.10923550049146266,0.01903182861773862,0.996207209548905
1592293124.1600585,3.4372542210513712,8.787401508801342,1.1754915578972578,-0.5544444444444444,-0.4988888888888889,-0.06888888888888889,-0.06061693494863943,0.06354549753318864,0.9358416366859728
1592293124.1700585,3.45,8.49,1.15,-0.5544444444444444,-0.4988888888888889,-0.06888888888888889,-0.042542400517361786,0.07744898555724837,0.9075712110370513
1592293124.1800585,3.8678046022675185,8.737422607951594,1.3557760596522324,-0.5601034270832272,-0.49014318844713367,-0.07814904229780617,0.017533997263531106,0.13649968971754922,0.8040593935830866
1592293124.1900585,4.160607783472134,8.931756886611147,1.6928030909673286,-0.5666666666666667,-0.48,-0.08888888888888889,0.019996147653611962,0.18756022073557546,0.7447019555453215
1592293124.2000585,3.8645490298898793,8.765129522810698,1.2819449396958573,-0.5666666666666667,-0.48,-0.08888888888888889,0.04012461155487829,0.1691181258531991,0.592924303705299
1592293124.2100585,3.88558162363797,9.069770295474624,1.5859298615882989,-0.5666666666666667,-0.48,-0.08888888888888889,0.03472904528948126,0.14950712864798982,0.4720503553536509
1592293124.2200584,3.8802518568534774,9.480588116137746,1.5253781228899392,-0.5666666666666667,-0.48,-0.08888888888888889,0.03995740408640327,0.13414010948772734,0.41875524322475755
1592293124.2300584,3.3110073002258815,9.156198644711429,1.4075886339084034,-0.5756312131033052,-0.4685453017754062,-0.08888888888888889,0.03603455413428917,0.12763027260480064,0.2723749863433166
1592293124.2400584,3.5816642845799587,9.202080355724949,1.323454819755439,-0.5866666666666667,-0.45444444444444443,-0.08888888888888889,0.04218338085772642,0.08843429422115523,0.19937162889383434
1592293124.2500584,3.56999442105797,8.866664807019324,0.7948610336258052,-0.5866666666666667,-0.45444444444444443,-0.08888888888888889,0.05120841125785196,0.07344886697598138,0.12253686075649188
1592293124.2600584,3.897014747800223,8.672983765026645,0.4023864171520635,-0.5866666666666667,-0.45444444444444443,-0.08888888888888889,0.06868984013751564,0.06870592749197307,0.06688240558604444
1592293124.2700584,3.865788834951456,8.404150485436894,0.06808252427184466,-0.5866666666666667,-0.45444444444444443,-0.08888888888888889,0.08114510150959074,0.041272853526567975,0.02974499617950591
1592293124.2800584,4.226788973852985,8.803315860878145,1.0137287247163296,-0.5866666666666667,-0.45919397166036285,-0.09363841610480733,-0.0008928250839099795,0.04543603501044685,-0.06076985596653303
1592293124.2900584,3.97,8.84,1.35,-0.5866666666666667,-0.4666666666666667,-0.10111111111111111,-0.03490658503988659,0.07744898555724837,-0.08944812416470939
1592293124.3000584,3.98387180121492,9.02612819878508,1.016838459635524,-0.5866666666666667,-0.4666666666666667,-0.10111111111111111,-0.004152149132538734,0.05448532000722897,-0.1660812279039068
1592293124.3100584,4.04,8.97,1.0,-0.5866666666666667,-0.4666666666666667,-0.10111111111111111,-0.001090830782496456,0.05999569303730508,-0.19853120241435498
1592293124.3200583,3.9969838100272117,9.033301618997278,0.8879068538204029,-0.5866666666666667,-0.4666666666666667,-0.10111111111111111,-0.004692338416803288,0.0984934072192941,-0.287740621258363
1592293124.3300583,3.8867770063505644,9.090850580764041,1.228298838471916,-0.5866666666666667,-0.46864418925193496,-0.09743856916704141,-0.0011826097404393793,0.10410939095078241,-0.35979060030794463
1592293124.3400583,3.851979961832061,9.200580016357689,0.9650399854598328,-0.5866666666666667,-0.47444444444444445,-0.08666666666666667,0.026720992434119382,0.09797623704139816,-0.4480870952012039
1592293124.3500583,3.8727485034555404,9.207466793412635,0.872963800323716,-0.5866666666666667,-0.47444444444444445,-0.08666666666666667,0.005421672529317741,0.10664857195737876,-0.4968426916284817
1592293124.3600583,3.599966260678136,9.134806058720777,0.8548735373645043,-0.5866666666666667,-0.47444444444444445,-0.08666666666666667,-0.04008481417904997,0.10010809708348192,-0.5297593031949696
1592293124.3700583,3.332293868921776,9.01191292772688,1.067869391590322,-0.5866666666666667,-0.47444444444444445,-0.08666666666666667,-0.06480009753608047,0.074438588132325,-0.5295236924782645
1592293124.3800583,3.0019918835626886,9.204006956946268,1.2634345345253715,-0.5836189003820895,-0.47673026915787725,-0.09390511159253721,-0.07451992200827602,0.030355304706447997,-0.515745046926029
1592293124.3900583,2.68,9.48,1.5,-0.5777777777777777,-0.4811111111111111,-0.10777777777777778,-0.09817477042468103,-0.007635815477475192,-0.5257804371632917
1592293124.4000583,2.8443638676844785,9.281655269296014,1.5654582803223072,-0.5777777777777777,-0.4811111111111111,-0.10777777777777778,-0.08323740300547179,-0.15989399807223303,-0.7020368969729717
1592293124.4100583,3.4189360684741548,9.323884665040884,1.0479548606130158,-0.5777777777777777,-0.4811111111111111,-0.10777777777777778,-0.06277031421284739,-0.3002539765045164,-0.8322297670934772
1592293124.4200583,3.75,9.42,0.53,-0.5777777777777777,-0.4811111111111111,-0.10777777777777778,-0.053450708342326333,-0.31306843457648287,-0.8333947178272924
1592293124.4300582,4.1750861646019874,8.67981571200785,1.23067735802772,-0.5635413004074846,-0.4811111111111111,-0.10738232007304742,-0.019914318082710346,-0.17288727992566738,-0.6697539112556349
1592293124.4400582,4.13,9.15,1.25,-0.5377777777777778,-0.4811111111111111,-0.10666666666666667,0.044724062082354694,-0.1778054175469223,-0.5966844380255614
1592293124.4500582,3.274576371142127,9.358734027914291,1.8070689994102613,-0.5377777777777778,-0.4811111111111111,-0.10666666666666667,0.12881259816416327,0.07899763503851226,-0.29779144274683966
1592293124.4600582,2.9989894741901377,9.058546092473325,1.5940956935499375,-0.5377777777777778,-0.4811111111111111,-0.10666666666666667,0.23131799171272965,0.12238968287911452,-0.20209186891333872
1592293124.4700582,2.81,9.07,1.68,-0.5377777777777778,-0.4811111111111111,-0.10666666666666667,0.27379852640661045,0.09490227807719166,-0.2127120025868089
1592293124.4800582,3.1324492835159017,8.885305953602277,1.5638776185590892,-0.5439001592186885,-0.48485256643611213,-0.10870746048030358,0.402360390558875,0.08134488713738595,-0.2600628380436737
1592293124.4900582,3.07,8.92,1.55,-0.5577777777777778,-0.49333333333333335,-0.11333333333333333,0.47123889803846897,0.06544984694978735,-0.28579766501407144
1592293124.5000582,2.8225746894931185,9.143101711983888,1.0029338704263175,-0.5577777777777778,-0.49333333333333335,-0.11333333333333333,0.60490686341024,0.06451317520033253,-0.32640923279692374
1592293124.5100582,2.55,9.0,0.56,-0.5577777777777778,-0.49333333333333335,-0.11333333333333333,0.6784967467127956,0.074176493209759,-0.33161255787892263
1592293124.5200582,2.816407931627024,9.359264266980194,1.1719838111603509,-0.5577777777777778,-0.49333333333333335,-0.11333333333333333,0.7486275866053244,0.06362072981829821,-0.3715753709959655
1592293124.5300581,2.4626371836632424,9.775456652468053,0.8302230017539464,-0.5483795484284084,-0.49740589938472674,-0.11521297920320721,0.7716731971106141,0.05291301431655181,-0.4000804337689069
1592293124.5400581,1.96,9.28,1.06,-0.5244444444444445,-0.5077777777777778,-0.12,0.7144941625351786,0.09599310885968812,-0.41887902047863906
1592293124.5500581,1.7536834854038317,9.869915256440251,0.3461233720658192,-0.5244444444444445,-0.5077777777777778,-0.12,0.6604690163340098,-0.1121263966029023,-0.642968425840498
1592293124.560058,1.714010935687741,9.722017184652165,0.37997135891305894,-0.5244444444444445,-0.5077777777777778,-0.12,0.5886099612428141,-0.22187873026929267,-0.7875823811734731
1592293124.570058,1.6858381422924902,10.021681225296442,0.1680814229249012,-0.5244444444444445,-0.5077777777777778,-0.12,0.53458529555921,-0.26113611525596625,-0.7876929178139229
1592293124.580058,1.4220570398295362,10.253425667923292,0.40479429601704636,-0.5299393542042289,-0.5077777777777778,-0.11276985557923108,0.46609799368031124,-0.2533566686466363,-0.6875504097734861
1592293124.590058,1.57,10.32,0.39,-0.5455555555555556,-0.5077777777777778,-0.09222222222222222,0.42978732830360367,-0.25416357232167425,-0.5737769915931358
1592293124.600058,1.8237955476796988,10.34375456861225,0.34546904419094027,-0.5455555555555556,-0.5077777777777778,-0.09222222222222222,0.35077561197089935,-0.26373615912202025,-0.36655937402419975
1592293124.610058,2.0711108211345466,10.608289639137345,0.2890578661415455,-0.5455555555555556,-0.5077777777777778,-0.09222222222222222,0.2954379134343057,-0.26177135938240303,-0.1449494101100522
1592293124.620058,2.0586184210526315,10.200018421052631,0.011728947368421061,-0.5455555555555556,-0.5077777777777778,-0.09222222222222222,0.2395806000633578,-0.2220833872513824,0.07108858091309732
1592293124.630058,2.242697144604564,9.826628569244296,0.728651427697718,-0.5446315337928809,-0.5085519581735323,-0.09204740729414862,0.15533929036842214,-0.15981273482773686,0.235583714835503
1592293124.640058,2.36,9.68,0.67,-0.5044444444444445,-0.5422222222222223,-0.08444444444444445,0.17453292519943295,-0.13635384781205698,0.47123889803846897
1592293124.650058,2.09697124639076,9.382253368623676,0.39880233397497594,-0.5044444444444445,-0.5422222222222223,-0.08444444444444445,0.1587541996651315,-0.023637313539843052,0.6891973741102697
1592293124.660058,2.2836716934604255,9.43,0.5022679850144639,-0.5044444444444445,-0.5422222222222223,-0.08444444444444445,0.20295336843404013,-0.008342576779028651,0.7914224079173429
1592293124.670058,2.460715909488336,9.336639736998565,0.29996537614101354,-0.5044444444444445,-0.5422222222222223,-0.08444444444444445,0.24871445424535077,-0.03127132173759154,0.8344162677123309
1592293124.680058,2.929859537110934,9.079912210694333,-0.029798084596967277,-0.5044561496852,-0.5422158818834797,-0.08444444444444445,0.2967313501074396,-0.03924261563592887,0.8672262730253867
1592293124.690058,2.61,8.88,0.43,-0.5311111111111111,-0.5277777777777778,-0.08444444444444445,0.35452000431134817,0.022907446432425576,0.9032078879070654
1592293124.700058,3.159612622355323,9.520392923494995,-0.12285555832848072,-0.5311111111111111,-0.5277777777777778,-0.08444444444444445,0.439250450949129,0.04393023563819207,0.9343602522063162
1592293124.710058,2.9780578195416627,9.2489931920606,-0.35259013328219385,-0.5311111111111111,-0.5277777777777778,-0.08444444444444445,0.4684294518003009,0.11647568207912003,0.9403746075960918
1592293124.720058,3.1135444488203072,9.441790483691955,-0.43003651856360314,-0.5311111111111111,-0.5277777777777778,-0.08444444444444445,0.49086986856607406,0.16823242157202886,0.9363194507699766
1592293124.730058,3.060986180229852,9.351690594679747,-0.3023950091296409,-0.5311111111111111,-0.5277777777777778,-0.08444444444444445,0.5047933973275619,0.21082203896010915,0.9305862330446582
1592293124.740058,2.95,9.48,-0.3,-0.5455555555555556,-0.49333333333333335,-0.07777777777777778,0.48651052899341934,0.2912518189265538,0.9315694882519734
1592293124.750058,3.1610500130166903,9.56097856584999,-0.46947499349165484,-0.5455555555555556,-0.49333333333333335,-0.07777777777777778,0.461882289192152,0.34106811802355047,0.9231630769175624
1592293124.760058,3.324703399876713,9.530861586609133,-0.4457627199013704,-0.5455555555555556,-0.49333333333333335,-0.07777777777777778,0.37133697456440967,0.38215900491082117,0.8882752115785886
1592293124.770058,3.4211311631585573,9.584434418420722,-0.4812213973720634,-0.5455555555555556,-0.49333333333333335,-0.07777777777777778,0.3058421634801125,0.3630146335913029,0.8274962160063216
1592293124.780058,3.390974241906782,9.599512879046609,-0.3153583304873007,-0.5455555555555556,-0.49333333333333335,-0.07777777777777778,0.23676035766592118,0.34738898703809296,0.7666384346938198
1592293124.790058,3.54,9.85,-0.22,-0.5511111111111111,-0.47444444444444445,-0.08444444444444445,0.16144295580947549,0.32834006553143325,0.6686792696703274
1592293124.800058,3.4165159119425117,9.27231949355538,-0.6306929394319608,-0.5511111111111111,-0.47444444444444445,-0.08444444444444445,0.07158746538699338,0.3374226284622537,0.5836438030037184
1592293124.8100579,3.6552707504263786,9.087392694712905,-0.3830926662876635,-0.5511111111111111,-0.47444444444444445,-0.08444444444444445,0.010101889929120995,0.3710806791180704,0.5149386396290735
1592293124.8200579,3.852085707028557,9.220428535142785,-0.18080010160020318,-0.5511111111111111,-0.47444444444444445,-0.08444444444444445,-0.005320130434506555,0.3887970035743057,0.46195130058834016
1592293124.8300579,3.859695380819333,9.258476904096666,-0.07426466852933705,-0.5511111111111111,-0.47444444444444445,-0.08444444444444445,-0.012790910208668165,0.41037925625521704,0.4121461020939295
1592293124.8400578,3.95,9.09,-0.22,-0.5777777777777777,-0.46,-0.08444444444444445,-0.008726646259971648,0.42978732830360367,0.32070425005395803
1592293124.8500578,4.082883132811587,8.968831328115874,0.0028831328115874314,-0.5777777777777777,-0.46,-0.08444444444444445,-0.010531467264371958,0.4376753052246673,0.19474014814920823
1592293124.8600578,4.002239809497128,9.191251342391558,0.006908530606527522,-0.5777777777777777,-0.46,-0.08444444444444445,0.0052316278962929435,0.4342653524151547,0.058439182381606725
1592293124.8700578,3.766355075950237,9.08991288061035,-0.05132328682383669,-0.5777777777777777,-0.46,-0.08444444444444445,0.01374775557200002,0.4487549929552992,-0.042504387512569304
1592293124.8800578,4.083471716269159,9.255678397140697,-0.01528730496941371,-0.5777777777777777,-0.46,-0.08444444444444445,0.025540503057286515,0.4550444582807854,-0.11483323875565979
1592293124.8900578,3.7903655764767805,9.003428954231165,-0.09810273464602723,-0.5777777777777777,-0.44,-0.10666666666666667,0.046945601854770494,0.4540960448361273,-0.25484907035581666
1592293124.9000578,3.8432265469061875,8.814792415169661,-0.06894411177644712,-0.5777777777777777,-0.44,-0.10666666666666667,0.05872371031647787,0.43664932889066116,-0.3640800148068498
1592293124.9100578,3.79,8.83,0.22,-0.5777777777777777,-0.44,-0.10666666666666667,0.07199483164476608,0.4134248665661568,-0.4428772976935611
1592293124.9200578,3.712492528844335,8.898783620200492,0.23869396633251372,-0.5777777777777777,-0.44,-0.10666666666666667,0.10292963309995597,0.36721517424938455,-0.5344810041702073
1592293124.9300578,3.728358993758275,8.827384528087762,0.3576924531870626,-0.5777777777777777,-0.44,-0.10666666666666667,0.14014103402563594,0.33692682465871476,-0.5898654148502891
1592293124.9400578,3.86,9.08,0.24,-0.5644444444444444,-0.44,-0.10666666666666667,0.19198621771937624,0.3141592653589793,-0.6643159465403417
1592293124.9500577,3.7923596454200084,8.877078936260025,0.23154495567750105,-0.5644444444444444,-0.44,-0.10666666666666667,0.24363514435975722,0.28556789525448273,-0.7104310596121103
1592293124.9600577,4.065590188697342,9.12616802934759,0.09383197065240848,-0.5644444444444444,-0.44,-0.10666666666666667,0.3003678551855617,0.2541063460106928,-0.739059315007967
1592293124.9700577,3.7316545846043425,9.174827740893594,0.03551677731921766,-0.5644444444444444,-0.44,-0.10666666666666667,0.30983352333616004,0.284496184296509,-0.7279001068277351
1592293124.9800577,3.588658532208864,9.212458280997668,-0.07737484299300197,-0.5644444444444444,-0.44,-0.10666666666666667,0.30162381303466196,0.2828542422362094,-0.7303630199181845
1592293124.9900577,3.9393561864970086,9.122902383439369,0.15096833159244136,-0.56,-0.43333333333333335,-0.12,0.24269257666856264,0.22661160127158053,-0.8114367893015659
1592293125.0000577,3.7851315913593058,9.214956136213566,0.04911187623809075,-0.56,-0.43333333333333335,-0.12,0.20484415018691796,0.1871492511508628,-0.8787180114030787
1592293125.0100577,3.665186215422655,9.253703446144335,-0.24740689228867252,-0.56,-0.43333333333333335,-0.12,0.1691193971899922,0.12725030218189037,-0.9451981020493387
1592293125.0200577,3.531391887737572,9.24996148212445,-0.30286081122624275,-0.56,-0.43333333333333335,-0.12,0.14117826733692979,0.11189167310329295,-0.9448098884914455
1592293125.0300577,3.379696558708114,9.09068138664352,-0.3180303441291886,-0.56,-0.43333333333333335,-0.12,0.11470243782232802,0.12678432720525645,-0.9224709073385005
1592293125.0400577,2.938889085754784,9.379777639971651,-0.17955527994330264,-0.5333333333333333,-0.46,-0.12,0.10421069914388942,0.14040206406092787,-0.9231094857585329
1592293125.0500576,2.612469819300269,9.61,-0.6338254517493271,-0.5333333333333333,-0.46,-0.12,0.10447667725670899,0.10564954052711639,-0.9223830238951432
1592293125.0600576,2.585445416417016,9.654554583582984,-0.5621533852606351,-0.5333333333333333,-0.46,-0.12,0.07977372961169851,0.1003482752681847,-0.8617292859605981
1592293125.0700576,2.39,9.85,-0.44,-0.5333333333333333,-0.46,-0.12,0.04690572364734761,0.014180800172453926,-0.8137597637423563
1592293125.0800576,2.6994827586206895,9.857737068965516,-0.26978448275862066,-0.5333333333333333,-0.46,-0.12,-0.04508845598599035,0.004896983879181287,-0.7639647490784393
1592293125.0900576,2.54,9.84,-0.07,-0.5333333333333333,-0.48,-0.1111111111111111,-0.16253378659197193,-0.08508480103472357,-0.7254024703601433
1592293125.1000576,2.6260144578313254,9.600072289156627,0.045386345381526104,-0.5333333333333333,-0.48,-0.1111111111111111,-0.26949583419240675,-0.14303192262419334,-0.7387822765556026
1592293125.1100576,2.642624868684939,9.340267405214401,-0.20053481042880336,-0.5333333333333333,-0.48,-0.1111111111111111,-0.32278918385832184,-0.19126385876169977,-0.7445138860917764
1592293125.1200576,2.9176898222940224,9.419739033180067,-0.3328855474089723,-0.5333333333333333,-0.48,-0.1111111111111111,-0.3550725364686062,-0.1881042590865502,-0.7532257720798127
1592293125.1300576,2.433694899607662,9.300601821441886,0.06175646647375238,-0.5333333333333333,-0.48,-0.1111111111111111,-0.35832149991622636,-0.15886358805796888,-0.7564747355274328
1592293125.1400576,2.7532392621145374,9.362176945668136,-0.013044236417033773,-0.5066666666666667,-0.4922222222222222,-0.10444444444444445,-0.3296432859527941,-0.10414831035951937,-0.7535748572157964
1592293125.1500576,2.3205314474723537,9.44232474328594,0.015601550157977886,-0.5066666666666667,-0.4922222222222222,-0.10444444444444445,-0.2991291347320357,-0.04510000450398817,-0.7630590734064951
1592293125.1600575,2.5527320754716984,9.548181132075472,0.2884867924528302,-0.5066666666666667,-0.4922222222222222,-0.10444444444444445,-0.2404127241312269,0.010511492400690377,-0.7461284610447046
1592293125.1700575,1.84,9.65,0.0,-0.5066666666666667,-0.4922222222222222,-0.10444444444444445,-0.20616701789183017,0.032724923474893676,-0.7155849933176751
1592293125.1800575,1.7444025022231762,9.230841740517004,0.3456217227315936,-0.5066666666666667,-0.4922222222222222,-0.10444444444444445,-0.1748828099004514,0.03914219690902265,-0.6818943077884979
1592293125.1900575,2.21,9.39,0.61,-0.5188888888888888,-0.5133333333333333,-0.1111111111111111,-0.14289883250703572,0.1090830782496456,-0.6228643768054763
1592293125.2000575,2.140421052631579,9.644523391812866,0.3786695906432749,-0.5188888888888888,-0.5133333333333333,-0.1111111111111111,-0.03371655882658417,0.07573172446573934,-0.5723837901726841
1592293125.2100575,1.79,9.81,0.33,-0.5188888888888888,-0.5133333333333333,-0.1111111111111111,0.009817477042468103,0.09272061651219875,-0.5214171140333059
1592293125.2200575,1.5812652933588711,9.630729976937811,0.6480047297033187,-0.5188888888888888,-0.5133333333333333,-0.1111111111111111,0.04259017739621834,0.08820334566145292,-0.47112211011237515
1592293125.2300575,1.7943986240863075,9.753691513895946,0.3119098620177462,-0.5188888888888888,-0.5133333333333333,-0.1111111111111111,0.050637991170838975,0.06227150127656418,-0.45144967644108025
1592293125.2400575,1.2,9.66,0.46,-0.5188888888888888,-0.5066666666666667,-0.11666666666666667,0.06326818538479445,0.044724062082354694,-0.4308781590861001
1592293125.2500575,1.8555659184318687,10.305633101485931,0.10241858994625358,-0.5188888888888888,-0.5066666666666667,-0.11666666666666667,0.03509712693281397,-0.03437160203282127,-0.43196166133425323
1592293125.2600574,1.7135276564253146,9.84567881782807,-0.28590823366516266,-0.5188888888888888,-0.5066666666666667,-0.11666666666666667,-0.012447538312486356,-0.11081839734735617,-0.4502899419373951
1592293125.2700574,1.892594965262113,9.71138698908238,-0.22416096724713525,-0.5188888888888888,-0.5066666666666667,-0.11666666666666667,-0.10808988385948304,-0.10843883553829407,-0.447477330020687
1592293125.2800574,1.6276838401154923,9.62812920689344,0.025612379319678802,-0.5188888888888888,-0.5066666666666667,-0.11666666666666667,-0.16175633713325682,-0.12330031490641608,-0.4392209525939526
1592293125.2900574,1.22,9.99,0.18,-0.4922222222222222,-0.5244444444444445,-0.11666666666666667,-0.24216443371421323,-0.15489797111449674,-0.4526947747360292
1592293125.3000574,1.3523962308231448,9.460415076707422,0.46244529242270854,-0.4922222222222222,-0.5244444444444445,-0.11666666666666667,-0.26623474772561195,-0.1722285972027038,-0.4594344626592209
1592293125.3100574,1.900405002977963,9.79664919594997,0.2831089934484812,-0.4922222222222222,-0.5244444444444445,-0.11666666666666667,-0.28342434467550115,-0.21202800815690284,-0.48653118915952026
1592293125.3200574,1.6741792193512919,10.096268279274327,0.7464167124793843,-0.4922222222222222,-0.5244444444444445,-0.11666666666666667,-0.2656742058409431,-0.20229207991262232,-0.49855848212847526
1592293125.3300574,1.7279818581638262,9.919488180318858,0.18533205057724023,-0.4922222222222222,-0.5244444444444445,-0.11666666666666667,-0.2312988835774246,-0.18049309506258623,-0.4851437222207608
1592293125.3400574,0.83,8.91,0.91,-0.48444444444444446,-0.5166666666666667,-0.11666666666666667,-0.17344209441693648,-0.15926129424448257,-0.4810563750809371
1592293125.3500574,2.7478664481769766,10.159519049569848,0.2416526013928718,-0.48444444444444446,-0.5166666666666667,-0.11666666666666667,-0.15336669673542982,-0.16137449400043063,-0.4852827745928332
1592293125.3600574,0.9276153809364388,8.885394806064374,0.5919448562819838,-0.48444444444444446,-0.5166666666666667,-0.11666666666666667,-0.09159970949716563,-0.1170708612948721,-0.4543814175110409
1592293125.3700573,2.48,10.55,0.62,-0.48444444444444446,-0.5166666666666667,-0.11666666666666667,-0.10690141668465267,-0.011999138607461015,-0.44724062082354693
1592293125.3800573,1.1207248671265406,9.751329865430284,0.5892819179011647,-0.48444444444444446,-0.5166666666666667,-0.11666666666666667,-0.05998989533892474,-0.10330906408396719,-0.5100685511972898
1592293125.3900573,1.51,9.11,0.75,-0.48333333333333334,-0.5244444444444445,-0.13111111111111112,-0.07853981633974483,-0.028361600344907853,-0.5661411761156606
1592293125.4000573,0.7548844161020327,10.345643682742129,0.9657473096851334,-0.48333333333333334,-0.5244444444444445,-0.13111111111111112,0.012388472591409044,-0.06045393761472687,-0.5511647520564117
1592293125.4100573,1.3944995244888254,10.316314788397527,-0.9896723728007608,-0.48333333333333334,-0.5244444444444445,-0.13111111111111112,0.00020496518483284574,0.0800773016095488,-0.43790602961891295
1592293125.4200573,0.4795825610444032,8.394466113304858,1.5349222338625192,-0.48333333333333334,-0.5244444444444445,-0.13111111111111112,0.008814552681318772,0.05509965699395568,-0.5357525416009096
1592293125.4300573,0.8767380530260294,9.408480135385608,0.49555786122975265,-0.48333333333333334,-0.5244444444444445,-0.13111111111111112,0.0576680848362706,-0.01218917031380816,-0.5873713680287831
1592293125.4400573,0.51,9.92,0.71,-0.49,-0.5577777777777778,-0.13333333333333333,0.09926560120717749,-0.015271630954950384,-0.5988660995905543
1592293125.4500573,0.8321037205894326,10.152630464870146,0.20894976797199383,-0.49,-0.5577777777777778,-0.13333333333333333,0.09633759576071424,-0.020151640032389142,-0.599842101406042
1592293125.4600573,0.8422965227359571,10.032392768437141,0.5479905426060375,-0.49,-0.5577777777777778,-0.13333333333333333,0.05486517761381194,-0.05452588213924102,-0.5999099594163054
1592293125.4700572,1.0,9.51,0.41,-0.49,-0.5577777777777778,-0.13333333333333333,0.002181661564992912,-0.053450708342326333,-0.5966844380255614
1592293125.4800572,0.9044972918684314,9.687362172244342,0.464572976075182,-0.49,-0.5577777777777778,-0.13333333333333333,-0.038001008916801644,-0.0489859671776825,-0.5892432027511549
1592293125.4900572,0.7443488900541864,9.779637592495483,0.6056511099458136,-0.476079033062078,-0.555636090556559,-0.11084561751053623,-0.04831281463923067,-0.02482846026456188,-0.571057954612073
1592293125.5000572,0.59,9.8,0.11,-0.47555555555555556,-0.5555555555555556,-0.11,-0.011999138607461015,0.009817477042468103,-0.5541420375081997
1592293125.5100572,0.5383998541269905,9.808600024312168,0.1960002431216824,-0.47555555555555556,-0.5555555555555556,-0.11,0.042411654642138946,0.032332288042302565,-0.5259985237584065
1592293125.5200572,0.023252097586162424,9.631147799148058,0.1603188330966826,-0.47555555555555556,-0.5555555555555556,-0.11,0.05777229631755136,0.07935241275716926,-0.48673311648547696
1592293125.5300572,0.2103662385612482,10.035562856065267,0.5159020981797249,-0.47555555555555556,-0.5555555555555556,-0.11,0.060522605641494864,0.09227065991176053,-0.4648419356399578
1592293125.5400572,-0.07396139543120239,9.786221592586033,0.6783531078448735,-0.4635569853543999,-0.5610094511015354,-0.12527090752874356,0.07929131188679141,0.06384705137467953,-0.4496218913505692
1592293125.5500572,0.1644685030053481,9.897344881442567,0.1519480335084481,-0.4633333333333333,-0.5611111111111111,-0.12555555555555556,0.05296327027933517,0.06326818538479445,-0.4440888070199586
1592293125.5600572,-0.007157394518312293,9.811421302740845,0.415578169250708,-0.4633333333333333,-0.5611111111111111,-0.12555555555555556,0.05880150220274468,0.017103208777238386,-0.44826254490466744
1592293125.5700572,0.1484418699479504,9.988247103691444,0.41009738312825306,-0.4633333333333333,-0.5611111111111111,-0.12555555555555556,0.036220495701771036,0.0012395507020884506,-0.44293041195055827
1592293125.5800571,0.40265594503864466,10.661532906550082,0.3967023186821766,-0.4633333333333333,-0.5611111111111111,-0.12555555555555556,0.036722691828248534,0.001090830782496456,-0.448679505740485
1592293125.5900571,-0.45,10.95,-0.49,-0.44222222222222224,-0.5811111111111111,-0.12555555555555556,0.04036073895236887,0.007635815477475192,-0.4374231437810788
1592293125.6000571,-0.5153286123488224,9.996202259707193,0.17635184595798858,-0.44222222222222224,-0.5811111111111111,-0.12555555555555556,0.05675110505777979,0.0796109014186275,-0.23860087667631155
1592293125.610057,-0.03734393543793024,9.953362212200332,0.53,-0.44222222222222224,-0.5811111111111111,-0.12555555555555556,0.007376895282246984,0.119960574571378,-0.012633752005965365
1592293125.620057,-0.4455762636653354,9.544423736334664,0.6418859171406672,-0.44222222222222224,-0.5811111111111111,-0.12555555555555556,-0.019608287278925766,0.07814615091636296,-0.028343822474234226
1592293125.630057,-0.21600888154100506,9.85215925256642,0.3289026875312392,-0.44222222222222224,-0.5811111111111111,-0.12555555555555556,-0.0005994767115080624,0.038950384377475576,-0.03194975795766923
1592293125.640057,-0.26975449783648375,9.62785606923252,0.5343534502391255,-0.4622222222222222,-0.56,-0.11666666666666667,0.006544984694978735,0.025456875223655733,-0.03469234398618016
1592293125.650057,-0.2602024595764063,9.933521293554998,0.3146565702573446,-0.4622222222222222,-0.56,-0.11666666666666667,0.006544984694978735,-0.002676199674470414,-0.026356618090439078
1592293125.660057,-0.29129095965499174,9.752254242070048,0.2395953407762686,-0.4622222222222222,-0.56,-0.11666666666666667,-0.005401615006953149,-0.00924579219845531,-0.022766624579362973
1592293125.670057,-0.18901876036726398,9.845129313365884,0.25414807373314957,-0.4622222222222222,-0.56,-0.11666666666666667,-0.013382867508856422,-0.023014483072064967,-0.016229150151267392
1592293125.680057,-0.11956125315851784,9.838475783224073,0.3608774936829643,-0.4622222222222222,-0.56,-0.11666666666666667,-0.012117545009257628,-0.01958709422889502,-0.00976961718642692
1592293125.690057,-0.01663945862983117,9.871352378959118,0.36131156690386496,-0.44755011394818844,-0.5689662883896873,-0.1117759639086554,-0.0045063928851897675,-0.0011579137554817102,-0.008145463429922433
1592293125.700057,-0.13577863320501923,9.84712393141029,0.3485752137179423,-0.44222222222222224,-0.5722222222222222,-0.11,-0.004987893691998117,0.020265305183015322,-0.018080753349989
1592293125.710057,-0.33537339570036173,9.84,0.2998933155141823,-0.44222222222222224,-0.5722222222222222,-0.11,-0.004543188681716155,0.018352620278594953,-0.022367849777234584
1592293125.720057,-0.40610763681656586,9.812919272387576,0.38929600124555624,-0.44222222222222224,-0.5722222222222222,-0.11,-0.009286738345324876,-0.0042097344275485345,-0.023892129475493386
1592293125.730057,-0.38915949726259114,9.851681005474818,0.4069468342458029,-0.44222222222222224,-0.5722222222222222,-0.11,-0.009059694978845864,-0.028520664540023697,-0.023240495151299792
1592293125.740057,-0.335164854749599,9.798263767599357,0.4369010871502406,-0.4661342996891028,-0.5851745975167825,-0.12394871185568031,-0.012639250786118623,-0.06654546020194152,-0.021929295300888833
1592293125.750057,-0.1311459129106188,9.806571173924116,0.4234288260758849,-0.4688888888888889,-0.5866666666666667,-0.12555555555555556,-0.007667065404399269,-0.09060096869107961,-0.02181661564992912
1592293125.760057,-0.0658120044760839,9.801937334825363,0.3232480179043356,-0.4688888888888889,-0.5866666666666667,-0.12555555555555556,-0.0003884823419580963,-0.08610727471573361,-0.024455116658366534
1592293125.770057,-0.08457307617755379,9.824573076177554,0.3409551269625896,-0.4688888888888889,-0.5866666666666667,-0.12555555555555556,0.011812857948538863,-0.07237844082234783,-0.024195605733581618
1592293125.780057,-0.09,9.842111003776235,0.35,-0.4688888888888889,-0.5866666666666667,-0.12555555555555556,0.015501905745058837,-0.06584985336195845,-0.02267717164231712
1592293125.790057,-0.15145233777497438,9.780866120003154,0.4344969644405898,-0.4535258044451453,-0.5738640962968803,-0.11872751802500285,0.01887624055124603,-0.05572684894339686,-0.019302836836129926
1592293125.800057,-0.0309925797436639,9.76,0.5468796376602101,-0.4488888888888889,-0.57,-0.11666666666666667,0.02437350324153098,-0.06008467716155903,-0.02612580195299139
1592293125.810057,-0.0019509075270714334,9.808294554837572,0.4231654279602144,-0.4488888888888889,-0.57,-0.11666666666666667,0.03913742454242809,-0.05845246446761223,-0.0263927497783483
1592293125.820057,0.0,9.827739996725988,0.37452000654802275,-0.4488888888888889,-0.57,-0.11666666666666667,0.05098542720249197,-0.06456845282041632,-0.02617993877991494
1592293125.830057,0.040097425067878126,9.841456407162251,0.37572820358112546,-0.4488888888888889,-0.57,-0.11666666666666667,0.06032405921649421,-0.07028977820910266,-0.024930238620975327
1592293125.840057,0.11959443387250239,9.821660323501428,0.3658301617507136,-0.4630587271381753,-0.5660639338196426,-0.1229643725552384,0.06467700216252148,-0.0653572145546039,-0.024771122002187892
1592293125.850057,0.14829595874805132,9.86807171123636,0.3019282887636407,-0.4688888888888889,-0.5644444444444444,-0.12555555555555556,0.06254911873275187,-0.0504130212777943,-0.025089107997418484
1592293125.8600569,0.1422779563338136,9.872277956333813,0.20505751967194946,-0.4688888888888889,-0.5644444444444444,-0.12555555555555556,0.05712328884138323,-0.04631186584287248,-0.0234044194104469
1592293125.8700569,0.11674581415842554,9.9010055811221,0.18,-0.4688888888888889,-0.5644444444444444,-0.12555555555555556,0.05478682384938983,-0.04158716257520404,-0.02121635431656673
1592293125.8800569,0.09851820045917384,9.881295501147934,0.18,-0.4688888888888889,-0.5644444444444444,-0.12555555555555556,0.05078412901154674,-0.03597709382021347,-0.018220844791915294
1592293125.8900568,0.04189442929489677,9.90123334631866,0.12502220490845345,-0.47117963035103666,-0.5644444444444444,-0.12937345799246852,0.034502973400924716,-0.02822706313192056,-0.017112105127942357
1592293125.9000568,-0.3221080182120559,9.91075383734562,0.03527686141934078,-0.4722222222222222,-0.5644444444444444,-0.13111111111111112,0.00617240288950106,-0.018111139705221563,-0.015436092751269951
1592293125.9100568,-0.35678139093282696,9.88965582720152,0.03,-0.4722222222222222,-0.5644444444444444,-0.13111111111111112,-0.012650581818655197,-0.02706984749091431,-0.014531895957183382
1592293125.9200568,-0.26834372612328394,9.888332388534247,0.06332955413698765,-0.4722222222222222,-0.5644444444444444,-0.13111111111111112,-0.030723933362797426,-0.04072331859727429,-0.0096361872200154
1592293125.9300568,-0.2716673035656545,9.89,0.09888973808753931,-0.4722222222222222,-0.5644444444444444,-0.13111111111111112,-0.03902768659572331,-0.03978494165199882,-0.007544878174816091
1592293125.9400568,-0.17036133804820552,9.873571922123318,0.17464211681502256,-0.4621828412975834,-0.5589684184855506,-0.11924638820017433,-0.06630644373545705,-0.02953050912634656,-0.0036621286079689375
1592293125.9500568,-0.09813830849746315,9.88569813431345,0.1852327114378171,-0.46,-0.5577777777777778,-0.11666666666666667,-0.07837517414821146,-0.020370396547698788,-0.00783889451732312
1592293125.9600568,-0.07428095555344057,9.89285952222328,0.14001665556295803,-0.46,-0.5577777777777778,-0.11666666666666667,-0.09863811655414537,0.0032670418272570407,-0.02134600216015502
1592293125.9700568,-0.20748207227889143,9.840423638558208,0.2474820722788914,-0.46,-0.5577777777777778,-0.11666666666666667,-0.1167624980437761,0.02063336127144333,-0.03358730274875616
1592293125.9800568,-0.2758016896398399,9.82,0.3263361493997332,-0.46,-0.5577777777777778,-0.11666666666666667,-0.12504587588536853,0.025089107997418484,-0.04053564049979805
1592293125.9900568,-0.3688464175522797,9.813429465203978,0.3828526739801166,-0.4731410695920466,-0.5658084314173618,-0.1319979145240544,-0.12762720155208535,0.029389512965198268,-0.04434996546115487
1592293126.0000567,-0.43899406229382965,9.81,0.3913017813118511,-0.48,-0.57,-0.14,-0.12731092539548805,0.031634092692397225,-0.041245024359784485
1592293126.0100567,-0.47410247845547465,9.79564099138219,0.35564099138218985,-0.48,-0.57,-0.14,-0.1265363707695889,0.030067767831753304,-0.017844837298776447
1592293126.0200567,-0.4182051175714345,9.79,0.37089744121428275,-0.48,-0.57,-0.14,-0.1256245478835109,0.02945243112740431,-0.006072289847954082
1592293126.0300567,-0.32448137306594427,9.79,0.4405927164960637,-0.48,-0.57,-0.14,-0.12324771458711953,0.033880409597310104,0.00550264541742226
1592293126.0400567,-0.2368102041628527,9.795909977315238,0.5272798185219087,-0.4648967246388347,-0.5745966490229633,-0.12752338122338522,-0.11508158394235325,0.04462586256669397,0.004858575152380839
1592293126.0500567,-0.2521852340145023,9.792544966569356,0.5823651002919296,-0.45444444444444443,-0.5777777777777777,-0.11888888888888889,-0.10285494707652487,0.050713821202477666,-0.0051373003906242595
1592293126.0600567,-0.3203898356031354,9.768404356170084,0.5540072602834748,-0.45444444444444443,-0.5777777777777777,-0.11888888888888889,-0.09328927407242361,0.044987128628666474,-0.010776774551808671
1592293126.0700567,-0.3675538106235566,9.76,0.6088845265588915,-0.45444444444444443,-0.5777777777777777,-0.11888888888888889,-0.07851633702590449,0.03653109155671111,-0.01275055222754235
1592293126.0800567,-0.38499648999649,9.75000702000702,0.64999297999298,-0.45444444444444443,-0.5777777777777777,-0.11888888888888889,-0.06273004475130944,0.029455494183304613,-0.01254493688069678
1592293126.0900567,-0.3960689437065149,9.75213788741303,0.66,-0.4503984819734345,-0.5730574882282662,-0.12428350551690209,-0.0417675725801426,0.021116993630035753,-0.008689043301308739
1592293126.1000566,-0.38044476850164055,9.756740794750273,0.6567407947502735,-0.4477777777777778,-0.57,-0.12777777777777777,-0.028507150496710154,0.014988881889563951,-0.005833936412403576
1592293126.1100566,-0.34,9.782415137107476,0.5333055064130915,-0.4477777777777778,-0.57,-0.12777777777777777,-0.005370990729760994,0.002685495364880497,-0.004363323129985824
1592293126.1200566,-0.3535695544152135,9.806784777207607,0.47,-0.4477777777777778,-0.57,-0.12777777777777777,0.008141148213481572,0.0007401043830437793,-0.006583636279117162
1592293126.1300566,-0.340639804303261,9.805159951075815,0.4845201467725542,-0.4477777777777778,-0.57,-0.12777777777777777,0.011999138607461015,-0.0031329087017352006,-0.006579880606417277
1592293126.1400566,-0.3153833121558662,9.809233375688269,0.4907666243117323,-0.4477777777777778,-0.5735907572121041,-0.130855569673867,0.014013548692884372,-0.011664635648321906,-0.00545415391248228
