time,acc_x,acc_y,acc_z,mag_x,mag_y,mag_z,gyr_x,gyr_y,gyr_z
1592293137.6000457,-0.38644966152959814,9.771183446156801,0.3447337846272025,-0.48444444444444446,-0.5755555555555556,-0.09333333333333334,0.042542400517361786,-0.01854412330243975,-0.01090830782496456
1592293137.6100457,-0.3792610094111107,9.77,0.25945757058333,-0.48444444444444446,-0.5755555555555556,-0.09333333333333334,0.05601398525075704,-0.02381561298072485,-0.009736865674234537
1592293137.6200457,-0.34616966580976866,9.809717223650386,0.18205655526992287,-0.48444444444444446,-0.5755555555555556,-0.09333333333333334,0.07196398553009396,-0.02576211413571964,-0.010459637066097122
1592293137.6300457,-0.30712520243695535,9.826574959512609,0.19972487853782678,-0.48444444444444446,-0.5755555555555556,-0.09333333333333334,0.07021679513525386,-0.025089107997418484,-0.008039440532955872
1592293137.6400456,-0.2169056096741686,9.838121598925092,0.2424863957003695,-0.47451804575822043,-0.5701411562721607,-0.10506453178068899,0.06960826830833482,-0.014457959864721417,-0.009202771728153003
1592293137.6500456,-0.21962959927886586,9.835092600180284,0.2696295992788659,-0.4722222222222222,-0.5688888888888889,-0.10777777777777778,0.07195442719391888,0.002454346913022532,-0.011958734156613814
1592293137.6600456,-0.2630110712615001,9.837670357087166,0.15193357243099953,-0.4722222222222222,-0.5688888888888889,-0.10777777777777778,0.07668661169678538,0.03335070960444372,-0.014180800172453926
1592293137.6700456,-0.33344708174013415,9.855861770435032,0.09413822956496645,-0.4722222222222222,-0.5688888888888889,-0.10777777777777778,0.08004436167556239,0.05375133409726007,-0.014180800172453926
1592293137.6800456,-0.33761805723199195,9.872381942768008,0.11476388553601605,-0.4722222222222222,-0.5688888888888889,-0.10777777777777778,0.07599416639327936,0.05848936168823479,-0.013505469956531301
1592293137.6900456,-0.29207842304561704,9.90275294617263,0.14516863078175318,-0.4814919410332936,-0.5790013094100577,-0.10777777777777778,0.06646709867323868,0.06883270788584442,-0.01308996938995747
1592293137.7000456,-0.25112506444722693,9.893500036826987,0.17062495396626648,-0.48444444444444446,-0.5822222222222222,-0.10777777777777778,0.0589594158455367,0.07964426543391788,-0.015789769550834575
1592293137.7100456,-0.2970613851436228,9.88451023085727,0.09117326857047148,-0.48444444444444446,-0.5822222222222222,-0.10777777777777778,0.04256353321320112,0.11348985434355467,-0.020426364408948235
1592293137.7200456,-0.34530651158356374,9.851733721041091,0.12653255791781867,-0.48444444444444446,-0.5822222222222222,-0.10777777777777778,0.03175634186627696,0.1313562953439975,-0.019056103466633674
1592293137.7300456,-0.26534803986210276,9.882325980068948,0.21651225439406213,-0.48444444444444446,-0.5822222222222222,-0.10777777777777778,0.030771587754791187,0.13549134287445094,-0.015246231733972562
1592293137.7400455,-0.1196081619110816,9.937812873258128,0.11398241539482415,-0.4720831674408317,-0.5775867433458675,-0.09773424021234241,0.02329082965999641,0.14166319701449387,-0.014606926304939438
1592293137.7500455,-0.1776234820829919,9.990676450867912,-0.1371116739924011,-0.4666666666666667,-0.5755555555555556,-0.09333333333333334,-0.009649988236483952,0.159963268192125,-0.017933898438715852
1592293137.7600455,-0.10086616373288629,9.970259849119866,-0.23948030176026824,-0.4666666666666667,-0.5755555555555556,-0.09333333333333334,-0.03312388896645217,0.16092116136979012,-0.021788270508053684
1592293137.7700455,0.1085739991003149,10.03306342780027,-0.15264957264957263,-0.4666666666666667,-0.5755555555555556,-0.09333333333333334,-0.0670976246230321,0.17424390165877152,-0.03777866446856484
1592293137.7800455,0.15975284348065646,10.106089968121532,-0.09024715651934354,-0.4666666666666667,-0.5755555555555556,-0.09333333333333334,-0.08851420575617587,0.1803327156434544,-0.06371681310241765
1592293137.7900455,0.12656104599799753,10.166199128335002,-0.05828052299899876,-0.47631976755600053,-0.5860130815190006,-0.1142483852602234,-0.12630441102283094,0.19687275928935566,-0.1115954776006266
1592293137.8000455,0.2571757794848622,10.149015625371609,0.06619140485647015,-0.48,-0.59,-0.12222222222222222,-0.16110377532929,0.23838317064644562,-0.15924424960814465
1592293137.8100455,0.2534926584696192,10.147751223588397,0.26277569535633283,-0.48,-0.59,-0.12222222222222222,-0.18743506907659668,0.28083945691968826,-0.2181193563819187
1592293137.8200455,0.11693995790668528,10.103852484215007,0.3176912526308322,-0.48,-0.59,-0.12222222222222222,-0.1947550195270064,0.321203452109031,-0.2885589860137246
1592293137.8300455,0.1289513414842844,10.028810823144644,0.3567135061132133,-0.48,-0.59,-0.12222222222222222,-0.18391171366306058,0.34587354576039764,-0.34147601944050604
1592293137.8400455,0.051882301744049814,9.953960767248017,0.3655843068992066,-0.48,-0.5795886660938715,-0.10139955440996515,-0.16020325088979032,0.3603283596294548,-0.39500139083528235
1592293137.8500454,-0.016270055088664602,9.945837790019704,0.3337299449113354,-0.48,-0.5755555555555556,-0.09333333333333334,-0.14839430543504384,0.363429427999872,-0.4196159639816639
1592293137.8600454,-0.08638091991398751,9.979142759741963,0.1679052813761997,-0.48,-0.5755555555555556,-0.09333333333333334,-0.13595906741584274,0.36512704214624475,-0.47835512862232515
1592293137.8700454,-0.14842528675974465,9.99,0.10269683915503193,-0.48,-0.5755555555555556,-0.09333333333333334,-0.144320360471271,0.3643374813538163,-0.5244190925759078
1592293137.8800454,-0.26023336955900017,10.0321089057942,0.03984442029399989,-0.48,-0.5755555555555556,-0.09333333333333334,-0.15841748051099963,0.36761845925792747,-0.5572523683728938
1592293137.8900454,-0.27663656032143963,9.980500360589305,0.05059067962498713,-0.46554552010714656,-0.5859949021448386,-0.11421202651189945,-0.18393877929337704,0.3674265265244835,-0.5913045695432687
1592293137.9000454,-0.28827358148163085,9.95,0.06371698189297093,-0.46,-0.59,-0.12222222222222222,-0.19637835458338374,0.36274960266183776,-0.6077759220161232
1592293137.9100454,-0.41851867117302777,9.943148132882696,0.015740664413486115,-0.46,-0.59,-0.12222222222222222,-0.2277816711365588,0.3627416546373902,-0.6474081143721109
1592293137.9200454,-0.5064941968996023,9.973231880529177,0.009969564158753347,-0.46,-0.59,-0.12222222222222222,-0.24541036577968414,0.3686941644132975,-0.6679177421177227
1592293137.9300454,-0.6250047121652399,10.034995287834759,0.09506125814811905,-0.46,-0.59,-0.12222222222222222,-0.2743547361651401,0.369788551161361,-0.7172464263484098
1592293137.9400454,-0.5688330800311376,9.987183156021796,0.2089335359750899,-0.44368882134163673,-0.5974759568850831,-0.14057229821288095,-0.29046825815614874,0.36852082569398514,-0.7806441112074757
1592293137.9500453,-0.5234009209744505,9.95340092097445,0.22020276292335114,-0.43333333333333335,-0.6022222222222222,-0.15222222222222223,-0.29595294797956534,0.3647527002902612,-0.8240980266040375
1592293137.9600453,-0.5280668245728972,10.024311848006853,0.1017104268507786,-0.43333333333333335,-0.6022222222222222,-0.15222222222222223,-0.30632472220530976,0.33678294076387644,-0.9024737224532411
1592293137.9700453,-0.47232819041347196,10.104607930758737,0.1299757749658968,-0.43333333333333335,-0.6022222222222222,-0.15222222222222223,-0.3232174864115796,0.3089617201648405,-0.9748526469701682
1592293137.9800453,-0.3524787878787879,10.13824028520499,0.2620812834224599,-0.43333333333333335,-0.6022222222222222,-0.15222222222222223,-0.3400688103267482,0.2914262351853593,-1.0514132524495654
1592293137.9900453,-0.2285706987345752,10.119590898373026,0.3689798003615499,-0.4063939322486835,-0.6141952893709555,-0.15222222222222223,-0.3555441746416407,0.2854638054630976,-1.1600886345711807
1592293138.0000453,-0.2479956381763423,10.041002180911828,0.44524509294838505,-0.37333333333333335,-0.6288888888888889,-0.15222222222222223,-0.37401771242131354,0.30725839273137906,-1.308827010013117
1592293138.0100453,-0.3586042367847951,10.056581271035437,0.47590694911898634,-0.37333333333333335,-0.6288888888888889,-0.15222222222222223,-0.38721698213127154,0.32479101054286985,-1.3796140973624096
1592293138.0200453,-0.7646763053935663,9.964258955685148,0.6846763053935664,-0.37333333333333335,-0.6288888888888889,-0.15222222222222223,-0.4171729319373338,0.37422402392324045,-1.5844639138177665
1592293138.0300453,-0.9687387306328841,9.744883842291843,0.8731484047434813,-0.37333333333333335,-0.6288888888888889,-0.15222222222222223,-0.4096801474072997,0.39688189197351864,-1.7464443840942168
1592293138.0400453,-1.2578373670360623,9.501297579778361,0.966957488603091,-0.35511973446334666,-0.6339133299564714,-0.15724666328980477,-0.36794024302646827,0.40578905108868163,-1.936419832994361
1592293138.0500453,-1.5972541900465764,9.311612205229764,0.9292192026992335,-0.3411111111111111,-0.6377777777777778,-0.16111111111111112,-0.3266997187908786,0.39782627041571944,-2.045714333386279
1592293138.0600452,-2.202084292017432,9.07473946349782,0.7442183904934628,-0.3411111111111111,-0.6377777777777778,-0.16111111111111112,-0.2590466072401645,0.35590046937220615,-2.1629983281540355
1592293138.0700452,-2.375128536310987,9.04091704512312,0.7148422982375734,-0.3411111111111111,-0.6377777777777778,-0.16111111111111112,-0.23823247073408257,0.3351851525411832,-2.195210936805663
1592293138.0800452,-2.697112820852955,8.908897658685415,0.7954593088810771,-0.3411111111111111,-0.6377777777777778,-0.16111111111111112,-0.21862138680263188,0.2903156014877062,-2.234737207554482
1592293138.0900452,-2.9412699468085104,8.736630500483558,0.7722654738878143,-0.29337658499892544,-0.6576671636578552,-0.1823264560498603,-0.20403965390598292,0.24274917941020993,-2.2503477059040913
1592293138.1000452,-3.0838613300990496,8.654428138265615,0.7214271275520517,-0.2611111111111111,-0.6711111111111111,-0.19666666666666666,-0.19500918831358624,0.2202539717774374,-2.252721241321614
1592293138.1100452,-3.4458637563228502,8.63,0.5500973169122498,-0.2611111111111111,-0.6711111111111111,-0.19666666666666666,-0.18761935604660576,0.18567567647770622,-2.230763104376391
1592293138.1200452,-3.6054656198146424,8.60423125177061,0.558103120320531,-0.2611111111111111,-0.6711111111111111,-0.19666666666666666,-0.19462330080495815,0.16899798208738903,-2.2176051213489205
1592293138.1300452,-3.9447937849377173,8.370155376557067,0.9750508385052159,-0.2611111111111111,-0.6711111111111111,-0.19666666666666666,-0.2222595447439742,0.11452614092084275,-2.176584273213966
1592293138.1400452,-4.108692121738053,8.319346060869027,1.0263215149073328,-0.2277353870947747,-0.6824462626638291,-0.197926127950302,-0.2191826785338819,0.06562818118327365,-2.1186787143816956
1592293138.1500452,-4.210464763425834,8.36161389498902,0.9975791575164703,-0.20222222222222222,-0.6911111111111111,-0.1988888888888889,-0.2111197685714077,0.041315635102317054,-2.084943093951084
1592293138.1600451,-4.2440302295414805,8.331533472449383,0.9869330551012352,-0.20222222222222222,-0.6911111111111111,-0.1988888888888889,-0.21334105592565197,-0.027060613454295224,-1.9748047109066125
1592293138.1700451,-4.367869841525219,8.450982221864693,0.7981972488134503,-0.20222222222222222,-0.6911111111111111,-0.1988888888888889,-0.22315514317035978,-0.03703445533549889,-1.9186646413809776
1592293138.1800451,-4.377699369538768,8.50607056741511,0.7391799579692512,-0.20222222222222222,-0.6911111111111111,-0.1988888888888889,-0.275514295483656,-0.0491234124296454,-1.7878380866314025
1592293138.190045,-4.67879012032128,8.36555160481285,0.7833096288771072,-0.1467061740937102,-0.7028311657160192,-0.1988888888888889,-0.3262632309380463,-0.03236777760169497,-1.6659819528343216
1592293138.200045,-4.93446434969545,8.248237190970977,0.9131888212110355,-0.10222222222222223,-0.7122222222222222,-0.1988888888888889,-0.35415769684614784,-0.0246388618270724,-1.5998477574268364
1592293138.210045,-5.64487684729064,7.906195949644226,1.344417077175698,-0.10222222222222223,-0.7122222222222222,-0.1988888888888889,-0.3974003414586459,-0.03354468848002101,-1.4696135621270754
1592293138.220045,-5.76558265252205,7.967620615372109,1.402379384627891,-0.10222222222222223,-0.7122222222222222,-0.1988888888888889,-0.4005678453911014,-0.049246423135228576,-1.4196048215961155
1592293138.230045,-5.966038041548296,7.625293634588068,1.8160380415482953,-0.10222222222222223,-0.7122222222222222,-0.1988888888888889,-0.3690147911763224,-0.14238905505328384,-1.2808275220393215
1592293138.240045,-6.31421412033645,7.55979719234489,1.5374083409044283,-0.08011267091950543,-0.7061420956139751,-0.21049640332281522,-0.3121656483021381,-0.20061331100444407,-1.1185771940500746
1592293138.250045,-6.417737992084494,7.47805531486382,1.4142202758717595,-0.057777777777777775,-0.7,-0.2222222222222222,-0.266654722846207,-0.26405472342275266,-0.894436255510751
1592293138.260045,-6.362484698338677,7.757821334887788,1.442301078402798,-0.057777777777777775,-0.7,-0.2222222222222222,-0.23013858866964065,-0.31153700057060846,-0.6567361933852157
1592293138.270045,-6.3145560397171225,7.848687525299426,1.28,-0.057777777777777775,-0.7,-0.2222222222222222,-0.2006160068707942,-0.3344849204979943,-0.40786564775582
1592293138.280045,-6.154977111132755,7.696244277783189,1.4102006428362717,-0.057777777777777775,-0.7,-0.2222222222222222,-0.1936806337434586,-0.3640879087904498,-0.23182783724023856
1592293138.290045,-5.902467309344278,7.601345805096879,1.7699532308867043,-0.03170924670972394,-0.7032585663835067,-0.2243945998112267,-0.18238894752094556,-0.39470947127391015,-0.09724094764256681
1592293138.300045,-5.7560886147853605,7.543508074332549,1.964919256674511,-0.0044444444444444444,-0.7066666666666667,-0.22666666666666666,-0.16508050424290296,-0.40149610128273083,-0.031176621826216774
1592293138.310045,-5.772852276568635,7.795627844085602,1.7262357958239072,-0.0044444444444444444,-0.7066666666666667,-0.22666666666666666,-0.11189103785342265,-0.3874937734698584,0.07194927753922772
1592293138.320045,-5.827904789189705,7.915252112877811,1.7387002817170414,-0.0044444444444444444,-0.7066666666666667,-0.22666666666666666,-0.10543444903084848,-0.3651505651493643,0.12657395060101567
1592293138.330045,-5.670401586113415,7.643634101438427,1.8883738291286492,-0.0044444444444444444,-0.7066666666666667,-0.22666666666666666,-0.09874208894064608,-0.33453892568428745,0.17492069326431886
1592293138.340045,-5.740733443142617,7.61678776766013,1.9641290362681418,-0.00164119989088134,-0.7004995286488278,-0.22666666666666666,-0.07285564449957388,-0.28883013865440743,0.25899693208650215
1592293138.350045,-5.820073694328741,7.809963152835629,1.8701473886574818,0.0011111111111111111,-0.6944444444444444,-0.22666666666666666,-0.04799856413090121,-0.26282992754993145,0.30998485412836524
1592293138.360045,-5.714411572327044,7.832820125786164,1.9157438993710691,0.0011111111111111111,-0.6944444444444444,-0.22666666666666666,-0.03881129272239868,-0.21334987103230194,0.46137902266747366
1592293138.370045,-5.569035320538996,7.875289403838301,1.717990506329114,0.0011111111111111111,-0.6944444444444444,-0.22666666666666666,-0.021344861402272295,-0.17698818529776536,0.5755464736826887
1592293138.380045,-5.436821979376212,7.832125083818119,1.6834460573769008,0.0011111111111111111,-0.6944444444444444,-0.22666666666666666,-0.01528137704632157,-0.14906791065551722,0.653068621025875
1592293138.390045,-5.372783025830259,7.918959409594096,1.902239852398524,-0.0006799917999179993,-0.697310209102091,-0.22272624026240262,-0.002855400518403453,-0.12344279882166397,0.7131109005484446
1592293138.400045,-5.82,8.19,1.97,-0.0044444444444444444,-0.7033333333333334,-0.21444444444444444,0.016362461737446838,-0.11235557059713495,0.7537640707050511
1592293138.410045,-5.021199181794937,7.800535242478479,1.9986224040455693,-0.0044444444444444444,-0.7033333333333334,-0.21444444444444444,0.05134689464021678,-0.11278692585329474,0.8062212580934851
1592293138.420045,-4.97,7.92,2.01,-0.0044444444444444444,-0.7033333333333334,-0.21444444444444444,0.06872233929727672,-0.10471975511965977,0.8279405639148101
1592293138.430045,-5.253478319809439,7.963964211708658,2.0480178941456706,-0.0044444444444444444,-0.7033333333333334,-0.21444444444444444,0.09791856662256014,-0.12553527891778254,0.8812215541382183
1592293138.4400449,-4.776806776667068,7.875264362278695,2.0539463647677545,-0.008103630548529982,-0.7015037402812906,-0.2202381557759132,0.14417845334546947,-0.12825041456206998,0.9179424021753839
1592293138.4500449,-5.35,8.18,1.8,-0.017777777777777778,-0.6966666666666667,-0.23555555555555555,0.18216874067690814,-0.09817477042468103,0.9424777960769379
1592293138.4600449,-4.738825155900694,7.9861969055182955,1.5527164960583597,-0.017777777777777778,-0.6966666666666667,-0.23555555555555555,0.18592979019272,-0.08187157343765397,0.9785441027597169
1592293138.4700449,-4.8022565717284476,8.15958971423119,1.3848461428366967,-0.017777777777777778,-0.6966666666666667,-0.23555555555555555,0.19525871006686563,-0.04878528737863068,1.023996437567682
1592293138.4800448,-4.774690560125342,8.274733646690168,1.449253819036428,-0.017777777777777778,-0.6966666666666667,-0.23555555555555555,0.18332003074484263,-0.03404370499082603,1.0491117391737164
1592293138.4900448,-4.372507190106414,8.422190825424217,1.5574352890422778,-0.03226376505927843,-0.6958309366311954,-0.23332694212763236,0.15213795276275313,-0.06601879190925164,1.054298931747992
1592293138.5000448,-4.38,8.1,1.49,-0.07555555555555556,-0.6933333333333334,-0.22666666666666666,0.11780972450961724,-0.09053895494720585,1.0657416744990376
1592293138.5100448,-4.538100862983457,8.634779953553714,1.333534218297543,-0.07555555555555556,-0.6933333333333334,-0.22666666666666666,0.12772875055150523,-0.0392891108448474,1.2550000803063714
1592293138.5200448,-4.010557803260635,8.606631634387494,1.8330315290512555,-0.07555555555555556,-0.6933333333333334,-0.22666666666666666,0.13645261303241088,-0.05808387309629856,1.3793383280369422
1592293138.5300448,-3.899763635028995,8.75855795346106,1.680236364971005,-0.07555555555555556,-0.6933333333333334,-0.22666666666666666,0.17056416043990527,-0.06531832749296798,1.4630826123143812
1592293138.5400448,-3.875640050697085,8.893700887198985,1.5376045627376427,-0.0777538374876778,-0.6967877763695255,-0.23074919025489365,0.17763951172448939,-0.06049341050460384,1.5403263399565703
1592293138.5500448,-3.56,9.03,1.43,-0.08333333333333333,-0.7055555555555556,-0.2411111111111111,0.17998707911191522,-0.053450708342326333,1.595885434792315
1592293138.5600448,-3.1994893855046214,9.033863836134566,1.3391489758410355,-0.08333333333333333,-0.7055555555555556,-0.2411111111111111,0.1694194761255505,-0.033035003812394735,1.6339094720109404
1592293138.5700448,-3.1053438787907663,9.11243466660314,1.5066162422278868,-0.08333333333333333,-0.7055555555555556,-0.2411111111111111,0.20156137165521976,0.007884141440682094,1.6312594110810756
1592293138.5800447,-2.9646491399704726,9.254293744107864,1.665238442519433,-0.08333333333333333,-0.7055555555555556,-0.2411111111111111,0.2346245478581945,0.03361677402518214,1.5833413755762409
1592293138.5900447,-2.686359462612426,9.359101343468936,1.270149776088511,-0.09099461859782486,-0.7031477230438583,-0.23563876449361718,0.27594751189803746,0.04488994652114851,1.494648062427359
1592293138.6000447,-2.59,9.6,1.23,-0.12222222222222222,-0.6933333333333334,-0.21333333333333335,0.284706834231575,0.05890486225480862,1.3799009398580167
1592293138.6100447,-2.4830543557982234,10.062991606226062,1.1208890880938798,-0.12222222222222222,-0.6933333333333334,-0.21333333333333335,0.23978080266524737,0.008587436659662833,1.1085464931135331
1592293138.6200447,-2.2044060803474483,9.86559391965255,0.9404972855591748,-0.12222222222222222,-0.6933333333333334,-0.21333333333333335,0.1528338018552841,-0.02103917664272969,0.8690545801502058
1592293138.6300447,-2.21,9.86,1.03,-0.12222222222222222,-0.6933333333333334,-0.21333333333333335,0.10035643198967394,-0.028361600344907853,0.7592182246175333
1592293138.6400447,-2.2068686713715864,10.170242405645904,1.0302424056459036,-0.1310572431897992,-0.6933333333333334,-0.2120448927755617,0.037141131312960034,0.011390922625367162,0.5692175264445728
1592293138.6500447,-2.04,9.97,0.83,-0.17555555555555555,-0.6933333333333334,-0.20555555555555555,-0.006544984694978735,0.06326818538479445,0.4308781590861001
1592293138.6600447,-2.120876708428246,9.75917596810934,0.9625774487471526,-0.17555555555555555,-0.6933333333333334,-0.20555555555555555,-0.06336381943887492,0.09216405054432991,0.15897945487886828
1592293138.6700447,-2.21,9.91,0.99,-0.17555555555555555,-0.6933333333333334,-0.20555555555555555,-0.07308566242726255,0.11235557059713495,0.01090830782496456
1592293138.6800447,-2.3198417132216016,10.380197951582868,1.0927309124767226,-0.17555555555555555,-0.6933333333333334,-0.20555555555555555,-0.1443033837849675,0.10035643198967394,-0.2467637581855593
1592293138.6900446,-1.9311840971566898,9.390485783448899,0.43276289336560947,-0.17553531457851812,-0.693343453821852,-0.20553531457851812,-0.1649936496152998,0.10030344123570538,-0.3986698954623999
1592293138.7000446,-2.32,9.55,1.34,-0.1688888888888889,-0.6966666666666667,-0.1988888888888889,-0.25634523388666713,0.08290313946973066,-0.5683228376806535
1592293138.7100446,-2.1772333132232764,9.587233313223276,1.4459927055339221,-0.1688888888888889,-0.6966666666666667,-0.1988888888888889,-0.2903518072512131,0.07682642288941213,-0.7762573328832549
1592293138.7200446,-2.1442834252321035,9.389908572505773,1.134146283990763,-0.1688888888888889,-0.6966666666666667,-0.1988888888888889,-0.3132895926907342,0.0951383959802034,-0.9620461765314801
1592293138.7300446,-2.4303889395320573,9.205990133519224,1.0528430478846051,-0.1688888888888889,-0.6966666666666667,-0.1988888888888889,-0.32008130255899386,0.12332751850421417,-1.1096904155442326
1592293138.7400446,-2.64925243557511,8.91987979258328,0.6892787554996858,-0.1669129303722327,-0.6966666666666667,-0.20031597003980725,-0.3326902760663749,0.16587471297307407,-1.2412765133740498
1592293138.7500446,-2.46,9.01,1.23,-0.14888888888888888,-0.6966666666666667,-0.21333333333333335,-0.3425208657038872,0.19634954084936207,-1.3897184169004848
1592293138.7600446,-2.9494932767162068,9.014029723991507,0.9504203821656051,-0.14888888888888888,-0.6966666666666667,-0.21333333333333335,-0.34972251045802477,0.2677740216221477,-1.5417686480358783
1592293138.7700446,-3.2924507501318123,8.956914873220533,1.333938791161386,-0.14888888888888888,-0.6966666666666667,-0.21333333333333335,-0.3623038136789569,0.31292044068634933,-1.6361888689209472
1592293138.7800446,-3.4154529459983607,8.513298478517303,1.3988849791071036,-0.14888888888888888,-0.6966666666666667,-0.21333333333333335,-0.35204821495181443,0.32939035301015973,-1.692308032237878
1592293138.7900445,-3.630080849667353,8.633802619409888,1.7898383006652945,-0.13192020446115138,-0.6994947807379562,-0.20999101670362746,-0.34275563563332806,0.3457933580513765,-1.724197485026845
1592293138.8000445,-3.73,8.58,1.59,-0.07555555555555556,-0.7088888888888889,-0.1988888888888889,-0.3217950808364545,0.3457933580513765,-1.7409659288643438
1592293138.8100445,-4.03747597693786,8.478942985265855,1.5954580397181295,-0.07555555555555556,-0.7088888888888889,-0.1988888888888889,-0.31195663971744897,0.32288591161895097,-1.7669124675921422
1592293138.8200445,-4.223060770341611,8.164300797803083,1.1673615681446936,-0.07555555555555556,-0.7088888888888889,-0.1988888888888889,-0.3179124194652956,0.3209359428117185,-1.7814849688203989
1592293138.8300445,-4.598800996089571,8.282163187486624,1.4996786054746016,-0.07555555555555556,-0.7088888888888889,-0.1988888888888889,-0.3453659262350644,0.3193167784925325,-1.7775215675404221
1592293138.8400445,-4.68777615215801,8.412231163130944,1.396444769568398,-0.06864260749410712,-0.7124441193204909,-0.20382670893278063,-0.3682635146017187,0.31486307863634716,-1.7559710364240095
1592293138.8500445,-4.77,7.96,1.38,-0.03666666666666667,-0.7288888888888889,-0.22666666666666666,-0.4166973589136462,0.27270769562411395,-1.7496925751243153
1592293138.8600445,-4.893441196572209,7.99344119657221,1.9265588034277903,-0.03666666666666667,-0.7288888888888889,-0.22666666666666666,-0.4346314347712194,0.1942384756091288,-1.748801117309347
1592293138.8700445,-4.895348970251716,7.930775171624714,1.9338758581235698,-0.03666666666666667,-0.7288888888888889,-0.22666666666666666,-0.4457354241145186,0.1522173855159764,-1.7449148860677974
1592293138.8800445,-5.095126906613612,7.7493838548260685,1.8714493277868212,-0.03666666666666667,-0.7288888888888889,-0.22666666666666666,-0.42223648017230225,0.13607125904540918,-1.7197204095256944
1592293138.8900445,-5.386696298984035,7.299203555878084,1.9853982220609578,-0.02865616432833414,-0.7268436542493146,-0.23143888082567327,-0.3993502403259978,0.13258581114682977,-1.6944945980993582
1592293138.9000444,-5.81,7.35,1.96,0.015555555555555555,-0.7155555555555555,-0.2577777777777778,-0.35779249665883756,0.11780972450961724,-1.6667894356545847
1592293138.9100444,-6.055404509644118,6.976089649551752,2.109763107851127,0.015555555555555555,-0.7155555555555555,-0.2577777777777778,-0.2772109509180484,0.10899204233104115,-1.5710368370538135
1592293138.9200444,-6.743052888026869,7.038758928993803,2.3683166185723072,0.015555555555555555,-0.7155555555555555,-0.2577777777777778,-0.24788934731806023,0.1129780031104266,-1.4245222866429326
1592293138.9300444,-7.4626726381407735,7.0656412273800155,1.94921079707075,0.015555555555555555,-0.7155555555555555,-0.2577777777777778,-0.2193430759666739,0.023641180821862465,-1.2941772736364494
1592293138.9400444,-7.39953178334514,6.898413730920332,2.170559026212404,0.02519296136479108,-0.715887879893805,-0.2577777777777778,-0.1927507898457309,-0.04197222066093483,-1.1192502719741504
1592293138.9500444,-7.34,7.06,2.06,0.08,-0.7177777777777777,-0.2577777777777778,-0.1908953869368798,-0.08835729338221293,-0.9086620418195479
1592293138.9600444,-6.76351909523029,6.943310932633994,2.591927552860187,0.08,-0.7177777777777777,-0.2577777777777778,-0.21198233852790577,-0.18674304238800293,-0.6225325325287491
1592293138.9700444,-7.015587762436164,6.988097692453187,2.058480943824475,0.08,-0.7177777777777777,-0.2577777777777778,-0.20673907476686693,-0.2543710818846581,-0.4319516587194137
1592293138.9800444,-6.816220402921583,6.776704390400513,2.31,0.08,-0.7177777777777777,-0.2577777777777778,-0.1567998988043732,-0.26858365658824185,-0.3215018637010038
1592293138.9900444,-6.897011647156202,6.606482795317488,2.348896771904931,0.0814406211816641,-0.7154967942401429,-0.2584980883686098,-0.12403617939291631,-0.25781973218276605,-0.28786146603424867
1592293139.0000443,-7.10078860234109,6.566687497085296,2.5739430117054516,0.09333333333333334,-0.6966666666666667,-0.2644444444444444,-0.014913701309581494,-0.2355161805172307,-0.27132089629745093
1592293139.0100443,-7.352583178740935,6.395645794685234,2.306957621605994,0.09333333333333334,-0.6966666666666667,-0.2644444444444444,0.07227771652063743,-0.17832827100339393,-0.20427210445770239
1592293139.0200443,-8.21,6.581000866044051,2.309544273576294,0.09333333333333334,-0.6966666666666667,-0.2644444444444444,0.14741034705292422,-0.15716835858752926,-0.09782867555173813
1592293139.0300443,-8.105219182832549,6.5,2.4285535360953023,0.09333333333333334,-0.6966666666666667,-0.2644444444444444,0.21455076995197173,-0.20919941754521398,0.03070138041632469
1592293139.0400443,-7.701053510671203,6.47579059696876,2.434738014228271,0.0952045915386466,-0.6981870639584837,-0.26374272261745196,0.27402796189442286,-0.2280406887490962,0.18383275529278073
1592293139.0500443,-7.54,6.27,2.22,0.1111111111111111,-0.7111111111111111,-0.2577777777777778,0.31306843457648287,-0.29343348049154666,0.3556108350938446
1592293139.0600443,-6.774178887759547,6.426815739799622,2.0594859880935097,0.1111111111111111,-0.7111111111111111,-0.2577777777777778,0.35524251537529994,-0.2895857162692167,0.6032467505683121
1592293139.0700443,-7.57,7.09,1.75,0.1111111111111111,-0.7111111111111111,-0.2577777777777778,0.37742745074377376,-0.31852258848896514,0.7450374244450794
1592293139.0800443,-6.653406665762922,6.5103166334217715,1.5247024420473692,0.1111111111111111,-0.7111111111111111,-0.2577777777777778,0.40452968518635335,-0.22092569199296297,0.9206998813971181
1592293139.0900443,-7.47379572786955,6.729628560915622,1.7034010496349516,0.1111111111111111,-0.7111111111111111,-0.2577777777777778,0.37174601313183414,-0.20143269779838396,1.0314555302299533
1592293139.1000443,-7.08,6.89,2.18,0.09888888888888889,-0.7233333333333334,-0.24888888888888888,0.35997415822383044,-0.17016960206944715,1.1540989678812505
1592293139.1100442,-6.49106449507858,7.193162216542499,2.1027426722497147,0.09888888888888889,-0.7233333333333334,-0.24888888888888888,0.3648019549536285,-0.1446160204722164,1.2503065472773522
1592293139.1200442,-6.504319901041915,6.907997526047861,1.8396788619820164,0.09888888888888889,-0.7233333333333334,-0.24888888888888888,0.3684651904321092,-0.1513198032682251,1.3359620330593762
1592293139.1300442,-6.495593966172902,7.313016551374452,1.9630525877367715,0.09888888888888889,-0.7233333333333334,-0.24888888888888888,0.3681424307608506,-0.19211187007907818,1.382966098898254
1592293139.1400442,-6.381663829633117,7.373779290862338,1.6972156024772735,0.09888888888888889,-0.7233333333333334,-0.24888888888888888,0.37062800076068303,-0.2028826734116854,1.4227352188955729
1592293139.1500442,-4.77,7.23,2.06,0.05333333333333334,-0.73,-0.2111111111111111,0.34143003492139073,-0.20943951023931953,1.3908092476829812
1592293139.1600442,-5.8429932528022634,8.060741103493308,1.913426379366634,0.05333333333333334,-0.73,-0.2111111111111111,0.3019343987361829,-0.21092089856609866,1.3397554230417525
1592293139.1700442,-5.4245039084573365,8.120102420418158,1.9382294217366733,0.05333333333333334,-0.73,-0.2111111111111111,0.2415380895276258,-0.20531401657453238,1.254693229336123
1592293139.1800442,-4.588815483464071,7.822878316055028,1.472768733493634,0.05333333333333334,-0.73,-0.2111111111111111,0.1805513923757208,-0.16723886237516766,1.211320909012005
1592293139.1900442,-5.374141077693247,7.310350033505459,1.3818362962670976,0.05333333333333334,-0.73,-0.2111111111111111,0.14899033275849682,-0.16904235149615188,1.1851703167577337
1592293139.2000442,-5.29,8.49,1.81,-0.0011111111111111111,-0.75,-0.18222222222222223,0.11999138607461016,-0.12762720155208535,1.1835513990086546
1592293139.2100441,-5.0489894759165495,8.167351483180022,1.5144919545105109,-0.0011111111111111111,-0.75,-0.18222222222222223,0.08664321747459,-0.13461736133644014,1.1376704889480227
1592293139.2200441,-4.385570966808182,7.986630162099575,1.3857772095715941,-0.0011111111111111111,-0.75,-0.18222222222222223,0.07809417975801095,-0.14346750857012222,1.06211506210449
1592293139.2300441,-4.8506329858117105,8.769976091557576,1.5313376969506938,-0.0011111111111111111,-0.75,-0.18222222222222223,0.06657650575594659,-0.16377314548211097,0.9823903426998832
1592293139.240044,-3.9382568393823,8.285019401113114,1.1614554754252566,-0.0011111111111111111,-0.75,-0.18222222222222223,0.043264390774632996,-0.17632582277974138,0.8918317421955497
1592293139.250044,-4.34,9.33,1.43,-0.04555555555555556,-0.7444444444444445,-0.21333333333333335,-0.011999138607461015,-0.17235126363444003,0.7657632093125121
1592293139.260044,-3.4353441432973004,9.09679043292078,1.6329079847511618,-0.04555555555555556,-0.7444444444444445,-0.21333333333333335,-0.05841891875958245,-0.1513504497306142,0.6460029889027079
1592293139.270044,-3.724900876089176,8.778220992901066,1.4097621026140223,-0.04555555555555556,-0.7444444444444445,-0.21333333333333335,-0.13688412536545605,-0.16781983151304453,0.5178473295717523
1592293139.280044,-3.8166141475162254,8.997900322462142,1.7461680068574228,-0.04555555555555556,-0.7444444444444445,-0.21333333333333335,-0.16281723606996581,-0.15007941903964608,0.41745892345521196
1592293139.290044,-3.6111706600269398,9.477268459937141,1.968731784970815,-0.04555555555555556,-0.7444444444444445,-0.21333333333333335,-0.2048367511106042,-0.14727811803693686,0.3147445533558737
1592293139.300044,-3.3,8.71,1.5,-0.06666666666666667,-0.7444444444444445,-0.20555555555555555,-0.20616701789183017,-0.1341721862470641,0.1778054175469223
1592293139.310044,-2.439497020679986,8.438137799809724,1.6583037904962195,-0.06666666666666667,-0.7444444444444445,-0.20555555555555555,-0.22670791155708214,-0.1211561460276093,0.0012938287597208335
1592293139.320044,-4.479064989314163,9.291896735962696,1.2229560909267536,-0.06666666666666667,-0.7444444444444445,-0.20555555555555555,-0.22228548916136384,-0.09776027804021097,-0.1854141053111355
1592293139.330044,-2.494167233446689,8.679387077415484,2.001843768753751,-0.06666666666666667,-0.7444444444444445,-0.20555555555555555,-0.21355156478637985,-0.01567442442192582,-0.36645337448555365
1592293139.340044,-3.954075615123024,8.94787597519504,1.741745149029806,-0.06666666666666667,-0.7444444444444445,-0.20555555555555555,-0.263889619458588,-0.018420136494955355,-0.5147218264291487
1592293139.350044,-3.64,8.37,1.7,-0.07777777777777778,-0.7477777777777778,-0.19111111111111112,-0.22580197197676635,-0.015271630954950384,-0.6926775468852495
1592293139.360044,-3.891951080478831,8.928526195781728,2.181401772296212,-0.07777777777777778,-0.7477777777777778,-0.19111111111111112,-0.2704834680862123,0.04719418866694026,-0.8552995744914452
1592293139.370044,-2.99,8.15,2.02,-0.07777777777777778,-0.7477777777777778,-0.19111111111111112,-0.2901609881440573,0.07308566242726255,-1.00029182754925
1592293139.380044,-4.4824501835884325,8.756929741325962,1.8409059779693884,-0.07777777777777778,-0.7477777777777778,-0.19111111111111112,-0.2890756477429901,0.08936576844327003,-1.0968871232442277
1592293139.390044,-4.600411193980595,8.603584141860823,1.9688130596440279,-0.07777777777777778,-0.7477777777777778,-0.19111111111111112,-0.30914347888259763,0.15468641910807898,-1.1626140621348042
1592293139.400044,-4.241256561897801,8.446988504219549,1.8533437437703502,-0.051111111111111114,-0.7422222222222222,-0.21444444444444444,-0.3529919423985428,0.26367748106610955,-1.210804047254326
1592293139.410044,-4.67,8.01,2.01,-0.051111111111111114,-0.7422222222222222,-0.21444444444444444,-0.39706240482870997,0.30325095753401476,-1.2260937995260164
1592293139.420044,-5.066485671797757,7.981679594871589,1.7645564888871026,-0.051111111111111114,-0.7422222222222222,-0.21444444444444444,-0.42486589754686727,0.3413520401477859,-1.2374211484111917
1592293139.430044,-4.961476415858333,7.615502366512498,2.459063652887505,-0.051111111111111114,-0.7422222222222222,-0.21444444444444444,-0.40999132223206386,0.4112871978707371,-1.2490377790821705
1592293139.440044,-4.976572786006083,7.774014253063869,1.9382388827901451,-0.051111111111111114,-0.7422222222222222,-0.21444444444444444,-0.40834456370595135,0.4005832674510053,-1.2605650887649587
1592293139.450044,-5.1,7.54,2.55,-0.017777777777777778,-0.7422222222222222,-0.20555555555555555,-0.3719732968312915,0.33706671179140485,-1.3100877697782436
1592293139.460044,-5.248153302644257,7.5646922171073765,2.607615173250544,-0.017777777777777778,-0.7422222222222222,-0.20555555555555555,-0.36838195943011665,0.37567358885403457,-1.346898978140286
1592293139.470044,-5.359388138495196,7.296956387329972,2.59927518310663,-0.017777777777777778,-0.7422222222222222,-0.20555555555555555,-0.36671937412802846,0.4522012134952188,-1.3982711870372024
1592293139.480044,-5.46,7.05,2.27,-0.017777777777777778,-0.7422222222222222,-0.20555555555555555,-0.3337942194439155,0.5170537909033202,-1.4431691252428112
1592293139.4900439,-5.675550808943829,6.9912134157425925,2.106703932618312,-0.017777777777777778,-0.7422222222222222,-0.20555555555555555,-0.31954394928707064,0.5448418177091676,-1.4787948006349234
1592293139.5000439,-6.135464355332776,6.827278613199666,2.2664146477304374,0.01888888888888889,-0.7288888888888889,-0.20444444444444446,-0.22432003993209665,0.5938054011420176,-1.5539296861682133
1592293139.5100439,-6.123545435046829,6.8,2.0214492028312003,0.01888888888888889,-0.7288888888888889,-0.20444444444444446,-0.19429796477412423,0.6079660787278985,-1.5928999416068752
1592293139.5200438,-6.599345600343667,6.791492804467674,1.9255215865969786,0.01888888888888889,-0.7288888888888889,-0.20444444444444446,-0.13238758802410683,0.5964189741586103,-1.5951916673518542
1592293139.5300438,-6.59,6.67,2.29,0.01888888888888889,-0.7288888888888889,-0.20444444444444446,-0.10690141668465267,0.5770494839406253,-1.5697054960124002
1592293139.5400438,-6.77975278007536,6.575123609962319,2.0686217565787457,0.01888888888888889,-0.7288888888888889,-0.20444444444444446,-0.08275279643476291,0.5308221251765506,-1.5524564815481932
1592293139.5500438,-7.1427906549777385,6.222278881902052,2.3027442970578784,0.08,-0.7288888888888889,-0.1988888888888889,-0.007742410177798088,0.46571880461432613,-1.4939867091677201
1592293139.5600438,-7.2037678843779505,6.430581741593434,2.173406928607742,0.08,-0.7288888888888889,-0.1988888888888889,0.04647062722368064,0.44540944479721073,-1.3916914825289308
1592293139.5700438,-7.887661117206507,6.461713733721319,1.8434274674426372,0.08,-0.7288888888888889,-0.1988888888888889,0.08075228321997115,0.4078959369138259,-1.2651349053798733
1592293139.5800438,-7.54,6.51,1.94,0.08,-0.7288888888888889,-0.1988888888888889,0.11235557059713495,0.40578905108868163,-1.10501158266891
1592293139.5900438,-7.8475385457531255,6.431607821670772,2.018392178329228,0.08,-0.7288888888888889,-0.1988888888888889,0.12024904147976327,0.3873709523625489,-0.9971341472729897
1592293139.6000438,-8.1,6.04,2.06,0.14555555555555555,-0.7155555555555555,-0.17,0.20725784867432664,0.27270769562411395,-0.5955936072430649
1592293139.6100438,-8.146493188548865,6.1019909180651535,1.8817761105626851,0.14555555555555555,-0.7155555555555555,-0.17,0.20725784867432664,0.27270769562411395,-0.5955936072430649
1592293139.6200438,-7.97,6.05,1.65,0.14555555555555555,-0.7155555555555555,-0.17,0.27052603405912107,0.18653206380689397,-0.45487643630102215
1592293139.6300437,-8.223703435513718,6.271990506074503,1.65,0.14555555555555555,-0.7155555555555555,-0.17,0.318956849548728,0.06459018909199085,-0.23261358664336187
1592293139.6400437,-8.199271206958393,6.231023134863702,1.7654730093256814,0.14555555555555555,-0.7155555555555555,-0.17,0.324414757129211,-0.01945913196051572,-0.07466343979718394
1592293139.6500437,-7.9,6.09,2.04,0.16444444444444445,-0.7211111111111111,-0.17777777777777778,0.31197760379398637,-0.08290313946973066,0.04363323129985824
1592293139.6600437,-7.95045819479361,6.098409699132268,1.8970351147514395,0.16444444444444445,-0.7211111111111111,-0.17777777777777778,0.3312420770325115,-0.0948287657602462,0.15830271486250774
1592293139.6700437,-7.610092030185902,5.930044700376008,1.8500052588677658,0.16444444444444445,-0.7211111111111111,-0.17777777777777778,0.3185268908900951,-0.10471774733246578,0.3173956175369768
1592293139.6800437,-7.92,6.15,2.02,0.16444444444444445,-0.7211111111111111,-0.17777777777777778,0.32288591161895097,-0.11671889372712078,0.4199698512611355
1592293139.6900437,-7.466463800822626,6.156479088559677,1.786752811851636,0.16444444444444445,-0.7211111111111111,-0.17777777777777778,0.31864535807290134,-0.1584176702632755,0.45106724393216613
1592293139.7000437,-7.42,6.24,1.8,0.15222222222222223,-0.7066666666666667,-0.14666666666666667,0.3065234498815041,-0.1265363707695889,0.533416252640767
1592293139.7100437,-7.33095300572519,6.426189169847328,1.8647614503816794,0.15222222222222223,-0.7066666666666667,-0.14666666666666667,0.278265936443323,-0.12477027617970257,0.5696211917334365
1592293139.7200437,-7.115007085498347,6.460250354274917,1.178025507794048,0.15222222222222223,-0.7066666666666667,-0.14666666666666667,0.2343936169778745,-0.09563963228113707,0.6153635625868646
1592293139.7300436,-7.475021902377973,6.2133635794743425,1.7519274092615769,0.15222222222222223,-0.7066666666666667,-0.14666666666666667,0.21083854508833488,-0.08736919728855609,0.657213259248805
1592293139.7400436,-7.422822878783325,6.469896005530342,1.7080207988939315,0.15222222222222223,-0.7066666666666667,-0.14666666666666667,0.21223135640029817,-0.08726646259971647,0.6900902540365247
1592293139.7500436,-7.014057573680603,6.490958506880371,1.7079153266199187,0.13396876446225314,-0.7119905918466577,-0.12613152668670147,0.19662922187932358,-0.09771996524579234,0.7453353943024166
1592293139.7600436,-7.134347826086957,6.8544347826086955,1.5025217391304349,0.12555555555555556,-0.7144444444444444,-0.11666666666666667,0.1980189862208349,-0.10150417568256152,0.7983932779367539
1592293139.7700436,-6.503806749840805,6.689943161717884,1.6040341029692697,0.12555555555555556,-0.7144444444444444,-0.11666666666666667,0.18609201143703,-0.10870345750894331,0.8151821838259445
1592293139.7800436,-6.5778759703917675,6.958679590178733,1.4661653728109767,0.12555555555555556,-0.7144444444444444,-0.11666666666666667,0.19818929618719092,-0.10025749606001938,0.8463406528493949
1592293139.7900436,-6.7668667253181125,6.805093878076518,1.6188273287127437,0.12555555555555556,-0.7144444444444444,-0.11666666666666667,0.18822152552006755,-0.11855876804481173,0.8488802174357558
1592293139.8000436,-6.522127062127062,6.980702585702586,1.6791915291915291,0.09037108537108537,-0.7144444444444444,-0.11026949026949028,0.19800205950757713,-0.14629206030792882,0.8549467620238325
1592293139.8100436,-6.612873292510598,6.941992463495054,1.6114178049929346,0.08888888888888889,-0.7144444444444444,-0.11,0.16860657463640227,-0.18541605605391126,0.8499745236160796
1592293139.8200436,-6.376504365164906,7.066320327656823,1.3056493856434577,0.08888888888888889,-0.7144444444444444,-0.11,0.12297582761189083,-0.20189695855988438,0.8884757643624601
1592293139.8300436,-6.649657021399932,7.342199893724941,1.4766499202937056,0.08888888888888889,-0.7144444444444444,-0.11,0.06993863590717882,-0.20793260294561144,0.9137507587252859
1592293139.8400435,-6.26951897536659,7.252829021576975,1.591530400611287,0.08888888888888889,-0.7144444444444444,-0.11,0.04069843091821976,-0.23111446831683188,0.8942871124269509
1592293139.8500435,-6.048700371698299,7.406534324528798,1.5812996283017007,0.08888888888888889,-0.7067789802236037,-0.07495787784758542,-0.020127211165462136,-0.2121567377481808,0.8480165723064613
1592293139.8600435,-5.876157001972386,7.211322287968442,1.8097211045364892,0.08888888888888889,-0.7066666666666667,-0.07444444444444444,-0.05458887300493113,-0.18859427187081348,0.8130351680994977
1592293139.8700435,-5.92948917511647,7.15202356810085,1.7019057275966016,0.08888888888888889,-0.7066666666666667,-0.07444444444444444,-0.07526732399225547,-0.14167084821316372,0.7465161593172901
1592293139.8800435,-5.959142933191376,7.25142933191376,1.9625738621240352,0.08888888888888889,-0.7066666666666667,-0.07444444444444444,-0.07028062750852465,-0.11450587476939175,0.6758470470265932
1592293139.8900435,-5.848374843467371,7.304650062613051,1.8672123278141088,0.08888888888888889,-0.7066666666666667,-0.07444444444444444,-0.06128967910049884,-0.10261443804939285,0.6441996275150008
1592293139.9000435,-5.876708627571384,7.537506908197727,1.7340896530549585,0.04100842629550029,-0.7186367823150138,-0.09339712755432744,-0.04866572234615598,-0.06454389138741312,0.60143124326975
1592293139.9100435,-5.708231888151391,7.687237678294027,1.9299449230334698,0.035555555555555556,-0.72,-0.09555555555555556,-0.0668329883395126,-0.04621565494374743,0.5631760142880246
1592293139.9200435,-5.770651083962997,7.834418473271661,1.6990855165595649,0.035555555555555556,-0.72,-0.09555555555555556,-0.07067737674235547,-0.0026907570131617584,0.5341807046346583
1592293139.9300435,-5.556468766379187,7.2419950445513885,1.7147062467241625,0.035555555555555556,-0.72,-0.09555555555555556,-0.085534085891249,0.02851581461715577,0.5068511160274751
1592293139.9400434,-6.115395933341139,7.733443585840846,1.6980476524997072,0.035555555555555556,-0.72,-0.09555555555555556,-0.08407362307953269,0.05478217921372969,0.4967799325929491
1592293139.9500434,-5.531439574482782,7.9886927088730015,2.342482298898214,-0.0033986115428452993,-0.7264923611830668,-0.08906319437248875,-0.09033931027078376,0.059018944927049816,0.5079563759585646
1592293139.9600434,-5.496383682469681,7.6291675854465275,1.9038533627342888,-0.0044444444444444444,-0.7266666666666667,-0.08888888888888889,-0.08608302545531017,0.041823799202541895,0.5120404192199283
1592293139.9700434,-5.455218687361875,7.729555172945469,1.472616796011718,-0.0044444444444444444,-0.7266666666666667,-0.08888888888888889,-0.044156417446862245,0.059425609632267555,0.5441337197408707
1592293139.9800434,-5.3445907693773975,7.857841025518836,1.5893297433820202,-0.0044444444444444444,-0.7266666666666667,-0.08888888888888889,-0.010391365952795294,0.08147392735917487,0.5822247767064181
1592293139.9900434,-4.9587904532342835,7.746263484411428,1.7410151341526061,-0.0044444444444444444,-0.7266666666666667,-0.08888888888888889,0.023626031803073953,0.08955178908081576,0.5892488833382028
1592293140.0000434,-5.65733103137667,8.461210028524246,1.6969632187359256,0.0002543828921249729,-0.7097508882550168,-0.07009357954261122,0.06904325087232252,0.11100465012108486,0.6076690925418335
1592293140.0100434,-5.227796300060987,8.229955275462492,1.7934803821915022,0.0011111111111111111,-0.7066666666666667,-0.06666666666666667,0.07419090752178631,0.09892919334032506,0.581801993495348
1592293140.0200434,-5.658235691182675,8.471916748699197,1.885123330052032,0.0011111111111111111,-0.7066666666666667,-0.06666666666666667,0.132785384586808,0.1018985056114042,0.48683340631461164
1592293140.0300434,-6.177971667739858,8.326247406453458,1.6319117120984474,0.0011111111111111111,-0.7066666666666667,-0.06666666666666667,0.13668186968934343,0.09741196151947101,0.4640887547338116
1592293140.0400434,-5.058234840088664,7.825497150094996,1.4266630383153895,0.0011111111111111111,-0.7066666666666667,-0.06666666666666667,0.14300966858282216,0.07430248451055557,0.4570895956912142
1592293140.0500433,-5.972929501627849,7.973277610818933,1.5992762334084647,-0.018828575006260957,-0.7190102818821827,-0.05527256031388263,0.15735746260831482,0.0980760820650074,0.4949600965854353
1592293140.0600433,-5.651857818318758,8.108416670153563,1.5938725469684925,-0.022222222222222223,-0.7211111111111111,-0.05333333333333334,0.1537263972191405,0.08249568114949357,0.5405264391257643
1592293140.0700433,-5.42908315565032,7.921890547263681,1.619459843638948,-0.022222222222222223,-0.7211111111111111,-0.05333333333333334,0.18453337030492106,0.06908207311609574,0.6516508351950239
1592293140.0800433,-5.5564826694752965,7.462657267330525,1.4010012926081963,-0.022222222222222223,-0.7211111111111111,-0.05333333333333334,0.24001637754985877,0.03513623499996071,0.7091338269634065
1592293140.0900433,-5.901378697874524,7.8579301770243335,1.793792307236881,-0.022222222222222223,-0.7211111111111111,-0.05333333333333334,0.30267911687416094,0.0012037221133052306,0.7669216586438397
1592293140.1000433,-5.855856545757461,7.747321778271417,1.8714652325139567,-0.028102897858838582,-0.696748312045129,-0.042412078579617235,0.3429197285071792,-0.08018838549298371,0.8103805572619637
1592293140.1100433,-5.254690034762456,7.737329084588644,1.2216932213209735,-0.03,-0.6888888888888889,-0.03888888888888889,0.41167675651726615,-0.1220025131632742,0.8188017487815371
1592293140.1200433,-5.536723633008385,7.854188630801942,1.3240341798050306,-0.03,-0.6888888888888889,-0.03888888888888889,0.42231167813538895,-0.13027251105467805,0.836960584009012
1592293140.1300433,-5.535539965986395,7.705317460317461,1.4194628684807256,-0.03,-0.6888888888888889,-0.03888888888888889,0.41295195679239594,-0.15077968296045435,0.8943741064809559
1592293140.1400433,-4.876839408750957,7.726653612861433,1.5215888345798245,-0.03,-0.6888888888888889,-0.03888888888888889,0.4196472143372154,-0.19696041508092382,0.9480186074728186
1592293140.1500432,-5.051345115121344,8.520809209707531,1.743922837585563,-0.05165713890617438,-0.6994247943027034,-0.031279623867800595,0.46563918236307533,-0.2575629187180951,0.9957730050318006
1592293140.1600432,-4.805392853845444,8.275979133967317,1.539397100914043,-0.07111111111111111,-0.7088888888888889,-0.024444444444444446,0.5000481710662498,-0.28444739557441395,1.0336544705804884
1592293140.1700432,-4.2670387682958895,7.948514709749043,1.0622372841742382,-0.07111111111111111,-0.7088888888888889,-0.024444444444444446,0.5312743312372095,-0.30466480858620604,1.0423496976620696
1592293140.1800432,-4.718932159917171,8.112636421394452,1.1945003176694824,-0.07111111111111111,-0.7088888888888889,-0.024444444444444446,0.503348960215767,-0.3004420624936922,1.0205143317344603
1592293140.1900432,-4.632729278147865,8.382020749153654,0.9046043464016599,-0.07111111111111111,-0.7088888888888889,-0.024444444444444446,0.5034820309687815,-0.30765063771923895,0.9962807580638905
1592293140.2000432,-4.3915259816600045,8.356272748648014,0.995928521043969,-0.07890764688977715,-0.6861489928677796,-0.019246753925333752,0.46958459531944147,-0.2950236876045205,0.979094648866828
1592293140.2100432,-3.9234179191879757,8.287398008979114,1.4799054683360755,-0.08444444444444445,-0.67,-0.015555555555555555,0.40566260220095296,-0.24967380030395972,0.9489989024036543
1592293140.2200432,-4.074503928197894,8.487251964098947,1.2771945613309659,-0.08444444444444445,-0.67,-0.015555555555555555,0.39293431886744484,-0.19706668786417725,0.9035898763480842
1592293140.2300432,-4.564194293775691,8.732097146887845,0.8589173740665971,-0.08444444444444445,-0.67,-0.015555555555555555,0.3962728771465961,-0.14531903453733241,0.8574064868198248
1592293140.2400432,-4.448134635421265,8.874828791919048,0.7656552527946033,-0.08444444444444445,-0.67,-0.015555555555555555,0.4069326829585538,-0.13123067831522192,0.8310623776393689
1592293140.2500432,-4.29784423926134,8.654596547571256,0.9649096748293858,-0.11228868370578526,-0.6746407065435568,0.014609036977563675,0.4395737138223635,-0.15334821192571516,0.8009899056739582
1592293140.2600431,-4.100029673590504,8.708991097922848,1.1532640949554898,-0.12444444444444444,-0.6766666666666666,0.027777777777777776,0.44563188818585925,-0.15911887123430501,0.7862753596646783
1592293140.2700431,-4.216116246458518,9.141911112383024,0.819743582405632,-0.12444444444444444,-0.6766666666666666,0.027777777777777776,0.4340186329068695,-0.13433888734252042,0.7572032641479969
1592293140.2800431,-4.4907695625089845,9.468655421917678,0.9418287891130386,-0.12444444444444444,-0.6766666666666666,0.027777777777777776,0.42725950607652424,-0.10856902509278799,0.7446912637829929
1592293140.290043,-4.255100813155588,9.427648499138478,0.9617656660923188,-0.12444444444444444,-0.6766666666666666,0.027777777777777776,0.42676079305555625,-0.10253809355466686,0.7361718234703941
1592293140.300043,-3.733665285587452,8.699835010358093,0.7339442142645753,-0.14118509749761599,-0.6724815034033738,0.03335799546216829,0.3918448020425592,-0.09637493191621303,0.6895627552886479
1592293140.310043,-3.914348246674728,8.831937928254735,0.8546876259572753,-0.1511111111111111,-0.67,0.03666666666666667,0.3728323315684304,-0.08947441665999084,0.6767894052800707
1592293140.320043,-4.229747801879772,9.555409167332764,0.6105043962404564,-0.1511111111111111,-0.67,0.03666666666666667,0.35314453707952853,-0.09721081888757845,0.6968556022640228
1592293140.330043,-3.542631578947369,9.035466297322253,0.8017036011080332,-0.1511111111111111,-0.67,0.03666666666666667,0.3057821281308879,-0.13474882578813446,0.7184460319489597
1592293140.340043,-3.4576286745008393,8.846343179626388,0.7177890488266601,-0.1511111111111111,-0.67,0.03666666666666667,0.29462526289591146,-0.14348981444470427,0.732058225206018
1592293140.350043,-3.097804910069581,8.491080149665223,0.5090104371799921,-0.17945954225198024,-0.6613379793736234,0.07682694411623124,0.2746042976285766,-0.1471770172754364,0.7951928342429737
1592293140.360043,-3.35175716014522,8.729056877773296,0.6113727309398951,-0.19111111111111112,-0.6577777777777778,0.09333333333333334,0.2716658400195489,-0.1422551147370825,0.8522326921973203
1592293140.370043,-3.4401676821049225,9.03396991427185,0.7645225642961125,-0.19111111111111112,-0.6577777777777778,0.09333333333333334,0.2651796869522848,-0.16046357832577834,0.9539598384294948
1592293140.380043,-3.0470620825147345,9.001900196463655,0.8682722986247544,-0.19111111111111112,-0.6577777777777778,0.09333333333333334,0.26105016492771377,-0.17165154604998994,0.9705166048060117
1592293140.390043,-3.5586902556088846,9.4717495256167,0.70114722625293,-0.19111111111111112,-0.6577777777777778,0.09333333333333334,0.24479348322732591,-0.15672193174491905,1.0209279254031336
1592293140.400043,-2.7842830142665527,9.072812461894891,0.25110901109620776,-0.19594839382731105,-0.6577777777777778,0.08573188906501916,0.2176073734097573,-0.14312541831827616,1.0746006676226336
1592293140.410043,-3.014823441564698,8.929808989305327,0.5292455920608922,-0.1988888888888889,-0.6577777777777778,0.0811111111111111,0.17113331464870346,-0.11103344143863128,1.1276262736196279
1592293140.420043,-3.130325056974931,9.035312462516492,0.7497625044980208,-0.1988888888888889,-0.6577777777777778,0.0811111111111111,0.1505087412440846,-0.11444996046584323,1.1566174170717856
1592293140.430043,-2.8338915759253034,9.305390683599306,0.3545456896774694,-0.1988888888888889,-0.6577777777777778,0.0811111111111111,0.12464178478620891,-0.11948164705416778,1.2054793463779987
1592293140.440043,-2.850188732000559,9.348517505142697,0.21167122685786183,-0.1988888888888889,-0.6577777777777778,0.0811111111111111,0.09920383880442185,-0.11894173022728412,1.219407687196099
1592293140.450043,-2.5340758691397145,9.15422592972318,0.2628120048466772,-0.21597156201779186,-0.6406951046488748,0.08609355744037447,0.07058088964717282,-0.13173461815960463,1.1986705230968193
1592293140.460043,-2.256116263549122,9.56728304144708,0.46572871838538193,-0.22555555555555556,-0.6311111111111111,0.08888888888888889,0.040170051298493575,-0.11619989997301103,1.1544695486009062
1592293140.470043,-1.9351413332080172,9.383059047440025,0.2990530792546817,-0.22555555555555556,-0.6311111111111111,0.08888888888888889,0.0035201905707099752,-0.11908984040992042,1.09957798483828
1592293140.480043,-2.1160971835345093,9.479195295574126,0.14637264004952028,-0.22555555555555556,-0.6311111111111111,0.08888888888888889,-0.023756545602335383,-0.09354203133541568,1.0586470542380095
1592293140.490043,-2.1857279080786545,9.630371949774934,0.17667377398720682,-0.22555555555555556,-0.6311111111111111,0.08888888888888889,-0.036341708480516405,-0.07853981633974483,1.0427727864607035
1592293140.500043,-1.640453786304941,9.597731068475294,0.4337520876614119,-0.24998646697534635,-0.6180434143051765,0.09968394277205227,-0.08698092434527344,-0.070172958944732,0.9940323811087144
1592293140.510043,-1.6224580737901293,9.5,0.4381899856252995,-0.2733333333333333,-0.6055555555555555,0.11,-0.10472707262371102,-0.058901203502782995,0.9812004594795494
1592293140.520043,-1.5730018172806872,9.696266314224351,0.2974673715512969,-0.2733333333333333,-0.6055555555555555,0.11,-0.13243258777631597,-0.03304624369382498,0.9916286163521297
1592293140.530043,-1.4804753921686025,9.184502454795833,-0.0091210633457071,-0.2733333333333333,-0.6055555555555555,0.11,-0.16186264678111492,-0.035046482030433077,1.0419713340240815
1592293140.5400429,-1.3583083350867173,8.919709339024317,0.08812347831314436,-0.2733333333333333,-0.6055555555555555,0.11,-0.18199575010885827,-0.04769382093575678,1.063726281920129
1592293140.5500429,-1.3235192614809332,9.757839753826978,0.27537101234760253,-0.2759017471879233,-0.5968229484499495,0.110513682770918,-0.1992491460801456,-0.12428349694301906,1.0674902414445475
1592293140.5600429,-1.561630800935283,9.724267031268576,-0.5979086909998812,-0.2788888888888889,-0.5866666666666667,0.1111111111111111,-0.1837515757845182,-0.13012012145473031,1.0699507950609115
1592293140.5700428,-0.6840899991541433,9.047246736402853,1.058051428088082,-0.2788888888888889,-0.5866666666666667,0.1111111111111111,-0.2493417662505128,-0.09652534521153917,1.2072897246693528
1592293140.5800428,-0.7009909195733641,9.59886806956856,0.8125941673873355,-0.2788888888888889,-0.5866666666666667,0.1111111111111111,-0.2720542924925307,-0.060206611096503555,1.2330555629179205
1592293140.5900428,-0.8340034266133638,9.682731972707325,0.7332646006793111,-0.2788888888888889,-0.5866666666666667,0.1111111111111111,-0.29850902900424275,-0.040257652836760686,1.231353027561498
1592293140.6000428,-0.7685320197044335,9.92095566502463,0.6961773399014779,-0.2914504652435687,-0.5831494252873564,0.10809633278598796,-0.29979039091368115,-0.014938470814483486,1.2070080223177853
1592293140.6100428,-0.9792127043666164,10.187853793778284,0.8557724140742855,-0.30666666666666664,-0.5788888888888889,0.10444444444444445,-0.3225653380355435,-0.001329348558275332,1.190205791447138
1592293140.6200428,-0.9375354911981828,11.770654930910467,1.077535491198183,-0.30666666666666664,-0.5788888888888889,0.10444444444444445,-0.2986588552052771,-0.005491320208308394,1.1108002332438272
1592293140.6300428,-0.8774563483509377,11.44215156523197,1.2787150008383033,-0.30666666666666664,-0.5788888888888889,0.10444444444444445,-0.2617167217888546,0.006862350063831802,0.8511578249964379
1592293140.6400428,-1.1352598118903854,11.200618903855085,1.7448441128657686,-0.30666666666666664,-0.5788888888888889,0.10444444444444445,-0.249771654782823,-0.004409175515408922,0.6408159656907635
1592293140.6500428,-0.8234706185771535,9.310729278260524,1.4733119073126213,-0.3297411683794257,-0.5707166695322867,0.10444444444444445,-0.10022844775669207,-0.10897240672995176,-0.04030200557253918
1592293140.6600428,-0.6640930710399148,9.780786499752674,0.9580845477721548,-0.36,-0.56,0.10444444444444445,0.007701769212621756,-0.040011130197718445,-0.10266356752656619
1592293140.6700428,-0.3326480921643925,9.694703815671215,0.7437979682435929,-0.36,-0.56,0.10444444444444445,0.04672708254118013,-0.006362540817883362,-0.006199110795427473
1592293140.6800427,-0.34807031656650733,9.855491411536459,0.5312984431931103,-0.36,-0.56,0.10444444444444445,0.041730923172374,-0.06186357235052134,-0.03452198369789155
1592293140.6900427,-0.31701026359172535,9.91,0.6157610834382146,-0.36,-0.56,0.10444444444444445,0.015876245084798096,-0.10585227542703635,-0.054701626126901895
1592293140.7000427,-0.2005811128370574,9.890581112837058,0.6810702194607082,-0.36086306165168636,-0.5543900992640388,0.10444444444444445,-0.013493551145587757,-0.1329646126313909,-0.05103556111097998
1592293140.7100427,-0.17025527815685962,9.858468331058841,0.7297447218431404,-0.3622222222222222,-0.5455555555555556,0.10444444444444445,-0.03862462182193821,-0.12734873628048393,-0.040193659789408025
1592293140.7200427,-0.2587232264713255,9.814760604963373,0.7298404033089156,-0.3622222222222222,-0.5455555555555556,0.10444444444444445,-0.058852634359782816,-0.1194024474375071,-0.03542588648362192
1592293140.7300427,-0.3657904127771613,9.799051504667407,0.801896990665187,-0.3622222222222222,-0.5455555555555556,0.10444444444444445,-0.062177354602297986,-0.13230091905382535,-0.0382135656509042
1592293140.7400427,-0.3831233302484765,9.766561665124238,0.8978216836333793,-0.3622222222222222,-0.5455555555555556,0.10444444444444445,-0.059176841383888346,-0.15268486214127422,-0.0381447157129688
1592293140.7500427,-0.36667504570383913,9.769974862888482,0.9567001828153565,-0.361298623806622,-0.5466638736542758,0.10795411842372538,-0.05054913834500944,-0.17525557566525954,-0.03545337144788612
1592293140.7600427,-0.359667807723832,9.86833903861916,0.870664384552336,-0.3566666666666667,-0.5522222222222222,0.12555555555555556,-0.029142553350514615,-0.18118661956257714,-0.03325222058811433
1592293140.7700427,-0.37,9.863304235668057,0.8547246470276619,-0.3566666666666667,-0.5522222222222222,0.12555555555555556,-0.03212419647833725,-0.17522852233982028,-0.041031060837275826
1592293140.7800426,-0.4016999666999667,9.790942866657153,0.9369856334142048,-0.3566666666666667,-0.5522222222222222,0.12555555555555556,-0.04956111121079017,-0.17086929365670706,-0.062425115011937364
1592293140.7900426,-0.4364067539366344,9.790779738190096,1.0659324606336558,-0.3566666666666667,-0.5522222222222222,0.12555555555555556,-0.059466937080318076,-0.16711895957944897,-0.09069064892625534
1592293140.8000426,-0.618362109375,9.685489453125001,1.1810812499999999,-0.35453828125000003,-0.5500938368055556,0.12342717013888889,-0.06505552866614586,-0.1632763611250409,-0.10922126435228763
1592293140.8100426,-0.9994389984646274,9.43501279477186,1.2746608401244046,-0.35,-0.5455555555555556,0.11888888888888889,-0.06518784314662956,-0.1619641720295912,-0.09908480527023367
1592293140.8200426,-0.3857756377520002,9.850429464264002,0.9256090561999951,-0.35,-0.5455555555555556,0.11888888888888889,-0.03430523675048672,-0.16074791295224464,0.0009684601592223098
1592293140.8300426,-0.38,9.772351845624565,1.1170601929692956,-0.35,-0.5455555555555556,0.11888888888888889,-0.029965270297374388,-0.17754861703600636,0.0008984208622749468
1592293140.8400426,-0.38,9.73,1.17,-0.35,-0.5455555555555556,0.11888888888888889,-0.01090830782496456,-0.17235126363444003,0.004363323129985824
1592293140.8500426,-0.26093280914939243,9.67,1.2182666190135811,-0.3484691446271146,-0.547392582003018,0.11674569136684934,0.0037524111084804796,-0.16164178486561315,0.009628394508690127
1592293140.8600426,-0.5,9.67,1.24,-0.34444444444444444,-0.5522222222222222,0.1111111111111111,0.025089107997418484,-0.13635384781205698,0.011999138607461015
1592293140.8700426,-0.5894718301644699,9.758495975737782,1.1517681091799836,-0.34444444444444444,-0.5522222222222222,0.1111111111111111,0.05772760988506481,-0.10120555716684784,0.008890709856256604
1592293140.8800426,-0.6332512931950776,9.716918534615113,1.120415948224957,-0.34444444444444444,-0.5522222222222222,0.1111111111111111,0.07713969740000795,-0.09098436184275858,0.007635815477475192
1592293140.8900425,-0.546457336775032,9.682690662286323,1.1317040018772901,-0.34444444444444444,-0.5522222222222222,0.1111111111111111,0.09482402826167802,-0.090964524464744,0.0083010767424335
1592293140.9000425,-0.47951136588258547,9.79087013243724,1.068259735125519,-0.34444444444444444,-0.5496556631745404,0.11413059234367792,0.11853912999904777,-0.08574266320459838,0.010262132357681425
1592293140.9100425,-0.54,9.834351934618823,0.9351296130762354,-0.34444444444444444,-0.5333333333333333,0.13333333333333333,0.14231100133577598,-0.053784044833516995,0.010292199467030473
1592293140.9200425,-0.54,9.81,0.94,-0.34444444444444444,-0.5333333333333333,0.13333333333333333,0.1407171709420428,-0.04581489286485115,0.007635815477475192
1592293140.9300425,-0.574731767226737,9.856107293109305,0.7069463534453474,-0.34444444444444444,-0.5333333333333333,0.13333333333333333,0.13483838857919994,-0.03414885542345806,0.010446167725233314
1592293140.9400425,-0.7467207387072623,9.79227476915398,0.7938108310456701,-0.34444444444444444,-0.5333333333333333,0.13333333333333333,0.12091465849757914,-0.028540456303006227,0.005177022458381609
1592293140.9500425,-0.8672332669397572,9.764308316734938,0.9078458416325303,-0.34300833886613136,-0.5333333333333333,0.13333333333333333,0.10307487953933402,-0.024787304238512144,-0.004212421250532652
1592293140.9600425,-0.93,9.78,0.9,-0.3377777777777778,-0.5333333333333333,0.13333333333333333,0.09708393964218458,-0.031634092692397225,-0.007635815477475192
1592293140.9700425,-1.0838138961639194,9.748728701278694,0.8341808658142043,-0.3377777777777778,-0.5333333333333333,0.13333333333333333,0.09121375419601747,-0.03712827678395679,-0.007179753764713077
1592293140.9800425,-1.0336374114539562,9.77,0.82,-0.3377777777777778,-0.5333333333333333,0.13333333333333333,0.10114999206619003,-0.045021751885285954,-0.00525555434487781
1592293140.9900424,-1.029577292761935,9.759788646380967,0.8268075690793549,-0.3377777777777778,-0.5333333333333333,0.13333333333333333,0.10546234571023291,-0.04391230618169176,-0.0007195354872098832
1592293141.0000424,-0.9815956172913424,9.74420219135433,0.84,-0.3359101371758539,-0.5322438763155444,0.13520097393525726,0.10842937657906679,-0.035539027854058804,0.00045838796832423513
1592293141.0100424,-0.9160819206065074,9.759561440454881,0.8573975992418659,-0.3244444444444444,-0.5255555555555556,0.14666666666666667,0.12084617839674754,-0.033104480210784965,0.003652049083380653
1592293141.0200424,-0.7894158428860015,9.770791068504286,0.8181541734900011,-0.3244444444444444,-0.5255555555555556,0.14666666666666667,0.12967123633562916,-0.037622376730439035,0.00525899900599733
1592293141.0300424,-0.5437510608541818,9.845994573207903,0.6426793291815585,-0.3244444444444444,-0.5255555555555556,0.14666666666666667,0.13732777080464606,-0.046919597157102394,0.007446580282859298
1592293141.0400424,-0.3782787031422763,9.908618254449477,0.5337939151835075,-0.3244444444444444,-0.5255555555555556,0.14666666666666667,0.13910008638189372,-0.05202138814199919,0.008726646259971648
1592293141.0500424,-0.33544976065159926,9.946885851056228,0.52,-0.3239254196204826,-0.5255555555555556,0.14666666666666667,0.13087329927062388,-0.0508444205861904,0.008471870545285832
1592293141.0600424,-0.39914276215173883,9.909142762151738,0.522143094620653,-0.31777777777777777,-0.5255555555555556,0.14666666666666667,0.10336385804209348,-0.04548760736336964,0.00531388869756163
1592293141.0700424,-0.38798696721856507,9.897986967218566,0.5500325819535873,-0.31777777777777777,-0.5255555555555556,0.14666666666666667,0.08571868549342382,-0.041228427782656264,0.0034885260201130423
1592293141.0800424,-0.3765887877226135,9.866121514058294,0.5734112122773865,-0.31777777777777777,-0.5255555555555556,0.14666666666666667,0.05671301885292933,-0.028504333457088145,0.0025537671007732124
1592293141.0900424,-0.37,9.82,0.58,-0.31777777777777777,-0.5255555555555556,0.14666666666666667,0.025089107997418484,-0.009817477042468103,0.0032724923474893677
1592293141.1000423,-0.37894703049759226,9.815526484751205,0.6269719101123595,-0.3210086499019083,-0.5240643838059569,0.14666666666666667,0.02069724467199977,-0.004693636496146268,0.004004469568392487
1592293141.1100423,-0.4153398339048878,9.794660166095113,0.7980097508573317,-0.3322222222222222,-0.5188888888888888,0.14666666666666667,0.002832969073890829,0.015419911468705427,0.007709955734352713
1592293141.1200423,-0.42508775042132874,9.78081870826311,0.8142690421582168,-0.3322222222222222,-0.5188888888888888,0.14666666666666667,-0.0039167870423425025,0.022173844520043777,0.011354843912607882
1592293141.1300423,-0.3931988038065309,9.78613353269891,0.7770652711076194,-0.3322222222222222,-0.5188888888888888,0.14666666666666667,-0.0010179999932752003,0.024492874159297618,0.014253630961675182
1592293141.1400423,-0.34512333139872314,9.798292222867092,0.7541461114335462,-0.3322222222222222,-0.5188888888888888,0.14666666666666667,0.006065807359806358,0.02391858579022862,0.014779514644666415
1592293141.1500423,-0.25383705745792223,9.82872098084736,0.7693604904236796,-0.3322222222222222,-0.5188888888888888,0.14666666666666667,0.024321751592711806,0.015620429320726147,0.008970805116014682
1592293141.1600423,-0.3365442858025836,9.808363928549355,0.7932721429012919,-0.3322222222222222,-0.5255555555555556,0.14666666666666667,0.032724923474893676,0.012713009447752286,0.003292516869548917
1592293141.1700423,-0.39690718386907187,9.793273204032733,0.7763660201636602,-0.3322222222222222,-0.5255555555555556,0.14666666666666667,0.034559372502060905,0.017830020959180622,-0.004383000397593586
1592293141.1800423,-0.4529877252546357,9.788963175763907,0.727926351527814,-0.3322222222222222,-0.5255555555555556,0.14666666666666667,0.039156808190595555,0.020399874599692797,-0.005467543582572991
1592293141.1900423,-0.45774141289112985,9.80322423867339,0.7722585871088702,-0.3322222222222222,-0.5255555555555556,0.14666666666666667,0.04268343790651795,0.02037407498792778,0.00538451881128973
1592293141.2000422,-0.45010666763747564,9.780320002912426,0.7798933323625243,-0.3322222222222222,-0.5255555555555556,0.14666666666666667,0.0468475454761203,0.022872539529689193,0.016211198492255836
1592293141.2100422,-0.39849660284126004,9.80150339715874,0.7139864113650402,-0.3322222222222222,-0.5333333333333333,0.14666666666666667,0.054705534314729916,0.028989013331109644,0.026971346956023858
1592293141.2200422,-0.3569018236322758,9.839823632275793,0.5541563827129653,-0.3322222222222222,-0.5333333333333333,0.14666666666666667,0.05781403147231216,0.0309004592593128,0.030562500644161134
1592293141.2300422,-0.33726722949273086,9.86726722949273,0.43093108202907665,-0.3322222222222222,-0.5333333333333333,0.14666666666666667,0.05702129970889847,0.02410314093996717,0.025983405054666783
1592293141.2400422,-0.3585046355933741,9.897009271186748,0.3913395141244988,-0.3322222222222222,-0.5333333333333333,0.14666666666666667,0.049447624374540936,0.0028681386323527475,0.019033480160178876
1592293141.2500422,-0.37747475788172263,9.938316505254482,0.42420873686379557,-0.3323157497080843,-0.5326786409322984,0.14610550175149392,0.03161206478869134,-0.02094246751204972,0.011172755056698966
1592293141.2600422,-0.35,9.92,0.47,-0.3333333333333333,-0.5255555555555556,0.14,0.007635815477475192,-0.05890486225480862,0.002181661564992912
1592293141.2700422,-0.3066617293611313,9.85703593985803,0.5855539097870437,-0.3333333333333333,-0.5255555555555556,0.14,-0.028969053650257592,-0.0852464654369252,-0.00529248951028065
1592293141.2800422,-0.252606980871623,9.82021889173733,0.6165174521790574,-0.3333333333333333,-0.5255555555555556,0.14,-0.052193811426111236,-0.08186006345625692,-0.005288087778763632
1592293141.2900422,-0.30293758480325644,9.772354138398914,0.7741248303934871,-0.3333333333333333,-0.5255555555555556,0.14,-0.05351435247210565,-0.06448408428278744,-0.008406205467013055
1592293141.3000422,-0.2807667832030483,9.779520760498094,0.8205750874022861,-0.3332694347330793,-0.5255555555555556,0.14022364510088908,-0.05010502830671567,-0.04338230208344235,-0.010918763208981887
1592293141.3100421,-0.36,9.73,0.88,-0.32666666666666666,-0.5255555555555556,0.16333333333333333,-0.042542400517361786,-0.017453292519943295,-0.011999138607461015
1592293141.3200421,-0.3770992194957606,9.78282441462182,0.782290134201808,-0.32666666666666666,-0.5255555555555556,0.16333333333333333,-0.02275756362458859,0.006619926098897227,-0.005612366945846777
1592293141.3300421,-0.44,9.83,0.57,-0.32666666666666666,-0.5255555555555556,0.16333333333333333,-0.014180800172453926,0.01090830782496456,-0.002181661564992912
1592293141.340042,-0.3724072714627927,9.899365195889034,0.4970898694073101,-0.32666666666666666,-0.5255555555555556,0.16333333333333333,-0.012330977575314575,0.0002481996166494719,0.0012841769773308
1592293141.350042,-0.429126419905726,9.850748782937949,0.5295008113747006,-0.32666666666666666,-0.5255555555555556,0.16333333333333333,-0.023821304861328697,-0.008590513680284469,0.002168048307024194
1592293141.360042,-0.41,9.88,0.55,-0.3466666666666667,-0.5455555555555556,0.16333333333333333,-0.038179077387375956,-0.01854412330243975,0.00545415391248228
1592293141.370042,-0.4248305571510626,9.846553704767375,0.5682768523836875,-0.3466666666666667,-0.5455555555555556,0.16333333333333333,-0.06868223983140666,-0.040810604835098595,0.00018796624626590282
1592293141.380042,-0.3895803732120868,9.83,0.572503552145496,-0.3466666666666667,-0.5455555555555556,0.16333333333333333,-0.09285793905742351,-0.05572391827080242,0.0013181517753440646
1592293141.390042,-0.34847267313590785,9.823890692543632,0.6490192104177503,-0.3466666666666667,-0.5455555555555556,0.16333333333333333,-0.1071434300287846,-0.06469222719894799,0.0020150560491643647
1592293141.400042,-0.3409494000107622,9.793797600043048,0.7919613997955194,-0.3466666666666667,-0.5455555555555556,0.16333333333333333,-0.11370872435681444,-0.06633355078095544,0.0011943942581606366
1592293141.410042,-0.33,9.82,0.87,-0.32666666666666666,-0.54,0.14666666666666667,-0.11562806294462433,-0.06544984694978735,-0.001090830782496456
1592293141.420042,-0.38,9.773878184235913,0.900913618230647,-0.32666666666666666,-0.54,0.14666666666666667,-0.11045187136200771,-0.045914553153795105,-3.3220096314652255e-05
1592293141.430042,-0.38492661677649953,9.7850733832235,0.7849266167764996,-0.32666666666666666,-0.54,0.14666666666666667,-0.10011974619965076,-0.030843986643214485,0.004632028391654279
1592293141.440042,-0.394181470056377,9.774363897457716,0.805818529943623,-0.32666666666666666,-0.54,0.14666666666666667,-0.09208591335506061,-0.02493043220813395,0.006088857069620415
1592293141.450042,-0.36443782576321665,9.796671630677588,0.8355621742367833,-0.32666666666666666,-0.54,0.14666666666666667,-0.08884138507720019,-0.024119300138668844,0.009333385347480846
1592293141.460042,-0.3244656079617152,9.813301588057428,0.8477671960191424,-0.3466666666666667,-0.5333333333333333,0.14222222222222222,-0.08290313946973066,-0.030543261909900768,0.009817477042468103
1592293141.470042,-0.33365914502778093,9.787886381675927,0.8336591450277809,-0.3466666666666667,-0.5333333333333333,0.14222222222222222,-0.0831336994627654,-0.03146550188203974,0.008895237070329133
1592293141.480042,-0.3133924937289981,9.771518765677504,0.8286587155094893,-0.3466666666666667,-0.5333333333333333,0.14222222222222222,-0.08380893842277624,-0.03657187150494436,0.005084090253580553
1592293141.490042,-0.3287681771610375,9.73,0.9360136969065124,-0.3466666666666667,-0.5333333333333333,0.14222222222222222,-0.08169380022554044,-0.04579903029941266,0.0028693792660926315
1592293141.500042,-0.3212289468480938,9.73,1.0340236909747813,-0.3466666666666667,-0.5333333333333333,0.14222222222222222,-0.07429217817401995,-0.0523782499007642,0.0004021719155858001
1592293141.510042,-0.3480983962377909,9.735704811286627,1.0542951887133727,-0.32666666666666666,-0.5455555555555556,0.15555555555555556,-0.056054469989440456,-0.05397290757137625,-0.002389094356985787
1592293141.520042,-0.34,9.758038834040757,1.0123495063668129,-0.32666666666666666,-0.5455555555555556,0.15555555555555556,-0.03627488789277535,-0.04391070337025055,-0.003486422367282015
1592293141.530042,-0.33819893294474346,9.759005335276283,0.9309946647237173,-0.32666666666666666,-0.5455555555555556,0.15555555555555556,-0.021444220014143728,-0.029669433307183146,-0.004166857191464416
1592293141.540042,-0.33124151394702595,9.796275458158922,0.8949660557881037,-0.32666666666666666,-0.5455555555555556,0.15555555555555556,-0.008598623575185007,-0.019913215889243933,-0.003001636021426457
