time,acc_x,acc_y,acc_z,mag_x,mag_y,mag_z,gyr_x,gyr_y,gyr_z
1592174914.2747922,-0.02352765869649939,9.5364723413035,1.7017638293482495,-0.3288888888888889,-0.2411111111111111,-0.17555555555555555,0.07646468463728223,0.026329405678587173,0.0136671811943999
1592174914.2847922,-0.09922527773431389,9.5,1.7350866452824285,-0.3288888888888889,-0.2411111111111111,-0.17555555555555555,0.09035103369990048,0.03624204627442702,0.020951512251230434
1592174914.2947922,-0.21390488458726456,9.5,1.7613073146955402,-0.3259913271207356,-0.2411111111111111,-0.17869458080438827,0.10704216169318007,0.049987454478961905,0.02233888369020664
1592174914.3047922,-0.3,9.5,1.73,-0.31555555555555553,-0.2411111111111111,-0.19,0.12326387842209952,0.061086523819801536,0.016362461737446838
1592174914.3147922,-0.5295577229491574,9.554044227705084,1.6291154458983148,-0.31555555555555553,-0.2411111111111111,-0.19,0.15390363021629044,0.06273053869329119,-0.005012997105269189
1592174914.3247921,-0.4616660233523111,9.580834941619223,1.4683301167615554,-0.31555555555555553,-0.2411111111111111,-0.19,0.17189713676930587,0.039087331117644286,0.002909443484338709
1592174914.3347921,-0.44644008016032066,9.61,1.4064400801603205,-0.31555555555555553,-0.2411111111111111,-0.19,0.1765662862428135,0.02314747292524744,0.012313315361089053
1592174914.3447921,-0.4499935461956522,9.619993546195651,1.4066623641304348,-0.31555555555555553,-0.23629940368357488,-0.18037658514492755,0.1687175076956008,0.014911071364445186,0.013451936982152031
1592174914.354792,-0.47046895881423884,9.639374721581015,1.4185931235572833,-0.31555555555555553,-0.22666666666666666,-0.16111111111111112,0.16128948939638704,0.005420050265129294,0.018595278773469226
1592174914.364792,-0.47655930175889416,9.603906783040184,1.2948389526383413,-0.31555555555555553,-0.22666666666666666,-0.16111111111111112,0.145659183885932,-0.0005629829332019502,0.024373599170389997
1592174914.374792,-0.4163869807000327,9.623493153885695,1.243373288471424,-0.31555555555555553,-0.22666666666666666,-0.16111111111111112,0.1334100982897613,-0.0105926402881353,0.02762566296433393
1592174914.384792,-0.3512960594912553,9.644656016997502,1.2553439830024984,-0.31555555555555553,-0.22666666666666666,-0.16111111111111112,0.12412957285592745,-0.019709999534492383,0.02472259348984915
1592174914.394792,-0.279601537690122,9.63,1.276276449941501,-0.31764770553605587,-0.22928185414229205,-0.1633776069233198,0.11214094148178233,-0.023592100912524304,0.02055462124740798
1592174914.404792,-0.17,9.63,1.3139092014213578,-0.3288888888888889,-0.24333333333333335,-0.17555555555555555,0.09286918533908356,-0.02428577549063423,0.018355670911317422
1592174914.414792,-0.1809177737059093,9.63363925790197,1.2945251946862117,-0.3288888888888889,-0.24333333333333335,-0.17555555555555555,0.07774238056134494,-0.017253065357988952,0.013186610101517166
1592174914.424792,-0.25012733446519525,9.626632710809282,1.2867600452744765,-0.3288888888888889,-0.24333333333333335,-0.17555555555555555,0.0658060491917231,-0.016006259495511096,0.008000351740669395
1592174914.434792,-0.3659352838597171,9.602655880643285,1.3785911645030033,-0.3288888888888889,-0.24333333333333335,-0.17555555555555555,0.0562294417688721,-0.024424020374228875,0.007278088079805118
1592174914.444792,-0.42053386350303107,9.607366534124242,1.4379003976272733,-0.3332779986818185,-0.2423092077149831,-0.17745750313249173,0.045240359736465036,-0.03321405879545904,0.0029852257832963113
1592174914.454792,-0.5005000343115951,9.597000022874397,1.4829999771256033,-0.3622222222222222,-0.23555555555555555,-0.19,0.043742321863736694,-0.050505487686472346,0.0018544148254535787
1592174914.464792,-0.5388564657776126,9.650855675851494,1.404002369778356,-0.3622222222222222,-0.23555555555555555,-0.19,0.04731091398586704,-0.07149587071251876,0.001215571015558292
1592174914.474792,-0.574212266567317,9.748681600149025,1.2571061332836586,-0.3622222222222222,-0.23555555555555555,-0.19,0.03823876751774588,-0.09986529651697913,-0.0064292112421165636
1592174914.484792,-0.5532189138391532,9.747396379463844,1.2567810861608468,-0.3622222222222222,-0.23555555555555555,-0.19,0.003608082785076072,-0.13210285575780356,-0.017386174432425953
1592174914.494792,-0.52646273846443,9.660272530777183,1.2844215769194625,-0.35986404786517556,-0.23712767179358665,-0.18872265555659973,-0.057346268963099564,-0.1563449287777744,-0.029036847254437424
1592174914.504792,-0.49,9.562963313336411,1.3329633133364098,-0.33555555555555555,-0.25333333333333335,-0.17555555555555555,-0.1264563328856863,-0.17513940093858926,-0.0385833945468135
1592174914.514792,-0.49,9.553772211720228,1.3156583175803402,-0.33555555555555555,-0.25333333333333335,-0.17555555555555555,-0.13738255897768634,-0.18582554982418537,-0.04737932773046646
1592174914.524792,-0.49,9.512625100792107,1.257875302376322,-0.33555555555555555,-0.25333333333333335,-0.17555555555555555,-0.11542314735793946,-0.19009091022950197,-0.0545415391248228
1592174914.534792,-0.4878384088010204,9.554585459183674,1.2951311383928572,-0.33555555555555555,-0.25333333333333335,-0.17555555555555555,-0.07689156963602689,-0.19018800787117368,-0.05312678099341058
1592174914.544792,-0.46726995919858716,9.679204372449911,1.3555693928506183,-0.33440631576098356,-0.2535101394555752,-0.17785403514469952,-0.03848880264913771,-0.18797005259860586,-0.04799655442984406
1592174914.554792,-0.3443917449447041,9.64289806117255,1.4416815510619592,-0.3211111111111111,-0.25555555555555554,-0.20444444444444446,-0.03743461099474997,-0.19257749030214258,-0.04474455522462916
1592174914.564792,-0.3824623947412614,9.567496581340116,1.4974965813401147,-0.3211111111111111,-0.25555555555555554,-0.20444444444444446,-0.061908749004055456,-0.19007167008085074,-0.03490509336811147
1592174914.574792,-0.27727369315767103,9.56,1.5203017424564387,-0.3211111111111111,-0.25555555555555554,-0.20444444444444446,-0.07062855025031328,-0.1725718559197515,-0.030256839632615433
1592174914.584792,-0.19512183527952878,9.545121835279529,1.6121254521029245,-0.3211111111111111,-0.25555555555555554,-0.20444444444444446,-0.06795836321529972,-0.1482693000732407,-0.022702175909027202
1592174914.594792,-0.15148717335406328,9.491148717335406,1.6222974346708128,-0.3227703694844758,-0.25389629718219087,-0.20189173925465262,-0.059206939475028746,-0.1098640042873211,-0.008313809566649871
1592174914.6047919,-0.21779707145909713,9.530529026743741,1.6039202411210327,-0.33555555555555555,-0.2411111111111111,-0.18222222222222223,-0.033825225021061014,-0.055156500836343325,0.006602692560662437
1592174914.6147919,-0.19077751801595527,9.598162493070786,1.5076324986141574,-0.33555555555555555,-0.2411111111111111,-0.18222222222222223,-0.0033881192010580792,-0.019322698482426976,0.015788139632806435
1592174914.6247919,-0.29483529411764703,9.555164705882353,1.5145058823529411,-0.33555555555555555,-0.2411111111111111,-0.18222222222222223,-0.0004196490186780485,0.01983900360777966,0.018508190053133984
1592174914.6347919,-0.31575597235932873,9.545755972359329,1.5580813425468905,-0.33555555555555555,-0.2411111111111111,-0.18222222222222223,-0.01158055248527738,0.057547838610087956,0.02328166707757184
1592174914.6447918,-0.34231979545678043,9.570994198052906,1.5480116038941882,-0.33555555555555555,-0.2419580205635865,-0.18295866522437473,-0.009419826367798582,0.08460852129489818,0.02934398094340353
1592174914.6547918,-0.3985990382413556,9.6,1.458647355163728,-0.33555555555555555,-0.26666666666666666,-0.20444444444444446,0.003736226569542189,0.10564722356376542,0.02617993877991494
1592174914.6647918,-0.377309423155598,9.609745897540797,1.3483258329924086,-0.33555555555555555,-0.26666666666666666,-0.20444444444444446,0.008964706107544969,0.11477529200970119,0.026711495031942853
1592174914.6747918,-0.3896416104815187,9.646215033711089,1.2582867116147851,-0.33555555555555555,-0.26666666666666666,-0.20444444444444446,0.01128208936694178,0.11867457028923672,0.030395465370800505
1592174914.6847918,-0.33321258578173685,9.658248810047215,1.3185386041710474,-0.33555555555555555,-0.26666666666666666,-0.20444444444444446,0.0019827334655718085,0.11817596907337324,0.04092591161554598
1592174914.6947918,-0.25303557433142815,9.602124902032,1.454839523636572,-0.33555555555555555,-0.26666666666666666,-0.20444444444444446,-0.009387008312441977,0.1199251601161446,0.05404484443633111
1592174914.7047918,-0.02,9.56,1.45,-0.3411111111111111,-0.26666666666666666,-0.2111111111111111,-0.02617993877991494,0.12544553998709243,0.07199483164476608
1592174914.7147918,-0.1178805120910384,9.55217638691323,1.523470839260313,-0.3411111111111111,-0.26666666666666666,-0.2111111111111111,-0.0499408090108797,0.16031333303613632,0.05193006230129288
1592174914.7247918,-0.29,9.56,1.5,-0.3411111111111111,-0.26666666666666666,-0.2111111111111111,-0.04908738521234052,0.18762289458939044,0.042542400517361786
1592174914.7347918,-0.25371556495242836,9.557905188317477,1.592094811682524,-0.3411111111111111,-0.26666666666666666,-0.2111111111111111,-0.044090248313224285,0.20737210292766817,0.04701997790068912
1592174914.7447917,-0.2015508985759592,9.540516966191985,1.6094830338080137,-0.3411111111111111,-0.26666666666666666,-0.2111111111111111,-0.04788376990269831,0.20832048332503666,0.04796835829805762
1592174914.7547917,-0.18624193660262192,9.542332662828604,1.527667337171395,-0.35555555555555557,-0.26666666666666666,-0.21777777777777776,-0.03381575425739013,0.20616701789183017,0.04581489286485115
1592174914.7647917,-0.2587134462012033,9.633485378480483,1.4295438645585559,-0.35555555555555557,-0.26666666666666666,-0.21777777777777776,-0.03628702704524397,0.20502643045128224,0.04448420751754524
1592174914.7747917,-0.31092537741257403,9.643756927192815,1.3831215364035925,-0.35555555555555557,-0.26666666666666666,-0.21777777777777776,-0.05276364962665496,0.19723848559844598,0.03903034438680648
1592174914.7847917,-0.38960569226208125,9.604771815396777,1.4117634153572487,-0.35555555555555557,-0.26666666666666666,-0.21777777777777776,-0.07711405016430277,0.18206917636119377,0.0426351949770488
1592174914.7947917,-0.5139549362585236,9.571612016997728,1.486372961755114,-0.35555555555555557,-0.26666666666666666,-0.21777777777777776,-0.06807111795553732,0.16760048482716902,0.03630514243091297
1592174914.8047917,-0.40687943916612856,9.644920210312701,1.4317996494788303,-0.3622222222222222,-0.25222222222222224,-0.21777777777777776,-0.051736128826254064,0.1284124467717701,0.049641504308291805
1592174914.8147917,-0.331731002082627,9.672756332639125,1.3775965031239406,-0.3622222222222222,-0.25222222222222224,-0.21777777777777776,-0.08477689374551015,0.10656587804467424,0.04495137352913588
1592174914.8247917,-0.2769844704987039,9.668891293490926,1.3196009417584247,-0.3622222222222222,-0.25222222222222224,-0.21777777777777776,-0.13974728127843145,0.07856640678308613,0.031080207272123687
1592174914.8347917,-0.2624167474316728,9.560875363442529,1.436041868579182,-0.3622222222222222,-0.25222222222222224,-0.21777777777777776,-0.1540344407954978,0.04298765569506696,0.01878491378414298
1592174914.8447917,-0.27867687536344254,9.634045939135492,1.4766921884086064,-0.3622222222222222,-0.25222222222222224,-0.21777777777777776,-0.16290296483315023,0.009287264351987755,-0.0016126915024575958
1592174914.8547916,-0.3193024577354738,9.682170762892456,1.528320310650187,-0.3622222222222222,-0.2733333333333333,-0.22555555555555556,-0.20190230706301335,-0.056973993105832205,-0.005301973797634784
1592174914.8647916,-0.22624024053149702,9.537386887153874,1.5922932932447507,-0.3622222222222222,-0.2733333333333333,-0.22555555555555556,-0.2277683609618956,-0.10276783401770852,0.012124218350694266
1592174914.8747916,-0.11485088426342989,9.430989047461003,1.6164363946707128,-0.3622222222222222,-0.2733333333333333,-0.22555555555555556,-0.23017558742697014,-0.13107264625539797,0.009439040323700545
1592174914.8847916,-0.07897818983504587,9.377152671154677,1.6712399118144954,-0.3622222222222222,-0.2733333333333333,-0.22555555555555556,-0.1942480564849093,-0.1425243573122257,-0.01839257250398969
1592174914.8947916,-0.07072201881815678,9.434945868272901,1.7620577930002757,-0.3622222222222222,-0.2733333333333333,-0.22555555555555556,-0.14201276063839868,-0.16594017958824772,-0.04360961187816724
1592174914.9047916,-0.17824149240538717,9.627690446837711,1.7023095531622898,-0.37444444444444447,-0.26666666666666666,-0.27,-0.13138057187379892,-0.2097400589732097,-0.050166721813625303
1592174914.9147916,-0.16409114624685253,9.562613932808565,1.7511367193702787,-0.37444444444444447,-0.26666666666666666,-0.27,-0.1753386201448333,-0.24122217149597303,-0.0651275689716272
1592174914.9247916,-0.12690046318177522,9.524132715757633,1.708265431515266,-0.37444444444444447,-0.26666666666666666,-0.27,-0.17683141361730123,-0.26939488615440554,-0.059098198838340235
1592174914.9347916,-0.09206453149184428,9.563967734254078,1.7815870937016312,-0.37444444444444447,-0.26666666666666666,-0.27,-0.15186756813223817,-0.28797932657906433,-0.0197046327032014
1592174914.9447916,-0.008834385045838805,9.60558280747708,1.7982331229908324,-0.37444444444444447,-0.26666666666666666,-0.27,-0.17728876974923558,-0.28797932657906433,0.013887669433545188
1592174914.9547915,0.19,9.45,1.94,-0.36777777777777776,-0.2877777777777778,-0.24444444444444444,-0.222529479629277,-0.2694352032766246,0.02617993877991494
1592174914.9647915,0.15260704703988553,9.337821141119656,1.968044714720086,-0.36777777777777776,-0.2877777777777778,-0.24444444444444444,-0.18785850311254237,-0.22354714612212293,0.019041796555881344
1592174914.9747915,0.16,9.44,1.84,-0.36777777777777776,-0.2877777777777778,-0.24444444444444444,-0.12435470920459597,-0.17562375598192942,0.007635815477475192
1592174914.9847915,0.06563019052271618,9.46890754763068,1.906722642892037,-0.36777777777777776,-0.2877777777777778,-0.24444444444444444,-0.09551643659054153,-0.14141077483358377,-0.0031747287923816515
1592174914.9947915,-0.03681973619931607,9.44329506595017,1.829885197850513,-0.36777777777777776,-0.2877777777777778,-0.24444444444444444,-0.08434088321725164,-0.13209781368917553,-0.026457131653402275
1592174915.0047915,-0.10087362454151383,9.462750916972324,1.8397992664221408,-0.36777777777777776,-0.2877777777777778,-0.2677777777777778,-0.06090363961925495,-0.1758723300922189,-0.06665016091518859
1592174915.0147915,0.03511389521640091,9.551278473804102,1.76936076309795,-0.36777777777777776,-0.2877777777777778,-0.2677777777777778,-0.043120273715207644,-0.21586988315789135,-0.10506840476469173
1592174915.0247915,0.1164825189702858,9.574125239344728,1.7617679597191689,-0.36777777777777776,-0.2877777777777778,-0.2677777777777778,-0.020856365844728886,-0.2290081681764223,-0.10927392141966324
1592174915.0347915,0.22,9.639582713827373,1.7929210032083889,-0.36777777777777776,-0.2877777777777778,-0.2677777777777778,-0.04295531398497513,-0.21057585988203717,-0.09458364605564352
1592174915.0447915,0.22,9.631377259566477,1.8503591830346664,-0.36777777777777776,-0.2877777777777778,-0.2677777777777778,-0.09397465791024676,-0.21147093609125245,-0.08831811259113649
1592174915.0547915,0.32943938034288955,9.442739573985737,1.9719801161857082,-0.3622222222222222,-0.30333333333333334,-0.25333333333333335,-0.1518631658125393,-0.20104423995785908,-0.060665374420494994
1592174915.0647914,0.1794329603641191,9.34680447563057,1.9920614450976675,-0.3622222222222222,-0.30333333333333334,-0.25333333333333335,-0.1215094054719094,-0.1410206506989027,-0.036919439868957425
1592174915.0747914,0.1538718101197094,9.462780722393154,1.8650053003076765,-0.3622222222222222,-0.30333333333333334,-0.25333333333333335,-0.07490448462992598,-0.09071979645449357,0.002242327516673494
1592174915.0847914,-0.12770335608646188,9.494593287827076,1.958803835527385,-0.3622222222222222,-0.30333333333333334,-0.25333333333333335,-0.08594598206508669,-0.07502723662232279,0.005793409731782585
1592174915.0947914,-0.18734926052332196,9.375301478953356,2.026970583455225,-0.3622222222222222,-0.30333333333333334,-0.25333333333333335,-0.07572170385501159,-0.07316827694776366,0.025312486314653253
1592174915.1047914,-0.21,9.33,1.97,-0.39444444444444443,-0.30333333333333334,-0.2877777777777778,0.014180800172453926,-0.09053895494720585,0.031634092692397225
1592174915.1147914,-0.08646281119529921,9.5103930209783,1.8678163496726972,-0.39444444444444443,-0.30333333333333334,-0.2877777777777778,0.09817477042468103,-0.10288106905970415,0.04172783369289823
1592174915.1247914,0.006179177610523759,9.517940274129826,1.5916271216368332,-0.39444444444444443,-0.30333333333333334,-0.2877777777777778,0.09457987061237585,-0.11137708043377303,0.015862562835798663
1592174915.1347914,0.053719247467438495,9.500502460202604,1.780502460202605,-0.39444444444444443,-0.30333333333333334,-0.2877777777777778,0.06307635071520115,-0.11213633097474261,-0.03649070497276581
1592174915.1447914,-0.1486107091172214,9.516688856729377,1.7966888567293777,-0.39444444444444443,-0.30333333333333334,-0.2877777777777778,0.05689653385901702,-0.10507368313910363,-0.052381662602953544
1592174915.1547914,-0.2657782050981404,9.61638862181366,1.8163886218136622,-0.37333333333333335,-0.2911111111111111,-0.3022222222222222,0.041124215619920156,-0.12913637641489856,-0.059668338922359905
1592174915.1647913,-0.3334852528570451,9.56837131321426,1.7727144779762312,-0.37333333333333335,-0.2911111111111111,-0.3022222222222222,0.0217230319784729,-0.16484339477717966,-0.04162923190295823
1592174915.1747913,-0.2190886195127692,9.540455690243615,1.8205696128045192,-0.37333333333333335,-0.2911111111111111,-0.3022222222222222,0.0008671443572379147,-0.20534958162909417,-0.044736489105980166
1592174915.1847913,-0.14010921501706486,9.579945392491467,1.8699317406143345,-0.37333333333333335,-0.2911111111111111,-0.3022222222222222,-0.018517317904371576,-0.22904170217106135,-0.045813403676069585
1592174915.1947913,-0.14,9.547522195944635,1.8375221959446362,-0.37333333333333335,-0.2911111111111111,-0.3022222222222222,-0.030058154536170466,-0.2397028008476995,-0.03872933518255532
1592174915.2047913,-0.1441018766756032,9.489410187667561,1.825898123324397,-0.36444444444444446,-0.30666666666666664,-0.31555555555555553,-0.03900962951131428,-0.2628288045161434,-0.049859447750086
1592174915.2147913,-0.04364890548487356,9.483881224425911,1.911884712564005,-0.36444444444444446,-0.30666666666666664,-0.31555555555555553,-0.01672200686109195,-0.27898325928688433,-0.0619079335700896
1592174915.2247913,0.1251622207812535,9.587043579366322,1.6961816067795095,-0.36444444444444446,-0.30666666666666664,-0.31555555555555553,0.0027154547290233894,-0.2718220892273681,-0.05474676351057342
1592174915.2347913,0.07,9.49,1.79,-0.36444444444444446,-0.30666666666666664,-0.31555555555555553,-0.02617993877991494,-0.25198191075668136,-0.05563236990731925
1592174915.2447913,0.23191639044848814,9.468880470811067,1.867438273692755,-0.36444444444444446,-0.30666666666666664,-0.31555555555555553,-0.041538493813995464,-0.24046299448112093,-0.06023993641754341
1592174915.2547913,0.11,9.46,1.91,-0.3888888888888889,-0.3388888888888889,-0.2877777777777778,-0.03599741582238304,-0.19307704850187268,-0.06326818538479445
1592174915.2647913,0.13442469295410472,9.54141564318035,1.89371687136393,-0.3888888888888889,-0.3388888888888889,-0.2877777777777778,-0.01113042269017877,-0.16998626916482587,-0.06060386469205827
1592174915.2747912,0.015481827275758586,9.550421679021213,1.9570482468515147,-0.3888888888888889,-0.3388888888888889,-0.2877777777777778,0.020666664508251012,-0.1365049642625729,-0.017157550827302477
1592174915.2847912,-0.07519673016842451,9.398539146367247,2.0357304268163774,-0.3888888888888889,-0.3388888888888889,-0.2877777777777778,0.04246888583565399,-0.11357813333454941,0.02293506888864063
1592174915.2947912,0.08409765994327136,9.39,2.1337700913961553,-0.3888888888888889,-0.3388888888888889,-0.2877777777777778,0.0777289986906689,-0.10894599385805391,0.03531783821466168
1592174915.3047912,-0.060501482213438734,9.551926259881423,1.7694719614624506,-0.3751304485068072,-0.3208970822353975,-0.2941278271848924,0.14129573163621767,-0.07266541771251372,0.061037614287434164
1592174915.3147912,0.13650714368683933,9.569386688349402,1.796933441747009,-0.37444444444444447,-0.32,-0.29444444444444445,0.1255589438145212,-0.0668082854233783,0.04169877740784135
1592174915.3247912,0.04,9.43,1.66,-0.37444444444444447,-0.32,-0.29444444444444445,0.07526732399225547,-0.015271630954950384,0.03490658503988659
1592174915.3347912,0.13376377463914324,9.481143877075896,1.702619897563247,-0.37444444444444447,-0.32,-0.29444444444444445,0.059460351281251406,-0.005043589789006583,-0.004145935775535188
1592174915.3447912,0.025690445666108952,9.548011125355817,1.7597238217335565,-0.37444444444444447,-0.32,-0.29444444444444445,0.06214722822684868,0.03831171876976336,0.0008437518386068595
1592174915.3547912,0.0,9.64,1.72,-0.38222222222222224,-0.3333333333333333,-0.29444444444444445,0.04145156973486533,0.05235987755982988,-0.01090830782496456
1592174915.3647912,-0.07966758450057865,9.596544953908776,1.7779400614549663,-0.38222222222222224,-0.3333333333333333,-0.29444444444444445,0.01459037864056954,0.061050262913866754,-0.0006378524065573481
1592174915.3747911,-0.19405454400042654,9.514624243555224,1.9307515128895523,-0.38222222222222224,-0.3333333333333333,-0.29444444444444445,-0.007861914737263255,0.06537778598956165,0.0012349527029478554
1592174915.3847911,-0.2,9.556178418478389,1.9954141021740657,-0.38222222222222224,-0.3333333333333333,-0.29444444444444445,0.0003404650054095442,0.06544984694978735,0.015195226084200531
1592174915.3947911,-0.09479531368396511,9.582543861353436,2.0300584818045815,-0.38222222222222224,-0.3333333333333333,-0.29444444444444445,0.0002711128518077808,0.07118787246460809,0.03193710242053167
1592174915.404791,-0.267547572815534,9.542830097087379,1.9550941747572814,-0.38536688241639694,-0.31341715210355986,-0.3080713052858684,-0.007203613494623926,0.0905801523427778,0.0751644893621774
1592174915.414791,-0.2139876120313453,9.483417953169726,1.865126929754587,-0.38555555555555554,-0.31222222222222223,-0.3088888888888889,-0.022037484441936636,0.09368716701033966,0.10213756092489656
1592174915.424791,-0.020006639802179704,9.461905394266875,1.6971485484018682,-0.38555555555555554,-0.31222222222222223,-0.3088888888888889,-0.027841984665133178,0.08492927847582152,0.09869438610445572
1592174915.434791,0.11612129904722877,9.49870709968241,1.6122625755557833,-0.38555555555555554,-0.31222222222222223,-0.3088888888888889,-0.034695034720117535,0.1040498457737244,0.07495217771557888
1592174915.444791,0.09514196675900277,9.541430055401662,1.6680020775623268,-0.38555555555555554,-0.31222222222222223,-0.3088888888888889,-0.060214765701379847,0.12008543623556639,0.05609922130869239
1592174915.454791,0.0999913579879012,9.559991357987903,1.7799135798790118,-0.39110630999327844,-0.3555181068364607,-0.3088888888888889,-0.10032626567664962,0.12762343076295732,0.025112675429468725
1592174915.464791,0.062349142280524725,9.54493965691221,1.8628318869828455,-0.39111111111111113,-0.35555555555555557,-0.3088888888888889,-0.11432047494952524,0.13666275876140088,0.029196179456198283
1592174915.474791,-0.1057640465722982,9.488078651142567,1.8294250929996618,-0.39111111111111113,-0.35555555555555557,-0.3088888888888889,-0.11134890121179039,0.1301867725591422,0.027711391629779526
1592174915.484791,-0.08698012775017744,9.454188076650105,1.8458119233498935,-0.39111111111111113,-0.35555555555555557,-0.3088888888888889,-0.10172697686849116,0.11557836008001376,0.0272707695624114
1592174915.494791,-0.06578561287269286,9.435785612872692,1.8428928064363466,-0.39111111111111113,-0.35555555555555557,-0.3088888888888889,-0.09027786281836174,0.11112057772471322,0.016416925839459796
1592174915.504791,-0.10940164231373023,9.471168035261442,1.8070655717908466,-0.39111111111111113,-0.3372586509949147,-0.33267486481772196,-0.07090712937707272,0.10747946742505722,-0.007760099844494321
1592174915.514791,-0.20433498457799792,9.589635479951397,1.7072315169642023,-0.39111111111111113,-0.3333333333333333,-0.3377777777777778,-0.05659208484849498,0.08942232921303431,-0.03131813002346026
1592174915.524791,-0.20272471015025614,9.601362355075128,1.7591011593989754,-0.39111111111111113,-0.3333333333333333,-0.3377777777777778,-0.05265709733035788,0.05979344669471118,-0.03867546862881643
1592174915.534791,-0.18287804992823697,9.531512199712948,1.8128048751794077,-0.39111111111111113,-0.3333333333333333,-0.3377777777777778,-0.05889688012795616,0.038822934732137396,-0.024328188014155212
1592174915.544791,-0.0727613593279189,9.534298485422944,1.9272386406720812,-0.39111111111111113,-0.3333333333333333,-0.3377777777777778,-0.06155541584154751,0.033657831616019394,-0.01245827882447452
1592174915.554791,-0.09457605070046698,9.558450300200134,1.8961987991994662,-0.3788109109776888,-0.35383366688903717,-0.3572530946556964,-0.03701966034654042,0.01964292246189974,0.002342739212561685
1592174915.564791,-0.01793547569781681,9.627143701701787,1.8974604113001985,-0.37777777777777777,-0.35555555555555557,-0.35888888888888887,-0.018630492447204786,0.01854412330243975,0.03826609142175524
1592174915.574791,0.11988754264204211,9.531659569462416,1.84928267262675,-0.37777777777777777,-0.35555555555555557,-0.35888888888888887,-0.0167782375169369,0.017622056270694894,0.08152849507416213
1592174915.584791,0.20688161875945538,9.468198988275342,1.9654030351739789,-0.37777777777777777,-0.35555555555555557,-0.35888888888888887,-0.04572394732377076,0.05666742660267171,0.07997080974711585
1592174915.594791,0.11096614689793455,9.487258463275516,1.9695561525433627,-0.37777777777777777,-0.35555555555555557,-0.35888888888888887,-0.049782328236109306,0.09781018334483361,0.06664606800995186
1592174915.604791,0.03451006443898226,9.559476516309042,2.1044429681791006,-0.3928829247768994,-0.3432826236187692,-0.35888888888888887,-0.03518478203543591,0.12178796328577418,0.07962332805567435
1592174915.614791,-0.24504828774936002,9.370827101974601,2.139484423715495,-0.39555555555555555,-0.3411111111111111,-0.35888888888888887,-0.0389324642807546,0.1553361725857143,0.09945658161869311
1592174915.624791,-0.2325373612724869,9.394328298409391,2.0850747225449737,-0.39555555555555555,-0.3411111111111111,-0.35888888888888887,-0.031031707954420996,0.14210108683321435,0.07863754051257475
1592174915.634791,-0.2824450951683748,9.436762183643589,1.9351098096632504,-0.39555555555555555,-0.3411111111111111,-0.35888888888888887,0.026249755600547427,0.11872030925191872,0.06191063609471833
1592174915.644791,-0.23728462181861631,9.455061536623253,2.0028384514278885,-0.39555555555555555,-0.3411111111111111,-0.35888888888888887,0.05408338758933767,0.10521818228088171,0.04876433298454538
1592174915.6547909,-0.06114119433198381,9.488033906882592,2.0486892712550606,-0.39555555555555555,-0.34734086819613136,-0.35888888888888887,0.051912449245450645,0.09227318819781952,0.02433722969490828
1592174915.6647909,0.0169070989288478,9.512302366309616,1.8790151916262778,-0.39555555555555555,-0.3477777777777778,-0.35888888888888887,0.061000289854549805,0.09325165957590503,0.031016815663439223
1592174915.6747909,0.21508534937983545,9.581279872282943,1.8812798722829422,-0.39555555555555555,-0.3477777777777778,-0.35888888888888887,0.052899706847230624,0.08426202286131165,0.032860811814051774
1592174915.6847908,0.24,9.602376733595529,1.9518836679776443,-0.39555555555555555,-0.3477777777777778,-0.35888888888888887,0.006040958101584282,0.1065297529570623,0.030699785175979537
1592174915.6947908,0.0713084553613604,9.490510155880964,2.05325932923949,-0.39555555555555555,-0.3477777777777778,-0.35888888888888887,-0.05785267687084179,0.1364167109936652,0.0447869252639629
1592174915.7047908,0.038754826254826256,9.354739382239382,2.1575096525096527,-0.39555555555555555,-0.3426104676104676,-0.37697447447447446,-0.07393116157624387,0.14881732654990504,0.06817902975695997
1592174915.7147908,0.11093692231390054,9.345234230578475,2.2104684611569505,-0.39555555555555555,-0.3411111111111111,-0.38222222222222224,-0.04758774494951985,0.15884363181583566,0.06145308506340792
1592174915.7247908,-0.07830980720047218,9.512018738933701,1.8728169879992131,-0.39555555555555555,-0.3411111111111111,-0.38222222222222224,-0.010655665578516806,0.1749084817348193,0.046873291657970315
1592174915.7347908,-0.040528202844890227,9.498786586366087,1.9077301806763058,-0.39555555555555555,-0.3411111111111111,-0.38222222222222224,-0.000512324667653879,0.17221890074006266,0.04446789974852775
1592174915.7447908,0.04653357996025108,9.442310946693166,1.9751260355378895,-0.39555555555555555,-0.3411111111111111,-0.38222222222222224,-0.010278094877561109,0.15920630086671528,0.03924241148098877
1592174915.7547908,0.10297096152568277,9.427656987175228,2.0359419230513653,-0.3921524501443433,-0.353021980050354,-0.3805206695166161,-0.015527214006254956,0.15271630954950383,0.017621965736161597
1592174915.7647908,0.10182746586091397,9.511725341390859,2.000964795165484,-0.39111111111111113,-0.3566666666666667,-0.38,-0.001007868059081235,0.15717373545446295,0.010216168245477372
1592174915.7747908,0.11538125380127498,9.545381253801276,1.943856238596175,-0.39111111111111113,-0.3566666666666667,-0.38,-0.0011740074589713617,0.1665596360218968,0.010656394298459172
1592174915.7847908,0.10498768356229275,9.497456892468024,1.9900492657508289,-0.39111111111111113,-0.3566666666666667,-0.38,-0.016919968763138657,0.16744118159826782,0.01254589751364742
1592174915.7947907,0.1,9.461459374385205,2.0161802085382647,-0.39111111111111113,-0.3566666666666667,-0.38,-0.017097522448878445,0.16554879737880043,0.01646075024785081
1592174915.8047907,0.06151072990705304,9.511582832148715,1.9276257517769273,-0.39624301379017074,-0.3515347639876071,-0.4073701476216512,0.0009339008483005146,0.16471544815696484,0.022742651363760427
1592174915.8147907,0.0006642376681614409,9.519036497259592,1.9274087568510214,-0.3977777777777778,-0.35,-0.41555555555555557,0.0066500865398044715,0.1563439197657095,0.022204378273938744
1592174915.8247907,-0.12440127336543957,9.52055015917068,1.95,-0.3977777777777778,-0.35,-0.41555555555555557,-0.010202264017128003,0.14196333225266475,0.013820721837263687
1592174915.8347907,-0.29035299845816764,9.505358273147772,1.98285563580297,-0.3977777777777778,-0.35,-0.41555555555555557,-0.03782791892643597,0.10121507506280676,-0.0022201677234272178
1592174915.8447907,-0.3222033898305085,9.504067796610169,2.0022033898305085,-0.3977777777777778,-0.35,-0.41555555555555557,-0.03370482231340744,0.0778372473611878,0.0009614101811833168
1592174915.8547907,-0.2648821866163996,9.46492931196984,2.0124882186616397,-0.3927699235522044,-0.3608503508220756,-0.41555555555555557,-0.00924892904744403,0.02340402632681369,0.01774013680676376
1592174915.8647907,-0.19624440283318406,9.45,1.9706199625498655,-0.39111111111111113,-0.36444444444444446,-0.41555555555555557,0.005182667329229681,-0.005524712005512763,0.019293886298550337
1592174915.8747907,0.16980888913366748,9.395783444401609,1.8967643333149748,-0.39111111111111113,-0.36444444444444446,-0.41555555555555557,0.03435074616784511,-0.05395373891686194,-0.005358269904724152
1592174915.8847907,0.10614120525861243,9.590543613856637,1.7766303617695038,-0.39111111111111113,-0.36444444444444446,-0.41555555555555557,0.051636617288103634,-0.03723644194892704,-0.04644925686539085
1592174915.8947906,0.07,9.674591726304765,1.737028102635713,-0.39111111111111113,-0.36444444444444446,-0.41555555555555557,0.05501321062323442,-0.039180836666983285,-0.055484882121646054
1592174915.9047906,0.19796014323524835,9.536057294099331,1.9439302506616847,-0.39644278374591313,-0.35822415970384214,-0.43865947030636426,0.00765076069137207,-0.060428492845200764,-0.03927534279310765
1592174915.9147906,0.2919082507701274,9.433250770127383,2.056749229872617,-0.3977777777777778,-0.3566666666666667,-0.4444444444444444,-0.03869179782552296,-0.06045437598352091,-0.03265553751886776
1592174915.9247906,0.22330159983281864,9.415194000046439,1.9833015998328185,-0.3977777777777778,-0.3566666666666667,-0.4444444444444444,-0.07781432661204042,-0.03708305422299983,-0.04359609943724557
1592174915.9347906,0.09233509904941586,9.521785792032508,1.9017582178361512,-0.3977777777777778,-0.3566666666666667,-0.4444444444444444,-0.04991447256785213,-0.01911949874384217,-0.04985756034576266
1592174915.9447906,0.06,9.56,1.9466759255736084,-0.3977777777777778,-0.3566666666666667,-0.4444444444444444,-0.030905862180662495,-0.014035154070106982,-0.03719520870398126
1592174915.9547906,0.022673286604361367,9.52267328660436,2.0335478322949117,-0.3881004817122419,-0.36565272729895004,-0.4361496192454136,-0.036359220775261304,-0.017161682188096015,-0.015734249967685528
1592174915.9647906,0.0274457050977195,9.45197001607899,2.05313857372557,-0.38222222222222224,-0.3711111111111111,-0.4311111111111111,-0.042542400517361786,-0.027868074576112102,0.006242663723984519
1592174915.9747906,0.05377679666421388,9.381781211675252,2.015558008339465,-0.38222222222222224,-0.3711111111111111,-0.4311111111111111,-0.02826565432611874,-0.03839676194088077,0.0040730770586460754
1592174915.9847906,0.10027763118647179,9.386851754124315,2.0067129385310785,-0.38222222222222224,-0.3711111111111111,-0.4311111111111111,-0.009368059665727027,-0.04364837373207746,-0.02123577197305063
1592174915.9947906,0.11459264190472461,9.486517729524406,1.999185283809449,-0.38222222222222224,-0.3711111111111111,-0.4311111111111111,0.009704235509587792,-0.04531391334858548,-0.04638037434816672
1592174916.0047905,0.05910278372591007,9.486481798715204,2.035241970021413,-0.3847356650011896,-0.3641991434689507,-0.44242160361646443,0.02812848490145358,-0.045198001195349405,-0.05396972889879467
1592174916.0147905,0.10853481292349995,9.709225179220269,1.9269822252774231,-0.38666666666666666,-0.35888888888888887,-0.45111111111111113,0.02712968892403883,-0.04546695823050484,-0.053149800587437554
1592174916.0247905,0.15,9.781608975167023,1.838103365687634,-0.38666666666666666,-0.35888888888888887,-0.45111111111111113,-0.02854987281527141,-0.05377673377851682,-0.04976443457662339
1592174916.0347905,0.1567367481126715,9.605054793408556,1.9142093514083935,-0.38666666666666666,-0.35888888888888887,-0.45111111111111113,-0.0920884677212058,-0.05709063330057705,-0.03734100871776497
1592174916.0447905,0.22200576848861536,9.169985578778462,2.1528080758840615,-0.38666666666666666,-0.35888888888888887,-0.45111111111111113,-0.16244469532033667,-0.05157378722748793,-0.016929756668794496
1592174916.0547905,0.208126288050272,9.470741241258152,2.0591283489307073,-0.39216655217330915,-0.36301380301887076,-0.4497361397344505,-0.02442353132483205,-0.029616392955551435,-0.009354042565293437
1592174916.0647905,0.14730302919306987,9.747653199516503,1.9473905717739277,-0.39555555555555555,-0.3655555555555556,-0.4488888888888889,0.061997753695103325,-0.013582863003117293,0.0005883877551387424
1592174916.0747905,0.056413936671414484,9.664380135860634,1.8982069683357072,-0.39555555555555555,-0.3655555555555556,-0.4488888888888889,0.008907714369479944,0.010152214011250502,0.020417311738296764
1592174916.0847905,0.05946995956094743,9.336360485268631,1.954899865203158,-0.39555555555555555,-0.3655555555555556,-0.4488888888888889,-0.09053123531861798,0.009225166220410645,0.03249364970413908
1592174916.0947905,0.1562884850396184,9.312467575984547,1.9630348484251192,-0.39555555555555555,-0.3655555555555556,-0.4488888888888889,-0.06411592607333211,0.0036035429557224642,0.029440498082813196
1592174916.1047904,0.2130560540162414,9.484719729918794,1.917408072021655,-0.3999484304402337,-0.3724586446600498,-0.4488888888888889,0.025764395255149345,0.0035552278299686036,0.004424468576384465
1592174916.1147904,0.19360457312134047,9.607558841907936,1.8552320118493832,-0.4033333333333333,-0.37777777777777777,-0.4488888888888889,0.06884924818995208,0.012430482418929328,-0.011212742743757513
1592174916.1247904,0.19,9.589858806750653,1.9114794390301877,-0.4033333333333333,-0.37777777777777777,-0.4488888888888889,0.03302424723417913,0.014995072810759576,-0.00789697182739923
1592174916.1347904,0.15327361791462563,9.51715255423373,2.0456948915325404,-0.4033333333333333,-0.37777777777777777,-0.4488888888888889,-0.0115490659487067,0.013513095703979714,0.012573866736321465
1592174916.1447904,0.144607601754251,9.455915595906747,2.1340844040932523,-0.4033333333333333,-0.37777777777777777,-0.4488888888888889,-0.021902223667021246,0.02052603282755103,0.04630646752770271
1592174916.1547904,0.05848414334153314,9.414924207167077,2.1446210358353834,-0.3960016325746663,-0.37777777777777777,-0.4573485436104278,-0.015775707768575915,0.03722053005327213,0.07645736736104639
1592174916.1647904,-0.02149259840371103,9.453183937058007,2.0151247242876957,-0.3888888888888889,-0.37777777777777777,-0.46555555555555556,-0.006360488268205453,0.048506685313551956,0.07953839890885464
1592174916.1747904,-0.03989540895337478,9.497937245372025,1.8005229552331259,-0.3888888888888889,-0.37777777777777777,-0.46555555555555556,-0.0008772282713264568,0.03843831635183888,0.061143569386417684
1592174916.1847904,0.061420267390040695,9.455360879674481,1.7546391203255183,-0.3888888888888889,-0.37777777777777777,-0.46555555555555556,0.001986734479320105,0.023258568819060382,0.029648626375195886
1592174916.1947904,0.07101515354700283,9.479129868388283,1.8392748903235694,-0.3888888888888889,-0.37777777777777777,-0.46555555555555556,0.0016599753324167796,0.023381674347657512,-0.011050327518787158
1592174916.2047904,-0.020102037500406202,9.534974490624897,1.910102037500406,-0.3888888888888889,-0.38056972743061196,-0.46834750520838975,0.008771168518536479,0.020138629858779906,-0.04749287865600036
1592174916.2147903,-0.022441548738683308,9.553411268348421,1.9885281708710556,-0.3888888888888889,-0.38333333333333336,-0.4711111111111111,0.012984189389888101,-0.0007697274784109649,-0.053717039994438456
1592174916.2247903,-0.015320571955719557,9.56467942804428,1.9874354243542434,-0.3888888888888889,-0.38333333333333336,-0.4711111111111111,-0.0035313633980403013,-0.025487854950891016,-0.05642256812868027
1592174916.2347903,0.02842266120014909,9.527718225866568,1.9822817741334327,-0.3888888888888889,-0.38333333333333336,-0.4711111111111111,-0.019379925464424116,-0.06215897757979749,-0.052952902449635825
1592174916.2447903,0.10215189126458035,9.481627490705954,2.0605244005586263,-0.3888888888888889,-0.38333333333333336,-0.4711111111111111,-0.0178971217600137,-0.09383708790102271,-0.030371652228388415
1592174916.2547903,0.1980833110099116,9.455159724082508,2.144201379587463,-0.3861998467125041,-0.3870979923802721,-0.4775648123344346,-0.0030232712642797067,-0.11010421625378004,0.005459450271424885
1592174916.2647903,0.2905585627087412,9.456111712541748,2.0538774617067834,-0.38333333333333336,-0.39111111111111113,-0.48444444444444446,0.021212041878457745,-0.09902188224851768,0.04224129453792064
1592174916.2747903,0.20213319741760108,9.414582398912675,1.9686455997281684,-0.38333333333333336,-0.39111111111111113,-0.48444444444444446,0.04478685064319564,-0.073198933880586,0.07373941959143762
1592174916.2847903,0.19063605248146037,9.38,2.003468339988591,-0.38333333333333336,-0.39111111111111113,-0.48444444444444446,0.05681778499040867,-0.03925092908324028,0.07709585009286346
1592174916.2947903,0.17494522782892435,9.41090490618809,1.9914351474187157,-0.38333333333333336,-0.39111111111111113,-0.48444444444444446,0.06311163508661889,-0.018927013678489084,0.04403309241468665
1592174916.3047903,0.015091580242573385,9.468545262787837,1.920727368606082,-0.38333333333333336,-0.38183847971719304,-0.48238385969024045,0.08447973413065504,-0.013248656603104609,0.013169312996531039
1592174916.3147902,-0.05309880843263061,9.488028230980753,1.9218306141154904,-0.38333333333333336,-0.3711111111111111,-0.48,0.10133971945506196,-0.013274260801350456,0.008665295777099069
1592174916.3247902,0.052217447705529434,9.493454137614183,1.9643284146802875,-0.38333333333333336,-0.3711111111111111,-0.48,0.10086812189540312,-0.043605313437282585,-0.03256210367024182
1592174916.3347902,0.13165680753395487,9.572761345889925,1.86889546164403,-0.38333333333333336,-0.3711111111111111,-0.48,0.10144726277217041,-0.05287517134009961,-0.04011976606454087
1592174916.3447902,0.16430285826155053,9.589879992169147,1.8973314408770556,-0.38333333333333336,-0.3711111111111111,-0.48,0.08783556106335681,-0.0486049253642951,-0.03224246362684826
1592174916.3547902,0.20860707485720015,9.541420650031734,1.9943173998730668,-0.38857626942505186,-0.37635404720282967,-0.48571956664551114,0.048756277241583754,-0.03848599082830082,-0.02352732194673328
1592174916.3647902,0.1910655415558895,9.53,2.04,-0.39555555555555555,-0.38333333333333336,-0.49333333333333335,0.013832833853256468,-0.021607982126322756,-0.008518012736365285
1592174916.3747902,0.1293188109825278,9.513978216473792,1.9972752439301111,-0.39555555555555555,-0.38333333333333336,-0.49333333333333335,0.0157174681243247,-0.011850526217669577,0.012308244457513565
1592174916.3847902,0.17160038563509278,9.443239575801398,2.011600385635093,-0.39555555555555555,-0.38333333333333336,-0.49333333333333335,0.03194832767702961,-0.00812885837128469,0.03581860791320594
1592174916.3947902,0.1817930793428871,9.39,2.051509573187308,-0.39555555555555555,-0.38333333333333336,-0.49333333333333335,0.048860864873919274,0.0017904723364569582,0.0519996140554472
1592174916.4047902,0.06829337845883865,9.424709974616905,1.993720033844129,-0.38827074606805734,-0.38333333333333336,-0.49333333333333335,0.06184973960372552,0.020662511144315214,0.04964953344392694
1592174916.4147902,0.04710015876302892,9.44915993649479,1.8737399047421825,-0.37666666666666665,-0.38333333333333336,-0.49333333333333335,0.07607237673721241,0.036649740712217216,0.03490658503988659
1592174916.4247901,0.1573078892131265,9.483956381508216,1.7713733169508012,-0.37666666666666665,-0.38333333333333336,-0.49333333333333335,0.0804337617223069,0.032221420155639696,0.01862794744642824
1592174916.4347901,0.1273791678677813,9.61400643797444,1.6801503795522243,-0.37666666666666665,-0.38333333333333336,-0.49333333333333335,0.057107512313148395,0.023226142597908467,-0.021718192463154432
1592174916.4447901,0.10862325174825176,9.627065122377623,1.6738527097902096,-0.37666666666666665,-0.38333333333333336,-0.49333333333333335,0.03317546328672023,0.0082865952056691,-0.03676810111954455
1592174916.45479,0.14476277594828638,9.546660568361995,1.7714416392242958,-0.3671411147700939,-0.387037714626445,-0.48909975471263434,0.0010868394514225582,-0.019533441231290055,-0.019684712678990808
1592174916.46479,0.153739837398374,9.506260162601626,1.8532055749128922,-0.3566666666666667,-0.39111111111111113,-0.48444444444444446,-0.02541344328234194,-0.03474821820154506,-0.008060238604230491
1592174916.47479,0.21111714902598192,9.444441425487009,1.8833514470779458,-0.3566666666666667,-0.39111111111111113,-0.48444444444444446,-0.06060796716492499,-0.05272249986915157,-0.045565241046552914
1592174916.48479,0.2045073424917101,9.49958076740881,1.8590146849834204,-0.3566666666666667,-0.39111111111111113,-0.48444444444444446,-0.03089541784465744,-0.05257483994993814,-0.06283826060457794
1592174916.49479,0.1989367183198301,9.57106328168017,1.8773755211201133,-0.3566666666666667,-0.39111111111111113,-0.48444444444444446,-0.001083473058937967,-0.050982760542314196,-0.05998833531374659
1592174916.50479,0.17672107121444275,9.580163213643328,1.8932789287855571,-0.3632245242377812,-0.393297063634816,-0.48990932575370655,0.00627632828282169,-0.05128685062396001,-0.04690572364734761
1592174916.51479,0.17,9.497055959897816,1.889509326649636,-0.37666666666666665,-0.3977777777777778,-0.5011111111111111,-0.012320283564297586,-0.05194827256726356,-0.04976661100227065
1592174916.52479,0.17,9.454707362288136,1.904512270480226,-0.37666666666666665,-0.3977777777777778,-0.5011111111111111,-0.013196375464697811,-0.05721541304369377,-0.052894652343604076
1592174916.53479,0.15235115075741612,9.500885486174521,1.9564732738638757,-0.37666666666666665,-0.3977777777777778,-0.5011111111111111,0.0005462454350409519,-0.0624021815409863,-0.054413303743798824
1592174916.54479,0.09771579949994047,9.536412866611103,1.9577157994999403,-0.37666666666666665,-0.3977777777777778,-0.5011111111111111,0.018342923315867846,-0.06662373360624577,-0.047415163312110355
1592174916.55479,0.05649926296664495,9.520100442220013,1.9494977888999347,-0.37666666666666665,-0.3999776795066638,-0.503311012839997,0.02587476343399079,-0.07016217161187834,-0.030925133081641666
1592174916.56479,0.09,9.5,2.05,-0.37666666666666665,-0.40444444444444444,-0.5077777777777778,0.014180800172453926,-0.07308566242726255,-0.0272707695624114
1592174916.57479,-0.04559788524335251,9.407201057378323,2.008979422588504,-0.37666666666666665,-0.40444444444444444,-0.5077777777777778,0.007460936526028474,-0.10105928366941341,-0.04302259674582508
1592174916.58479,-0.16,9.428700925023184,1.9241421539485886,-0.37666666666666665,-0.40444444444444444,-0.5077777777777778,0.04244613929857015,-0.111155119790221,-0.04093555668570826
1592174916.59479,-0.14642591067717523,9.543393522330707,1.9367870446614124,-0.37666666666666665,-0.40444444444444444,-0.5077777777777778,0.07766565039388468,-0.12858421811260634,-0.05563236990731925
1592174916.60479,-0.07478,9.54468,1.95798,-0.37666666666666665,-0.40592222222222224,-0.5077777777777778,0.10231774573660257,-0.15903003811859331,-0.047507862239285645
1592174916.61479,0.2034407243087082,9.525050299215847,2.014647905489063,-0.37666666666666665,-0.41,-0.5077777777777778,0.09662082615041019,-0.1864003807677358,-0.01968982201791877
1592174916.62479,0.3593925325569501,9.518936931974663,2.0482535311012313,-0.37666666666666665,-0.41,-0.5077777777777778,0.0883324442252288,-0.19952263656891495,-0.014015139125893108
1592174916.63479,0.3516989493245658,9.411866199699809,1.8677992995497106,-0.37666666666666665,-0.41,-0.5077777777777778,0.09334045102873416,-0.17393133486866727,0.002421720744415868
1592174916.64479,0.40699885670731706,9.498867505081302,1.9506002286585364,-0.37666666666666665,-0.41,-0.5077777777777778,0.1193008175780945,-0.14757470249041596,-0.023955043068054793
1592174916.65479,0.3336303712455693,9.54636962875443,1.9298283688825322,-0.37482874890312234,-0.40868720159746835,-0.5022640244871449,0.15326928837786719,-0.12850130424863715,-0.045183430657633965
1592174916.66479,0.373863369820172,9.482460906958561,1.8012460906958563,-0.3688888888888889,-0.40444444444444444,-0.48444444444444446,0.18067695069064224,-0.10392124822355946,-0.005178887583279206
1592174916.67479,0.10817580632686209,9.57,1.793446128857607,-0.3688888888888889,-0.40444444444444444,-0.48444444444444446,0.1580194185390714,-0.0588348555379878,-0.018905188375816933
1592174916.68479,0.027073246190734007,9.57,1.6799025446670275,-0.3688888888888889,-0.40444444444444444,-0.48444444444444446,0.12705520934155592,-0.05087263031576953,-0.07375607323998719
1592174916.69479,0.08126255188110859,9.569579149372963,1.762104253135181,-0.3688888888888889,-0.40444444444444444,-0.48444444444444446,0.11871692456459208,-0.061950006909422616,-0.05872123152728702
1592174916.7047899,0.2177600512476359,9.510266609724848,1.9580266609724848,-0.36647703007748156,-0.40554074390417505,-0.48444444444444446,0.09585055748783117,-0.06453065014862568,-0.04360414869038042
1592174916.7147899,0.31163193483332674,9.436180552809521,1.956180552809522,-0.3566666666666667,-0.41,-0.48444444444444446,0.077467921644619,-0.07449465398526195,-0.04730342461672628
1592174916.7247899,0.35838127415361115,9.453237451692777,1.9408629347650013,-0.3566666666666667,-0.41,-0.48444444444444446,0.09397633533003798,-0.060858881397462115,-0.03423165984071949
1592174916.7347898,0.332834375072076,9.487165624927924,1.772834375072076,-0.3566666666666667,-0.41,-0.48444444444444446,0.1321749170248282,-0.0319029195695099,-0.024224886824856885
1592174916.7447898,0.21648922308485802,9.6,1.649467669254574,-0.3566666666666667,-0.41,-0.48444444444444446,0.15553624836941587,0.00664960234942686,-0.017012257890633826
1592174916.7547898,0.19,9.602192929339978,1.5743858586799573,-0.3534991020644754,-0.41,-0.49126689127993334,0.15891685613024606,0.04418812267699009,-0.0011483472222834036
1592174916.7647898,0.18471507468306766,9.607357537341533,1.5926424626584663,-0.3422222222222222,-0.41,-0.5155555555555555,0.14890692499593136,0.056372791667586006,0.016775031820961014
1592174916.7747898,0.17,9.6,1.6,-0.3422222222222222,-0.41,-0.5155555555555555,0.13526301702956053,0.05235987755982988,0.02399827721492203
1592174916.7847898,0.25062478323341425,9.510312391616706,1.593229202794431,-0.3422222222222222,-0.41,-0.5155555555555555,0.10489013831550877,0.06668846927837392,0.034736201844037605
1592174916.7947898,0.19863940289224072,9.509881044938579,1.5886394028922408,-0.3422222222222222,-0.41,-0.5155555555555555,0.09938806735940303,0.096831713647227,0.04426583173576565
1592174916.8047898,0.1830999102218802,9.573099910221881,1.558362511222265,-0.3422222222222222,-0.41327497755547005,-0.5102792028272982,0.1096953327336651,0.1404812579746214,0.041968339800640145
1592174916.8147898,0.2716501740257968,9.621958188311837,1.5716501740257969,-0.3422222222222222,-0.43,-0.48333333333333334,0.09053895494720585,0.15598880189699318,0.05017821599483697
1592174916.8247898,0.2767834180980712,9.570070050858842,1.5867483926686499,-0.3422222222222222,-0.43,-0.48333333333333334,0.07677016033658918,0.17265629010984496,0.04836653249344004
1592174916.8347898,0.18346377254662183,9.539951085295016,1.5333659431366555,-0.3422222222222222,-0.43,-0.48333333333333334,0.05379119694792979,0.2072525129077354,0.04580955709825991
1592174916.8447897,0.13265482382962018,9.583893414466582,1.5120355285111395,-0.3422222222222222,-0.43,-0.48333333333333334,0.06268899267370348,0.20770193210604665,0.050023728918662434
1592174916.8547897,0.14432533231328298,9.652883554875523,1.4957671097510439,-0.3404600497982921,-0.4279174325899008,-0.48333333333333334,0.05479558297732731,0.20022087568628927,0.05170053188077286
1592174916.8647897,0.1527737709407952,9.642438033505272,1.5506714748710457,-0.33,-0.41555555555555557,-0.48333333333333334,0.007306206020920882,0.17984058602011332,0.02685832827097861
1592174916.8747897,0.11373077014246094,9.564923080569844,1.5617884656410743,-0.33,-0.41555555555555557,-0.48333333333333334,-0.005502403141869018,0.16510563083190907,0.02194667654157719
1592174916.8847897,0.1,9.525385709544356,1.5184628514532266,-0.33,-0.41555555555555557,-0.48333333333333334,0.016111256715845908,0.14860450176233156,0.014432315515267462
1592174916.8947897,0.1,9.572632862695329,1.5675797176171968,-0.33,-0.41555555555555557,-0.48333333333333334,0.03134689192498218,0.1385007260047517,0.0068089965475282965
1592174916.9047897,0.10522801953136997,9.61,1.5860789853514725,-0.33,-0.4164268921441172,-0.4881256845704225,0.0242767551283481,0.12814774387095068,0.003935606782262496
1592174916.9147897,0.12165025680130981,9.61,1.55388341893377,-0.33,-0.4222222222222222,-0.52,-0.0016416162896250516,0.1253555324411978,0.0020916540190982686
1592174916.9247897,0.08800796522499332,9.615338643483328,1.51597610432502,-0.33,-0.4222222222222222,-0.52,-0.020221654106081247,0.12471542322789073,0.005528034459663674
1592174916.9347897,0.10171022940955246,9.616183715682588,1.46105302745393,-0.33,-0.4222222222222222,-0.52,-0.036829999904021464,0.11611604459779452,0.010535193647950447
1592174916.9447896,0.08656369520447191,9.57562420319702,1.514066882416397,-0.33,-0.4222222222222222,-0.52,-0.044962724774886775,0.11405990677706372,0.015032968262418307
1592174916.9547896,0.11064240544813328,9.56,1.6006424054481334,-0.3303568919156296,-0.4235070331184888,-0.519143459402489,-0.04567474173731771,0.11242564616090167,0.014040649044920483
1592174916.9647896,0.1252118297892206,9.575635489367661,1.6152118297892206,-0.33555555555555555,-0.44222222222222224,-0.5066666666666667,-0.04818141079362932,0.11259361772454933,0.010862093734018245
1592174916.9747896,0.1276044433711664,9.62,1.6126462207196328,-0.33555555555555555,-0.44222222222222224,-0.5066666666666667,-0.06838810937773278,0.1082809053689747,0.00547238271956964
1592174916.9847896,0.06667882423515296,9.588905098980204,1.5859124175164967,-0.33555555555555555,-0.44222222222222224,-0.5066666666666667,-0.0942135430950722,0.10027680854059527,-0.001090830782496456
1592174916.9947896,-0.0021588670190975947,9.497841132980902,1.670794335095488,-0.33555555555555555,-0.44222222222222224,-0.5066666666666667,-0.10142281308001254,0.09451793487461962,-0.0008553349225216539
1592174917.0047896,-0.01178508174386921,9.492975136239782,1.712975136239782,-0.3348283000302755,-0.4406354828943385,-0.5066666666666667,-0.0880201612800204,0.09734356925758257,0.0011683332692909928
1592174917.0147896,-0.04,9.54,1.76,-0.3233333333333333,-0.41555555555555557,-0.5066666666666667,-0.06544984694978735,0.10144726277217041,0.019634954084936207
1592174917.0247896,-0.04262806236080178,9.578262806236081,1.679576837416481,-0.3233333333333333,-0.41555555555555557,-0.5066666666666667,-0.06667915736391478,0.09921944132996717,0.029355252438540484
1592174917.0347896,0.06456918936782965,9.555258486379302,1.6496553514942636,-0.3233333333333333,-0.41555555555555557,-0.5066666666666667,-0.08585123055670611,0.09649153010103653,0.04007393301177481
1592174917.0447896,0.14586782847072646,9.500220285882122,1.7217356569414528,-0.3233333333333333,-0.41555555555555557,-0.5066666666666667,-0.09212859464420474,0.10728007828857078,0.043182481309589536
1592174917.0547895,0.17166774151941186,9.460277956919903,1.7719456984393138,-0.3233333333333333,-0.41574086016882356,-0.5070990440976253,-0.07981186601142681,0.11811292847405422,0.04554200929685787
1592174917.0647895,0.20804364915184115,9.474879189077368,1.84,-0.3233333333333333,-0.4222222222222222,-0.5222222222222223,-0.0408113554169049,0.13111309867222817,0.03333623100277595
1592174917.0747895,0.1329171479575764,9.49,1.8258342959151528,-0.3233333333333333,-0.4222222222222222,-0.5222222222222223,-0.016535313113146422,0.13930812868062428,0.026016251161707714
1592174917.0847895,0.08389161194858041,9.494886710441136,1.7461083880514197,-0.3233333333333333,-0.4222222222222222,-0.5222222222222223,-0.003963530066910502,0.14412292764389062,0.03230041446418943
1592174917.0947895,0.05618488327542244,9.517052093379661,1.7738151167245775,-0.3233333333333333,-0.4222222222222222,-0.5222222222222223,-0.002150128915773028,0.14472739469426976,0.03532274971608521
1592174917.1047895,-0.042063909037443635,9.516322681827093,1.8173546363458146,-0.3233333333333333,-0.4222222222222222,-0.5222222222222223,-0.013772524514751076,0.13911263819802647,0.031120390730877325
1592174917.1147895,-0.1290272373540856,9.499105058365759,1.8463424124513619,-0.31667531344574146,-0.41495892779939475,-0.5222222222222223,-0.022011861626562726,0.12387508321851776,0.020042423949215037
1592174917.1247895,-0.1952237079535465,9.483694073011614,1.8536940730116134,-0.3111111111111111,-0.4088888888888889,-0.5222222222222223,-0.00748939896426452,0.09005882385786661,0.009650619754403823
1592174917.1347895,-0.038160105252504795,9.5143679789495,1.8041760280673347,-0.3111111111111111,-0.4088888888888889,-0.5222222222222223,0.014678211355094166,0.055738847621084844,0.0026371955614346906
1592174917.1447895,0.10899449004321086,9.54,1.7851955920345688,-0.3111111111111111,-0.4088888888888889,-0.5222222222222223,0.026899045636095992,0.03331601564380354,-0.0027484127374530036
1592174917.1547894,0.17904844355779725,9.551156698159371,1.8323133963187415,-0.3111111111111111,-0.4088888888888889,-0.5222222222222223,0.023115043844113087,0.018165594714950203,-0.008496671358298043
1592174917.1647894,0.1772121179217113,9.51901514740214,1.8336060589608558,-0.3183973071285086,-0.4198181829149851,-0.5167575752091741,0.017256612514043368,0.014377480178353852,-0.007331704718578438
1592174917.1747894,0.1443203934842395,9.497200655807067,1.7269579014173895,-0.32,-0.4222222222222222,-0.5155555555555555,0.046164387939970866,0.0023122751090785885,0.004686337809021029
1592174917.1847894,0.19382765830346477,9.558109020310633,1.5709378733572283,-0.32,-0.4222222222222222,-0.5155555555555555,0.07188920221236306,-0.023640205820070294,0.009763000666472461
1592174917.1947894,0.2982258064516129,9.637451612903225,1.4874193548387096,-0.32,-0.4222222222222222,-0.5155555555555555,0.06186769941242802,-0.05552680563804541,-0.0048137306788875855
1592174917.2047894,0.402623954599761,9.71679420549582,1.403900836320191,-0.32,-0.4222222222222222,-0.5155555555555555,0.051846196612492984,-0.0874134054560205,-0.019390462024247636
1592174917.2147894,0.36,9.63,1.49,-0.32,-0.41555555555555557,-0.5288888888888889,-0.014180800172453926,-0.10253809355466686,-0.04036073895236887
1592174917.2247894,0.3387583148558758,9.52678808995882,1.631605955020589,-0.32,-0.41555555555555557,-0.5288888888888889,-0.050568316708628075,-0.09030779695116843,-0.049748379601607454
1592174917.2347894,0.22807878865648662,9.515769023482612,1.6573070704478376,-0.32,-0.41555555555555557,-0.5288888888888889,-0.04187130092752462,-0.06926785267152863,-0.061631841228046075
1592174917.2447894,0.01,9.54,1.73,-0.32,-0.41555555555555557,-0.5288888888888889,-0.020725784867432664,-0.05781403147231216,-0.07308566242726255
1592174917.2547894,-0.04927273848811029,9.529919193165345,1.75,-0.31993715023971325,-0.41555555555555557,-0.5287182966823962,-0.0009850548832838952,-0.07760764940606721,-0.0717480212132701
1592174917.2647893,0.04,9.52,1.75,-0.31222222222222223,-0.41555555555555557,-0.5077777777777778,0.011999138607461015,-0.09708393964218458,-0.04145156973486533
1592174917.2747893,0.14680396246089678,9.559319603753911,1.7211548488008341,-0.31222222222222223,-0.41555555555555557,-0.5077777777777778,0.01549429010580928,-0.11250401003104088,-0.027693622892331165
1592174917.2847893,0.24,9.551459718097394,1.613137462876538,-0.31222222222222223,-0.41555555555555557,-0.5077777777777778,0.019021814932760818,-0.11214877401052253,-0.01647412623771512
1592174917.2947893,0.2512304303359295,9.558876956966408,1.6922460860671857,-0.31222222222222223,-0.41555555555555557,-0.5077777777777778,0.022796655578818232,-0.09535715562912483,-0.0026482532544298745
1592174917.3047893,0.3337239398945795,9.550627606010544,1.708744787978916,-0.31222222222222223,-0.41555555555555557,-0.5077777777777778,0.029995572345437517,-0.0746602699250944,0.00994985108715387
1592174917.3147893,0.43,9.6,1.71,-0.3055555555555556,-0.41555555555555557,-0.5366666666666666,0.019634954084936207,-0.038179077387375956,0.0272707695624114
1592174917.3247893,0.6264847940459387,9.582382907737713,1.7184765815475427,-0.3055555555555556,-0.41555555555555557,-0.5366666666666666,0.008249441036862842,0.008828828535247205,0.028144330033013722
1592174917.3347893,0.3870166922581604,9.526754173064539,1.71662291346773,-0.3055555555555556,-0.41555555555555557,-0.5366666666666666,-0.005581720977590712,0.050390395522444266,0.012098069270829731
1592174917.3447893,0.2,9.48,1.74,-0.3055555555555556,-0.41555555555555557,-0.5366666666666666,-0.002181661564992912,0.06654067773228381,0.02399827721492203
1592174917.3547893,0.08948936966145021,9.55982978988715,1.72982978988715,-0.3052151353298557,-0.41534752097318345,-0.536174948562878,0.006396448350507618,0.0607894511308593,0.024940571652947365
1592174917.3647892,0.06,9.55,1.72,-0.28555555555555556,-0.4033333333333333,-0.5077777777777778,-0.002181661564992912,0.04363323129985824,0.016362461737446838
1592174917.3747892,0.09886261053187277,9.56446086841758,1.6567060842021908,-0.28555555555555556,-0.4033333333333333,-0.5077777777777778,-0.015029940745414281,0.032365613000173515,0.022299996069001325
1592174917.3847892,0.17,9.52,1.55,-0.28555555555555556,-0.4033333333333333,-0.5077777777777778,-0.01308996938995747,0.020725784867432664,0.02617993877991494
1592174917.3947892,0.1911575522200063,9.561929253700011,1.6015434029600084,-0.28555555555555556,-0.4033333333333333,-0.5077777777777778,0.0037775697850613594,-0.00688520665226959,0.024920748851561154
1592174917.4047892,0.21757279311430672,9.60595465519051,1.636763724152409,-0.28555555555555556,-0.4033333333333333,-0.5077777777777778,0.015303392942886199,-0.03954170559943997,0.021078807798952878
1592174917.4147892,0.19340638973194635,9.615494057410283,1.734505942589718,-0.28555555555555556,-0.43,-0.5011111111111111,-0.001989996002950118,-0.06522211773307221,0.011303794953182872
1592174917.4247892,0.14691876622034403,9.50972922073448,1.8228104545141361,-0.28555555555555556,-0.43,-0.5011111111111111,-0.029116320661912647,-0.07157622179325296,-0.008644146873950178
1592174917.4347892,0.11588546886184681,9.42,1.7593142448103078,-0.28555555555555556,-0.43,-0.5011111111111111,-0.022963354438171275,-0.0784962455754905,-0.01805172681608165
1592174917.4447892,0.06,9.42916023318103,1.7419847959665984,-0.28555555555555556,-0.43,-0.5011111111111111,0.023348754253719933,-0.09403210120534237,-0.026866906952513987
1592174917.4547892,0.06,9.561326610997321,1.6263392153773437,-0.28555555555555556,-0.43,-0.5011111111111111,0.06119368200365005,-0.11295456508030745,-0.036778673744162355
1592174917.4647892,0.05789057002111189,9.65112722428873,1.537600532823967,-0.3055555555555556,-0.4033333333333333,-0.5077777777777778,0.06721516800349568,-0.1308083709545537,-0.03963879145574981
1592174917.4747891,0.12,9.66,1.44,-0.3055555555555556,-0.4033333333333333,-0.5077777777777778,0.038179077387375956,-0.14726215563702155,-0.042542400517361786
1592174917.4847891,0.16676400784232795,9.647294396863069,1.3387932101950264,-0.3055555555555556,-0.4033333333333333,-0.5077777777777778,0.0027400777771449,-0.16813550826380338,-0.04596246062420033
1592174917.4947891,0.26642888806797194,9.608928518655338,1.4717862947912819,-0.3055555555555556,-0.4033333333333333,-0.5077777777777778,-0.021388161335378193,-0.16946831916927035,-0.04671086911285327
1592174917.504789,0.31291171038049503,9.60118138160325,1.5570048023642409,-0.3055555555555556,-0.4033333333333333,-0.5077777777777778,-0.03406438469433151,-0.164397829825689,-0.03741497198295417
1592174917.514789,0.4489535730541648,9.58790714610833,1.6747089212562585,-0.3055555555555556,-0.4222222222222222,-0.5077777777777778,-0.047076944855970235,-0.13521880288245935,-0.02262207775138787
1592174917.524789,0.42818345864661655,9.549545864661654,1.7598486215538847,-0.3055555555555556,-0.4222222222222222,-0.5077777777777778,-0.05012867751418826,-0.0946050471932994,-0.017420266866177488
1592174917.534789,0.18943273905996758,9.49,1.7417017828200971,-0.3055555555555556,-0.4222222222222222,-0.5077777777777778,-0.042643174187705864,-0.05427104137810973,-0.013151847959466995
1592174917.544789,0.17943408175014391,9.49,1.7683022452504318,-0.3055555555555556,-0.4222222222222222,-0.5077777777777778,-0.024883564580543936,-0.030461182702490125,-0.01381040754406221
1592174917.554789,0.17138514680483594,9.49,1.7441554404145079,-0.3055555555555556,-0.4222222222222222,-0.5077777777777778,-0.006445509970771805,-0.01377913329364867,-0.008542391941270173
1592174917.564789,0.11691935287677897,9.621026882374407,1.6286308235007905,-0.3055555555555556,-0.4088888888888889,-0.5077777777777778,0.0071130765222722925,0.009025354234373305,-0.009668123055267276
1592174917.574789,0.03051759118365841,9.647929635265367,1.5858592705307328,-0.3055555555555556,-0.4088888888888889,-0.5077777777777778,-0.009611930863067,0.01734037164076662,-0.005002470395775581
1592174917.584789,0.038649314938605225,9.609035224956147,1.5115436400701654,-0.3055555555555556,-0.4088888888888889,-0.5077777777777778,-0.046320047896540595,0.015103245944387236,0.0033145886001301546
1592174917.594789,-0.028382796220994922,9.55965345633307,1.5906930873338594,-0.3055555555555556,-0.4088888888888889,-0.5077777777777778,-0.07198223096145388,0.006343373761983497,0.005466754595794482
1592174917.604789,0.09040945965082642,9.534197972931965,1.6416040541360684,-0.3055555555555556,-0.4088888888888889,-0.5077777777777778,-0.07105664346554548,-0.008466026172551138,0.006392342091702897
1592174917.614789,0.22574974027473163,9.550607179960753,1.7066789795682789,-0.29777777777777775,-0.4222222222222222,-0.4777777777777778,-0.05500517053901557,-0.038642708801568726,0.0024114625782742267
1592174917.624789,0.16663435459568057,9.55810447011552,1.8112636865896534,-0.29777777777777775,-0.4222222222222222,-0.4777777777777778,-0.06269428018908121,-0.04605612480534999,-0.010701537590251269
1592174917.634789,0.37,9.5,1.85,-0.29777777777777775,-0.4222222222222222,-0.4777777777777778,-0.07853981633974483,-0.053450708342326333,-0.004363323129985824
1592174917.644789,0.30120692368214,9.448405192761605,1.9875861526357197,-0.29777777777777775,-0.4222222222222222,-0.4777777777777778,-0.0888580370643904,-0.022496046168389638,-0.002487282998232084
1592174917.654789,0.31617311451561575,9.396378142473974,2.036173114515616,-0.29777777777777775,-0.4222222222222222,-0.4777777777777778,-0.0648435598585112,0.0034836960708449355,0.007335151430819921
1592174917.664789,0.26,9.44,1.93,-0.3244444444444444,-0.4033333333333333,-0.5011111111111111,0.002181661564992912,0.031634092692397225,0.01308996938995747
1592174917.674789,0.23031670871337087,9.598310886862022,1.6034837958470796,-0.3244444444444444,-0.4033333333333333,-0.5011111111111111,0.04319562885592719,0.04674450169432038,0.018486544033501452
1592174917.684789,0.14,9.61,1.58,-0.3244444444444444,-0.4033333333333333,-0.5011111111111111,0.0370882466048795,0.0545415391248228,0.019634954084936207
1592174917.694789,0.11095458351608915,9.571272778021452,1.6477726384624585,-0.3244444444444444,-0.4033333333333333,-0.5011111111111111,0.0032923699210609253,0.05876602371030012,0.009073742621242898
1592174917.704789,0.2125827289211242,9.47674297370807,1.8365140525838624,-0.3244444444444444,-0.4033333333333333,-0.5011111111111111,-0.014094760029138252,0.06297396765334141,0.0036402645118056593
1592174917.714789,0.2592229491696024,9.509222949169603,1.8794172118772017,-0.28631102164066435,-0.4218552815523122,-0.48476821562377675,-0.0013663108462391438,0.06968602543496887,0.004342132355851771
1592174917.724789,0.3170301281311324,9.51,1.9275251067759436,-0.28555555555555556,-0.4222222222222222,-0.48444444444444446,0.019645908982555648,0.08951307285657267,0.011621182047754058
1592174917.734789,0.2340760908676566,9.519547101014705,1.8345289898529518,-0.28555555555555556,-0.4222222222222222,-0.48444444444444446,0.036347192373097414,0.11553320695626945,0.016164847275638283
1592174917.744789,0.10682381605715097,9.529475091072527,1.886850546435161,-0.28555555555555556,-0.4222222222222222,-0.48444444444444446,0.04535682341197522,0.12085318213066865,0.02566461064542952
1592174917.7547889,-0.031656951240910086,9.545489053087167,1.8512773672820853,-0.28555555555555556,-0.4222222222222222,-0.48444444444444446,0.0483492832497315,0.10165189057302396,0.030403922754715523
1592174917.7647889,0.0,9.49,1.78,-0.28555555555555556,-0.4088888888888889,-0.49333333333333335,0.053450708342326333,0.05890486225480862,0.022907446432425576
1592174917.7747889,0.030351965238001186,9.4975879913095,1.7875879913095003,-0.28555555555555556,-0.4088888888888889,-0.49333333333333335,0.057589315591185596,0.03738410456074048,0.018768839183566317
1592174917.7847888,0.14476148715086767,9.528571314677508,1.6471434266124532,-0.28555555555555556,-0.4088888888888889,-0.49333333333333335,0.0630603915276913,0.013921144818370087,0.017453292519943295
1592174917.7947888,0.23384977724150732,9.55794992574717,1.612050074252831,-0.28555555555555556,-0.4088888888888889,-0.49333333333333335,0.06834962528037816,0.011057393431723983,0.008306700707892599
1592174917.8047888,0.15567502752005033,9.552334093410915,1.6713272527126906,-0.28555555555555556,-0.4088888888888889,-0.49333333333333335,0.06872233929727672,0.03348626640938257,0.0026184913476045213
1592174917.8147888,0.24959431241921048,9.579898578104803,1.6401690364919954,-0.28555555555555556,-0.4033521151657773,-0.5010848165456895,0.0741580541888756,0.047970739800607294,0.008700831630734882
1592174917.8247888,0.25959677974265466,9.618387118970618,1.5920161012867269,-0.28555555555555556,-0.4033333333333333,-0.5011111111111111,0.07836387831220945,0.06265240228842062,0.022335647842935586
1592174917.8347888,0.47066601326556196,9.565043648713331,1.5350436487133317,-0.28555555555555556,-0.4033333333333333,-0.5011111111111111,0.06655020040430752,0.07026212801379954,0.03589619702914932
1592174917.8447888,0.41767747424142165,9.569040315719823,1.5661612628792891,-0.28555555555555556,-0.4033333333333333,-0.5011111111111111,0.052629955877917974,0.09851607394014217,0.031171373802478246
1592174917.8547888,0.3221678645954092,9.518764587680655,1.7529836154262308,-0.28555555555555556,-0.4033333333333333,-0.5011111111111111,0.05286588006052883,0.11821401224572217,0.03214009519309617
1592174917.8647888,0.2993763361838589,9.528129008551575,1.82,-0.2928482614763347,-0.4033333333333333,-0.493818405190332,0.0800434982969368,0.13560550495462345,0.03886172115672686
1592174917.8747888,0.234280091833388,9.55816567492855,1.801222883380968,-0.29333333333333333,-0.4033333333333333,-0.49333333333333335,0.09307776993524544,0.13225731644914382,0.031076845444046063
1592174917.8847888,0.14136225352112677,9.52454490140845,1.6936347042253521,-0.29333333333333333,-0.4033333333333333,-0.49333333333333335,0.08994389600068434,0.14262629074060104,0.027642598439392613
1592174917.8947887,0.10382412749456163,9.52,1.6974505816702923,-0.29333333333333333,-0.4033333333333333,-0.49333333333333335,0.09230346891347287,0.1382789737920052,0.03583680380870184
1592174917.9047887,0.1,9.563338866492767,1.6927768555845388,-0.29333333333333333,-0.4033333333333333,-0.49333333333333335,0.09429646216715924,0.12483791335486949,0.029996941157557272
1592174917.9147887,0.05490104132979756,9.56196041653192,1.7350989586702024,-0.304357523230494,-0.42037071771985424,-0.5003487269042537,0.08801493154455275,0.11113622624693155,0.023335142972332017
1592174917.9247887,-0.05805637192511513,9.523981209358295,1.6589577210561637,-0.3055555555555556,-0.4222222222222222,-0.5011111111111111,0.07842612134415637,0.10919164889263537,0.02585422685094561
1592174917.9347887,0.016812730627306274,9.546043819188192,1.5458247232472324,-0.3055555555555556,-0.4222222222222222,-0.5011111111111111,0.08407784547890708,0.10434817830560367,0.019551078858256243
1592174917.9447887,0.1681875402331736,9.541363278735426,1.4954531149417065,-0.3055555555555556,-0.4222222222222222,-0.5011111111111111,0.09544812259148572,0.08478652150668667,0.02137048372701125
1592174917.9547887,0.39945584204214496,9.578788118896693,1.49,-0.3055555555555556,-0.4222222222222222,-0.5011111111111111,0.09962261608744331,0.0708113774244463,0.02181661564992912
1592174917.9647887,0.3704099190283401,9.599954453441295,1.5198633603238867,-0.3055555555555556,-0.40341936572199727,-0.4933687584345479,0.10469988168435113,0.07197495820945744,0.017473165955251935
1592174917.9747887,0.29090887251761693,9.628760409993594,1.4984296925048046,-0.3055555555555556,-0.4033333333333333,-0.49333333333333335,0.1094256662003944,0.05395550583528334,0.008041470358474034
1592174917.9847887,0.14863201530612247,9.630719334608845,1.3879126806972788,-0.3055555555555556,-0.4033333333333333,-0.49333333333333335,0.10417819497113243,0.004386454586311081,0.00031386893369663143
1592174917.9947886,-0.13385592914390243,9.592226768393944,1.455546463212111,-0.3055555555555556,-0.4033333333333333,-0.49333333333333335,0.08508703263154929,-0.03599295262873159,-0.018541891705614023
1592174918.0047886,-0.2436845325085817,9.607565849845358,1.4365788668728545,-0.3055555555555556,-0.4033333333333333,-0.49333333333333335,0.07121972376420825,-0.06181143339021085,-0.02857692662654941
1592174918.0147886,-0.36,9.62,1.45,-0.2788888888888889,-0.4088888888888889,-0.5077777777777778,0.04690572364734761,-0.09381144729469522,-0.032724923474893676
1592174918.0247886,-0.3527730852409515,9.66336148855429,1.45,-0.2788888888888889,-0.4088888888888889,-0.5077777777777778,0.030350707375886826,-0.10090645426817842,-0.025629916501410485
1592174918.0347886,-0.11365653691969477,9.589098668046036,1.295467735678262,-0.2788888888888889,-0.4088888888888889,-0.5077777777777778,-0.008723853236630968,-0.10462050404781643,-0.022907446432425576
1592174918.0447886,0.17704490989263807,9.561583109662577,1.3076253355061351,-0.2788888888888889,-0.4088888888888889,-0.5077777777777778,-0.031084363960487763,-0.0986928418502829,-0.020898475342633286
1592174918.0547886,0.36918282548476455,9.599475992613112,1.3551154201292706,-0.2788888888888889,-0.4088888888888889,-0.5077777777777778,-0.02780359457066682,-0.09694443819862432,-0.012113459285035669
1592174918.0647886,0.47186155543298397,9.667517926089355,1.4275179260893547,-0.3039008396151254,-0.415141876570448,-0.5015247900962186,-0.019905706347552538,-0.10622453602811184,-0.007500439346167027
1592174918.0747886,0.31789456583543174,9.633784420437006,1.4517293477377955,-0.3055555555555556,-0.41555555555555557,-0.5011111111111111,-0.03148647478291472,-0.12191334290209213,-0.017907133415723236
1592174918.0847886,0.10902869701409587,9.566716010710858,1.4067160107108574,-0.3055555555555556,-0.41555555555555557,-0.5011111111111111,-0.051497100017265235,-0.1440956160091477,-0.034410109058270896
1592174918.0947886,0.017720802524145568,9.569034899684482,1.4090348996844817,-0.3055555555555556,-0.41555555555555557,-0.5011111111111111,-0.05542181768084639,-0.17770907427084595,-0.04782407185350337
1592174918.1047885,-0.062339264354066996,9.595835451555024,1.4875063546650718,-0.3055555555555556,-0.41555555555555557,-0.5011111111111111,-0.05675965414075589,-0.1917871101120598,-0.05134195367921379
1592174918.1147885,-0.18436896842499767,9.574692526312502,1.6053074736874982,-0.28743256608055634,-0.40951455906388917,-0.5011111111111111,-0.06967550034642522,-0.2077344291989009,-0.0514737968633075
1592174918.1247885,-0.24132806951581234,9.557167982621047,1.6164160086894765,-0.28555555555555556,-0.4088888888888889,-0.5011111111111111,-0.07860265861943998,-0.20204977765550192,-0.05336868071110716
1592174918.1347885,0.14771066482702228,9.55852470744545,1.577376462772753,-0.28555555555555556,-0.4088888888888889,-0.5011111111111111,-0.08569284345771254,-0.18086307715713631,-0.048962131148859014
1592174918.1447885,0.35934265969998314,9.56870891623125,1.6832159110062364,-0.28555555555555556,-0.4088888888888889,-0.5011111111111111,-0.08142565486360534,-0.14550557426234245,-0.037546605131891744
1592174918.1547885,0.5387591730450564,9.562783673952499,1.7432979562850153,-0.28555555555555556,-0.4088888888888889,-0.5011111111111111,-0.07757276166907903,-0.09899668081956489,-0.021041013703004166
1592174918.1647885,0.5443248649729946,9.513604054144162,1.8063959458558378,-0.28555555555555556,-0.4202301200980937,-0.5011111111111111,-0.06826053462713803,-0.03836622865785428,-0.002112998215077818
1592174918.1747885,0.2505224065362714,9.481052240653627,1.8027630601634068,-0.28555555555555556,-0.4211111111111111,-0.5011111111111111,-0.053421810374084916,0.005354226358750248,-0.004248541480428757
1592174918.1847885,0.08919351351351351,9.495403243243244,1.698387027027027,-0.28555555555555556,-0.4211111111111111,-0.5011111111111111,-0.02028591472486923,0.053054864523236635,0.0019353500088443425
1592174918.1947885,-0.02266785344848324,9.551333926724242,1.6628886910919194,-0.28555555555555556,-0.4211111111111111,-0.5011111111111111,0.00899357427651171,0.08130351323769672,0.00887215509321139
1592174918.2047884,-0.07780420485909972,9.588353153644325,1.6647255256073874,-0.28555555555555556,-0.4211111111111111,-0.5011111111111111,0.014636394028761523,0.08405385127552087,0.011879376560873508
1592174918.2147884,-0.05427542530733889,9.570706568980505,1.6864311436731652,-0.3074637471197759,-0.40924417401382507,-0.49472122190488016,-0.005145855034925852,0.06766808175596666,0.020454059231062627
1592174918.2247884,-0.04536980093866322,9.527781194368021,1.7061094028159896,-0.31222222222222223,-0.4066666666666667,-0.49333333333333335,-0.02211831977798972,0.05967298083947314,0.024159633313837997
1592174918.2347884,-0.011973218293351948,9.48478928731734,1.6667625056106927,-0.31222222222222223,-0.4066666666666667,-0.49333333333333335,-0.0285768450704052,0.040699287651160716,0.02286147605632416
1592174918.2447884,0.10643409577093962,9.525614612473259,1.65,-0.31222222222222223,-0.4066666666666667,-0.49333333333333335,-0.009026234309335905,0.021899365854097436,0.01849942742209721
1592174918.2547884,0.15911061165516135,9.546370203885054,1.681851019425269,-0.31222222222222223,-0.4066666666666667,-0.49333333333333335,0.009930255180841474,0.025096988457397995,0.016758411071083775
1592174918.2647884,0.17,9.511215166000065,1.7,-0.3070509110222309,-0.4023572406666739,-0.48643825173334493,0.025914830684172135,0.04976012272155353,0.017208615553869724
1592174918.2747884,0.16156820122661283,9.51264769816008,1.6873523018399192,-0.3055555555555556,-0.4011111111111111,-0.48444444444444446,0.03571973286796911,0.0579317863207759,0.015613759389177981
1592174918.2847884,0.09366690102335755,9.565208186860401,1.5502921646746348,-0.3055555555555556,-0.4011111111111111,-0.48444444444444446,0.05887299203274365,0.06031840033933727,0.0077131050267076175
1592174918.2947884,0.03322333926595796,9.587355332146808,1.5735533214680841,-0.3055555555555556,-0.4011111111111111,-0.48444444444444446,0.06756838525578064,0.05277461258820316,0.004651811640359845
1592174918.3047884,0.0139498739027585,9.565799495611035,1.6423508826806905,-0.3055555555555556,-0.4011111111111111,-0.48444444444444446,0.06080274275544931,0.03697888842512462,0.0063432222654426764
1592174918.3147883,0.01,9.529222976201854,1.7046283729969096,-0.30016891975603627,-0.4095758245103557,-0.4813663668447191,0.048833104769015576,0.007963804929996824,0.0031029720519394075
1592174918.3247883,0.0024656447586383894,9.542603065724085,1.6823282237931918,-0.29777777777777775,-0.41333333333333333,-0.48,0.055677340813100065,-0.015062632042515747,-0.004662263853982076
1592174918.3347883,0.028770546296508562,9.585963182870636,1.5764957245363471,-0.29777777777777775,-0.41333333333333333,-0.48,0.0745967610195441,-0.03061928322025104,-0.00968336444792583
1592174918.3447883,0.018391705069124426,9.592797235023042,1.554405529953917,-0.29777777777777775,-0.41333333333333333,-0.48,0.08150717768033312,-0.03647798459107734,-0.009336908273773812
1592174918.3547883,0.06425512934879572,9.571914956883735,1.5720566954108435,-0.29777777777777775,-0.41333333333333333,-0.48,0.0739212199936351,-0.03971860950274587,-0.00938423698443824
1592174918.3647883,0.16721482481438302,9.566721482481439,1.5867214824814384,-0.29777777777777775,-0.40511818807824207,-0.4829873255473059,0.06652273929884765,-0.045850769731723466,-0.004685077046133609
1592174918.3747883,0.29484272276727014,9.593710680691817,1.5820964397693942,-0.29777777777777775,-0.4011111111111111,-0.48444444444444446,0.06631199162887332,-0.05058298846710196,0.00040477247226498175
1592174918.3847883,0.34089886281151704,9.595820227437697,1.5340225018146625,-0.29777777777777775,-0.4011111111111111,-0.48444444444444446,0.06608473527480434,-0.04716556466001825,0.002002715697455385
1592174918.3947883,0.3338701373749048,9.568322082424944,1.47,-0.29777777777777775,-0.4011111111111111,-0.48444444444444446,0.06150869031790515,-0.03199279381834803,0.001696029694736485
1592174918.4047883,0.24740409453676215,9.566049658788604,1.4579006824227936,-0.29777777777777775,-0.4011111111111111,-0.48444444444444446,0.05933577763428422,-0.01120379986636565,0.0004309153794756019
1592174918.4147882,0.14063923992251637,9.58319128001722,1.45,-0.2948463822183959,-0.4143023911283297,-0.48444444444444446,0.0653801166912992,0.022303654170134236,0.001438945430331241
1592174918.4247882,0.0212774823968961,9.641754801935145,1.383458111797672,-0.29333333333333333,-0.4211111111111111,-0.48444444444444446,0.07517442285074669,0.04430039003177882,0.0013751511208091667
1592174918.4347882,-0.03309808879303934,9.667699362931014,1.2984050965518952,-0.29333333333333333,-0.4211111111111111,-0.48444444444444446,0.06401106221203039,0.05387564589337693,0.0019307009915725802
1592174918.4447882,-0.02619929304830837,9.651599057397744,1.3306025921562026,-0.29333333333333333,-0.4211111111111111,-0.48444444444444446,0.04594507280506155,0.04910886765663476,0.0031852772958674497
1592174918.4547882,0.006442557517791917,9.602595737470347,1.4228851150355837,-0.29333333333333333,-0.4211111111111111,-0.48444444444444446,0.01629932934626195,0.03188567753039816,0.0019718500788690313
1592174918.4647882,0.08975568660488628,9.58,1.5023167649536646,-0.30043807919123844,-0.41077693531779463,-0.4818609004961153,-0.000252719852726643,0.01512091802459704,0.0038045825101392814
