time,acc_x,acc_y,acc_z,mag_x,mag_y,mag_z,gyr_x,gyr_y,gyr_z
1592253857.073555,-0.5102220797111776,9.769555840577643,0.6686675217329343,-0.25333333333333335,-0.5788888888888889,0.13111111111111112,0.028264699790859667,-0.004217972298913544,0.0022058867035049585
1592253857.083555,-0.48198572233702797,9.762996430584257,0.719024985910201,-0.25333333333333335,-0.5788888888888889,0.13111111111111112,0.02530571670249058,-0.008183177683007416,0.003709603386201549
1592253857.093555,-0.47801695527880916,9.76,0.7720678211152368,-0.26491337984716884,-0.5690903879925665,0.13645574796365056,0.026621819694928786,-0.009817477042468103,0.005237837289988076
1592253857.103555,-0.5289249802436167,9.720860015805107,0.7995699920974467,-0.2677777777777778,-0.5666666666666667,0.13777777777777778,0.037944544458964995,-0.003413212104535944,0.0043867764228269195
1592253857.113555,-0.5206169630642955,9.757532147742818,0.5841901504787961,-0.2677777777777778,-0.5666666666666667,0.13777777777777778,0.0504614440146972,-0.0032724923474893677,0.006410384234539364
1592253857.123555,-0.529716457827745,9.769716457827744,0.599149373483235,-0.2677777777777778,-0.5666666666666667,0.13777777777777778,0.060808156943133074,-0.009631899124689126,0.0076048858245120286
1592253857.133555,-0.501741645021645,9.819452121212121,0.5929354112554113,-0.2677777777777778,-0.5666666666666667,0.13777777777777778,0.06185715090662907,-0.012899985389778261,0.00994769673795781
1592253857.143555,-0.8451679759977893,9.721610674667405,0.659060439777348,-0.2732587650616943,-0.5666666666666667,0.14545115997526087,0.056796407919307,-0.009876042826061138,0.013060686498160954
1592253857.153555,-0.6778838174273858,9.802870754572,0.5388812048563085,-0.2733333333333333,-0.5666666666666667,0.14555555555555555,0.059504676691534045,0.0013084269644052307,0.014480707390816638
1592253857.163555,-0.58,9.840209324739474,0.5776974278657911,-0.2733333333333333,-0.5666666666666667,0.14555555555555555,0.06642650879760592,-0.034016067349399076,0.032359582883924445
1592253857.173555,-1.0952160649515985,9.84990800124907,0.7187120174869688,-0.2733333333333333,-0.5666666666666667,0.14555555555555555,0.05357113442568618,-0.01653306535553995,0.044613671505941505
1592253857.183555,-1.0648654148014651,9.77973082960293,0.8605383407941398,-0.2733333333333333,-0.5666666666666667,0.14555555555555555,0.045785530929365076,-0.0240276391504081,0.06963588867447879
1592253857.1935549,-0.63,9.83,0.91,-0.2733333333333333,-0.56,0.14555555555555555,0.07963064712224129,-0.06326818538479445,0.15271630954950383
1592253857.2035549,-0.34056258949431,9.8367311025699,0.7821090511719044,-0.2733333333333333,-0.56,0.14555555555555555,0.10606362510243689,-0.05665994088974554,0.1842890332480708
1592253857.2135549,-0.054606374919876466,9.752763824951925,0.3613623914690286,-0.2733333333333333,-0.56,0.14555555555555555,0.13687520403127706,-0.030189398209291375,0.20596602686949733
1592253857.2235548,-0.6156137756683918,9.76950392329891,0.3987598082472752,-0.2733333333333333,-0.56,0.14555555555555555,0.1480824185515039,0.018417398678872758,0.18170021599084413
1592253857.2335548,-0.7625208011410911,9.868163556400809,0.38527546653987876,-0.2733333333333333,-0.56,0.14555555555555555,0.148352986419518,0.04212171818361522,0.16287433895738582
1592253857.2435548,-1.1388416066546,10.122858628258944,0.39866099279855205,-0.2680257420743422,-0.5663691095107893,0.1519246650663449,0.13688941224560908,0.04669127102884549,0.14398966328953217
1592253857.2535548,-1.417270721335152,10.223233972558774,0.4559403835352644,-0.2677777777777778,-0.5666666666666667,0.15222222222222223,0.10787715138442565,0.014626130110778724,0.1724663597171635
1592253857.2635548,-1.684365971107544,10.270512184444769,0.5279512622209251,-0.2677777777777778,-0.5666666666666667,0.15222222222222223,0.04603566950213739,-0.09233493389349325,0.27363632641137275
1592253857.2735548,-1.7283610547667343,10.222048681541583,0.5971318458417849,-0.2677777777777778,-0.5666666666666667,0.15222222222222223,0.004926218365416041,-0.20274362359836462,0.38905221091634956
1592253857.2835548,-1.7920764764282922,10.177023977857337,0.6907271578567346,-0.2677777777777778,-0.5666666666666667,0.15222222222222223,-0.009749609836529217,-0.2515329960999898,0.4562960029645098
1592253857.2935548,-1.4839932358980552,10.001366107017756,0.9186338929822443,-0.29416421736387915,-0.5600700567701413,0.1379295674464173,-0.03263321937722276,-0.37661357687694436,0.6704042553696201
1592253857.3035548,-1.3401500268590285,9.941115800782748,0.8905579003913744,-0.29444444444444445,-0.56,0.13777777777777778,-0.017469657911546248,-0.41114961672591016,0.7674978989672034
1592253857.3135548,-0.9541558026924919,9.957316021923058,0.6840908849039536,-0.29444444444444445,-0.56,0.13777777777777778,0.030741600056220685,-0.43036580005257186,0.9208241114122941
1592253857.3235548,-0.6208513894482481,9.91491582762787,0.5347474828836085,-0.29444444444444445,-0.56,0.13777777777777778,0.06051303590056237,-0.42455511869692775,1.0045617513138074
1592253857.3335547,-0.3273099654748669,9.86417051904734,0.4277131488091755,-0.29444444444444445,-0.56,0.13777777777777778,0.09146828992071897,-0.3949982585934951,1.109501804482002
1592253857.3435547,-0.14733833399131466,9.784280694828267,0.3724461113304382,-0.30591924376014384,-0.56,0.14507992279685922,0.10854941954231452,-0.3274455239990994,1.2190425022566276
1592253857.3535547,-0.020461629048086363,9.79328204121688,0.2836667320902846,-0.30666666666666664,-0.56,0.14555555555555555,0.1185005768685887,-0.29934636139805776,1.2644798243195476
1592253857.3635547,0.3299978284473398,9.754687839305102,0.02250162866449512,-0.30666666666666664,-0.56,0.14555555555555555,0.11535541446891241,-0.277002915855084,1.3235524235526124
1592253857.3735547,0.5436613938396202,9.777549209075943,-0.00918306969198101,-0.30666666666666664,-0.56,0.14555555555555555,0.10051318702517549,-0.2809887755205149,1.3525840000427447
1592253857.3835547,0.5387128425452857,9.737425685090571,0.058118903855085925,-0.30666666666666664,-0.56,0.14555555555555555,0.0834755343032306,-0.287936134138652,1.3580627279878816
1592253857.3935547,0.6332536151279199,9.661037905364935,0.339620946350646,-0.3319494595134195,-0.5526258520863637,0.14555555555555555,0.02080848154521925,-0.31221930023544053,1.3479685417680958
1592253857.4035547,0.7908247422680412,9.639432989690722,0.37742268041237115,-0.3333333333333333,-0.5522222222222222,0.14555555555555555,-0.011369380629937285,-0.3429819385088599,1.3367062900067912
1592253857.4135547,1.0178158753748574,9.516021867784826,0.3812324513680635,-0.3333333333333333,-0.5522222222222222,0.14555555555555555,-0.04517332306039568,-0.39687009600229545,1.3319043854281727
1592253857.4235547,1.1052709517329704,9.428795325382215,0.43933722884815496,-0.3333333333333333,-0.5522222222222222,0.14555555555555555,-0.04411294188330781,-0.37015312085339014,1.3014827538136389
1592253857.4335546,1.2247732664144138,9.411155527672673,0.5610043719489481,-0.3333333333333333,-0.5522222222222222,0.14555555555555555,-0.021060324556702606,-0.29631719849835725,1.2282978093602217
1592253857.4435546,1.3803564622800133,9.497911669095393,0.44022082726151773,-0.35502733873880604,-0.5267553463114499,0.13329372641333184,0.02738742157076266,-0.19562174970291896,1.1151532153446475
1592253857.4535546,1.3374892586516678,9.397480665573003,0.4037489258651668,-0.35888888888888887,-0.5222222222222223,0.13111111111111112,0.050181028073254474,-0.13348186360281725,1.033823391457478
1592253857.4635546,1.5836677474221323,9.49332385457638,-0.14154751780588926,-0.35888888888888887,-0.5222222222222223,0.13111111111111112,0.06093337034303081,-0.06893486402531121,0.8877893073072636
1592253857.4735546,1.4627554744525546,9.7752679600461,0.12209373799462162,-0.35888888888888887,-0.5222222222222223,0.13111111111111112,0.01979849488895819,-0.05558669163021894,0.7639022385874368
1592253857.4835546,1.4527904644566059,9.844107905217616,0.1103111658691728,-0.35888888888888887,-0.5222222222222223,0.13111111111111112,-0.00488725070819241,-0.07267944118202298,0.7103344969903265
1592253857.4935546,1.7375102040816326,9.511795918367348,-0.08069387755102041,-0.39476190476190476,-0.5078730158730159,0.13726077097505668,-0.090917406443174,-0.1272710119088212,0.5933718743432048
1592253857.5035546,1.7344642857142858,9.690669642857143,0.01214285714285715,-0.3977777777777778,-0.5066666666666667,0.13777777777777778,-0.12036635915609331,-0.16184227779235363,0.555227998510417
1592253857.5135546,1.7368764027552046,9.227764104945438,0.0868764027552047,-0.3977777777777778,-0.5066666666666667,0.13777777777777778,-0.1774340403615495,-0.19195312386698565,0.4980292157795672
1592253857.5235546,2.0305784297382896,9.974642440406734,0.4404034005667612,-0.3977777777777778,-0.5066666666666667,0.13777777777777778,-0.19662847640868023,-0.21188101464281678,0.4507862299963921
1592253857.5335546,1.6721943069754,9.854602644222085,0.5517848499078857,-0.3977777777777778,-0.5066666666666667,0.13777777777777778,-0.21335943585530612,-0.20924481331715378,0.4150177679484863
1592253857.5435545,1.9450135756434856,9.847954603048185,0.19859609745501938,-0.4311393484495609,-0.5021583463056148,0.11343284782809816,-0.19045641669547841,-0.22298594391682275,0.3744582806726611
1592253857.5535545,2.037741872536393,9.763144830816064,0.37153299769738124,-0.4388888888888889,-0.5011111111111111,0.10777777777777778,-0.2063254295275352,-0.2129318886653943,0.3638448343641957
1592253857.5635545,1.939084413866102,9.694274675840168,0.1511473934903414,-0.4388888888888889,-0.5011111111111111,0.10777777777777778,-0.24412948786476174,-0.17267617475610664,0.37144863580184834
1592253857.5735545,1.969993042727251,9.408373917424369,0.09999304272725092,-0.4388888888888889,-0.5011111111111111,0.10777777777777778,-0.261434006723286,-0.16944187560063104,0.38687954671037844
1592253857.5835545,2.0627422310678463,8.96386958835005,0.3513315072812186,-0.4388888888888889,-0.5011111111111111,0.10777777777777778,-0.2820326038963906,-0.14835730700964714,0.4022131071449107
1592253857.5935545,2.346846416382253,9.947624573378839,0.9196450511945393,-0.443617747440273,-0.49070762229806597,0.09737428896473266,-0.2669482580114108,-0.14782060143010847,0.4070422034483687
1592253857.6035545,1.8997894265232977,9.79630376344086,0.8821012544802868,-0.4444444444444444,-0.4888888888888889,0.09555555555555556,-0.2683052746166193,-0.13252176709272245,0.4021417078405763
1592253857.6135545,1.5762126035919994,9.326267771647993,0.5879843001919945,-0.4444444444444444,-0.4888888888888889,0.09555555555555556,-0.24393897232183867,-0.1282275866283047,0.3655116348852224
1592253857.6235545,1.9600254828645598,9.872897187358593,0.5857179261235085,-0.4444444444444444,-0.4888888888888889,0.09555555555555556,-0.22108143807111727,-0.16453962251844198,0.31068340966953417
1592253857.6335545,1.748749379948015,9.447232881604794,0.3284835016567789,-0.4444444444444444,-0.4888888888888889,0.09555555555555556,-0.23007828663940888,-0.16260629364809137,0.28805183363518383
1592253857.6435544,2.1626211086279077,9.714776983852182,0.5037649910289905,-0.4479307221225443,-0.49411830540603874,0.09381241671650561,-0.22216403809765467,-0.16392492289317262,0.30905067224460353
1592253857.6535544,2.271301695742345,9.85917815460941,0.7631495262494409,-0.4488888888888889,-0.4955555555555556,0.09333333333333334,-0.23646359971627437,-0.14396739509983625,0.3576577341881278
1592253857.6635544,2.0911957642679275,9.510700757099379,0.6709482606836532,-0.4488888888888889,-0.4955555555555556,0.09333333333333334,-0.2536642655686529,-0.10693963705540545,0.44401090346385624
1592253857.6735544,2.0215610030994644,9.14186088636638,0.730006842973876,-0.4488888888888889,-0.4955555555555556,0.09333333333333334,-0.24352741235284273,-0.14221920931935791,0.4521489861184536
1592253857.6835544,1.967990283758419,8.894116594898973,0.6497813845644254,-0.4488888888888889,-0.4955555555555556,0.09333333333333334,-0.24501437215673288,-0.1697073027567018,0.38545402379999816
1592253857.6935544,2.435344210241859,9.755384745304688,0.7358704904742603,-0.465002251947935,-0.48123256616973686,0.09333333333333334,-0.237889433830601,-0.15889915788012723,0.2820614479875617
1592253857.7035544,2.2032196232664045,9.673722210722417,0.7876149865452288,-0.4688888888888889,-0.4777777777777778,0.09333333333333334,-0.24492124828462428,-0.1573899696340463,0.2384673053970358
1592253857.7135544,1.9276488107216163,9.385297621443232,0.6864732160824244,-0.4688888888888889,-0.4777777777777778,0.09333333333333334,-0.2325491688737888,-0.16850089043252153,0.22921174559993757
1592253857.7235544,1.990226951098066,9.421889512028933,0.8652146338906651,-0.4688888888888889,-0.4777777777777778,0.09333333333333334,-0.19868780315408233,-0.21361878890739142,0.24855281766946463
1592253857.7335544,2.3560378291751576,9.755471776507132,0.565471578655798,-0.4688888888888889,-0.4777777777777778,0.09333333333333334,-0.19181127214188942,-0.2429259627916401,0.26646115004158133
1592253857.7435544,2.321053454204439,9.464808690215692,0.6949109096592685,-0.48672897780556423,-0.4777777777777778,0.0990097252613664,-0.209707358810639,-0.2438141149404213,0.28762715088911056
1592253857.7535543,2.426994334955717,9.391419452645017,0.7759794143461262,-0.49333333333333335,-0.4777777777777778,0.10111111111111111,-0.2211549092512377,-0.2431557815648982,0.30050181677793614
1592253857.7635543,2.6392290725484986,9.121085570023917,0.7362649481796439,-0.49333333333333335,-0.4777777777777778,0.10111111111111111,-0.2355957655552616,-0.22546559141869865,0.3096040684859867
1592253857.7735543,3.0019682464454975,9.584145023696681,0.8099165876777251,-0.49333333333333335,-0.4777777777777778,0.10111111111111111,-0.23235605554462282,-0.21217341135021897,0.3054371685354465
1592253857.7835543,2.5880222740431007,9.67026073496301,1.113592996140238,-0.49333333333333335,-0.4777777777777778,0.10111111111111111,-0.24528916919027166,-0.19059432518444946,0.307779032426402
1592253857.7935543,2.1405861054537225,9.38684770310025,1.059235121068115,-0.49333333333333335,-0.4845445173618969,0.09688189887103668,-0.23755549469181192,-0.21543401911511584,0.33470805867378695
1592253857.8035543,1.896343939333146,9.28684668779842,1.1084046864342174,-0.49333333333333335,-0.4866666666666667,0.09555555555555556,-0.23028040504367658,-0.246008405318897,0.3585366408214185
1592253857.8135543,2.237783568133649,9.666853758882933,0.7009649669617254,-0.49333333333333335,-0.4866666666666667,0.09555555555555556,-0.20367979859063068,-0.35270896137850327,0.3818245826921773
1592253857.8235543,2.6931378605712113,9.713431069714394,0.839706790856817,-0.49333333333333335,-0.4866666666666667,0.09555555555555556,-0.22039400588100247,-0.417148610254312,0.4340404953050524
1592253857.8335543,2.804598706349366,9.344067140870898,1.0437961190480989,-0.49333333333333335,-0.4866666666666667,0.09555555555555556,-0.21674878205901232,-0.40320512273040143,0.5251439451938245
1592253857.8435543,3.0033100434084554,9.058528869596241,1.09678926086698,-0.5023856811559732,-0.49043847825943326,0.06990723672474282,-0.16391307099222197,-0.353177627963381,0.6304925706728579
1592253857.8535542,3.074613438735178,9.162325691699605,1.2692521739130436,-0.5066666666666667,-0.4922222222222222,0.057777777777777775,-0.11604421704393879,-0.31231011316136237,0.6773243407587385
1592253857.8635542,2.9818493062194777,8.878869796646082,0.9061985478411411,-0.5066666666666667,-0.4922222222222222,0.057777777777777775,-0.022533867682749648,-0.22364271837208674,0.7299040181912314
1592253857.8735542,3.0337624322413386,8.926188310157908,1.105594390761254,-0.5066666666666667,-0.4922222222222222,0.057777777777777775,0.04829899452706981,-0.18320015807410295,0.7231613954098487
1592253857.8835542,3.0182225382154284,9.291628154994669,1.055359639767745,-0.5066666666666667,-0.4922222222222222,0.057777777777777775,0.13273351500530728,-0.17311351379730078,0.6948754952944888
1592253857.8935542,3.1636204831303654,8.953142343781195,0.4655559992014374,-0.5187569042390364,-0.47181994631884827,0.057777777777777775,0.2022425097003012,-0.17496967128334123,0.6499136700441107
1592253857.9035542,3.3722917341977308,8.816512155591573,0.5758670988654782,-0.5244444444444445,-0.4622222222222222,0.057777777777777775,0.21916682136621662,-0.17929651427618895,0.5998073610307506
1592253857.9135542,3.6400227233432956,9.360107935880654,0.7032405463482105,-0.5244444444444445,-0.4622222222222222,0.057777777777777775,0.25016984972208794,-0.21526636309749486,0.47230927928002847
1592253857.9235542,3.6595762853793334,9.039407134483337,0.4651130463908893,-0.5244444444444445,-0.4622222222222222,0.057777777777777775,0.24140024929565979,-0.22160197202875206,0.3776647626155646
1592253857.9335542,3.6442866560127847,9.022820415501398,0.5157001598082301,-0.5244444444444445,-0.4622222222222222,0.057777777777777775,0.26350841413297277,-0.24200449168577687,0.3002983492433981
1592253857.9435542,3.807835401936091,9.432428913907687,0.9156708038721817,-0.5375673771061141,-0.45738745755739657,0.053633693779355784,0.2984157564929287,-0.24782514800307331,0.2208496207478596
1592253857.9535542,3.733830190168074,9.44137457586996,0.8543012704174229,-0.5455555555555556,-0.45444444444444443,0.051111111111111114,0.304802548766184,-0.229901646824042,0.18360240890962817
1592253857.9635541,3.483533910190257,9.118986266571406,-0.14808155380910798,-0.5455555555555556,-0.45444444444444443,0.051111111111111114,0.29703771632778286,-0.21267014858361716,0.12797392588749185
1592253857.9735541,3.5632924189443136,8.809509027331764,0.4912888032541213,-0.5455555555555556,-0.45444444444444443,0.051111111111111114,0.2511899757562819,-0.15152505974828046,0.10288719884612735
1592253857.9835541,3.7507488798805206,9.013518241945809,0.3348815873693194,-0.5455555555555556,-0.45444444444444443,0.051111111111111114,0.253839139185169,-0.14553362988033258,0.08692969448743305
1592253857.993554,3.8641069616399433,8.916328056288478,0.3778786956227589,-0.5565961557254433,-0.46341493208247825,0.04007051094122334,0.24128127479572767,-0.13547068889357142,0.08693318394375585
1592253858.003554,3.8570677236328517,8.64744356363929,0.6774435636392901,-0.5633333333333334,-0.4688888888888889,0.03333333333333333,0.22422724442769149,-0.10824648640691895,0.0956732471272809
1592253858.013554,3.9157910954063606,8.943940070671378,0.4852313780918728,-0.5633333333333334,-0.4688888888888889,0.03333333333333333,0.2489747947968715,-0.04662977044105613,0.11235557059713495
1592253858.023554,3.85,9.142580362222644,0.4659785700739617,-0.5633333333333334,-0.4688888888888889,0.03333333333333333,0.27084042626122595,-0.005803610749070966,0.11660630418542275
1592253858.033554,3.7958817433587755,9.084588174335877,0.4745881743358775,-0.5633333333333334,-0.4688888888888889,0.03333333333333333,0.2898787751621651,0.022304434115008546,0.11949089389450661
1592253858.043554,3.6303979771328057,8.97599824098505,0.4960004397537379,-0.5633333333333334,-0.4625332258379752,0.045466871885077684,0.2920807351939917,0.06558128390423064,0.12169311087711947
1592253858.053554,3.7041261782196835,9.000832804456667,0.2840883341560304,-0.5633333333333334,-0.45666666666666667,0.056666666666666664,0.286425322836151,0.10620011887462376,0.11133837980258787
1592253858.063554,3.95703384223295,9.236292302791188,0.1568135368931801,-0.5633333333333334,-0.45666666666666667,0.056666666666666664,0.26710055755282985,0.14326165864497345,0.08530343766495953
1592253858.073554,3.9808447040461608,9.452395062312295,-0.03479012462458911,-0.5633333333333334,-0.45666666666666667,0.056666666666666664,0.22532552189629934,0.19072655283960546,0.06147054722791809
1592253858.083554,3.5612100338195325,9.161447600473059,-0.015961366890055423,-0.5633333333333334,-0.45666666666666667,0.056666666666666664,0.17713164049866373,0.23903326027466226,0.06182629797497051
1592253858.093554,3.415444370672484,8.949747699895665,0.05683486673622308,-0.5691561541623195,-0.4676653282325292,0.04825592546924236,0.11641491375567295,0.26407768561102196,0.08315176570233418
1592253858.103554,3.5405340314136122,9.047895287958116,0.0026282722513089,-0.5733333333333334,-0.47555555555555556,0.042222222222222223,0.08491460858803039,0.26134021086243364,0.09627923777174609
1592253858.113554,3.2634079266648692,9.200189269344836,0.09404475599892154,-0.5733333333333334,-0.47555555555555556,0.042222222222222223,-0.00466183842905131,0.23016905963466158,0.13813935163533442
1592253858.123554,3.07160693614307,9.210640223014954,0.2367797491081764,-0.5733333333333334,-0.47555555555555556,0.042222222222222223,-0.05359247073063017,0.16752912618680987,0.16798863630239716
1592253858.133554,3.1439124336238855,9.19241278429015,0.40332591924656847,-0.5733333333333334,-0.47555555555555556,0.042222222222222223,-0.08633921818283877,0.09150425439649167,0.17952467003058645
1592253858.143554,3.3800648308224255,8.954297666090392,0.33974067671029884,-0.5833549436074751,-0.47555555555555556,0.042222222222222223,-0.1145702345752807,0.019590165095657364,0.18054074510645166
1592253858.153554,3.4911002522068095,8.6628262925599,0.23255122950819673,-0.5933333333333334,-0.47555555555555556,0.042222222222222223,-0.1327577515029254,0.002279327372757412,0.18561421155012126
1592253858.163554,3.9679095420464967,8.872550569070608,0.20126139489724365,-0.5933333333333334,-0.47555555555555556,0.042222222222222223,-0.14748412872763958,0.05060009725652852,0.19632141543191597
1592253858.173554,3.9766799858139263,8.983275091618395,0.49478283485045516,-0.5933333333333334,-0.47555555555555556,0.042222222222222223,-0.12479202157598762,0.07577979136778933,0.16754136916034912
1592253858.183554,4.076802437459911,8.786257617062219,0.8488662604233482,-0.5933333333333334,-0.47555555555555556,0.042222222222222223,-0.09819698586877613,0.11428748334081465,0.14359883765197723
1592253858.193554,3.9038343810683607,8.64647566073133,0.5211931014053912,-0.5859240364677616,-0.47555555555555556,0.02227411527645211,-0.052269546445431664,0.14944381720201447,0.14127671403341652
1592253858.203554,3.8974083684722673,8.88409341550438,0.2549724294518326,-0.5788888888888889,-0.47555555555555556,0.0033333333333333335,-0.026858214034551887,0.15105458824882442,0.14159323225163128
1592253858.213554,3.9845228032876148,8.911752702947963,0.5076605564054033,-0.5788888888888889,-0.47555555555555556,0.0033333333333333335,0.006975162718826153,0.18085512802104903,0.14408525840594272
1592253858.223554,3.838440432186523,9.055626954791014,0.21281347739550752,-0.5788888888888889,-0.47555555555555556,0.0033333333333333335,0.03154903146348063,0.192275880798218,0.14775642056578847
1592253858.233554,3.827540213119404,9.170098861472388,0.48501843523358046,-0.5788888888888889,-0.47555555555555556,0.0033333333333333335,0.030954516738762216,0.19636032496309042,0.13314203820288323
1592253858.2435539,3.697483918128655,9.127419590643274,0.5088134502923976,-0.5813906757634828,-0.470051624431449,-0.006173456790123457,0.01919441154786483,0.17549432348732794,0.08724541147935251
1592253858.2535539,3.538608870490834,9.099492607924304,0.3925613246599645,-0.5844444444444444,-0.4633333333333333,-0.017777777777777778,0.0006525374253945095,0.11742677904201157,0.03872806652347045
1592253858.2635539,3.7569131556319864,9.081028948122672,0.56,-0.5844444444444444,-0.4633333333333333,-0.017777777777777778,-0.008726646259971648,0.07499531975586339,0.01647470256602701
1592253858.2735538,3.902469178797799,8.862469178797799,0.517489726265933,-0.5844444444444444,-0.4633333333333333,-0.017777777777777778,0.00344587646991445,0.03128732444754705,0.00596534075546035
1592253858.2835538,3.8389917101627264,8.709915873503224,0.5646220448265274,-0.5844444444444444,-0.4633333333333333,-0.017777777777777778,0.020982466694790747,-0.00330002267918148,0.009340820496674748
1592253858.2935538,4.0717006313683815,8.808497843345627,0.67,-0.5911474720954624,-0.4659114208914171,-0.020871482847478348,0.0345144942103964,-0.023178398243030668,0.020761482180343637
1592253858.3035538,4.203092223509206,8.981062028198266,0.6370771258537365,-0.5988888888888889,-0.4688888888888889,-0.024444444444444446,0.040476588257423715,-0.023911139715820984,0.03183707949655311
1592253858.3135538,3.9106020091235565,9.051716247694847,0.4312110550325148,-0.5988888888888889,-0.4688888888888889,-0.024444444444444446,0.027987173181722502,0.011613382812447347,0.05176501851377958
1592253858.3235538,4.014788055053015,8.994506606819794,0.6447892000824421,-0.5988888888888889,-0.4688888888888889,-0.024444444444444446,-0.0005992362381323415,0.03433817494473638,0.031311417417761764
1592253858.3335538,3.8542713154821127,8.96649175931133,0.5228299519833889,-0.5988888888888889,-0.4688888888888889,-0.024444444444444446,-0.02162064643940406,0.03549449267146177,0.01393858732448255
1592253858.3435538,4.166473400378954,8.977644949715785,0.2890068503133654,-0.5956510388832208,-0.46981398889050835,-0.03832094446873634,-0.04443797537341662,0.005641634987940642,0.0013671872999334676
1592253858.3535538,4.15745187508912,8.911483197870622,0.5087451875089121,-0.5911111111111111,-0.4711111111111111,-0.057777777777777775,-0.0734050463152885,-0.008954777608561618,0.008137704444373128
1592253858.3635538,3.87,9.06,0.48,-0.5911111111111111,-0.4711111111111111,-0.057777777777777775,-0.08072147790473774,-0.014180800172453926,0.019634954084936207
1592253858.3735538,3.9829519964109465,8.935069537909376,0.5448377448781218,-0.5911111111111111,-0.4711111111111111,-0.057777777777777775,-0.08071136402579131,-0.019368567563653613,0.07077080760162834
1592253858.3835537,4.371158707865169,8.947400514981274,0.4919042602996255,-0.5911111111111111,-0.4711111111111111,-0.057777777777777775,-0.06945377299963185,-0.013601040974968392,0.07848925817145495
1592253858.3935537,4.201535110976441,8.754062949776532,0.7486004848117567,-0.5907925746366016,-0.4730223299581681,-0.05395534008366369,-0.06246789024590511,0.02169353463708703,0.09539724636649957
1592253858.4035537,4.280399791542585,8.591998957712924,0.7696668403811793,-0.59,-0.4777777777777778,-0.044444444444444446,-0.0468475763245165,0.045960261171928925,0.11563533135997822
1592253858.4135537,4.228525273297976,8.94780171014179,0.757158242234008,-0.59,-0.4777777777777778,-0.044444444444444446,-0.03457611254717011,0.08294410908565512,0.12212334098742957
1592253858.4235537,4.07,9.03,0.81,-0.59,-0.4777777777777778,-0.044444444444444446,-0.02945243112740431,0.10471975511965977,0.12980886311707826
1592253858.4335537,3.9941901572805683,8.681337798072045,0.5168131912734653,-0.59,-0.4777777777777778,-0.044444444444444446,-0.010835342259077025,0.08912551275946695,0.1490232247304437
1592253858.4435537,4.017393138075314,8.819236150627615,0.7968535564853557,-0.59,-0.47154558809855884,-0.04937826127382613,0.008922721952089001,0.06614356055770869,0.16185230489408026
1592253858.4535537,4.166591289782245,8.801707146845336,0.9318146286990507,-0.59,-0.45111111111111113,-0.06555555555555556,0.06428501508405621,0.04685578052944436,0.174309703824902
1592253858.4635537,4.226520223836639,8.875298694286275,0.5625395150206165,-0.59,-0.45111111111111113,-0.06555555555555556,0.10528051132276668,0.01961099243290562,0.1648419763888046
1592253858.4735537,4.5769409570270465,8.992347609823755,0.40272640313748,-0.59,-0.45111111111111113,-0.06555555555555556,0.12013757101626331,0.019076430568566508,0.1445844721831038
1592253858.4835536,4.565236274242011,9.12612400983338,0.4508877355913684,-0.59,-0.45111111111111113,-0.06555555555555556,0.12297664518682866,0.023520647675358573,0.11229746843854801
1592253858.4935536,4.1303397961223265,8.85018688786728,0.5964911053367979,-0.5948229950918338,-0.45778910431518866,-0.0637005574433118,0.11890055529211369,0.03343669982697437,0.07923861958937528
1592253858.5035536,4.53,9.07,0.39,-0.6044444444444445,-0.4711111111111111,-0.06,0.11890055529211369,0.015271630954950384,0.04581489286485115
1592253858.5135536,4.560678030784888,8.772626892252894,0.2901272102785905,-0.6044444444444445,-0.4711111111111111,-0.06,0.1413318993947154,0.013866497701730804,0.024386541370808697
1592253858.5235536,4.3872864882847775,8.903889073713227,0.1230129271422461,-0.6044444444444445,-0.4711111111111111,-0.06,0.16448236155470716,0.001419490149714566,0.02473947809403195
1592253858.5335536,4.417572340634515,8.749006580885965,0.014348688733916117,-0.6044444444444445,-0.4711111111111111,-0.06,0.16289978973046598,-0.0032387634868342374,0.029560796342355387
1592253858.5435536,4.628066518577124,8.8686130298512,-0.03,-0.6021506117991527,-0.469472659221617,-0.05934461924420236,0.14730265143943294,0.0037199045775739535,0.040320243149957476
1592253858.5535536,4.377925197408861,8.951470045865053,0.07207480259113906,-0.5966666666666667,-0.46555555555555556,-0.057777777777777775,0.10717179045938656,0.023966814413970552,0.08674459273081964
1592253858.5635536,4.25,8.64,0.2,-0.5966666666666667,-0.46555555555555556,-0.057777777777777775,0.08290313946973066,0.05126904677733343,0.11890055529211369
1592253858.5735536,4.75392188643731,9.056179807591759,0.16382019240824008,-0.5966666666666667,-0.46555555555555556,-0.057777777777777775,-0.012158462867154827,0.04566489365132163,0.08974812259176843
1592253858.5835536,4.549982553405963,8.838743457527237,0.29218586438180905,-0.5966666666666667,-0.46555555555555556,-0.057777777777777775,-0.06226278391182549,0.04583083684984712,0.055086002951979754
1592253858.5935535,4.167263026341088,8.644549125168236,0.2972659104018458,-0.594040782755453,-0.46555555555555556,-0.0634335277403918,-0.06882133413083533,0.023997333408246155,0.028163610677790638
1592253858.6035535,4.574148841145221,8.63029147665836,0.3518480560387382,-0.5822222222222222,-0.46555555555555556,-0.08888888888888889,-0.051454740833250856,0.049242976420750754,0.01619097294347062
1592253858.6135535,4.786247637476375,8.804230042300423,0.0786549365493655,-0.5822222222222222,-0.46555555555555556,-0.08888888888888889,-0.009062603683939147,0.058064968694889876,0.023882405283408986
1592253858.6235535,4.730257576818087,8.83310538718182,0.06173771027274212,-0.5822222222222222,-0.46555555555555556,-0.08888888888888889,0.010311546195791723,0.08651437701016997,0.04992019955861409
1592253858.6335535,4.4444596648441665,8.87668949726625,0.17604109507924917,-0.5822222222222222,-0.46555555555555556,-0.08888888888888889,0.025426651257335918,0.09740537762951043,0.07779400011340816
1592253858.6435535,4.515980295566502,8.98464039408867,0.33846305418719214,-0.5822222222222222,-0.4633223864258347,-0.09067542419266558,0.013439250182382444,0.12901035349008824,0.11034156381250604
1592253858.6535535,4.49,8.95,0.07,-0.5822222222222222,-0.4488888888888889,-0.10222222222222223,-0.00545415391248228,0.1308996938995747,0.13962634015954636
1592253858.6635535,4.427355525690065,8.727520417657397,0.17123979117130156,-0.5822222222222222,-0.4488888888888889,-0.10222222222222223,-0.06804622268852478,0.1489840511418224,0.14687450642634942
1592253858.6735535,4.511914289768696,8.648481623385837,0.40411428030840546,-0.5822222222222222,-0.4488888888888889,-0.10222222222222223,-0.09294501569261014,0.1561148039201168,0.14470248800265778
1592253858.6835535,4.415867455833557,8.836879562371086,0.5882771051923594,-0.5822222222222222,-0.4488888888888889,-0.10222222222222223,-0.10103327336570238,0.15215118270612818,0.1403412936038073
1592253858.6935534,4.49805801160232,8.57079775955191,0.5905157031406281,-0.5822222222222222,-0.4493777422151097,-0.10222222222222223,-0.09653544749277808,0.13738227059219416,0.14645172444554488
1592253858.7035534,4.32,9.03,0.3,-0.5822222222222222,-0.45666666666666667,-0.10222222222222223,-0.08835729338221293,0.15271630954950383,0.16689710972195776
1592253858.7135534,4.119617386601772,8.788230582032043,0.2194101940106807,-0.5822222222222222,-0.45666666666666667,-0.10222222222222223,-0.07566957383464835,0.13143061944773768,0.14685990579462865
1592253858.7235534,4.555354903766058,8.962718663685386,0.41138147222587573,-0.5822222222222222,-0.45666666666666667,-0.10222222222222223,-0.09874990879069018,0.1218854784565985,0.1319677123587229
1592253858.7335534,4.396303229984003,8.73203226175059,0.5508838653157614,-0.5822222222222222,-0.45666666666666667,-0.10222222222222223,-0.11554290800866308,0.10265702793094843,0.12951328262699371
1592253858.7435534,4.526115107913669,8.838588129496403,0.38068345323741004,-0.5822222222222222,-0.45631594724220625,-0.10189848121502798,-0.12368765440954418,0.05853405826579454,0.11206422460576675
1592253858.7535534,4.37,8.38,0.81,-0.5822222222222222,-0.44222222222222224,-0.08888888888888889,-0.1407171709420428,0.04363323129985824,0.10035643198967394
1592253858.7635534,4.7421352654796465,8.479893716715045,0.9129533039244817,-0.5822222222222222,-0.44222222222222224,-0.08888888888888889,-0.10145112734146682,0.01791140604415051,0.08485187970332356
1592253858.7735534,4.758685971282693,8.85555655908429,0.5667402724273313,-0.5822222222222222,-0.44222222222222224,-0.08888888888888889,-0.08569092760411398,0.05359404663971851,0.0824425226854752
1592253858.7835534,4.395328921902936,8.3916964960463,0.7832083018450593,-0.5822222222222222,-0.44222222222222224,-0.08888888888888889,-0.03509164405085552,0.09323015208977098,0.1026822361067786
1592253858.7935534,4.885252003847387,8.785815325424815,0.8697585764668163,-0.5822222222222222,-0.44222222222222224,-0.08888888888888889,0.031203950730424677,0.10579302908738183,0.10799224746714915
1592253858.8035533,4.587553427350231,8.626045576101117,0.9215078512491143,-0.5822222222222222,-0.43,-0.10222222222222223,0.08650459392881195,0.13033798498551874,0.09424280802628926
1592253858.8135533,4.861987270029143,8.796314923745328,0.9745021544402925,-0.5822222222222222,-0.43,-0.10222222222222223,0.11994682137278104,0.12117784081030931,0.05334209529003472
1592253858.8235533,4.539527632261178,8.526348715381452,0.7345321914501797,-0.5822222222222222,-0.43,-0.10222222222222223,0.147759525013847,0.10154534412249802,0.000988770789204646
1592253858.8335533,4.85755675490448,8.712534052942688,0.7132488649019103,-0.5822222222222222,-0.43,-0.10222222222222223,0.17890120112916796,0.12171303533686023,-0.03679408767939827
1592253858.8435533,4.697308682424526,8.578737889070911,0.5701670957172946,-0.5822222222222222,-0.43,-0.10222222222222223,0.215957153961491,0.1443105814680195,-0.07926416065574189
1592253858.8535533,4.912379367720465,8.642602329450915,0.45,-0.5958994268811241,-0.4236173044925125,-0.11407579959327048,0.2526276971001293,0.19876134774417287,-0.11397965609493502
1592253858.8635533,4.314860815642963,8.381008464219436,0.5087615986964197,-0.5988888888888889,-0.4222222222222222,-0.11666666666666667,0.26916502602401876,0.23398826373152637,-0.12221309035741434
1592253858.8735533,3.9820008123293547,8.50518943069251,0.503567479748178,-0.5988888888888889,-0.4222222222222222,-0.11666666666666667,0.2820180693928724,0.20435685956487726,-0.12224967187468015
1592253858.8835533,4.539702243451705,8.69975940644454,0.4426345875259387,-0.5988888888888889,-0.4222222222222222,-0.11666666666666667,0.2782268099383102,0.22200719116605516,-0.09627426226171523
1592253858.8935533,4.350851180454955,8.822923143181551,0.4590564190908735,-0.5988888888888889,-0.4222222222222222,-0.11666666666666667,0.31942772050311674,0.19155434422685033,-0.06403007138491011
1592253858.9035532,4.070954255338717,8.750013427262862,0.5327150661246712,-0.5883856015597697,-0.4222222222222222,-0.11666666666666667,0.309897105964446,0.18187257290637768,-0.02093104171266854
1592253858.9135532,4.4019341936693435,8.71088929162891,0.4633081273630597,-0.5844444444444444,-0.4222222222222222,-0.11666666666666667,0.31993838820188436,0.1253126415331677,0.02530009579680145
1592253858.9235532,4.431258443113773,9.02919760479042,-0.13306586826347305,-0.5844444444444444,-0.4222222222222222,-0.11666666666666667,0.2629924823345247,0.09723872003872372,0.032003538135858295
1592253858.9335532,4.34364511545293,8.484039431616342,0.03384227353463588,-0.5844444444444444,-0.4222222222222222,-0.11666666666666667,0.22660796611035555,0.10076480570908208,0.02938791129604173
1592253858.9435532,4.209546714031972,8.498939253996447,-0.025757015985790402,-0.5844444444444444,-0.4222222222222222,-0.11666666666666667,0.20141552950613326,0.09020023552021467,0.005008133937116941
1592253858.9535532,4.87,9.12,0.09,-0.5911111111111111,-0.41,-0.11,0.16471544815696484,0.12326387842209952,-0.039269908169872414
1592253858.9635532,3.99123824764953,8.804538050467237,-0.0022124424884977017,-0.5911111111111111,-0.41,-0.11,0.16555945248457585,0.1336895061728728,-0.07490599973883574
1592253858.9735532,4.738129859014289,9.211811654501796,0.04453246475357219,-0.5911111111111111,-0.41,-0.11,0.13153931634290011,0.15569838742509773,-0.08635483917574813
1592253858.9835532,4.534871586915382,8.733787510137875,-0.023195458231954583,-0.5911111111111111,-0.41,-0.11,0.10715738887151588,0.17787855245745465,-0.07491875357189569
1592253858.9935532,4.436600162206001,8.983245742092457,-0.11390754257907543,-0.5911111111111111,-0.41,-0.11,0.07829652480269168,0.16963259129493347,-0.06502360017687024
1592253859.0035532,4.26,8.75,0.23,-0.5722222222222222,-0.41,-0.11,0.007635815477475192,0.18871372537188688,-0.044724062082354694
1592253859.0135531,4.289916639278138,8.696333323373867,0.3525832860258747,-0.5722222222222222,-0.41,-0.11,-0.01915317510657227,0.19372700360852493,-0.025089107997418484
1592253859.0235531,4.1854508010249285,8.691898273426087,0.11941689216695804,-0.5722222222222222,-0.41,-0.11,-0.050881526131285035,0.20778070767340345,-0.031886274985417185
1592253859.0335531,4.413886694909169,8.951102175630071,0.5062159833417104,-0.5722222222222222,-0.41,-0.11,-0.03368189701553716,0.2110360848548439,-0.05644428574643451
1592253859.043553,3.9772000430817833,9.079096539096719,0.4083379406907446,-0.5722222222222222,-0.41,-0.11,-0.010685630154638037,0.2176064468151008,-0.06876371442191619
1592253859.053553,4.35,8.61,0.53,-0.5844444444444444,-0.39555555555555555,-0.11,0.011999138607461015,0.22798363354175932,-0.0818123086872342
1592253859.063553,4.334667697497892,8.720353668822042,0.319689063817824,-0.5844444444444444,-0.39555555555555555,-0.11,0.022907446432425576,0.22317134322999815,-0.11055037905423726
1592253859.073553,4.514211949553582,8.847608690584423,0.7135869641233653,-0.5844444444444444,-0.39555555555555555,-0.11,0.0245881553337082,0.25475345044046044,-0.11645804233502231
1592253859.083553,4.512796092355941,8.864103206503128,0.6444782898649988,-0.5844444444444444,-0.39555555555555555,-0.11,0.0322121164153765,0.26020790066501026,-0.12526650382867038
1592253859.093553,4.0818826264847425,8.637306645518285,0.7654364557235811,-0.5844444444444444,-0.39555555555555555,-0.11,0.040458672084929835,0.25773393396414424,-0.13516237063213438
1592253859.103553,4.44,9.13,0.65,-0.5788888888888889,-0.39555555555555555,-0.12444444444444444,0.053450708342326333,0.29343348049154666,-0.11453723216212788
1592253859.113553,3.9207241606319947,8.912952600394997,0.9257521395655036,-0.5788888888888889,-0.39555555555555555,-0.12444444444444444,0.08427655215671187,0.31918954641473446,-0.08156087542342803
1592253859.123553,4.182559038213825,9.08502361528553,0.7424645770717045,-0.5788888888888889,-0.39555555555555555,-0.12444444444444444,0.08692783200472079,0.31531473102682767,-0.05911422307910055
1592253859.133553,4.02,9.02,0.84,-0.5788888888888889,-0.39555555555555555,-0.12444444444444444,0.08072147790473774,0.32506757318394386,-0.04581489286485115
1592253859.143553,3.879265384384924,8.88754389118581,0.6992653843849242,-0.5788888888888889,-0.39555555555555555,-0.12444444444444444,0.07891538789443502,0.31513407812727895,-0.04039662283394299
1592253859.153553,4.21,8.67,0.65,-0.5788888888888889,-0.3888888888888889,-0.13666666666666666,0.07963064712224129,0.27270769562411395,-0.031634092692397225
1592253859.163553,3.860213575808839,8.854609501656446,0.4459579192218228,-0.5788888888888889,-0.3888888888888889,-0.13666666666666666,0.07539111602438484,0.2462106262625111,-0.047532334309358944
1592253859.173553,4.49,8.65,0.67,-0.5788888888888889,-0.3888888888888889,-0.13666666666666666,0.07744898555724837,0.24216443371421323,-0.0643590161672909
1592253859.183553,4.1673774631719915,8.74720566290415,0.23688100248708627,-0.5788888888888889,-0.3888888888888889,-0.13666666666666666,0.09284560188729674,0.22814403387453655,-0.09627918324971034
1592253859.193553,4.135280275492634,9.324955041132581,0.5658771762004975,-0.5788888888888889,-0.3888888888888889,-0.13666666666666666,0.10772595703698548,0.2701591542971872,-0.09978044328493121
1592253859.203553,3.7427011427102563,8.86810786810927,0.6795954945902367,-0.5844444444444444,-0.38333333333333336,-0.14333333333333334,0.1449552319388483,0.29966151171400507,-0.08244621563227478
1592253859.213553,4.2239802367812835,8.940822366869487,0.4182236686948729,-0.5844444444444444,-0.38333333333333336,-0.14333333333333334,0.1339030673183415,0.30410137952300076,-0.06773556989196054
1592253859.223553,4.3815523428688605,8.949223828565568,0.515433200041013,-0.5844444444444444,-0.38333333333333336,-0.14333333333333334,0.12768234146552435,0.27757902177000254,-0.05443718711825361
1592253859.233553,4.398949456128907,8.916888034835956,0.5736967367734428,-0.5844444444444444,-0.38333333333333336,-0.14333333333333334,0.0896773172832996,0.2794905273144547,-0.0272707695624114
1592253859.243553,4.3915551011053715,8.754212224318179,0.5293306066322303,-0.5844444444444444,-0.38333333333333336,-0.14333333333333334,0.09129051529857556,0.2504529630394876,-0.0272707695624114
1592253859.253553,4.188410107810969,8.70030212639025,0.5896978736097498,-0.5722222222222222,-0.3711111111111111,-0.16,0.10963632612850836,0.27049307718245214,-0.035567349499476104
1592253859.263553,4.122125689084895,8.774901874310915,0.5158721058434399,-0.5722222222222222,-0.3711111111111111,-0.16,0.14320840234542007,0.2634530728332537,-0.06288092241680783
1592253859.273553,4.568124570914514,8.967228522052036,0.3692938140669018,-0.5722222222222222,-0.3711111111111111,-0.16,0.15596809106421078,0.2839183247949436,-0.0900676672934912
1592253859.283553,4.342589240033059,9.09740623401157,0.5451875319768587,-0.5722222222222222,-0.3711111111111111,-0.16,0.1753408200036523,0.26923310614928386,-0.10160894047404304
1592253859.2935529,4.177517808650478,9.039631233027666,0.6607375339446653,-0.5722222222222222,-0.3711111111111111,-0.16,0.16903854505045182,0.26473148118271206,-0.10521024044730044
1592253859.3035529,4.28423020063358,8.421869294849232,0.3852458054675584,-0.6055555555555555,-0.36444444444444446,-0.17777777777777778,0.17126749771867994,0.216038121368402,-0.10950149242237085
1592253859.3135529,4.606647158020038,8.64173494692987,0.33161789505009426,-0.6055555555555555,-0.36444444444444446,-0.17777777777777778,0.13017460144113718,0.20324111129935876,-0.09180627070205144
1592253859.3235528,4.5867430622009575,8.740101674641148,0.22325693779904304,-0.6055555555555555,-0.36444444444444446,-0.17777777777777778,0.13273716964661678,0.17295636156156313,-0.07750725888589227
1592253859.3335528,4.71,8.52,0.1,-0.6055555555555555,-0.36444444444444446,-0.17777777777777778,0.12217304763960307,0.1854412330243975,-0.04581489286485115
1592253859.3435528,4.768248302965345,8.952701679171131,0.008466952483029658,-0.6055555555555555,-0.36444444444444446,-0.17777777777777778,0.10492673626599198,0.20813374798967524,-0.024937779096795634
1592253859.3535528,4.43,8.93,0.7,-0.5844444444444444,-0.37666666666666665,-0.15555555555555556,0.06872233929727672,0.2585268954516601,-0.011999138607461015
1592253859.3635528,4.598297043925304,8.98939895667952,0.016911998185529686,-0.5844444444444444,-0.37666666666666665,-0.15555555555555556,0.029845813060760937,0.25960679895822997,-0.03683691925856832
1592253859.3735528,4.69579152062227,8.760527680414846,0.27078503865175013,-0.5844444444444444,-0.37666666666666665,-0.15555555555555556,0.025060091804327642,0.29105106248590895,-0.05942149714406512
1592253859.3835528,4.53,8.65,0.63,-0.5844444444444444,-0.37666666666666665,-0.15555555555555556,0.05017821599483697,0.27598018797160334,-0.06544984694978735
1592253859.3935528,4.626026856953603,8.691154367265831,0.4448053473037666,-0.5844444444444444,-0.37666666666666665,-0.15555555555555556,0.05391925354881459,0.2872033006335362,-0.04973748922308134
1592253859.4035528,4.74,8.58,0.65,-0.6055555555555555,-0.37777777777777777,-0.17,0.08508480103472357,0.28907015736156083,-0.017453292519943295
1592253859.4135528,4.722293461272852,8.819038272816487,0.5349074982735434,-0.6055555555555555,-0.37777777777777777,-0.17,0.09087925228323489,0.25816641736950047,-0.010693099396680084
1592253859.4235528,4.27,8.81,0.28,-0.6055555555555555,-0.37777777777777777,-0.17,0.09381144729469522,0.22143864884678055,-0.015271630954950384
1592253859.4335527,4.590107184591208,8.960638675101745,0.48712817826489907,-0.6055555555555555,-0.37777777777777777,-0.17,0.08559538210292193,0.19781746142043238,-0.03273076948746861
1592253859.4435527,4.296028388653155,8.847899928920672,0.29940702608395975,-0.6055555555555555,-0.37777777777777777,-0.17,0.10316065678821218,0.16971143763369465,-0.04998888835261679
1592253859.4535527,4.82,8.88,0.0,-0.6055555555555555,-0.35888888888888887,-0.19,0.074176493209759,0.14398966328953217,-0.08072147790473774
1592253859.4635527,4.2145283776190094,8.255307056273582,0.15377057076342618,-0.6055555555555555,-0.35888888888888887,-0.19,0.074176493209759,0.14398966328953217,-0.08072147790473774
1592253859.4735527,4.722758457646753,9.072727014823045,0.5958932835291614,-0.6055555555555555,-0.35888888888888887,-0.19,0.028741182327639482,0.11863042000648874,-0.08494801845191166
1592253859.4835527,4.256263681092479,8.720311276232554,0.6261903805602972,-0.6055555555555555,-0.35888888888888887,-0.19,-0.009218117062367632,0.1202750743692849,-0.07438427571748024
1592253859.4935527,4.003569635505573,8.358116477557989,0.1881873682096596,-0.6055555555555555,-0.35888888888888887,-0.19,0.0018077406768227736,0.08535985819518196,-0.09827363415239279
1592253859.5035527,4.87,8.95,0.85,-0.6177777777777778,-0.37777777777777777,-0.15777777777777777,0.0370882466048795,0.0370882466048795,-0.09708393964218458
1592253859.5135527,4.674253743358557,8.713473273224924,0.3524782643696667,-0.6177777777777778,-0.37777777777777777,-0.15777777777777777,0.035308862919021695,0.01573564237458581,-0.07929010278360651
1592253859.5235527,3.967005357735527,9.202377317339149,0.7835389502631455,-0.6177777777777778,-0.37777777777777777,-0.15777777777777777,0.05053456818730772,0.019634954084936207,-0.05906126414595979
1592253859.5335526,3.0535895652864977,7.285540411666535,0.03914944766748788,-0.6177777777777778,-0.37777777777777777,-0.15777777777777777,0.06459182440589809,0.01716643254543159,-0.09675835053693455
1592253859.5435526,5.395237622188667,10.435515377890805,1.4808046570770086,-0.6177777777777778,-0.37777777777777777,-0.15777777777777777,0.1936724411597592,-0.07373541023897763,-0.12493792180010141
1592253859.5535526,5.3,8.8,1.33,-0.6322222222222222,-0.3655555555555556,-0.19333333333333333,0.11453723216212788,0.05235987755982988,-0.14289883250703572
1592253859.5635526,3.9441342585121832,8.865007261578182,-0.6016443440374377,-0.6322222222222222,-0.3655555555555556,-0.19333333333333333,0.1732928246890751,0.05641198738927452,-0.14289883250703572
1592253859.5735526,4.450733918549432,7.694586271405957,1.0248632896819687,-0.6322222222222222,-0.3655555555555556,-0.19333333333333333,0.12203294597412918,0.00870663173633252,-0.15594877284971492
1592253859.5835526,4.49,9.01,-0.32,-0.6322222222222222,-0.3655555555555556,-0.19333333333333333,0.11453723216212788,0.007635815477475192,-0.1538071403320003
1592253859.5935526,4.483174556753793,9.119207091939316,0.062224821787607465,-0.6322222222222222,-0.3655555555555556,-0.19333333333333333,0.1271944182772751,-0.021401258551391994,-0.15529622105142937
1592253859.6035526,4.26,8.81,0.66,-0.6322222222222222,-0.37333333333333335,-0.1688888888888889,0.07853981633974483,-0.04908738521234052,-0.15817046346198613
1592253859.6135526,4.393225975915299,8.9432259759153,0.5581213125353592,-0.6322222222222222,-0.37333333333333335,-0.1688888888888889,0.10162116269284238,-0.06703954348697193,-0.16671911025942965
1592253859.6235526,4.7055641625648885,8.527287447214825,0.21506952849726996,-0.6322222222222222,-0.37333333333333335,-0.1688888888888889,0.08007995943841845,-0.07414193072389921,-0.19484396023654824
1592253859.6335526,4.793411984107679,8.573080353523068,0.24033163058461038,-0.6322222222222222,-0.37333333333333335,-0.1688888888888889,0.08128498093849149,-0.05680598813913191,-0.2184193834943684
1592253859.6435525,4.923935872366901,8.65396053684117,0.17004932894853791,-0.6322222222222222,-0.37333333333333335,-0.1688888888888889,0.04692724746156094,-0.017256112082302003,-0.2633034127943651
1592253859.6535525,4.74,8.65,0.36,-0.6255555555555555,-0.37777777777777777,-0.21333333333333335,0.0272707695624114,0.008726646259971648,-0.3141592653589793
1592253859.6635525,4.447666708059109,8.443647088041724,0.43738234198435366,-0.6255555555555555,-0.37777777777777777,-0.21333333333333335,-0.02712745663954026,0.07625547878653233,-0.3488615820740174
1592253859.6735525,4.895362378690894,9.09112327069998,0.03424943217014248,-0.6255555555555555,-0.37777777777777777,-0.21333333333333335,-0.007049744509881592,0.05735386891013164,-0.3911870546405166
1592253859.6835525,4.315593308666424,8.304761061024545,0.7398228151545155,-0.6255555555555555,-0.37777777777777777,-0.21333333333333335,-0.03264903316822669,0.06604065440835662,-0.42220062835044325
1592253859.6935525,4.516029276853736,8.730131027880818,0.87494216425352,-0.6255555555555555,-0.37777777777777777,-0.21333333333333335,-0.0065180739678847195,0.04892927109389322,-0.4602262975492451
1592253859.7035525,4.74,8.54,0.04,-0.6377777777777778,-0.38555555555555554,-0.19666666666666666,0.02617993877991494,0.0032724923474893677,-0.5268712679457882
1592253859.7135525,4.896677486668212,8.618338743334107,0.6928228611175516,-0.6377777777777778,-0.38555555555555554,-0.19666666666666666,0.03472537004900815,-0.013818370190697047,-0.5752953784706498
1592253859.7235525,4.5966732380483,9.143518974864465,0.4191251848201084,-0.6377777777777778,-0.38555555555555554,-0.19666666666666666,0.06504286868347399,-0.048519927405083235,-0.6354078555643803
1592253859.7335525,4.847646960308157,9.026617699834915,0.7058822403521784,-0.6377777777777778,-0.38555555555555554,-0.19666666666666666,0.03838762892894423,-0.06060527110718497,-0.6861004612772276
1592253859.7435524,4.755529988123516,8.961961104513064,0.31953162114014255,-0.6377777777777778,-0.38555555555555554,-0.19666666666666666,0.03139029136474752,-0.06741758519772595,-0.7142715754047539
1592253859.7535524,4.718338182386986,8.872077272016266,0.6913336461755044,-0.6377777777777778,-0.4089844447920468,-0.21051101030641153,-0.012458676455641759,-0.0625852260089114,-0.7759042670676232
1592253859.7635524,4.513793568422343,8.883303640746945,0.3874089813263596,-0.6377777777777778,-0.41,-0.2111111111111111,-0.027967219976194224,-0.04621413167165132,-0.806786389612058
1592253859.7735524,4.225427946404157,8.751570959803118,0.3399718348372983,-0.6377777777777778,-0.41,-0.2111111111111111,-0.04396674453417852,-0.004958492574972204,-0.8606562703617632
1592253859.7835524,4.378266666666667,8.758696296296296,0.45282962962962964,-0.6377777777777778,-0.41,-0.2111111111111111,-0.04982268596202331,0.034528430368621146,-0.912884768982012
1592253859.7935524,4.34878612716763,8.96606936416185,0.46686897880539496,-0.6377777777777778,-0.41,-0.2111111111111111,-0.06066826693017379,0.055071191065456916,-0.9485172994555576
1592253859.8035524,3.543971453915007,8.64272558664624,0.8387541327312313,-0.6183696655287656,-0.421860513041063,-0.20895465419455422,-0.09403065141613551,0.10349302130039555,-0.9939014820378557
1592253859.8135524,3.707307825551407,8.956278147734709,0.8318734362369606,-0.6177777777777778,-0.4222222222222222,-0.2088888888888889,-0.06326545610341863,0.07374203360367367,-1.045588408886362
1592253859.8235524,4.1806301113130395,9.143028452975921,0.37047421626533394,-0.6177777777777778,-0.4222222222222222,-0.2088888888888889,-0.06313737613915375,0.11621634833254949,-1.1445394232537596
1592253859.8335524,3.3879443860641825,8.95719990299895,0.36412416134508124,-0.6177777777777778,-0.4222222222222222,-0.2088888888888889,-0.06682504676256035,0.13632827664344296,-1.2069252988271773
1592253859.8435524,3.0214301303661553,9.112033439211178,0.26856986963384455,-0.6177777777777778,-0.4222222222222222,-0.2088888888888889,-0.0829689502556809,0.11122331047942627,-1.2935619714518944
1592253859.8535523,2.5575529411764704,9.250658823529411,0.36814117647058825,-0.5918300653594771,-0.4409045751633987,-0.21615424836601307,-0.13442628565286913,0.08456890224111935,-1.3772547127127137
1592253859.8635523,2.487837837837838,9.307891891891892,0.4893513513513514,-0.59,-0.44222222222222224,-0.21666666666666667,-0.1542847473232555,0.035578772657208727,-1.4076552127942914
1592253859.8735523,1.93012252042007,9.540277129521588,0.55,-0.59,-0.44222222222222224,-0.21666666666666667,-0.18547146316568608,-0.03781663390392687,-1.4157943003519644
1592253859.8835523,1.8074972457546632,9.57,0.5765642214033355,-0.59,-0.44222222222222224,-0.21666666666666667,-0.19624776368103736,-0.07891700517772995,-1.3910463271536595
1592253859.8935523,1.6910889444763388,9.576070081194128,0.5939299188058722,-0.59,-0.44222222222222224,-0.21666666666666667,-0.21481310209819415,-0.14285237848556348,-1.3356520194377501
1592253859.9035523,1.5951441625965024,9.472345990231606,0.6886828422876949,-0.5830224252927892,-0.4960492271064195,-0.1977275353185232,-0.2303583001435796,-0.19603073021417522,-1.2820449800685225
1592253859.9135523,1.4749738524113887,9.50929692039512,0.6452256440054231,-0.5822222222222222,-0.5022222222222222,-0.19555555555555557,-0.23125612588924865,-0.2038045019495727,-1.2736737127970221
1592253859.9235523,1.3884561658378498,9.60919316086495,0.498526009945801,-0.5822222222222222,-0.5022222222222222,-0.19555555555555557,-0.2284888520899022,-0.20356815027519798,-1.2623476340276174
1592253859.9335523,1.127484681740635,9.549995915130834,0.6112576591296826,-0.5822222222222222,-0.5022222222222222,-0.19555555555555557,-0.22702910090831205,-0.1818948076085017,-1.2543186561317725
1592253859.9435523,1.0064676196032674,9.570775087514585,0.6871537339556593,-0.5822222222222222,-0.5022222222222222,-0.19555555555555557,-0.2163421015951412,-0.17697793902685122,-1.2471300638550833
1592253859.9535522,0.8753471895897343,9.568911982649558,0.7764352069401771,-0.5566563447597245,-0.5113528927445429,-0.21290382954796475,-0.18765570034435292,-0.14943368369357052,-1.2221521407512814
1592253859.9635522,0.8124717179178167,9.623281110290401,0.74548303075069,-0.5511111111111111,-0.5133333333333333,-0.21666666666666667,-0.16113156248692867,-0.1195157511153721,-1.1996318977607259
1592253859.9735522,0.6035140357468735,9.678324298212656,0.6700542107240621,-0.5511111111111111,-0.5133333333333333,-0.21666666666666667,-0.11947258131030866,-0.059677419400159956,-1.1630320587410332
1592253859.9835522,0.28812532899459253,9.91916638751974,0.6172917165143322,-0.5511111111111111,-0.5133333333333333,-0.21666666666666667,-0.12292298401500314,-0.025180041012832607,-1.1277145342173605
1592253859.9935522,0.15797739275456313,9.938602798109887,0.6670592050403039,-0.5511111111111111,-0.5133333333333333,-0.21666666666666667,-0.13758112087717833,-0.012556530599072984,-1.103403281896014
1592253860.0035522,-0.06423575838087052,9.858757912010628,0.8937262639681176,-0.5181174407196131,-0.5472434945690395,-0.19283790471725143,-0.17403963476118126,-0.0005176267818011826,-1.0231262649510273
1592253860.0135522,-0.08,9.8637526852322,0.9612580556965981,-0.5111111111111111,-0.5544444444444444,-0.18777777777777777,-0.1782147720037526,-0.008091695232687943,-0.9848782773919993
1592253860.0235522,-0.2718592335288423,9.816046922157053,1.0419765389214737,-0.5111111111111111,-0.5544444444444444,-0.18777777777777777,-0.17475493016592927,-0.028570809278080686,-0.9067311762960291
1592253860.0335522,-0.3367156029218058,9.783284397078194,1.1586514189917374,-0.5111111111111111,-0.5544444444444444,-0.18777777777777777,-0.16523684202014446,-0.05898493401503738,-0.8454288633380833
1592253860.0435522,-0.302975370086779,9.746341245533435,1.2203905053598774,-0.5111111111111111,-0.5544444444444444,-0.18777777777777777,-0.15260981573268279,-0.07684245802798126,-0.8172183766559759
1592253860.0535522,-0.13161143716003437,9.649726596049241,1.3605468079015173,-0.4858832744854789,-0.5620127954321341,-0.1936642729904253,-0.08879516372601706,-0.10062168374915946,-0.749662837393047
1592253860.0635521,-0.15233006179571065,9.674886707863807,1.2753398764085786,-0.4777777777777778,-0.5644444444444444,-0.19555555555555557,-0.049579864976739135,-0.09322102670758607,-0.7262638473393664
1592253860.0735521,-0.21291727838809293,9.776661772895258,0.9700146813142307,-0.4777777777777778,-0.5644444444444444,-0.19555555555555557,0.003725270233668098,-0.06390623828111217,-0.679681015741836
1592253860.0835521,-0.24615938755616842,9.742144979910131,1.0012462851572717,-0.4777777777777778,-0.5644444444444444,-0.19555555555555557,0.02777664781645614,-0.03748823431697486,-0.6423444241534388
1592253860.093552,-0.2334973059967812,9.72,1.0559016164019313,-0.4777777777777778,-0.5644444444444444,-0.19555555555555557,0.051739926008823225,-0.009149895625932242,-0.6147576820965114
1592253860.103552,-0.25235164306062674,9.732100469445895,1.0215981222164265,-0.4777777777777778,-0.5805784037056356,-0.19555555555555557,0.0828110077521543,0.03555662792323279,-0.5797267309869087
1592253860.113552,-0.3823038073990537,9.74786952364608,1.0057390472921621,-0.4777777777777778,-0.5911111111111111,-0.19555555555555557,0.11160611751300245,0.0892724476977644,-0.5440543465789889
1592253860.123552,-0.5227730006862864,9.795109200274515,0.9423361995882282,-0.4777777777777778,-0.5911111111111111,-0.19555555555555557,0.13000464987009508,0.11501168256181367,-0.5220334944161166
1592253860.133552,-0.689956142668428,9.85,0.874978071334214,-0.4777777777777778,-0.5911111111111111,-0.19555555555555557,0.15597444961879814,0.13989067569289002,-0.4726466893743576
1592253860.143552,-0.6942101129812411,9.954217966337659,0.9147393221125528,-0.4777777777777778,-0.5911111111111111,-0.19555555555555557,0.15926129424448257,0.13675537213474828,-0.44230173341933327
1592253860.153552,-2.8747687560115422,11.229048172491183,1.0429857326066048,-0.46715226568344553,-0.5992845819529051,-0.2053637205657084,0.152039436633289,0.16678335765013763,-0.35939923374400473
1592253860.163552,-1.2630107964962316,10.594180077408842,1.332081890405378,-0.4633333333333333,-0.6022222222222222,-0.2088888888888889,0.11663934240910617,0.034170624243058695,-0.18822975115223373
1592253860.173552,0.8784023714798347,9.756918636399094,1.0328816600358843,-0.4633333333333333,-0.6022222222222222,-0.2088888888888889,0.22112118835538236,-0.22047852374194338,0.023173538004066605
1592253860.183552,-0.8460956919466462,9.833592758447281,0.4375746545654829,-0.4633333333333333,-0.6022222222222222,-0.2088888888888889,0.28540575586323463,-0.04008489007995425,0.001219586378342262
1592253860.193552,-0.8001038543897216,9.777214132762312,0.2687317987152034,-0.4633333333333333,-0.6022222222222222,-0.2088888888888889,0.2573793624909086,0.004583299551702322,-2.7212373910241727e-05
1592253860.203552,-0.30712896789406857,9.928139307092327,0.19766551786686015,-0.4511180845274805,-0.6101262067436564,-0.18158421508757078,0.18123604375281385,0.032828288249204605,-0.0005093049944033881
1592253860.213552,-0.25934586581079017,9.988562968057465,0.21385526516888276,-0.4444444444444444,-0.6144444444444445,-0.16666666666666666,0.13873552836395195,0.06094381387790684,-0.004363323129985824
1592253860.223552,-0.33349123985104695,9.903491239851046,0.23230694096819487,-0.4444444444444444,-0.6144444444444445,-0.16666666666666666,0.06399729265770536,0.07932732411300672,-0.005099156116164069
1592253860.233552,-0.3851569905925944,9.902473834901235,0.33299713687654886,-0.4444444444444444,-0.6144444444444445,-0.16666666666666666,0.016248294956803973,0.0818123086872342,-0.00545415391248228
1592253860.243552,-0.39606368962520677,9.87047767218905,0.40361786224875956,-0.4444444444444444,-0.6144444444444445,-0.16666666666666666,-0.002704158287458556,0.07945069199777764,-0.005024769059853815
1592253860.253552,-0.38,9.767719758243711,0.5767856190560839,-0.4444444444444444,-0.6105067203902863,-0.17585468945970234,-0.0488835876561404,0.06723593571302171,-0.003916800939177236
1592253860.263552,-0.383228198789532,9.815510186684852,0.623543602420936,-0.4444444444444444,-0.6077777777777778,-0.18222222222222223,-0.059574740778131824,0.06298485392163983,-0.004715464991149755
1592253860.273552,-0.3272319922910142,9.855128884606119,0.505386653818357,-0.4444444444444444,-0.6077777777777778,-0.18222222222222223,-0.06402895510662707,0.042598637035659595,-0.00545415391248228
1592253860.283552,-0.3941455598964049,9.826550634300514,0.5003480970984593,-0.4444444444444444,-0.6077777777777778,-0.18222222222222223,-0.06729321258930125,0.020592884606828697,-0.006921252123487456
1592253860.293552,-0.382763332097654,9.839078889300781,0.5343091669755865,-0.4444444444444444,-0.6077777777777778,-0.18222222222222223,-0.07444559522718894,-0.003039206412522385,-0.00919670345836034
1592253860.303552,-0.32457888669914103,9.832526679805154,0.6278410738853977,-0.4444444444444444,-0.6077777777777778,-0.17509950957911394,-0.08921262185841503,-0.030715365989405937,-0.011907265937161886
1592253860.313552,-0.31087369818969735,9.787249132126465,0.7391263018103026,-0.4444444444444444,-0.6077777777777778,-0.16666666666666666,-0.09996105316617734,-0.06201505536935789,-0.01308996938995747
1592253860.323552,-0.26653731040430173,9.726459696646883,0.7901552275148379,-0.4444444444444444,-0.6077777777777778,-0.16666666666666666,-0.10254655990224064,-0.08038608880248485,-0.016010139940046395
1592253860.333552,-0.29845431684828166,9.713844090528081,0.8515322715842414,-0.4444444444444444,-0.6077777777777778,-0.16666666666666666,-0.09230275425938997,-0.08550412626259689,-0.019718526535497966
1592253860.3435519,-0.4035633112511445,9.709554586093606,0.9640087251575375,-0.4444444444444444,-0.6077777777777778,-0.16666666666666666,-0.07530257462345585,-0.09073330342722406,-0.020156075916182157
1592253860.3535519,-0.48565480361423563,9.666071178314587,1.0895836252996498,-0.4444444444444444,-0.6077777777777778,-0.18802925809822363,-0.04523687122801143,-0.10415492885426238,-0.019018110699798158
1592253860.3635519,-0.4649817941079113,9.64312727573651,1.1231272757365112,-0.4444444444444444,-0.6077777777777778,-0.20444444444444446,-0.02440287036016774,-0.11211757197432363,-0.017861857574691636
1592253860.3735518,-0.2682795945249413,9.697032243285035,0.9918710268598591,-0.4444444444444444,-0.6077777777777778,-0.20444444444444446,0.027578071356071557,-0.10729318117907083,-0.012161004626443222
1592253860.3835518,-0.2667067740001713,9.707764408666609,0.9122355913333905,-0.4444444444444444,-0.6077777777777778,-0.20444444444444446,0.054618911788657916,-0.08810030310366126,-0.012243003791815473
1592253860.3935518,-0.27272979491178123,9.717270205088218,0.9113648974558907,-0.4444444444444444,-0.6077777777777778,-0.20444444444444446,0.07095262113288048,-0.0720950985901389,-0.014973856522983066
1592253860.4035518,-0.2702876927196909,9.748115077087876,0.8756547687363709,-0.449854495836362,-0.6100319658577434,-0.20128858113249254,0.08582717024509234,-0.056423440273936296,-0.02010894528687946
1592253860.4135518,-0.30702449663536985,9.78809798654148,0.7135590605633428,-0.4577777777777778,-0.6133333333333333,-0.19666666666666666,0.10026605409017461,-0.04186652470072069,-0.026297038363343295
1592253860.4235518,-0.3239174231565536,9.808350453893933,0.6349486383182036,-0.4577777777777778,-0.6133333333333333,-0.19666666666666666,0.10314535569835477,-0.03775175281065265,-0.026056245275035587
1592253860.4335518,-0.3285213575808839,9.798521357580883,0.6014786424191161,-0.4577777777777778,-0.6133333333333333,-0.19666666666666666,0.09853893813410507,-0.036562784028747776,-0.022907446432425576
1592253860.4435518,-0.3801557397638784,9.759955502924607,0.6651001184196361,-0.4577777777777778,-0.6133333333333333,-0.19666666666666666,0.09490227807719166,-0.04145885055180092,-0.024000704153900564
1592253860.4535518,-0.4230662009842832,9.74897793300524,0.701022066994761,-0.4458072004374592,-0.6108394630541003,-0.18718995960558113,0.09490227807719166,-0.04962076492500746,-0.02606844856594904
1592253860.4635518,-0.37842467043314504,9.788938323917138,0.655274011299435,-0.4311111111111111,-0.6077777777777778,-0.17555555555555555,0.09490227807719166,-0.05563236990731925,-0.0272707695624114
1592253860.4735518,-0.3644148726166423,9.782074363083211,0.6188297452332846,-0.4311111111111111,-0.6077777777777778,-0.17555555555555555,0.08941909209065424,-0.058678584344284496,-0.025443040900232253
1592253860.4835517,-0.3104234723289777,9.804068024596464,0.6155085030745581,-0.4311111111111111,-0.6077777777777778,-0.17555555555555555,0.08147949420320101,-0.062288292763642394,-0.027002699574524166
1592253860.4935517,-0.24883522727272728,9.818835227272727,0.628465909090909,-0.4311111111111111,-0.6077777777777778,-0.17555555555555555,0.07623109778019978,-0.06419167280861247,-0.029914174839313322
1592253860.5035517,-0.24554154829545455,9.811892755681818,0.6071608664772727,-0.4311111111111111,-0.6098048847853536,-0.1860965119949495,0.07626983466878275,-0.06505182541959732,-0.03492149874199103
1592253860.5135517,-0.31283626008542953,9.810036544850497,0.5614181300427148,-0.4311111111111111,-0.6133333333333333,-0.20444444444444446,0.07683020959557786,-0.056263105143349354,-0.043165162903818825
1592253860.5235517,-0.3696427978069447,9.796989770488691,0.45107160657916595,-0.4311111111111111,-0.6133333333333333,-0.20444444444444446,0.06567247657261714,-0.041529499164417324,-0.04177993483619689
1592253860.5335517,-0.3835846047156727,9.793584604715672,0.3764153952843273,-0.4311111111111111,-0.6133333333333333,-0.20444444444444446,0.05163936441190909,-0.022372092101792605,-0.037973216487970016
1592253860.5435517,-0.40531375612153553,9.799618753400853,0.4096187534008531,-0.4311111111111111,-0.6133333333333333,-0.20444444444444446,0.03873185484767458,-0.005150901767826597,-0.03300131220504299
1592253860.5535517,-0.46271012133767386,9.819159514649304,0.5050429121041728,-0.43321898326263525,-0.6133333333333333,-0.20233657229292032,0.02294860681264703,0.00870606606986092,-0.024518431431642188
1592253860.5635517,-0.4647057282986524,9.76882291319461,0.6641171848959574,-0.4388888888888889,-0.6133333333333333,-0.19666666666666666,0.00025651482402546267,0.019763354337035213,-0.006673099266905192
