time,acc_x,acc_y,acc_z,mag_x,mag_y,mag_z,gyr_x,gyr_y,gyr_z
1592253894.773519,-0.4901947162670252,9.784951320933242,0.7202920744005378,-0.2677777777777778,-0.6055555555555555,0.11666666666666667,0.013651314968549993,-0.0021922816898891076,0.006555604819874931
1592253894.783519,-0.502289299821722,9.783855350089139,0.7769874506239731,-0.2677777777777778,-0.6055555555555555,0.11666666666666667,0.018636058598577025,-0.002431385436582708,0.007215262022021862
1592253894.793519,-0.5007033590916259,9.79,0.8173241602270935,-0.276994559217789,-0.6055555555555555,0.12053176856086492,0.02574961025091086,-0.0007989419431649843,0.007420651212973151
1592253894.803519,-0.53,9.79,0.81,-0.3022222222222222,-0.6055555555555555,0.13111111111111112,0.030543261909900768,0.0,0.009817477042468103
1592253894.813519,-0.5283576083876452,9.789105979030888,0.7682119580617739,-0.3022222222222222,-0.6055555555555555,0.13111111111111112,0.04263992307669237,0.0023608186977599694,0.010729150692197502
1592253894.823519,-0.5743838226180366,9.789471847958318,0.729647898638878,-0.3022222222222222,-0.6055555555555555,0.13111111111111112,0.05010139939418283,-0.0010524224821693835,0.014142391872126854
1592253894.833519,-0.5995106082036775,9.813007072135786,0.7465035360678925,-0.3022222222222222,-0.6055555555555555,0.13111111111111112,0.05797418456315111,-0.0070865428345208235,0.018650892029665713
1592253894.843519,-0.5860313315926893,9.804020887728461,0.7359791122715404,-0.3022222222222222,-0.604215259646069,0.1328981723237598,0.06523623778872407,-0.01637385422603688,0.024442584269933645
1592253894.853519,-0.6456874167776299,9.840392809587216,0.679214380825566,-0.3022222222222222,-0.5988888888888889,0.14,0.06983459451924298,-0.03621166021708109,0.03332389996481641
1592253894.863519,-0.7127224109589041,9.888047780821918,0.6306507397260274,-0.3022222222222222,-0.5988888888888889,0.14,0.06937423172720655,-0.05659426150274714,0.041606569317614354
1592253894.873519,-0.8418655803420361,9.929186558034203,0.6337798370513055,-0.3022222222222222,-0.5988888888888889,0.14,0.05911367526921576,-0.08617032204924421,0.05501124063207366
1592253894.883519,-0.9575505073019382,9.94377525365097,0.6688762682548457,-0.3022222222222222,-0.5988888888888889,0.14,0.04043924313450106,-0.1372312040160349,0.07068087859437112
1592253894.893519,-0.9726687407519824,9.960674963007929,0.7320248890237887,-0.3022222222222222,-0.601261102890651,0.14385484775286347,0.02064876411066118,-0.20494590159492393,0.08959877196409047
1592253894.903519,-0.98,9.99,0.82,-0.3022222222222222,-0.6077777777777778,0.15444444444444444,0.00545415391248228,-0.2585268954516601,0.10799224746714915
1592253894.913519,-0.6858848121188275,9.911371729293725,0.7962743458587449,-0.3022222222222222,-0.6077777777777778,0.15444444444444444,-0.01741080098051101,-0.345708374972512,0.14013988689622037
1592253894.923519,-0.9076766054451727,9.909791207937207,0.900653058052483,-0.3022222222222222,-0.6077777777777778,0.15444444444444444,-0.025576128916422875,-0.37364516179635643,0.16367307927618538
1592253894.933519,-1.1052542156361778,9.88145284327323,1.129370391999416,-0.3022222222222222,-0.6077777777777778,0.15444444444444444,-0.01197801714859123,-0.38100368599365253,0.20756949470505848
1592253894.9435189,-1.1013908629441624,9.787005076142131,1.2808020304568528,-0.3022222222222222,-0.6077777777777778,0.15054371122391427,0.02253977554939124,-0.37666331547481685,0.2705083149804206
1592253894.9535189,-0.97,9.86,1.31,-0.3022222222222222,-0.6077777777777778,0.14,0.06872233929727672,-0.3687008044838021,0.3294308963139297
1592253894.9635189,-0.861111453979297,9.884445815917188,1.028143462282941,-0.3022222222222222,-0.6077777777777778,0.14,0.17000873306438125,-0.31209817139527224,0.438716828022693
1592253894.9735188,-0.88,9.96,0.77,-0.3022222222222222,-0.6077777777777778,0.14,0.210530341021816,-0.27707101875409984,0.4854196982109229
1592253894.9835188,-1.0243953104099457,10.007261586277442,0.6670058619875678,-0.3022222222222222,-0.6077777777777778,0.14,0.25870066104448125,-0.22469021979972797,0.5872563349578195
1592253894.9935188,-1.126416928692761,10.118469044779356,0.5189576782680979,-0.30062613193264826,-0.6052696358941615,0.13817589681191547,0.2720361422051597,-0.2087963817361259,0.6672046828129161
1592253895.0035188,-1.19,10.19,0.36,-0.29444444444444445,-0.5955555555555555,0.13111111111111112,0.2694352032766246,-0.210530341021816,0.74176493209759
1592253895.0135188,-1.0661782083355513,10.186933517858094,0.16002262202586895,-0.29444444444444445,-0.5955555555555555,0.13111111111111112,0.23780851362488148,-0.244758052717957,0.8859045722813144
1592253895.0235188,-0.9665498999142121,10.141033266609476,0.0844833666952626,-0.29444444444444445,-0.5955555555555555,0.13111111111111112,0.192058794202665,-0.29215736132334735,0.9881475359752114
1592253895.0335188,-0.95,10.13,0.09,-0.29444444444444445,-0.5955555555555555,0.13111111111111112,0.1679879405044542,-0.3174317577064687,1.036289243371633
1592253895.0435188,-0.5673766770702444,10.063770013376029,0.2026233229297556,-0.2992533293700656,-0.5951548151450871,0.13371592377915592,0.10361075193022375,-0.3768911215559953,1.1344465488310074
1592253895.0535188,-0.51,9.99,0.26,-0.3211111111111111,-0.5933333333333334,0.14555555555555555,0.05890486225480862,-0.39924406639370286,1.198823029963605
1592253895.0635188,-0.4963766536964981,9.802640726329443,0.3325281452658885,-0.3211111111111111,-0.5933333333333334,0.14555555555555555,0.01599177734702651,-0.43682246528948776,1.2695707208584943
1592253895.0735188,-0.35511234079091736,9.701800553355913,0.3709325955254496,-0.3211111111111111,-0.5933333333333334,0.14555555555555555,-0.01729549333338028,-0.4827189774914482,1.265952937403736
1592253895.0835187,-0.20528367412027357,9.64684397037457,0.4620922073780077,-0.3211111111111111,-0.5933333333333334,0.14555555555555555,-0.046843835554829204,-0.5246818752012178,1.2317877746289947
1592253895.0935187,-0.12674740145126495,9.633494802902531,0.5197577956462052,-0.3246046428856784,-0.5933333333333334,0.14651928845888446,-0.06598834526017645,-0.5564809735250978,1.187481905414161
1592253895.1035187,-0.0378528341392891,9.587311431277731,0.4757056682785782,-0.35333333333333333,-0.5933333333333334,0.15444444444444444,-0.09194628381804815,-0.6002375913067197,1.1065728644758532
1592253895.1135187,0.15373899796885582,9.707664425959956,0.2440497146725989,-0.35333333333333333,-0.5933333333333334,0.15444444444444444,-0.10469941875895504,-0.6428868559377198,1.0448627998293607
1592253895.1235187,0.5179269510297908,9.953274432860427,0.08914017693361506,-0.35333333333333333,-0.5933333333333334,0.15444444444444444,-0.127514134270569,-0.6889909050932992,0.993916443776546
1592253895.1335187,0.6492257621234586,9.800186236574694,0.02269518677901132,-0.35333333333333333,-0.5933333333333334,0.15444444444444444,-0.17212105033220704,-0.7175567568392852,0.9419528734565106
1592253895.1435187,0.13703401263935241,9.18267237094369,0.3472402897109991,-0.35466208273174116,-0.5895515081224803,0.15362675250696267,-0.23363847924984252,-0.7099076462716443,0.875405993820364
1592253895.1535187,0.7,9.9,0.32,-0.36777777777777776,-0.5522222222222222,0.14555555555555555,-0.23561944901923448,-0.7723081940074907,0.7624907169650227
1592253895.1635187,0.8413640928364206,9.539570966302165,0.08750278955590271,-0.36777777777777776,-0.5522222222222222,0.14555555555555555,-0.30333615967056327,-0.7773915360499802,0.612766097864412
1592253895.1735187,1.36,9.43,-0.38,-0.36777777777777776,-0.5522222222222222,0.14555555555555555,-0.3065234498815041,-0.7941248096574199,0.5410520681182421
1592253895.1835186,1.3274968670412741,9.993191979625662,0.4496493107490803,-0.36777777777777776,-0.5522222222222222,0.14555555555555555,-0.333510630780689,-0.7578925986496303,0.4924118278359463
1592253895.1935186,0.9935996923668526,9.001769275139395,0.3568813689675062,-0.3700647738682732,-0.5522222222222222,0.14520904099638957,-0.3363863320455063,-0.7211796695574545,0.47703991139107677
1592253895.2035186,2.1,9.78,0.31,-0.40444444444444444,-0.5522222222222222,0.14,-0.32615840396644036,-0.6904958853202566,0.43305982065109305
1592253895.2135186,1.6073581223769682,9.434221176722179,0.7050343500227217,-0.40444444444444444,-0.5522222222222222,0.14,-0.29599439157288987,-0.5895879290070205,0.40800028046926573
1592253895.2235186,1.946473623853211,9.401119552752293,0.7612872706422018,-0.40444444444444444,-0.5522222222222222,0.14,-0.2593178103166066,-0.49599650356184893,0.39358553807859403
1592253895.2335186,1.36,9.28,1.59,-0.40444444444444444,-0.5522222222222222,0.14,-0.26070855701665296,-0.40142572795869574,0.39706240482870997
1592253895.2435186,2.2006895445798587,10.09187780628608,0.6758434894162926,-0.40475251229420567,-0.5517381156011688,0.14022004846411518,-0.16162645187920588,-0.3428334562440285,0.4309000246806819
1592253895.2535186,1.49,9.41,1.06,-0.4122222222222222,-0.54,0.14555555555555555,-0.13962634015954636,-0.2181661564992912,0.48432886742842646
1592253895.2635186,1.4771788715486194,9.287635054021608,1.290216086434574,-0.4122222222222222,-0.54,0.14555555555555555,-0.017475554372647306,-0.20052298347099015,0.5179311698040076
1592253895.2735186,1.6163052066330754,9.963052066330754,1.0685439878882501,-0.4122222222222222,-0.54,0.14555555555555555,0.05154616057983691,-0.19936685316212224,0.5170537909033202
1592253895.2835186,1.675121877821246,9.659942645731178,0.6148494450443434,-0.4122222222222222,-0.54,0.14555555555555555,0.10418294225117804,-0.20124967684782963,0.5115918165155956
1592253895.2935185,1.9275624435750827,9.54114708537643,0.30301109911313306,-0.4122222222222222,-0.54,0.14555555555555555,0.12200099718427314,-0.18343162191473456,0.4953935847582364
1592253895.3035185,1.75,9.49,1.08,-0.43,-0.5422222222222223,0.14,0.13635384781205698,-0.17235126363444003,0.4461497900410505
1592253895.3135185,2.0862810805005103,9.867551688953332,0.6321951023038505,-0.43,-0.5422222222222223,0.14,0.1872752475629834,-0.16479095864934645,0.4370805639832141
1592253895.3235185,1.756588094668898,9.575394692804208,1.2864609132201767,-0.43,-0.5422222222222223,0.14,0.2204779980132734,-0.12241259752169756,0.47534634663730835
1592253895.3335185,2.08,9.38,0.99,-0.43,-0.5422222222222223,0.14,0.27707101875409984,-0.1341721862470641,0.4996004983833768
1592253895.3435185,2.0894934260238776,10.110993803838598,0.48684842073447177,-0.43,-0.5422222222222223,0.14,0.29053345649375845,-0.1497057682543625,0.4996004983833768
1592253895.3535185,1.78,9.57,0.9,-0.44222222222222224,-0.5344444444444445,0.14555555555555555,0.29779680362153244,-0.14508049407202864,0.4799655442984406
1592253895.3635185,2.1298239044052485,9.198292215774277,0.2922535090477688,-0.44222222222222224,-0.5344444444444445,0.14555555555555555,0.3186992743245223,-0.14519765056411976,0.4667968365154754
1592253895.3735185,2.430557977332171,9.55918143950402,0.34508185604959796,-0.44222222222222224,-0.5344444444444445,0.14555555555555555,0.31542540257063023,-0.09809604631996731,0.45740141949851826
1592253895.3835185,2.62,9.91,0.31,-0.44222222222222224,-0.5344444444444445,0.14555555555555555,0.3337942194439155,-0.08508480103472357,0.45051311317103626
1592253895.3935184,2.128296034915034,9.541222026186276,0.5463961370600798,-0.44222222222222224,-0.5344444444444445,0.14555555555555555,0.3121332920577711,-0.009787291549554739,0.4484501677056892
1592253895.4035184,1.88,9.31,0.36,-0.4666666666666667,-0.5344444444444445,0.16,0.32615840396644036,0.016362461737446838,0.43960480534607177
1592253895.4135184,2.8062605575489927,10.080453215567209,-0.028526911399392767,-0.4666666666666667,-0.5344444444444445,0.16,0.27755308587136596,0.05745866090301033,0.4099237001973298
1592253895.4235184,2.199848944063235,9.660188638071915,0.06305651868195815,-0.4666666666666667,-0.5344444444444445,0.16,0.27391379058598925,0.04821060514203143,0.3942180139055953
1592253895.4335184,2.5,9.77,0.29,-0.4666666666666667,-0.5344444444444445,0.16,0.25634523388666713,0.04581489286485115,0.3894265893512348
1592253895.4435184,2.5370677346334665,9.59507783388473,-0.04256625457078182,-0.46760903128446224,-0.5344444444444445,0.15853409948342911,0.2540093782716602,0.04019507246995664,0.37244735141373175
1592253895.4535184,2.68,9.9,0.31,-0.4866666666666667,-0.5344444444444445,0.1288888888888889,0.25089107997418486,0.05890486225480862,0.35997415822383044
1592253895.4635184,2.402613449820539,9.541324949222338,-0.19,-0.4866666666666667,-0.5344444444444445,0.1288888888888889,0.23956083815911802,0.04283886514225885,0.36717665823758167
1592253895.4735184,2.542213440628443,10.234033146524883,-0.09614168702399771,-0.4866666666666667,-0.5344444444444445,0.1288888888888889,0.1824607679434394,0.044724062082354694,0.33536413378462004
1592253895.4835184,2.35,9.65,0.17,-0.4866666666666667,-0.5344444444444445,0.1288888888888889,0.1461713248545251,0.044724062082354694,0.31197760379398637
1592253895.4935184,2.689809512067318,9.22317788120704,-0.32154887032641866,-0.4876992468842791,-0.5341002510385737,0.12779894310363132,0.0641753001300699,0.006221834103153891,0.26569740232022215
1592253895.5035183,2.87,10.2,-0.35,-0.5066666666666667,-0.5277777777777778,0.10777777777777778,0.020725784867432664,0.04036073895236887,0.21707532571679475
1592253895.5135183,2.897821320764709,9.620127628025207,0.1963490970714399,-0.5066666666666667,-0.5277777777777778,0.10777777777777778,-0.13791999266956168,-0.019306312644401212,0.18762289458939044
1592253895.5235183,2.648237678533108,9.794704928586757,-0.5829588211449963,-0.5066666666666667,-0.5277777777777778,0.10777777777777778,-0.20571462704321763,-0.010011485168714343,0.19198533338149015
1592253895.5335183,2.71368275388376,9.79006100886851,-0.11855518070342011,-0.5066666666666667,-0.5277777777777778,0.10777777777777778,-0.2941936750230466,-0.0001742429243287904,0.21377954074618466
1592253895.5435183,3.08218733097897,9.710735579523401,0.5901393528681874,-0.5069118598411335,-0.5278595088359334,0.10663354296359928,-0.43159607851490356,-0.04922842865034967,0.24643231652566433
1592253895.5535183,2.48,9.72,0.34,-0.51,-0.5288888888888889,0.09222222222222222,-0.30325095753401476,0.05890486225480862,0.27270769562411395
1592253895.5635183,2.766481069669247,9.730810133708657,0.48567093596059113,-0.51,-0.5288888888888889,0.09222222222222222,-0.2219992483568731,0.12695059475990209,0.2611227810069662
1592253895.5735183,2.8421778652422454,9.661596851279167,0.5391106737887733,-0.51,-0.5288888888888889,0.09222222222222222,-0.21503422195575017,0.12020523838432644,0.2358471015497021
1592253895.5835183,2.7694008459117607,9.397148756188988,0.4811363681921142,-0.51,-0.5288888888888889,0.09222222222222222,-0.21910372825730196,0.1533969554211247,0.20697387450525892
1592253895.5935183,2.3941780429738118,9.483130217279934,0.39165717385408194,-0.5103887197929328,-0.5286638405877172,0.09222222222222222,-0.2551138045067944,0.08211980442720562,0.15760806907248098
1592253895.6035182,3.15,9.65,0.48,-0.5311111111111111,-0.5166666666666667,0.09222222222222222,-0.2476185876266955,0.04036073895236887,0.12762720155208535
1592253895.6135182,3.6369197334106054,9.80328954570334,0.299659357996072,-0.5311111111111111,-0.5166666666666667,0.09222222222222222,-0.17384816626429875,0.09642625918779041,0.14729931391539114
1592253895.6235182,2.26,9.15,0.33,-0.5311111111111111,-0.5166666666666667,0.09222222222222222,-0.08835729338221293,0.05781403147231216,0.1636246173744684
1592253895.6335182,3.516507289543816,9.38038832777193,0.3204848498421159,-0.5311111111111111,-0.5166666666666667,0.09222222222222222,-0.06785408167356748,0.1203831548977328,0.17634387579037297
1592253895.6435182,2.464480326069917,9.389781425660091,0.5740984928224306,-0.5311111111111111,-0.5166666666666667,0.09222222222222222,0.005919136626164168,0.15624513601565793,0.19376255233336517
1592253895.6535182,2.47,9.42,0.53,-0.5222222222222223,-0.5366666666666666,0.06222222222222222,0.02181661564992912,0.11671889372712078,0.17016960206944715
1592253895.6635182,3.2683894073139976,9.94590819672131,0.4001576292559899,-0.5222222222222223,-0.5366666666666666,0.06222222222222222,-0.010870176892693687,0.09144287263168766,0.14193958920581748
1592253895.6735182,1.58,9.26,0.62,-0.5222222222222223,-0.5366666666666666,0.06222222222222222,-0.01854412330243975,0.074176493209759,0.14289883250703572
1592253895.6835182,2.5342339570090515,9.16583994070214,0.16248197479840976,-0.5222222222222223,-0.5366666666666666,0.06222222222222222,-0.06180319236695954,-0.046189055100189606,0.0924020971579063
1592253895.6935182,2.8074414321331504,9.542677837425035,0.32263808090564006,-0.5222222222222223,-0.5366666666666666,0.06222222222222222,-0.10804815986457186,5.591239742272491e-05,0.07184877827007861
1592253895.7035182,3.25,9.78,-0.3,-0.5344444444444445,-0.5166666666666667,0.056666666666666664,-0.10362892433716332,-0.06544984694978735,0.03381575425739013
1592253895.7135181,2.758621239926594,9.323332269475252,0.5777010026862416,-0.5344444444444445,-0.5166666666666667,0.056666666666666664,-0.1685145124532377,-0.01430619102439014,0.03943298590673809
1592253895.7235181,2.9419346751665354,9.161825800444095,0.54,-0.5344444444444445,-0.5166666666666667,0.056666666666666664,-0.16824060028099835,-0.009416206124293117,0.0640617938840292
1592253895.7335181,3.17,9.77,0.54,-0.5344444444444445,-0.5166666666666667,0.056666666666666664,-0.21707532571679475,0.028361600344907853,0.08617563181722002
1592253895.743518,2.737784769584385,9.229730961980481,0.7110851953728474,-0.5344444444444445,-0.5166666666666667,0.056666666666666664,-0.17189243157501777,0.01657475839487908,0.10189142108392506
1592253895.753518,2.77,9.6,0.81,-0.5344444444444445,-0.5366666666666666,0.042222222222222223,-0.14180800172453928,0.04363323129985824,0.12544553998709243
1592253895.763518,2.9511154084158417,9.293915274339934,0.22267378300330032,-0.5344444444444445,-0.5366666666666666,0.042222222222222223,-0.09075020778361599,0.01339080287927219,0.1090830782496456
1592253895.773518,2.46,8.63,0.35,-0.5344444444444445,-0.5366666666666666,0.042222222222222223,-0.05999569303730508,0.00545415391248228,0.1090830782496456
1592253895.783518,3.522589826446104,9.483116908129855,0.1310924693445184,-0.5344444444444445,-0.5366666666666666,0.042222222222222223,-0.026917438339319394,-0.02765493789872384,0.085468969371036
1592253895.793518,3.1366305720216565,9.33052836568298,-0.06637505617496631,-0.5344444444444445,-0.5366666666666666,0.042222222222222223,-0.019084578143680905,-0.01198921750744687,0.06980324897975904
1592253895.803518,3.42,9.08,0.47,-0.5466666666666666,-0.5288888888888889,0.03333333333333333,0.00545415391248228,-0.001090830782496456,0.06544984694978735
1592253895.813518,3.1715227862171176,9.499129836447361,0.6132631133223945,-0.5466666666666666,-0.5288888888888889,0.03333333333333333,-0.03953093849685418,-0.00946152659658388,0.043940971101409404
1592253895.823518,3.2568791921931375,9.363547473182072,0.6635474731820713,-0.5466666666666666,-0.5288888888888889,0.03333333333333333,-0.05389938140989747,0.006544984694978735,0.005701761432523004
1592253895.833518,3.38,8.66,-0.04,-0.5466666666666666,-0.5288888888888889,0.03333333333333333,-0.07308566242726255,0.006544984694978735,-0.016362461737446838
1592253895.843518,3.38,9.097859689148724,1.1705532582347071,-0.5466666666666666,-0.5288888888888889,0.03333333333333333,-0.09462587620916141,0.039323570884824834,-0.00887021346548202
1592253895.853518,3.51,9.62,0.09,-0.54,-0.5455555555555556,0.012222222222222223,-0.08617563181722002,0.019634954084936207,-0.03490658503988659
1592253895.863518,3.46579867389994,9.36363230861965,0.2668053044002411,-0.54,-0.5455555555555556,0.012222222222222223,-0.0929258952164154,0.11124567164544477,-0.027191998297949025
1592253895.873518,3.359369918205869,9.475084828038154,0.5040008737651999,-0.54,-0.5455555555555556,0.012222222222222223,-0.019030299018053025,0.12804488428853988,-0.026154945593859346
1592253895.883518,2.26,8.83,1.14,-0.54,-0.5455555555555556,0.012222222222222223,-0.002181661564992912,0.16471544815696484,0.017453292519943295
1592253895.893518,3.780359606080362,9.751920186665751,0.4202552928662113,-0.54,-0.5455555555555556,0.012222222222222223,0.05868716771989461,0.1435436814491779,0.03597858838925688
1592253895.903518,3.7189523522467534,9.562824705498205,0.5117994122522794,-0.5522222222222222,-0.5455555555555556,0.006666666666666667,0.09086941258837053,0.1776190779053038,0.08448843746473844
1592253895.913518,3.28,9.32,0.82,-0.5522222222222222,-0.5455555555555556,0.006666666666666667,0.14180800172453928,0.1287180323345818,0.10690141668465267
1592253895.923518,3.2041182384878346,9.120810376030565,0.7156625779207721,-0.5522222222222222,-0.5455555555555556,0.006666666666666667,0.11801043035437579,0.14216883354380463,0.10690141668465267
1592253895.933518,3.6,9.09,0.26,-0.5522222222222222,-0.5455555555555556,0.006666666666666667,0.15598880189699318,0.11671889372712078,0.05890486225480862
1592253895.943518,3.4651711317659926,9.716557681793331,0.8151776927282668,-0.5522222222222222,-0.5455555555555556,0.006666666666666667,0.14906760284575488,0.09768559633621543,0.03554581545687932
1592253895.953518,2.82,9.22,0.05,-0.56,-0.5377777777777778,-0.006666666666666667,0.12980886311707826,0.11344640137963141,-0.004363323129985824
1592253895.963518,3.390276304330615,9.017643892011717,0.48230623070224055,-0.56,-0.5377777777777778,-0.006666666666666667,0.1057285425767369,0.13652337523079192,-0.03346037711623164
1592253895.973518,2.724874250338557,8.994875943122462,0.7114649835558134,-0.56,-0.5377777777777778,-0.006666666666666667,0.11541542058300448,0.0760919363510492,-0.05666999393589098
1592253895.983518,3.6,9.48,0.35,-0.56,-0.5377777777777778,-0.006666666666666667,0.06872233929727672,0.11344640137963141,-0.05563236990731925
1592253895.9935179,3.326514145775601,9.29116452922601,0.441161951408133,-0.56,-0.5377777777777778,-0.006666666666666667,0.07085324492845753,0.08148281691191932,-0.05492206803025898
1592253896.0035179,3.09,9.12,0.77,-0.5522222222222222,-0.5311111111111111,-0.027777777777777776,0.004363323129985824,0.10799224746714915,-0.04581489286485115
1592253896.0135179,2.829620985739683,8.83664636683436,0.9384805386390287,-0.5522222222222222,-0.5311111111111111,-0.027777777777777776,0.024412460344426113,0.07708316092822036,-0.04080260856124108
1592253896.0235178,4.043344247577302,9.797892054606427,0.04595310395817376,-0.5522222222222222,-0.5311111111111111,-0.027777777777777776,-0.006529373005714829,0.11912127923091306,-0.03618052192690444
1592253896.0335178,2.7368628470171292,8.806181216774956,0.7709549911399881,-0.5522222222222222,-0.5311111111111111,-0.027777777777777776,0.03746014709374953,0.10472470348375285,-0.006232593438873842
1592253896.0435178,3.1166114585093796,9.373258407977016,0.5616972283251648,-0.5522222222222222,-0.5311111111111111,-0.027777777777777776,0.025818049169294605,0.11362702356302687,0.01835962965606772
1592253896.0535178,3.44,8.55,0.23,-0.54,-0.5455555555555556,-0.006666666666666667,0.04036073895236887,0.14726215563702155,0.07635815477475191
1592253896.0635178,3.7623532946124576,9.121025836170638,0.5523532946124574,-0.54,-0.5455555555555556,-0.006666666666666667,0.04237006979009698,0.15128081731247775,0.11453544069158582
1592253896.0735178,3.2940677966101695,9.077118644067797,0.7052542372881355,-0.54,-0.5455555555555556,-0.006666666666666667,0.06238072983293292,0.12062000042384541,0.12612962030831903
1592253896.0835178,3.53,9.49,0.43,-0.54,-0.5455555555555556,-0.006666666666666667,0.074176493209759,0.15707963267948966,0.10253809355466686
1592253896.0935178,3.6710814399527885,9.560540719976395,0.4511622159929183,-0.54,-0.5455555555555556,-0.006666666666666667,0.08802713118830743,0.15707963267948966,0.0879179756884213
1592253896.1035178,2.99,9.02,0.28,-0.54,-0.5455555555555556,-0.03,0.08835729338221293,0.17671458676442586,0.06872233929727672
1592253896.1135178,3.214033081346514,9.174022743425729,0.27299896620792147,-0.54,-0.5455555555555556,-0.03,0.06850124114100023,0.18664261288503223,0.050393675690003456
1592253896.1235178,3.3457115521294627,9.106081679514515,0.5824760811327976,-0.54,-0.5455555555555556,-0.03,0.05025687794891892,0.16849611223359162,0.020143125814073615
1592253896.1335177,3.6658115195671264,9.514089754847284,0.4485594608064172,-0.54,-0.5455555555555556,-0.03,0.024480461854426004,0.16580627893946132,0.024343231060159357
1592253896.1435177,3.3785282187970793,9.260446749333642,0.7222470738208366,-0.54,-0.5455555555555556,-0.03,0.017831714347200583,0.16022741711564137,0.040231732947786925
1592253896.1535177,3.521451067529707,9.303264418896726,0.487408945995556,-0.533989630631501,-0.5455555555555556,-0.03300518468424951,0.02029623929024635,0.16112079662658574,0.06646722501704856
1592253896.1635177,3.457478169835114,9.097947607604274,0.5517740131813749,-0.5333333333333333,-0.5455555555555556,-0.03333333333333333,0.020725784867432664,0.16144295580947549,0.06872233929727672
1592253896.1735177,3.697038224526457,9.035886031334561,0.22473383814266545,-0.5333333333333333,-0.5455555555555556,-0.03333333333333333,0.038049299852436755,0.17780405329531268,0.05813574680644089
1592253896.1835177,3.485898797809025,9.03,0.5199981030517156,-0.5333333333333333,-0.5455555555555556,-0.03333333333333333,0.058429271104125435,0.19710463588726354,0.06147807757185691
1592253896.1935177,3.58641944739221,9.281298982038281,0.46230043626930784,-0.5333333333333333,-0.5455555555555556,-0.03333333333333333,0.03524048395644841,0.244265192960825,0.05669486129795036
1592253896.2035177,3.1539167811718283,9.18556671246873,0.8769182256984815,-0.5279324086796869,-0.5455555555555556,-0.06465869632448218,-0.02051106226651635,0.2575575114955276,0.0407554411380518
1592253896.2135177,3.250722058137727,9.349773822477848,0.8014223534898182,-0.5277777777777778,-0.5455555555555556,-0.06555555555555556,-0.02745297035143556,0.21959196881619175,0.03713996483722233
1592253896.2235177,3.2141026193812654,8.878718335668857,0.4284617872156947,-0.5277777777777778,-0.5455555555555556,-0.06555555555555556,-0.054289790854333955,0.20927168785769637,0.051520765651714075
1592253896.2335176,3.402260514656132,8.954869371630618,0.47117380011786014,-0.5277777777777778,-0.5455555555555556,-0.06555555555555556,-0.04609947501434108,0.19323358892125664,0.0475934301133408
1592253896.2435176,3.443044779887825,9.296119497195622,0.5321791195512994,-0.5277777777777778,-0.5455555555555556,-0.06555555555555556,-0.0433010973371017,0.1987216930357713,0.031253111449564594
1592253896.2535176,3.139513984041267,9.223437575562182,0.6969791246876763,-0.520675156497676,-0.5141010898865336,-0.05845293427545382,-0.033577137771237525,0.19293312249309164,-0.0009999208905724331
1592253896.2635176,3.3282142686823404,9.000760885116124,0.6910248462015356,-0.52,-0.5111111111111111,-0.057777777777777775,-0.038934528034684536,0.2157897018652412,-0.002237558254190892
1592253896.2735176,3.256037400541217,9.086879922452441,0.7997972454461004,-0.52,-0.5111111111111111,-0.057777777777777775,-0.02236117191115357,0.22412063249126093,0.012613482661386078
1592253896.2835176,3.4214872917763794,9.35148729177638,0.9151705978547078,-0.52,-0.5111111111111111,-0.057777777777777775,0.007973655860069371,0.2340018121846241,0.021728814641243464
1592253896.2935176,3.3852890477191506,9.157995059911709,0.8037392264031953,-0.52,-0.5111111111111111,-0.057777777777777775,0.0426416920306729,0.21960852051482674,0.016594581447260174
1592253896.3035176,3.3101380533435334,9.018448377786278,0.9162064888548874,-0.5310804325903258,-0.5221915437014369,-0.05223756148261487,0.07141176804432957,0.20092729755772715,-0.006669062571306096
1592253896.3135176,3.430381586349147,9.114305269079319,0.5936236639789987,-0.5333333333333333,-0.5244444444444445,-0.051111111111111114,0.08745075634339346,0.19853120241435498,-0.0014266913009399543
1592253896.3235176,3.1304897948936814,9.513412246127583,1.197278136218713,-0.5333333333333333,-0.5244444444444445,-0.051111111111111114,0.10737260475594117,0.1567074143681475,0.012945458204778503
1592253896.3335176,2.906816268949357,9.071640285017454,0.8092379608818325,-0.5333333333333333,-0.5244444444444445,-0.051111111111111114,0.07797520407948227,0.18783810296743017,0.028229517539624462
1592253896.3435175,3.083042109995504,9.184433687996403,0.7013628053349318,-0.5333333333333333,-0.5244444444444445,-0.051111111111111114,0.07713911311137692,0.17264544302544568,0.030856272966745396
1592253896.3535175,3.12743944904434,9.115442621682272,0.49486303489901723,-0.5333333333333333,-0.5126355249469077,-0.06390410723344253,0.050647198106386175,0.15028521635390837,0.03465715340928402
1592253896.3635175,3.2882090716594226,9.362313607489133,0.6242936216055573,-0.5333333333333333,-0.5111111111111111,-0.06555555555555556,0.06333006356024198,0.1115268406913868,0.01232311765965683
1592253896.3735175,3.2601041152939887,9.250208230587978,0.5613606224998631,-0.5333333333333333,-0.5111111111111111,-0.06555555555555556,0.06736305977544159,0.06451311566629227,-0.017304871629322514
1592253896.3835175,3.4632874617737004,9.19237204249155,0.42835626911314983,-0.5333333333333333,-0.5111111111111111,-0.06555555555555556,0.0780781489419379,0.054676817592215925,-0.014507189102867721
1592253896.3935175,3.5118423799582463,9.065480167014613,0.394535490605428,-0.5333333333333333,-0.5111111111111111,-0.06555555555555556,0.07854152432113704,0.06405841144226056,-0.014378356686820457
1592253896.4035175,3.4409628589855457,9.25303994840472,0.18503433362418908,-0.5333333333333333,-0.5070946039935759,-0.09065872504015074,0.08403448481408697,0.0690374341634677,-0.03903584242740116
1592253896.4135175,3.44577549095978,9.147163707925055,0.30438727399450616,-0.5333333333333333,-0.5066666666666667,-0.09333333333333334,0.08508480103472357,0.07754245594941833,-0.043971603064048646
1592253896.4235175,3.2805686188598413,9.034597147169077,0.2020614867825325,-0.5333333333333333,-0.5066666666666667,-0.09333333333333334,0.08844518223597038,0.06551187364536964,-0.07353803777513734
1592253896.4335175,3.276468401486989,9.231363073110284,0.33361833952912023,-0.5333333333333333,-0.5066666666666667,-0.09333333333333334,0.0995859567157917,0.021978820970746438,-0.12236363889156343
1592253896.4435174,3.39443035261334,9.046329177235538,0.4306118037940767,-0.5333333333333333,-0.5066666666666667,-0.09333333333333334,0.10000663037116485,-0.015672055601806553,-0.16897980502021673
1592253896.4535174,3.8059514170040485,9.153692307692307,0.3181538461538462,-0.5383103913630229,-0.5099847053531263,-0.09333333333333334,0.12342021611319416,-0.0674813536702261,-0.22185643262015775
1592253896.4635174,3.8416561768149884,9.276114607728337,0.4353925156128025,-0.54,-0.5111111111111111,-0.09333333333333334,0.11774721569062611,-0.050053198356854726,-0.25499497420832373
1592253896.4735174,3.7325540654826628,9.200825178204664,0.25901776005799204,-0.54,-0.5111111111111111,-0.09333333333333334,0.1149637065383703,-0.022562418645959984,-0.27912194404553514
1592253896.4835174,3.8281003639742894,9.382990010067374,0.229852861457446,-0.54,-0.5111111111111111,-0.09333333333333334,0.10182959841234535,0.024133268896981138,-0.3268347984584599
1592253896.4935174,3.620418746147575,9.697767283717416,0.4261626866561947,-0.54,-0.5111111111111111,-0.09333333333333334,0.07928057834866459,0.060520796197670125,-0.3476300044998091
1592253896.5035174,3.258041925320523,8.998774994540973,0.10283775774401849,-0.5249773147137218,-0.5007830149767948,-0.09990575814608008,0.026658540487991572,0.0887559296431527,-0.35711629522670824
1592253896.5135174,3.175655189295039,9.267861863577023,0.3791722421671019,-0.5222222222222223,-0.4988888888888889,-0.10111111111111111,-0.00018806506555279004,0.09100537945076922,-0.3484264024748413
1592253896.5235174,3.4180451283110447,9.043909743377911,0.28260649558527395,-0.5222222222222223,-0.4988888888888889,-0.10111111111111111,-0.03278755598535663,0.10294345882247431,-0.3210512071263068
1592253896.5335174,3.397444103150225,8.631054361025788,0.282555896849775,-0.5222222222222223,-0.4988888888888889,-0.10111111111111111,-0.04159097228289634,0.10581058590215622,-0.3046338401611285
1592253896.5435174,3.2540589376667475,9.381620179480961,0.7687806209071064,-0.5222222222222223,-0.4988888888888889,-0.10111111111111111,-0.03033081051083585,0.1218382977857215,-0.28765886361876875
1592253896.5535173,3.334108253644044,9.394729365889889,0.30784049763253174,-0.5101152271015793,-0.5054080401076966,-0.10111111111111111,-0.01777463743433019,0.1387754293588282,-0.2567480037336627
1592253896.5635173,3.423986153144563,9.062421541395464,0.32542307532855186,-0.5077777777777778,-0.5066666666666667,-0.10111111111111111,-0.030956602706385887,0.164829229934203,-0.24309852060167494
1592253896.5735173,3.3569888494678155,9.81445032944754,0.882044602128738,-0.5077777777777778,-0.5066666666666667,-0.10111111111111111,-0.01679636138169581,0.17776602489955645,-0.2155772440704428
1592253896.5835173,3.748012030936694,8.95808650816385,0.3342948534326362,-0.5077777777777778,-0.5066666666666667,-0.10111111111111111,-0.03594252535906063,0.20711327948439964,-0.1935428362665365
1592253896.5935173,3.7029379595088914,8.828206874071928,0.18278620839520482,-0.5077777777777778,-0.5066666666666667,-0.10111111111111111,-0.03318909249678897,0.2098683203987928,-0.17996827372810195
1592253896.6035173,3.428976020945752,9.035511989527123,0.6663836648679715,-0.5189808813251452,-0.4894311227476399,-0.10111111111111111,-0.01939017108613723,0.20543266889543324,-0.13969049643213993
1592253896.6135173,3.4298961764583247,9.089480882291623,0.6467130884376433,-0.5222222222222223,-0.48444444444444446,-0.10111111111111111,-0.007760394784203199,0.20508751250085447,-0.12336580694578607
1592253896.6235173,3.3947149472405678,9.20038007034591,0.17055213947721348,-0.5222222222222223,-0.48444444444444446,-0.10111111111111111,0.007656545099116803,0.2196281606802094,-0.07145782127321143
1592253896.6335173,3.0148796820426353,8.96363892568951,0.41958328315066845,-0.5222222222222223,-0.48444444444444446,-0.10111111111111111,0.0036421635092126637,0.23826976186296056,0.002352347745002474
1592253896.6435173,2.9459753586138335,9.086229228802727,0.6639014344553331,-0.5222222222222223,-0.48444444444444446,-0.10111111111111111,0.014311324946527676,0.2264672222792859,0.030694353050453194
1592253896.6535172,2.6174974253347063,9.292694816340543,0.9442155853072434,-0.51696075065797,-0.4958442995003242,-0.10111111111111111,0.04443534579903689,0.2019160357281159,0.07325155258745683
1592253896.6635172,3.0647581947536118,9.365015931212081,0.36961481384487793,-0.5155555555555555,-0.4988888888888889,-0.10111111111111111,0.07820305905614318,0.1281288618261796,0.07172125503631493
1592253896.6735172,2.990995432916477,8.9038234379857,0.3855701680973673,-0.5155555555555555,-0.4988888888888889,-0.10111111111111111,0.08976451491078628,0.10190531206251305,0.07730732701298261
1592253896.6835172,3.410492179652748,9.02590185105467,-0.27274644855789915,-0.5155555555555555,-0.4988888888888889,-0.10111111111111111,0.1423713393606714,0.0359839545729506,0.09049872772506472
1592253896.6935172,3.5280854188337516,9.200424646637703,-0.14957780089334882,-0.5155555555555555,-0.4988888888888889,-0.10111111111111111,0.14337476525467027,0.03957140010186388,0.10570602820645895
1592253896.7035172,3.4541138543796195,9.725220160402579,-0.21914058814278992,-0.5249647918086352,-0.49418427076234905,-0.10503162621656095,0.11100579830399558,0.0951612195878346,0.16624799764758025
1592253896.7135172,3.3157864100275525,9.562125033955528,-0.10535449571190192,-0.5288888888888889,-0.4922222222222222,-0.10666666666666667,0.092283251319729,0.1131163879223633,0.1835607574199565
1592253896.7235172,3.2209409042162895,9.028632386972964,0.6093435683242083,-0.5288888888888889,-0.4922222222222222,-0.10666666666666667,0.04971515010810921,0.1705861212455824,0.19572177595359339
1592253896.7335172,3.2373825743994264,9.097172224214175,0.36670252181188,-0.5288888888888889,-0.4922222222222222,-0.10666666666666667,0.032251017667032485,0.17244839150977884,0.18716606764283042
1592253896.7435172,3.1450826397146256,9.209504161712248,0.5011979785969085,-0.5288888888888889,-0.4922222222222222,-0.10666666666666667,-0.00944333894590318,0.13869329720664644,0.1457746826984164
1592253896.7535172,3.217528678992392,9.274540150589349,0.5323566050380415,-0.5408939873764251,-0.47871648642374387,-0.09691252414554342,-0.01521521238016285,0.07806025845405079,0.09565459741096294
1592253896.7635171,3.3709904059658973,9.23357828145293,0.20147764883321462,-0.5466666666666666,-0.4722222222222222,-0.09222222222222222,-0.021103044413685473,0.032656966485762495,0.0753614218003396
1592253896.7735171,3.457795967443581,9.251280059193489,0.3082001479837218,-0.5466666666666666,-0.4722222222222222,-0.09222222222222222,-0.04810259060746187,-0.0061365789414136555,0.06759791189523057
1592253896.7835171,3.1751038720148386,9.32,0.5113969394852771,-0.5466666666666666,-0.4722222222222222,-0.09222222222222222,-0.06836777503250005,-0.024075214549500148,0.07077726418127984
1592253896.793517,3.1035697895495966,8.957810266832753,0.4677486396118796,-0.5466666666666666,-0.4722222222222222,-0.09222222222222222,-0.07279802580448666,-0.04122364882069656,0.0756987789264193
1592253896.803517,3.8237735512099293,9.192617197964104,0.47257612286811324,-0.5598106973836949,-0.47733378972328877,-0.09222222222222222,-0.07592227052154434,-0.056942262965897016,0.0713708596836381
1592253896.813517,3.8729591069237164,9.298502038715808,0.5461422746526265,-0.5666666666666667,-0.48,-0.09222222222222222,-0.07916898400931346,-0.054312758732690015,0.06700234084521163
1592253896.823517,3.9016779404046886,9.368187357863432,0.9115633564639338,-0.5666666666666667,-0.48,-0.09222222222222222,-0.036510486035900826,-0.07149499210375163,0.046393384937357646
1592253896.833517,4.104178041543027,9.250344213649852,0.9553887240356083,-0.5666666666666667,-0.48,-0.09222222222222222,-0.008921506832987335,-0.06278394715019067,0.026679714070174446
1592253896.843517,4.058253476915028,8.734633779482932,0.4059578410428564,-0.5666666666666667,-0.48,-0.09222222222222222,0.06650686421323795,-0.020077430851747343,-0.02747510118629403
1592253896.853517,3.913371664270983,8.986645834635336,0.6332616711455534,-0.5703699074363408,-0.46518703692130353,-0.09074092591435257,0.15380223190025602,0.021083759521447344,-0.07962737483441178
1592253896.863517,3.7559177679882523,9.261864904552128,0.6383259911894273,-0.5722222222222222,-0.4577777777777778,-0.09,0.21663643051208983,0.06144532865868436,-0.10073606032367051
1592253896.873517,3.394363596341046,9.660782174827569,0.3038113290612924,-0.5722222222222222,-0.4577777777777778,-0.09,0.3063352238097311,0.07262724990207411,-0.11089164932737072
1592253896.883517,3.132105550414086,9.855222230132176,0.19801665836121593,-0.5722222222222222,-0.4577777777777778,-0.09,0.3100256221495718,0.07208755264955721,-0.08804822336624255
1592253896.893517,3.248354554358472,9.642879529872674,-0.050976633552539535,-0.5722222222222222,-0.4577777777777778,-0.09,0.2838403662936665,0.06169505080032671,-0.06511055538276768
1592253896.903517,3.2985347164918073,9.394267358245903,0.0422621714016268,-0.5761925157504552,-0.45513091542562245,-0.09,0.24451622013188123,0.05256832229617631,-0.04458852799715473
1592253896.913517,3.450333664631549,8.929265937810593,-0.29415637275782097,-0.5788888888888889,-0.4533333333333333,-0.09,0.208678319030217,0.04398106945580835,-0.04000198164688504
1592253896.923517,3.656822347170714,8.883586314152412,-0.09935781792080395,-0.5788888888888889,-0.4533333333333333,-0.09,0.15119287868996756,0.03999819007332453,-0.05456064399700338
1592253896.933517,3.425201397742834,9.142203806015962,0.13986966992491853,-0.5788888888888889,-0.4533333333333333,-0.09,0.1102876434783692,0.04108322053877371,-0.07192374761587413
1592253896.943517,3.3018242829790174,9.268192495213281,0.2100167781922978,-0.5788888888888889,-0.4533333333333333,-0.09,0.095495612852314,0.026572444935224312,-0.09054261538093247
1592253896.953517,3.5078897199973524,9.381418878665519,0.3288928973323625,-0.5712341225186264,-0.4533333333333333,-0.0976547663702625,0.08712302344240999,0.010081682366698892,-0.10691275317984379
1592253896.963517,3.5380764276513528,9.394499785315586,0.2689609274366681,-0.5666666666666667,-0.4533333333333333,-0.10222222222222223,0.07585044306662563,0.008529463022774993,-0.10868449645664238
1592253896.973517,3.364262022823792,9.100820897292937,-0.02766376426486987,-0.5666666666666667,-0.4533333333333333,-0.10222222222222223,0.024713739431869396,0.0024588918514078222,-0.10894446310643813
1592253896.983517,3.481796305471017,9.03270247953382,0.22265435157005686,-0.5666666666666667,-0.4533333333333333,-0.10222222222222223,-0.014572693232964366,0.002774751102195671,-0.12901107713889176
1592253896.993517,3.669659548263652,9.119971629021972,0.1358936858079131,-0.5666666666666667,-0.4533333333333333,-0.10222222222222223,-0.027820827144084157,0.014709194198812205,-0.14126722852371557
1592253897.003517,3.4878535353535356,8.937724977043159,0.2430050505050505,-0.5776538108356291,-0.4533333333333333,-0.10649500051015202,-0.05674198221155291,0.04889080528482451,-0.13722931714530023
1592253897.013517,3.0160009485416173,9.14088736068295,0.7331105050984111,-0.5866666666666667,-0.4533333333333333,-0.11,-0.09267208915749249,0.08013966699745981,-0.15223142401433912
1592253897.023517,3.1698582199250795,9.35383280383138,0.2402835601498412,-0.5866666666666667,-0.4533333333333333,-0.11,-0.1268478076391138,0.07297553967436128,-0.16926115401439543
1592253897.033517,3.4400181593835124,9.15796125998184,0.0960435825204293,-0.5866666666666667,-0.4533333333333333,-0.11,-0.16755636230694193,0.07788782698675362,-0.14856613434300397
1592253897.0435169,2.731560726678914,8.848001224739743,1.0387724025311287,-0.5866666666666667,-0.4533333333333333,-0.11,-0.1865684025665803,0.08727857551961192,-0.13364494023565904
1592253897.0535169,3.6115230961298375,9.687627965043696,0.47606741573033706,-0.5866666666666667,-0.4600929393813289,-0.12167568317381053,-0.12645874610716407,-0.0027400143999786047,-0.19257589278656845
1592253897.0635169,4.779022318387627,10.256121328685339,-0.5104728132387707,-0.5866666666666667,-0.46555555555555556,-0.13111111111111112,-0.07821152247400252,-0.0684456213550567,-0.24901262364772936
1592253897.0735168,3.3431567027749733,8.625175584599853,0.39288902835002315,-0.5866666666666667,-0.46555555555555556,-0.13111111111111112,-0.09085409905277687,0.011770995467188829,-0.36911146213629203
1592253897.0835168,3.2823605403618155,9.279902224741392,0.5409890888479524,-0.5866666666666667,-0.46555555555555556,-0.13111111111111112,-0.10700930954084972,0.02099394550261772,-0.3835440070245794
1592253897.0935168,3.2393146365748424,9.12936359110521,0.6754650680384998,-0.5866666666666667,-0.46555555555555556,-0.13111111111111112,-0.10973796591366428,0.046288216759396886,-0.3905013998011307
1592253897.1035168,3.2656902064168722,8.951860556428091,0.5650900269239398,-0.5999199760676089,-0.46169000698028073,-0.13718554458654303,-0.1013621525176016,0.07897720717711727,-0.3943320544011392
1592253897.1135168,2.876813171182704,8.975792143754594,0.692284806675675,-0.6133333333333333,-0.4577777777777778,-0.14333333333333334,-0.10755721330044839,0.09894644340622517,-0.3917765703236494
1592253897.1235168,2.9339890348804234,9.505222610832783,0.7775328480952831,-0.6133333333333333,-0.4577777777777778,-0.14333333333333334,-0.10267265581680486,0.09790564590040503,-0.3851377136950142
1592253897.1335168,2.5126530514521033,9.109456987573923,0.7487973759187876,-0.6133333333333333,-0.4577777777777778,-0.14333333333333334,-0.09201976550426684,0.08682798346529616,-0.3738476651986199
1592253897.1435168,2.5546721936727157,9.126819295005621,0.7210735506664525,-0.6133333333333333,-0.4577777777777778,-0.14333333333333334,-0.05193480916514101,0.05021073333288112,-0.3469644201649126
1592253897.1535168,2.844786280645259,9.770610322933438,0.8526068596773704,-0.609624138827286,-0.468375476366484,-0.134325289532933,-0.028377772092693446,0.016933079206955193,-0.3140926894546735
1592253897.1635168,2.5125123712176523,9.860743895513911,1.0095538249371299,-0.6055555555555555,-0.48,-0.12444444444444444,-0.03989916895468075,0.01559798642877588,-0.30303459659759846
1592253897.1735168,2.946046505258545,9.488413124452235,0.5532375657318143,-0.6055555555555555,-0.48,-0.12444444444444444,-0.010190538062982818,-0.05987084143125631,-0.2916248799470684
1592253897.1835167,2.9111951909476663,9.466001414427158,0.5740311173974539,-0.6055555555555555,-0.48,-0.12444444444444444,0.00013670100046560794,-0.0790380189701099,-0.30974379218592646
1592253897.1935167,3.01853724108434,9.104840424448563,0.015008859650909367,-0.6055555555555555,-0.48,-0.12444444444444444,0.03866211864835964,-0.09458508646266384,-0.3232113235106642
1592253897.2035167,3.517276373610169,9.085456690358923,0.1572952487686909,-0.5969692918210923,-0.48,-0.12444444444444444,0.05632595001879597,-0.08766191168039145,-0.3256625483953011
1592253897.2135167,3.328366813461131,9.294622141629183,0.4152334973977345,-0.5866666666666667,-0.48,-0.12444444444444444,0.06494441644215442,-0.037447018776142614,-0.32928423797755985
1592253897.2235167,2.8678540651267923,9.53877233877234,0.354354736172918,-0.5866666666666667,-0.48,-0.12444444444444444,0.07339356380515728,-0.0017936256943527976,-0.34271488363920727
1592253897.2335167,2.8556626962513914,9.841576641644368,0.5253046484643255,-0.5866666666666667,-0.48,-0.12444444444444444,0.07361737430362493,0.010642451886783368,-0.373814759921173
1592253897.2435167,2.715197852816365,9.69113452540713,0.5580738819774401,-0.5866666666666667,-0.48,-0.12444444444444444,0.06475044681349992,0.01135730471064738,-0.4108517743549549
1592253897.2535167,2.542573312447634,9.446845652253105,0.574016247131252,-0.5928017194273433,-0.48396974002161425,-0.125887986270486,0.03678981889089646,0.008978064654961085,-0.44164679002495943
1592253897.2635167,2.806427533855021,9.729660278337473,0.6242013026568577,-0.6055555555555555,-0.4922222222222222,-0.1288888888888889,0.0089008949895312,-0.0013364351079683395,-0.46585609972189895
1592253897.2735167,2.54,9.54,0.71,-0.6055555555555555,-0.4922222222222222,-0.1288888888888889,-0.009817477042468103,0.006544984694978735,-0.4766930519509512
1592253897.2835166,2.4604796539658924,9.354469790891809,0.45358569578753066,-0.6055555555555555,-0.4922222222222222,-0.1288888888888889,0.03905779467115737,-0.04185373789012244,-0.4950994427279431
1592253897.2935166,2.5402298543602893,9.484394473524908,0.634456254673646,-0.6055555555555555,-0.4922222222222222,-0.1288888888888889,0.05500256788091903,-0.04799655442984406,-0.49215179011949295
1592253897.3035166,2.4682508500188893,9.761242916509255,0.6377446165470343,-0.5982214666498762,-0.49161104814674894,-0.13286152037946522,0.07881345126213911,-0.05399674188475467,-0.4899198388021059
1592253897.3135166,2.49,9.58,0.5,-0.5788888888888889,-0.49,-0.14333333333333334,0.10253809355466686,-0.06981317007977318,-0.5017821599483697
1592253897.3235166,2.5973827441835815,9.658029572314378,0.46056971752610104,-0.5788888888888889,-0.49,-0.14333333333333334,0.08272511130741693,-0.07630441969539792,-0.5377569139621388
1592253897.3335166,2.7614228456913827,9.925284855425136,0.5155081591754939,-0.5788888888888889,-0.49,-0.14333333333333334,0.04810523153041915,-0.07824938615717349,-0.5627356480071225
1592253897.3435166,2.7196843359142346,9.574657534246576,0.334157236450268,-0.5788888888888889,-0.49,-0.14333333333333334,0.004747940058656405,-0.07597353784608134,-0.5787230873329485
1592253897.3535166,2.7153789599291733,9.432731052003541,0.27482890026559914,-0.5764612871079633,-0.49728280534277686,-0.14333333333333334,-0.024708520206797296,-0.08844903922538452,-0.5953965111387869
1592253897.3635166,2.57,9.44,0.82,-0.57,-0.5166666666666667,-0.14333333333333334,-0.05563236990731925,-0.074176493209759,-0.5977752688080579
1592253897.3735166,2.4606804022297517,9.449810908295989,0.6776937370204393,-0.57,-0.5166666666666667,-0.14333333333333334,-0.05369196925481749,-0.05702219849228653,-0.5725026367881278
1592253897.3835166,2.216377993958566,9.439763813238827,0.5893228361439479,-0.57,-0.5166666666666667,-0.14333333333333334,-0.05185139572753044,-0.03863086808774488,-0.5613518262642564
1592253897.3935165,2.4538401440144013,9.6273501350135,0.6491398739873987,-0.57,-0.5166666666666667,-0.14333333333333334,-0.04705735992641939,-0.03133082013425366,-0.563121725090642
1592253897.4035165,2.4003128002562186,9.550963666773423,0.7127472331945482,-0.5716305074157108,-0.5166666666666667,-0.14519677037985995,-0.03423898930317352,-0.0425608391715622,-0.5921791178491227
1592253897.4135165,2.59,9.63,0.61,-0.5777777777777777,-0.5166666666666667,-0.15222222222222223,-0.015271630954950384,-0.02617993877991494,-0.6163193921104976
1592253897.4235165,2.1995188423440872,9.378547673067345,0.5929046538653091,-0.5777777777777777,-0.5166666666666667,-0.15222222222222223,0.045268994564729034,0.028202210234721258,-0.6410916515230385
1592253897.4335165,2.015147232605812,9.474852767394188,0.53,-0.5777777777777777,-0.5166666666666667,-0.15222222222222223,0.0852371464118232,0.0928729618892984,-0.6646287136251867
1592253897.4435165,1.94,9.55,0.53,-0.5777777777777777,-0.5166666666666667,-0.15222222222222223,0.10690141668465267,0.11453723216212788,-0.6839509006252779
1592253897.4535165,1.6046531639404147,9.560181434427893,0.6280362868855786,-0.572541209472654,-0.5229941867020246,-0.15222222222222223,0.1264967879177988,0.15006664939008027,-0.7315947072025365
1592253897.4635165,1.46,9.52,0.62,-0.5511111111111111,-0.5488888888888889,-0.15222222222222223,0.13526301702956053,0.15707963267948966,-0.7613998861825263
1592253897.4735165,1.2192405754871607,9.635975232198142,0.4952158076853032,-0.5511111111111111,-0.5488888888888889,-0.15222222222222223,0.16009228043337032,0.15629791366125553,-0.798049098726339
1592253897.4835165,0.8928757811381958,9.761970853408386,0.36954753613509517,-0.5511111111111111,-0.5488888888888889,-0.15222222222222223,0.17535941307418326,0.15018748977407229,-0.8122724185982405
1592253897.4935164,0.7369907807548257,9.813242581388648,0.4000777873811582,-0.5511111111111111,-0.5488888888888889,-0.15222222222222223,0.17635663336158416,0.14654200618784533,-0.8170280134463527
1592253897.5035164,0.5362934631432544,9.84935583046629,0.3795143108118,-0.5501255398579898,-0.5524369454001252,-0.1506453082172283,0.16976528161946755,0.14270531604401104,-0.8178593024136657
1592253897.5135164,0.38,9.8,0.47,-0.5455555555555556,-0.5688888888888889,-0.14333333333333334,0.15271630954950383,0.14180800172453928,-0.8115781021773633
1592253897.5235164,0.06844257555847569,9.865929040735875,0.5261064388961892,-0.5455555555555556,-0.5688888888888889,-0.14333333333333334,0.14516543839813997,0.11368778890101433,-0.7866782339695705
1592253897.5335164,0.03419890031078174,9.892209897202964,0.4509945015539087,-0.5455555555555556,-0.5688888888888889,-0.14333333333333334,0.14863624255051194,0.07760566046380439,-0.7601161846262467
1592253897.5435164,0.04,9.84,0.48,-0.5455555555555556,-0.5688888888888889,-0.14333333333333334,0.15053464798451094,0.056723200689815706,-0.74176493209759
1592253897.5535164,0.12652006952584988,9.878876672460487,0.39775334492097497,-0.5433089004765306,-0.5718844289942556,-0.14121149242536526,0.1431319111082838,0.024329904940988398,-0.7088814922451923
1592253897.5635164,0.02,9.87,0.38,-0.5255555555555556,-0.5955555555555555,-0.12444444444444444,0.13635384781205698,0.001090830782496456,-0.681769239060285
1592253897.5735164,0.013593405812548852,9.903203297093725,0.3087472465003908,-0.5255555555555556,-0.5955555555555555,-0.12444444444444444,0.14246429847970146,-0.006110450667644469,-0.6409224203923589
1592253897.5835164,-0.04045499656462325,9.920113749141155,0.17640125200396978,-0.5255555555555556,-0.5955555555555555,-0.12444444444444444,0.14653907115084577,-0.0076109992645441325,-0.6205958584952247
1592253897.5935163,-0.17741948302956956,9.957225844908871,0.10990318093965065,-0.5255555555555556,-0.5955555555555555,-0.12444444444444444,0.14319088456278187,-0.0032724923474893677,-0.6007134638152565
1592253897.6035163,-0.32186924354522123,9.997196134682168,0.07495394836176959,-0.5224401496468536,-0.5958670961464257,-0.12361366953545724,0.130328667125769,-0.004903715066777439,-0.5870095941489761
1592253897.6135163,-0.34,9.97,0.22,-0.4922222222222222,-0.5988888888888889,-0.11555555555555555,0.10362892433716332,-0.020725784867432664,-0.5672320068981571
1592253897.6235163,-0.43359420609131466,10.002640579390869,0.15,-0.4922222222222222,-0.5988888888888889,-0.11555555555555555,0.06823162465105592,-0.044227970482064755,-0.5377609216451833
1592253897.6335163,-0.29066804143487435,9.984456646844427,0.19743765586034911,-0.4922222222222222,-0.5988888888888889,-0.11555555555555555,0.038561903958750844,-0.06864946728116232,-0.5109645047958307
1592253897.6435163,-0.17,9.94,0.28,-0.4922222222222222,-0.5988888888888889,-0.11555555555555555,0.031634092692397225,-0.0818123086872342,-0.4908738521234052
1592253897.6535163,-0.17,9.847131721495574,0.3171473114017704,-0.4922222222222222,-0.5988888888888889,-0.11555555555555555,0.030621056923296405,-0.08991659484004073,-0.4523784928975741
1592253897.6635163,-0.08059011731247778,9.853136627562508,0.3062732551250148,-0.4722222222222222,-0.6255555555555555,-0.12444444444444444,0.046221417667665625,-0.07111741022616366,-0.40811975020459507
1592253897.6735163,-0.10417352614015572,9.84,0.2325205784204672,-0.4722222222222222,-0.6255555555555555,-0.12444444444444444,0.05115906579610375,-0.05694316265227506,-0.39344463238392674
1592253897.6835163,-0.08840672087736978,9.826852342230449,0.13525906310781993,-0.4722222222222222,-0.6255555555555555,-0.12444444444444444,0.05391134552978881,-0.04455450567478318,-0.3932727564912343
1592253897.6935163,-0.13810642022995145,9.805148638160388,0.14810642022995144,-0.4722222222222222,-0.6255555555555555,-0.12444444444444444,0.04846771268165606,-0.031395107366008,-0.3955004157944015
1592253897.7035162,-0.13053589155821888,9.86571286753425,0.14053589155821888,-0.4722222222222222,-0.6255555555555555,-0.12444444444444444,0.04599026296718669,-0.017356225650681567,-0.3979778655088709
1592253897.7135162,-0.17,9.85,0.19,-0.45111111111111113,-0.6311111111111111,-0.10111111111111111,0.042542400517361786,0.01090830782496456,-0.4025165587411922
1592253897.7235162,-0.4529701462517599,9.942653794213143,0.1737258282331983,-0.45111111111111113,-0.6311111111111111,-0.10111111111111111,0.03707674372015186,0.058973879563174486,-0.39464877364554457
1592253897.7335162,-2.5850590372388735,10.572824704813806,0.1445322434150772,-0.45111111111111113,-0.6311111111111111,-0.10111111111111111,0.03087714926112811,0.08693257524848914,-0.3842528215526912
1592253897.7435162,-6.03,11.32,0.29,-0.45111111111111113,-0.6311111111111111,-0.10111111111111111,0.0272707695624114,0.09053895494720585,-0.3741549583962844
1592253897.7535162,-0.027384587586954723,9.56642695817147,0.8584659860872708,-0.45111111111111113,-0.6311111111111111,-0.10111111111111111,-0.023178059977347,0.14308981905112084,-0.155543363723998
1592253897.7635162,-0.27,9.44,0.79,-0.4311111111111111,-0.6444444444444445,-0.11555555555555555,-0.05563236990731925,-0.21489366415180183,0.04036073895236887
1592253897.7735162,-0.4,9.827812223681038,0.0002347203987031407,-0.4311111111111111,-0.6444444444444445,-0.11555555555555555,0.08157365931184009,-0.02663163350708464,-0.006023434241269918
1592253897.7835162,-0.4,9.98,-0.19,-0.4311111111111111,-0.6444444444444445,-0.11555555555555555,0.09817477042468103,-0.014180800172453926,-0.004363323129985824
1592253897.7935162,-0.4214401998867829,9.877282398641395,-0.07271760135860547,-0.4311111111111111,-0.6444444444444445,-0.11555555555555555,0.061670533186986724,-0.0009248500694323735,-0.0001571014369450673
1592253897.8035161,-0.4296275547053427,9.975530656464112,0.025530656464112136,-0.4311111111111111,-0.6444444444444445,-0.11555555555555555,0.033984375330739,0.0062199648612122,-0.001050203303275639
1592253897.8135161,-0.41,9.95,0.09,-0.44555555555555554,-0.6522222222222223,-0.11555555555555555,0.002181661564992912,0.014180800172453926,0.0
1592253897.8235161,-0.46119777494160424,9.8652994437354,0.22824860933850266,-0.44555555555555554,-0.6522222222222223,-0.11555555555555555,-0.037017979734092356,0.010526213655816933,-0.0005780796356683485
1592253897.8335161,-0.4116841960225968,9.859347356818077,0.20402103522711615,-0.44555555555555554,-0.6522222222222223,-0.11555555555555555,-0.055561177580036494,0.0019267519511894872,7.119232728275676e-05
1592253897.843516,-0.45466947475444364,9.883774033660742,0.2640084242633309,-0.44555555555555554,-0.6522222222222223,-0.11555555555555555,-0.057376780214737466,-0.0002674643642334581,-0.00276313166746565
1592253897.853516,-0.47751466075999927,9.853313785653334,0.3325439822799978,-0.44555555555555554,-0.6522222222222223,-0.11555555555555555,-0.04990071057672226,-0.006912859598024755,-0.00027110845479391384
1592253897.863516,-0.3844435306354467,9.823579739241914,0.3691362086064682,-0.44555555555555554,-0.6577777777777778,-0.11555555555555555,-0.04701353755067071,-0.014180800172453926,-0.0022758865891649165
1592253897.873516,-0.45,9.86,0.34,-0.44555555555555554,-0.6577777777777778,-0.11555555555555555,-0.04145156973486533,-0.014180800172453926,-0.00545415391248228
1592253897.883516,-0.40843613738939744,9.811563862610603,0.24469158783180764,-0.44555555555555554,-0.6577777777777778,-0.11555555555555555,-0.03606470091973518,-0.02055519391990861,-0.002352252512516964
1592253897.893516,-0.4015350892393,9.8230701784786,0.27460526771789984,-0.44555555555555554,-0.6577777777777778,-0.11555555555555555,-0.02970600061184704,-0.018965145046493225,-0.0034399446071001127
1592253897.903516,-0.40880298041933805,9.837605960838676,0.2964089412580142,-0.44555555555555554,-0.6577777777777778,-0.11555555555555555,-0.025741980900337,-0.015793929277285196,-0.004232748549402121
1592253897.913516,-0.4182622318630995,9.8,0.4030489274523981,-0.4477777777777778,-0.6522222222222223,-0.11555555555555555,-0.016505487031657027,-0.0037946398370140634,-0.0041737620323285705
