time,acc_x,acc_y,acc_z,mag_x,mag_y,mag_z,gyr_x,gyr_y,gyr_z
1592253899.123515,-0.3972827492184378,9.881848247655313,0.12728274921843782,-0.43333333333333335,-0.6644444444444444,-0.10777777777777778,-0.017761724071142078,0.020346610723353552,0.0015888494057347952
1592253899.133515,-0.44399613853022807,9.89,0.056673102449619886,-0.43333333333333335,-0.6644444444444444,-0.10777777777777778,-0.030324253311382894,0.0354874488116979,-0.0010178279163238321
1592253899.1435149,-0.48141787422866256,9.868582125771336,0.0728357484573251,-0.43333333333333335,-0.6644444444444444,-0.10777777777777778,-0.04471861662604604,0.04316378758724952,-0.004517989215419177
1592253899.1535149,-0.5109180153886973,9.875688511541522,0.10045900769434864,-0.43333333333333335,-0.6644444444444444,-0.10777777777777778,-0.055362339363390044,0.041871810195514,-0.00545415391248228
1592253899.1635149,-0.5363147906035174,9.877370418792966,0.1794626966386909,-0.44245469753841393,-0.6476050028350648,-0.10356791737543287,-0.06866372859267125,0.02962619300440187,-0.004076480317415059
1592253899.1735148,-0.5339298082759113,9.86392980827591,0.22607019172408868,-0.4477777777777778,-0.6377777777777778,-0.10111111111111111,-0.0750721280237499,0.019694268422532767,-0.0029414147480748094
1592253899.1835148,-0.52,9.862529669654576,0.17108681689983524,-0.4477777777777778,-0.6377777777777778,-0.10111111111111111,-0.0823641969929858,-0.001116722440509971,-0.0035484365003651715
1592253899.1935148,-0.52,9.86327138684756,0.12327138684755982,-0.4477777777777778,-0.6377777777777778,-0.10111111111111111,-0.08692988159230401,-0.015709571662686675,-0.005831278800024276
1592253899.2035148,-0.5251364019187814,9.880545607675126,0.1559548134314695,-0.4477777777777778,-0.6377777777777778,-0.10111111111111111,-0.0950808277713496,-0.03420261192806567,-0.006544984694978735
1592253899.2135148,-0.53,9.882825714711137,0.20717428528886242,-0.4426891006551519,-0.6460468781020449,-0.11701322711931705,-0.10644305985496165,-0.0636084203135667,-0.0071694593303276415
1592253899.2235148,-0.518273257809818,9.861204943357363,0.22586337109509097,-0.4388888888888889,-0.6522222222222223,-0.1288888888888889,-0.11081350360011456,-0.08805921535170583,-0.007955612761461452
1592253899.2335148,-0.6127458917642523,9.809313527058936,0.29523565129391355,-0.4388888888888889,-0.6522222222222223,-0.1288888888888889,-0.10699977071067798,-0.15304377956827697,-0.012074021189007264
1592253899.2435148,-0.2655498018494056,9.878997622192866,0.2820782034346103,-0.4388888888888889,-0.6522222222222223,-0.1288888888888889,-0.08719977349983017,-0.2170993614597961,-0.019408257257059927
1592253899.2535148,-0.05400700021320447,9.904007000213205,0.29198599957359106,-0.4388888888888889,-0.6522222222222223,-0.1288888888888889,-0.07846760335744823,-0.24310702050809274,-0.03577314082744578
1592253899.2635148,-0.05740831295843521,9.92481662591687,0.29098614506927467,-0.44598116453862174,-0.6522222222222223,-0.1082568142714842,-0.07048616022023757,-0.24681046604455265,-0.06951801456242288
1592253899.2735147,-0.09760553129548763,9.905831149927218,0.2258311499272198,-0.45111111111111113,-0.6522222222222223,-0.09333333333333334,-0.06785888401413033,-0.24242562973127388,-0.09381756039296685
1592253899.2835147,-0.19524212936462507,9.878347452776188,-0.0035895821408128137,-0.45111111111111113,-0.6522222222222223,-0.09333333333333334,-0.08381370531410076,-0.23865885199574163,-0.10295144786377541
1592253899.2935147,-0.09832835055949432,9.90518407790211,0.041671649440505665,-0.45111111111111113,-0.6522222222222223,-0.09333333333333334,-0.11110410154103947,-0.24513409868977867,-0.07663004716591315
1592253899.3035147,0.00942843158581684,9.894380936842868,0.17133311580015953,-0.45111111111111113,-0.6522222222222223,-0.09333333333333334,-0.13439031680978103,-0.24475127116807122,-0.06306041656760043
1592253899.3135147,0.15282067303400876,9.929311791484425,0.2695411943229492,-0.4543679768316027,-0.6522222222222223,-0.09713301000724013,-0.15738732037677508,-0.22455359730369784,-0.056798272593172376
1592253899.3235147,0.26162596053248677,9.961937660088749,0.29968830044373895,-0.4577777777777778,-0.6522222222222223,-0.10111111111111111,-0.1728493568273423,-0.19816911380979674,-0.053450708342326333
1592253899.3335147,0.374627308707124,9.958249580235067,0.3223743703526025,-0.4577777777777778,-0.6522222222222223,-0.10111111111111111,-0.21102185592345177,-0.12446251018382086,-0.05409159432166845
1592253899.3435147,0.47998155679561144,9.963329234843469,0.48328005296509974,-0.4577777777777778,-0.6522222222222223,-0.10111111111111111,-0.2512461957930965,-0.049102809330564594,-0.0545415391248228
1592253899.3535147,0.43416914862705214,9.95988921981694,0.6205539009152986,-0.4577777777777778,-0.6522222222222223,-0.10111111111111111,-0.2766524879183123,0.020669781332961552,-0.058953199228317474
1592253899.3635147,0.3329355942178247,9.99330304925148,0.664587118843565,-0.4475534467045115,-0.6444036161073716,-0.09449536747546826,-0.2997884013539331,0.11218576900550936,-0.0750772601596632
1592253899.3735147,0.19583251680528657,10.056862937222286,0.7875989518058562,-0.4388888888888889,-0.6377777777777778,-0.08888888888888889,-0.33909886105933235,0.2120547201809401,-0.09387567668382524
1592253899.3835146,0.06763918757467145,10.181830346475508,0.8039522102747909,-0.4388888888888889,-0.6377777777777778,-0.08888888888888889,-0.35199402077176084,0.27479969272335336,-0.14266450589449947
1592253899.3935146,0.13418367828013766,10.38325255763519,0.5716326434397248,-0.4388888888888889,-0.6377777777777778,-0.08888888888888889,-0.3242564056797094,0.2994455724154053,-0.24393842870936738
1592253899.4035146,0.27297633604258076,10.240356757534345,0.5771430626483492,-0.4388888888888889,-0.6377777777777778,-0.08888888888888889,-0.28690144171321263,0.25320251454602877,-0.3560784572950731
1592253899.4135146,0.18526567145296982,10.039832690239736,0.7255708773483459,-0.4341535412317878,-0.6406189863720384,-0.10451553615732248,-0.23964563512579834,0.18583633056760546,-0.4711626868550123
1592253899.4235146,-0.05,10.025662100456621,0.7817351598173516,-0.42777777777777776,-0.6444444444444445,-0.12555555555555556,-0.20360680317857366,0.17114088975249192,-0.5541370565457225
1592253899.4335146,-0.09065884906559374,9.997425221028111,0.7012570808407009,-0.42777777777777776,-0.6444444444444445,-0.12555555555555556,-0.2002556321131604,0.1629517776557503,-0.6144318200028536
1592253899.4435146,-0.2127899537969435,9.935768036962445,0.6114420092406113,-0.42777777777777776,-0.6444444444444445,-0.12555555555555556,-0.1824935991558845,0.13491308792248272,-0.6825705428572223
1592253899.4535146,-0.3693840294435391,10.008314320766118,0.5810697086774211,-0.42777777777777776,-0.6444444444444445,-0.12555555555555556,-0.16300053505342577,0.1062278392126565,-0.7373750637474197
1592253899.4635146,-0.3415643240719122,10.160508989026383,0.6163997198225544,-0.4203717539626949,-0.6444444444444445,-0.12840402625366437,-0.15324784441830377,0.07608054432578597,-0.8020063995231997
1592253899.4735146,-0.20775974405992742,10.181120127970036,0.6688798720299638,-0.41333333333333333,-0.6444444444444445,-0.13111111111111112,-0.1546713016615852,0.06312829381669074,-0.8420788476052027
1592253899.4835145,-0.19487273928063403,10.136399867913026,0.674618217841902,-0.41333333333333333,-0.6444444444444445,-0.13111111111111112,-0.18664713747687234,0.052165529685708006,-0.9631560884641532
1592253899.4935145,-0.2463494993964354,9.992450945584512,0.7105997775095269,-0.41333333333333333,-0.6444444444444445,-0.13111111111111112,-0.2152207920368223,0.07460175946028562,-1.0500278141506671
1592253899.5035145,-0.3438251160456655,9.87155348853881,0.7530679068767138,-0.41333333333333333,-0.6444444444444445,-0.13111111111111112,-0.22664074474039575,0.1084878397093178,-1.1100378264040118
1592253899.5135145,-0.47956294846705805,9.832027977096471,0.8120279770964702,-0.40231934478509823,-0.6517871034766012,-0.13111111111111112,-0.23158795286570283,0.1521308488011972,-1.1559955286415986
1592253899.5235145,-0.6210625535561268,9.807030848329049,0.9142502142245073,-0.37333333333333335,-0.6711111111111111,-0.13111111111111112,-0.2573645577669691,0.21294054425460698,-1.2103552705626195
1592253899.5335145,-0.8295431854572854,9.76850616935104,0.8758839596872939,-0.37333333333333335,-0.6711111111111111,-0.13111111111111112,-0.2842080131475569,0.2570802629361142,-1.2648150558753624
1592253899.5435145,-0.9630561052957867,9.654448842366294,0.9047194735210663,-0.37333333333333335,-0.6711111111111111,-0.13111111111111112,-0.2957565060686254,0.2919480789522255,-1.321116321545779
1592253899.5535145,-1.0145977241329165,9.562919544826583,0.9613869701156111,-0.37333333333333335,-0.6711111111111111,-0.13111111111111112,-0.2915385258683867,0.3160701029796085,-1.3594058649475815
1592253899.5635145,-1.2375906735751296,9.49661171298477,0.941661171298477,-0.36267816332583175,-0.6854724272081785,-0.13713359850665552,-0.2810683338165405,0.34043879875343686,-1.3839942528249305
1592253899.5735145,-1.4285634782608696,9.38047884057971,0.9381402898550725,-0.3477777777777778,-0.7055555555555556,-0.14555555555555555,-0.2760846547804546,0.36045032957410283,-1.389822883709336
1592253899.5835145,-1.544598546244465,9.486399030829643,0.9650413568384995,-0.3477777777777778,-0.7055555555555556,-0.14555555555555555,-0.2734298731761653,0.4173712333230186,-1.3824361257446158
1592253899.5935144,-1.805722628781197,9.445326929036257,0.8867721865986508,-0.3477777777777778,-0.7055555555555556,-0.14555555555555555,-0.2810908748914992,0.47480079818575294,-1.3728721006851783
1592253899.6035144,-1.8521246550884596,9.36787534491154,0.9357916283431622,-0.3477777777777778,-0.7055555555555556,-0.14555555555555555,-0.30043306162148237,0.5127405937780196,-1.393554689091881
1592253899.6135144,-1.973497011272917,9.455488025033096,0.9418293416776989,-0.3219284755931765,-0.7103749169798033,-0.14818429815059975,-0.32382160960873474,0.5447991048956826,-1.4385575896444849
1592253899.6235144,-2.2582674071555404,9.478032037477805,0.9851176848388681,-0.2822222222222222,-0.7177777777777777,-0.15222222222222223,-0.34768715634175623,0.5688166354983223,-1.469220154026593
1592253899.6335144,-2.675450363002952,9.043087253676568,1.0619498444273063,-0.2822222222222222,-0.7177777777777777,-0.15222222222222223,-0.42669689733395505,0.603819149576838,-1.5170974742482919
1592253899.6435144,-3.110279214064116,8.721189245087901,0.8916959669079627,-0.2822222222222222,-0.7177777777777777,-0.15222222222222223,-0.4664006630579857,0.5776293050597598,-1.5419846318458357
1592253899.6535144,-3.3003316326530614,8.634132653061224,1.0430612244897959,-0.2822222222222222,-0.7177777777777777,-0.15222222222222223,-0.46701656664227525,0.5389872812799453,-1.526378365187222
1592253899.6635144,-3.4025694517985103,8.563159659712662,1.3142881852518622,-0.26336804452445667,-0.726157412310118,-0.15885609956032493,-0.4286680802413768,0.5009734996616244,-1.4610011608026299
1592253899.6735144,-3.8139980509197224,8.746912169569985,0.9892586185893532,-0.2222222222222222,-0.7444444444444445,-0.17333333333333334,-0.38453346449999015,0.42033790864953346,-1.3532848813767797
1592253899.6835144,-4.100011339705167,9.04963064960311,0.7621108051190669,-0.2222222222222222,-0.7444444444444445,-0.17333333333333334,-0.3770927620183488,0.37111395613871406,-1.314976981845328
1592253899.6935143,-3.8731105197244835,8.726196775203507,0.921020663744521,-0.2222222222222222,-0.7444444444444445,-0.17333333333333334,-0.33810187400234626,0.3132049591867843,-1.2198523451560044
1592253899.7035143,-4.198285946385053,8.939165989710263,0.9805957216355267,-0.2222222222222222,-0.7444444444444445,-0.17333333333333334,-0.33902240922192456,0.2695571943714448,-1.1532521192883944
1592253899.7135143,-4.111682386488265,8.681535424435184,1.1946194340864225,-0.21001632911700907,-0.7491114035729083,-0.1758463113255831,-0.3434107098978122,0.22992937513492911,-1.0821027006179946
1592253899.7235143,-3.78,8.58,1.33,-0.18444444444444444,-0.7588888888888888,-0.1811111111111111,-0.3567016658763411,0.1974403716318585,-1.0341075818066403
1592253899.7335143,-4.185443770283618,8.694158035840271,1.4595930577113023,-0.18444444444444444,-0.7588888888888888,-0.1811111111111111,-0.4017425875958973,0.16626339044755473,-0.9517352199396133
1592253899.7435143,-3.6502943644077956,8.463088429177553,1.857794184624973,-0.18444444444444444,-0.7588888888888888,-0.1811111111111111,-0.4049388374373435,0.17053858145846856,-0.9068653624347379
1592253899.7535143,-4.120928903560147,8.672237248429347,1.8075185461257233,-0.18444444444444444,-0.7588888888888888,-0.1811111111111111,-0.39824124393011506,0.18138998514755908,-0.8818926834889304
1592253899.7635143,-4.372787492210125,8.547909380842407,1.553257817368672,-0.1648335105148038,-0.7606717010643107,-0.17903116357311893,-0.39223062308158474,0.15170149582472672,-0.8824184422527369
1592253899.7735143,-4.49,8.46,1.48,-0.1111111111111111,-0.7655555555555555,-0.17333333333333334,-0.3610649890063269,0.15489797111449674,-0.8912087492996045
1592253899.7835143,-4.414428871170792,8.367324381032311,1.8102626940830886,-0.1111111111111111,-0.7655555555555555,-0.17333333333333334,-0.342276973701825,0.11919242004533223,-0.9076764947466502
1592253899.7935143,-4.64,8.534563372245072,1.8385547181474524,-0.1111111111111111,-0.7655555555555555,-0.17333333333333334,-0.2943914747920777,0.119240686190391,-0.8827350162321604
1592253899.8035142,-4.447500725215751,8.390331242294582,1.8807542243817534,-0.1111111111111111,-0.7655555555555555,-0.17333333333333334,-0.25784774669049304,0.1049410816713843,-0.8640357383955056
1592253899.8135142,-4.146499866202837,8.053820864711954,2.266427998012156,-0.103000029732703,-0.7638174666887538,-0.1826031406229426,-0.2194089838490188,0.07602309512654828,-0.8610005470379074
1592253899.8235142,-4.25,8.49,2.71,-0.08,-0.7588888888888888,-0.2088888888888889,-0.17344209441693648,0.09053895494720585,-0.8464846872172498
1592253899.8335142,-4.808886119900317,8.28891300086803,1.5192663735894492,-0.08,-0.7588888888888888,-0.2088888888888889,-0.1486316120851841,0.06372467086751529,-0.8406140609356207
1592253899.8435142,-5.39,8.19,1.68,-0.08,-0.7588888888888888,-0.2088888888888889,-0.12435470920459597,0.05563236990731925,-0.839939702522271
1592253899.8535142,-5.119150557220362,8.504624831071155,1.6245776289245353,-0.08,-0.7588888888888888,-0.2088888888888889,-0.10203875170049394,0.053950050196499275,-0.8139713409450721
1592253899.8635142,-4.326547640154605,7.9920449629445764,1.6717073862628986,-0.07282677131228601,-0.7577319165199027,-0.20611215520332218,-0.08485763004129775,0.06113564814495917,-0.7894892913493756
1592253899.8735142,-5.53,8.38,1.26,-0.04555555555555556,-0.7533333333333333,-0.19555555555555557,-0.0839939702522271,0.02399827721492203,-0.7843073326149518
1592253899.8835142,-4.862973926512348,8.355117746608151,1.6366543326736083,-0.04555555555555556,-0.7533333333333333,-0.19555555555555557,-0.06287754136909102,0.027331595510871744,-0.7310904787678892
1592253899.8935142,-5.18,8.288133415076988,1.387054634629442,-0.04555555555555556,-0.7533333333333333,-0.19555555555555557,-0.0473446898605119,0.03965467880052545,-0.6312987733224518
1592253899.9035141,-5.090895025845571,8.429801105367652,1.5497016580514766,-0.04555555555555556,-0.7533333333333333,-0.19555555555555557,-0.03055410992927275,0.045105752375473485,-0.5532464710743988
1592253899.9135141,-5.067874716124148,8.456419379258138,1.6083024224072673,-0.03895386491715031,-0.7557853898561695,-0.19706451341576248,-0.030213370238737,0.04071086177733367,-0.5098925817787896
1592253899.9235141,-5.84,8.39,1.6,-0.006666666666666667,-0.7677777777777778,-0.20444444444444446,-0.039269908169872414,0.0370882466048795,-0.4908738521234052
1592253899.933514,-4.842629952233774,7.954290531048047,1.5590025288002247,-0.006666666666666667,-0.7677777777777778,-0.20444444444444446,-0.0036053505182651897,0.0411318910312565,-0.5115337396550028
1592253899.943514,-5.532612098289683,8.238223316444254,1.3548614381883488,-0.006666666666666667,-0.7677777777777778,-0.20444444444444446,0.007686933169178562,0.035222632494174434,-0.5314181736487696
1592253899.953514,-4.987530770853847,8.105804789703193,1.4925274300182867,-0.006666666666666667,-0.7677777777777778,-0.20444444444444446,0.019453027478311173,0.04294996598538237,-0.5384064313698798
1592253899.963514,-5.362516519207078,8.085382461641842,1.291860230708926,-0.002873782058461194,-0.7677777777777778,-0.2019158547056408,-0.0035470020090718002,0.05166047043363521,-0.5257279052743374
1592253899.973514,-5.46,7.66,1.54,0.02666666666666667,-0.7677777777777778,-0.18222222222222223,-0.014180800172453926,0.020725784867432664,-0.5083271446433485
1592253899.983514,-5.52633369391938,7.881600432703256,1.3324131746754726,0.02666666666666667,-0.7677777777777778,-0.18222222222222223,-0.02714422847158149,0.024377900487411758,-0.48540954387062807
1592253899.993514,-5.443756500676782,7.784138348649996,1.3570071952696445,0.02666666666666667,-0.7677777777777778,-0.18222222222222223,-0.0298970940708712,0.025012562558880406,-0.45143057047802165
1592253900.003514,-5.613283728216174,7.925793652206419,1.270922619577407,0.02666666666666667,-0.7677777777777778,-0.18222222222222223,-0.037144519236164096,0.035667352956069875,-0.4114888589205502
1592253900.013514,-5.6567668630515815,7.867784457536772,1.2876642218748748,0.027159009436272873,-0.7687624633169902,-0.18542245022466255,-0.05417246399894267,0.032973159504832955,-0.3882181983918263
1592253900.023514,-5.39,7.85,1.59,0.03111111111111111,-0.7766666666666666,-0.2111111111111111,-0.06872233929727672,0.017453292519943295,-0.3785182815262702
1592253900.033514,-5.786682134570766,7.98461716937355,1.82830626450116,0.03111111111111111,-0.7766666666666666,-0.2111111111111111,-0.09216887379622607,0.03031800914971008,-0.3633554805565805
1592253900.043514,-5.827834524542055,7.790962749088844,1.6204813745444218,0.03111111111111111,-0.7766666666666666,-0.2111111111111111,-0.12673179816163457,0.005938307850451194,-0.34302252291422164
1592253900.053514,-6.049477691377849,7.963192667833367,1.9221687985999603,0.03111111111111111,-0.7766666666666666,-0.2111111111111111,-0.151843066316961,-0.018315593397405225,-0.32082398618401575
1592253900.063514,-5.382068363273453,7.645326846307385,2.304673153692615,0.03415502328675981,-0.7755674761587935,-0.20933549567531604,-0.169659840079523,-0.031634092692397225,-0.29315995630581587
1592253900.073514,-5.65,7.71,2.24,0.07111111111111111,-0.7622222222222222,-0.18777777777777777,-0.17671458676442586,-0.031634092692397225,-0.22362031041177347
1592253900.083514,-5.826063114038792,7.904154772963995,2.243598795146806,0.07111111111111111,-0.7622222222222222,-0.18777777777777777,-0.1679748283026659,-0.07013197775885091,-0.14002956339533615
1592253900.093514,-5.7,7.83,2.34,0.07111111111111111,-0.7622222222222222,-0.18777777777777777,-0.14289883250703572,-0.074176493209759,-0.10362892433716332
1592253900.103514,-5.911216720972741,7.551878327902726,2.2661368513073192,0.07111111111111111,-0.7622222222222222,-0.18777777777777777,-0.09305242568489248,-0.08707899366805084,-0.08638633389278687
1592253900.113514,-5.827083333333333,7.547916666666667,2.00125,0.07166666666666667,-0.7631018518518519,-0.18912037037037036,-0.0691314008407129,-0.13058153492134655,-0.10362892433716332
1592253900.123514,-5.76,7.27,2.26,0.08444444444444445,-0.7833333333333333,-0.22,-0.028361600344907853,-0.17344209441693648,-0.1538071403320003
1592253900.133514,-6.008486097067745,7.96232406471183,2.165979777553084,0.08444444444444445,-0.7833333333333333,-0.22,-0.018452990953194283,-0.2095135190820956,-0.19518745863253875
1592253900.143514,-5.652386205812217,7.781387018159902,2.048389455202956,0.08444444444444445,-0.7833333333333333,-0.22,-0.009483147312322705,-0.22404248173397912,-0.23004572420548694
1592253900.153514,-5.481710007028167,7.863581121262907,2.5200207240813826,0.08444444444444445,-0.7833333333333333,-0.22,-0.009986435802907761,-0.19781569793937154,-0.2521860176571636
1592253900.163514,-5.6557042009827665,8.116232957298083,2.06935428057305,0.08439868964403535,-0.7825555017263786,-0.21926792319345437,-0.044307026353756836,-0.1896697971436036,-0.26391061230136503
1592253900.173514,-5.280887085776626,7.3752952406927585,2.4326448929496793,0.08333333333333333,-0.7644444444444445,-0.20222222222222222,-0.0659954110974494,-0.15970979483213113,-0.3190681526366272
1592253900.1835139,-5.710230826507818,7.512323157110946,2.123030528667163,0.08333333333333333,-0.7644444444444445,-0.20222222222222222,-0.09403887292321271,-0.10230985569176179,-0.3408460383967333
1592253900.1935139,-5.920872252747253,7.537925824175824,1.8267239010989011,0.08333333333333333,-0.7644444444444445,-0.20222222222222222,-0.1308809639754247,-0.09247562910431666,-0.3696605257972485
1592253900.2035139,-6.202580344921982,7.434517930468108,1.9312948261702712,0.08333333333333333,-0.7644444444444445,-0.20222222222222222,-0.13793750835733257,-0.07934917515520565,-0.3896496328421936
1592253900.2135139,-6.187290039425723,7.561408167819684,2.2679171315926503,0.08420119516972897,-0.7649362328184021,-0.20297436914709843,-0.15194949032056745,-0.08218151794561096,-0.40346538596277454
1592253900.2235138,-6.46,7.24,2.19,0.11666666666666667,-0.7833333333333333,-0.2311111111111111,-0.12326387842209952,-0.09599310885968812,-0.3981532356112064
1592253900.2335138,-6.4194331391482455,7.3996898358736996,2.124663102173277,0.11666666666666667,-0.7833333333333333,-0.2311111111111111,-0.093054281374485,-0.10445958996136266,-0.35994032456617103
1592253900.2435138,-6.090349098560567,7.315679546650088,2.0365149921094163,0.11666666666666667,-0.7833333333333333,-0.2311111111111111,-0.0517668612365828,-0.12290276340646986,-0.33298834218585055
1592253900.2535138,-6.362859424920128,7.462926953238455,1.8556513215219286,0.11666666666666667,-0.7833333333333333,-0.2311111111111111,-0.015526358793790683,-0.10283527603331388,-0.2778776569104274
1592253900.2635138,-6.5275592885375495,7.81771986166008,1.9999036561264822,0.11664525691699605,-0.7833012187088274,-0.23108613306982873,0.0046260602873311905,-0.07935039415440623,-0.21450831632102862
1592253900.2735138,-5.77,7.11,1.97,0.11,-0.7733333333333333,-0.22333333333333333,0.08617563181722002,0.007635815477475192,-0.09490227807719166
1592253900.2835138,-6.12301008984105,7.22822999308915,1.8206200414651004,0.11,-0.7733333333333333,-0.22333333333333333,0.09447797731864273,0.017675861200125917,-0.08254529872623692
1592253900.2935138,-6.159567670532636,7.234673401972367,1.834783835266318,0.11,-0.7733333333333333,-0.22333333333333333,0.15196866975994286,0.07204199147388422,-0.012284149153096287
1592253900.3035138,-5.99,7.27,1.75,0.11,-0.7733333333333333,-0.22333333333333333,0.1974403716318585,0.09053895494720585,0.01854412330243975
1592253900.3135138,-6.122514177693762,7.497167161760735,2.2989873075884417,0.11,-0.7733333333333333,-0.22333333333333333,0.1974403716318585,0.09053895494720585,0.01854412330243975
1592253900.3235137,-6.189597908745247,7.4432036596958175,1.79,0.1288888888888889,-0.7855555555555556,-0.20222222222222222,0.2853619030023375,0.1760317028456211,0.0321429569571407
1592253900.3335137,-6.120325921633953,7.536481494893894,1.7417259361193598,0.1288888888888889,-0.7855555555555556,-0.20222222222222222,0.3136760669041558,0.2166987848672707,0.020118152539759727
1592253900.3435137,-6.333515922651139,7.405583351304722,1.6132341312630294,0.1288888888888889,-0.7855555555555556,-0.20222222222222222,0.3207367138555506,0.24848475949237417,0.002085995289768581
1592253900.3535137,-6.76,7.56,1.65,0.1288888888888889,-0.7855555555555556,-0.20222222222222222,0.30870511144649704,0.25089107997418486,-0.016362461737446838
1592253900.3635137,-6.20149874981615,7.102212090013237,1.4851963524047653,0.1288888888888889,-0.7855555555555556,-0.20222222222222222,0.29072782226003907,0.225922622770771,-0.0573107315510456
1592253900.3735137,-6.95,7.25,1.19,0.12222222222222222,-0.7922222222222223,-0.18666666666666668,0.2585268954516601,0.21380283336930533,-0.06654067773228381
1592253900.3835137,-6.048617075733491,6.948617075733491,1.6284101624592504,0.12222222222222222,-0.7922222222222223,-0.18666666666666668,0.20148455982456145,0.16816650794887184,-0.038402786305563395
1592253900.3935137,-6.3178115748257095,7.197322605290803,1.6225611211918634,0.12222222222222222,-0.7922222222222223,-0.18666666666666668,0.16889208722981824,0.12843865735120294,-0.031301379406980544
1592253900.4035137,-6.66,7.48,1.63,0.12222222222222222,-0.7922222222222223,-0.18666666666666668,0.1461713248545251,0.12762720155208535,-0.02399827721492203
1592253900.4135137,-6.368248941059218,7.306526397386562,1.6851961462860938,0.12222222222222222,-0.7922222222222223,-0.18666666666666668,0.11090566952301084,0.11386499459344564,-0.037760484173561745
1592253900.4235137,-6.339369806813461,6.953996676360616,1.567379777731616,0.11555555555555555,-0.8066666666666666,-0.17888888888888888,0.09280202094896897,0.09610164810871508,-0.07518591955548523
1592253900.4335136,-6.34094566353187,6.919144461859979,1.6207758620689656,0.11555555555555555,-0.8066666666666666,-0.17888888888888888,0.07980974512297248,0.07716787151155016,-0.0913996797064876
1592253900.4435136,-7.011738588907612,7.256608542750385,1.209913546779984,0.11555555555555555,-0.8066666666666666,-0.17888888888888888,0.09059585812818155,0.08213478668616256,-0.08886950193119234
1592253900.4535136,-6.309085773263078,7.059695257754359,1.8742452061491661,0.11555555555555555,-0.8066666666666666,-0.17888888888888888,0.07652359556701277,0.03860968563857927,-0.07668903635927363
1592253900.4635136,-6.491357488185127,7.120452496061709,1.775514693899723,0.11555555555555555,-0.8066666666666666,-0.17888888888888888,0.0707244573090639,0.007128649381142577,-0.06509075984337591
1592253900.4735136,-6.5,7.38,1.69,0.13444444444444445,-0.8188888888888889,-0.16666666666666666,0.06981317007977318,-0.014180800172453926,-0.038179077387375956
1592253900.4835136,-6.292552787829814,7.2614587359027505,1.8579334574711028,0.13444444444444445,-0.8188888888888889,-0.16666666666666666,0.05364961259560802,-0.026034075660841705,-0.015550096909544744
1592253900.4935136,-6.472180594210138,7.436695449463593,1.608722376840553,0.13444444444444445,-0.8188888888888889,-0.16666666666666666,0.05136754563911312,-0.024810373863267416,-0.007873681406330421
1592253900.5035136,-6.4346846509304365,7.593066245606522,1.5930662456065228,0.13444444444444445,-0.8188888888888889,-0.16666666666666666,0.0573977762531997,-0.030045226981104817,-0.00749086181785533
1592253900.5135136,-6.225152991132759,7.376051312244643,1.3760513122446432,0.13444444444444445,-0.8188888888888889,-0.16666666666666666,0.06556076141087404,-0.022698540339197916,-0.001776772207483299
1592253900.5235136,-6.55,7.42,1.28,0.14666666666666667,-0.8122222222222222,-0.18777777777777777,0.08072147790473774,-0.011999138607461015,0.028361600344907853
1592253900.5335135,-6.404409629671639,7.710760505869676,1.3207605058696763,0.14666666666666667,-0.8122222222222222,-0.18777777777777777,0.07949383703459365,-0.007167172104662743,0.07293647973390406
1592253900.5435135,-6.066217692995817,7.679597930417543,1.2643968956263147,0.14666666666666667,-0.8122222222222222,-0.18777777777777777,0.10236015212942319,-0.017197971497594992,0.13767681738586734
1592253900.5535135,-6.3,7.47,0.95,0.14666666666666667,-0.8122222222222222,-0.18777777777777777,0.09708393964218458,0.006544984694978735,0.19307704850187268
1592253900.5635135,-6.137271750805585,7.771047261009667,1.308002148227712,0.14666666666666667,-0.8122222222222222,-0.18777777777777777,0.08022058621889752,0.015420433865129816,0.2383418392696432
1592253900.5735135,-5.946578061520603,7.5588526987811955,1.2628482878699943,0.14666666666666667,-0.8122222222222222,-0.16,0.04850174266617654,0.061636408894929294,0.267430151203846
1592253900.5835135,-5.61,7.14,1.39,0.14666666666666667,-0.8122222222222222,-0.16,0.03381575425739013,0.06326818538479445,0.23234695667174513
1592253900.5935135,-6.011017210241156,7.530287102942738,1.1126333262509296,0.14666666666666667,-0.8122222222222222,-0.16,0.043314661893602766,0.07455054282818066,0.14843978470445265
1592253900.6035135,-5.77,7.28,1.4,0.14666666666666667,-0.8122222222222222,-0.16,0.039269908169872414,0.06544984694978735,0.10799224746714915
1592253900.6135135,-5.8241634002939735,7.187148456638902,1.3148860852523272,0.14666666666666667,-0.8122222222222222,-0.16,0.035893730779852764,0.06882602433980702,0.09617562660208034
1592253900.6235135,-6.09,7.5,1.39,0.13444444444444445,-0.8133333333333334,-0.13777777777777778,0.020725784867432664,0.05890486225480862,0.08290313946973066
1592253900.6335135,-6.416509658639852,7.7850277851283405,1.391357501984652,0.13444444444444445,-0.8133333333333334,-0.13777777777777778,-0.032653914114614734,0.02421130529575886,0.04500809952347047
1592253900.6435134,-6.400914295417606,7.4721437061834415,1.1211697353419208,0.13444444444444445,-0.8133333333333334,-0.13777777777777778,-0.03880873361010364,0.015546356355427742,0.04558756037443495
1592253900.6535134,-5.83,6.96,1.86,0.13444444444444445,-0.8133333333333334,-0.13777777777777778,-0.07635815477475191,-0.04581489286485115,0.0272707695624114
1592253900.6635134,-6.400774302227643,7.648056693096337,1.4925151752780923,0.13444444444444445,-0.8133333333333334,-0.13777777777777778,-0.03712468049875045,-0.0432561880207641,0.015330146956671824
1592253900.6735134,-5.83,7.15,1.95,0.14,-0.8211111111111111,-0.14333333333333334,-0.002181661564992912,-0.09381144729469522,-0.002181661564992912
1592253900.6835134,-5.90621694165943,7.188108470829715,1.4926983500434199,0.14,-0.8211111111111111,-0.14333333333333334,0.05393769405915096,-0.11667488847490198,-0.004260156217738981
1592253900.6935134,-6.017587907375644,7.595862635791881,1.3106923003621118,0.14,-0.8211111111111111,-0.14333333333333334,0.10825536595563723,-0.1301846612861673,0.001655424588016706
1592253900.7035134,-5.944073458122501,7.607679487633134,1.207312197020629,0.14,-0.8211111111111111,-0.14333333333333334,0.12016257019832735,-0.1415056986677291,-0.015604889968292955
1592253900.7135134,-5.9737560595874175,7.882243551183611,1.3334632532465236,0.14,-0.8211111111111111,-0.14333333333333334,0.14525605911976883,-0.10750806851609873,-0.018033292121980838
1592253900.7235134,-5.92,7.49,1.54,0.12,-0.8211111111111111,-0.14333333333333334,0.14508049407202864,-0.1090830782496456,-0.03599741582238304
1592253900.7335134,-6.0245847968896635,7.9140833891942615,1.5568912722885107,0.12,-0.8211111111111111,-0.14333333333333334,0.15575908249852885,-0.06743460617323942,-0.01827064782807745
1592253900.7435133,-5.55785007626934,7.39785007626934,1.2817363259969492,0.12,-0.8211111111111111,-0.14333333333333334,0.13296197973587515,-0.04513153694122491,0.008965397717356577
1592253900.7535133,-6.10088785889482,7.942826612321454,1.5398061246573367,0.12,-0.8211111111111111,-0.14333333333333334,0.13160985133693148,-0.022260734552592108,0.010316149288080572
1592253900.7635133,-5.745361780406868,7.6629443803203,1.5322417400086568,0.12,-0.8211111111111111,-0.14333333333333334,0.11675721681116895,-0.039588808165981704,-0.012787948863105544
1592253900.7735133,-5.969711305818516,7.403501209743722,1.25115477672594,0.12,-0.8211111111111111,-0.12444444444444444,0.11943022485836735,-0.03046252131664136,0.0012030630257450167
1592253900.7835133,-5.88181998981349,7.847250127331377,1.562680264849264,0.12,-0.8211111111111111,-0.12444444444444444,0.115430617572701,-0.03907137807863394,0.0024794567018506185
1592253900.7935133,-5.9,7.62,1.09,0.12,-0.8211111111111111,-0.12444444444444444,0.12435470920459597,-0.0370882466048795,0.00545415391248228
1592253900.8035133,-6.431486627162076,7.115538116591928,0.9909092729019859,0.12,-0.8211111111111111,-0.12444444444444444,0.12828529885472212,-0.05379325261791569,0.026089749575644635
1592253900.8135133,-6.474107117688513,7.306339675828048,1.1627681465821,0.12,-0.8211111111111111,-0.12444444444444444,0.13911989948335984,-0.07123517063048633,0.04136393428088041
1592253900.8235133,-6.46,7.27,1.11,0.11555555555555555,-0.8277777777777777,-0.1288888888888889,0.15271630954950383,-0.062177354602297986,0.04036073895236887
1592253900.8335133,-6.083126674933003,7.380304387824487,1.4684892604295827,0.11555555555555555,-0.8277777777777777,-0.1288888888888889,0.16073787099506234,-0.09225821002314241,0.01930414015777777
1592253900.8435133,-6.13,7.63,0.99,0.11555555555555555,-0.8277777777777777,-0.1288888888888889,0.17671458676442586,-0.0818123086872342,-0.01090830782496456
1592253900.8535132,-6.101630474195238,7.620543491398413,1.538477498892067,0.11555555555555555,-0.8277777777777777,-0.1288888888888889,0.17465149662891505,-0.06530758760314777,-0.009876762757209159
1592253900.8635132,-6.283135616492095,7.731473853516928,1.4346388921580164,0.11555555555555555,-0.8277777777777777,-0.1288888888888889,0.1571616236480379,-0.08781027326167423,-0.017634562740595876
1592253900.8735132,-5.4,7.91,1.44,0.10777777777777778,-0.8133333333333334,-0.09333333333333334,0.11344640137963141,-0.06981317007977318,-0.002181661564992912
1592253900.8835132,-6.174583073480319,8.031844528412636,1.518328625408122,0.10777777777777778,-0.8133333333333334,-0.09333333333333334,0.09066152784741445,-0.031838380859411576,-0.0012322918344838721
1592253900.8935132,-6.72,7.32,0.89,0.10777777777777778,-0.8133333333333334,-0.09333333333333334,0.06326818538479445,-0.008726646259971648,0.00545415391248228
1592253900.9035132,-6.272099533437014,7.805225505443235,1.515194401244168,0.10777777777777778,-0.8133333333333334,-0.09333333333333334,0.053089360042681326,0.0034879441505640957,0.015632979254595395
1592253900.9135132,-5.725039626407271,7.598124673009476,1.3571368225240763,0.10777777777777778,-0.8133333333333334,-0.09333333333333334,0.0208686939092382,0.011172227703086728,0.019766914023997294
1592253900.9235132,-6.67,7.53,1.3,0.09333333333333334,-0.8211111111111111,-0.09333333333333334,0.015271630954950384,0.0370882466048795,0.04690572364734761
1592253900.9335132,-6.3917265922199045,7.664920440135805,1.4180553851188284,0.09333333333333334,-0.8211111111111111,-0.09333333333333334,0.0345883981740142,0.033408862372676866,0.06438279875031011
1592253900.9435132,-5.789153639964893,7.091740161776217,1.2326043124510757,0.09333333333333334,-0.8211111111111111,-0.09333333333333334,0.053403899677441836,0.037848182303604226,0.07441377096376171
1592253900.9535131,-6.6335955299989156,7.136737550179017,1.0784951719648477,0.09333333333333334,-0.8211111111111111,-0.09333333333333334,0.07693333515914301,0.07879545206614087,0.07950282925904327
1592253900.9635131,-6.208871650211566,7.311177715091679,1.298441466854725,0.09333333333333334,-0.8211111111111111,-0.09333333333333334,0.0918251813705726,0.0854140503823318,0.0761935301009478
1592253900.9735131,-6.43,7.21,1.52,0.12,-0.8277777777777777,-0.07444444444444444,0.12217304763960307,0.06872233929727672,0.04799655442984406
1592253900.983513,-6.292427401340283,7.376535251009131,1.440352706039111,0.12,-0.8277777777777777,-0.07444444444444444,0.13323072109352255,0.06872233929727672,0.01324386643181142
1592253900.993513,-6.258487208008899,7.190422691879866,1.197397107897664,0.12,-0.8277777777777777,-0.07444444444444444,0.13845299937347955,0.04452264060305057,-0.03125794414670879
1592253901.003513,-5.985755667295902,7.326711047259485,1.0494074606170962,0.12,-0.8277777777777777,-0.07444444444444444,0.1221532577558759,0.03613195423081544,-0.037377113305471436
1592253901.013513,-6.23792738538657,7.608963692693285,1.2526539492463538,0.12,-0.8277777777777777,-0.07444444444444444,0.0700392572618313,0.03995944749452703,-0.046504432189505764
1592253901.023513,-5.93326995919413,7.818423392925762,1.3751678896228658,0.08644281383617877,-0.8109991846958672,-0.06535603985840953,0.05934597315276447,0.05970109347429633,-0.04496929890267623
1592253901.033513,-6.14509463282464,7.580390883372515,1.1740478941706178,0.06666666666666667,-0.8011111111111111,-0.06,0.05746601051062554,0.10844619163148723,-0.02652383060567547
1592253901.043513,-6.132072718973296,7.428545444969188,1.1197090889938377,0.06666666666666667,-0.8011111111111111,-0.06,0.07516815929849738,0.15659173778992208,-0.0011265285401567612
1592253901.053513,-6.426741887005119,7.037737754191518,1.0161539003428357,0.06666666666666667,-0.8011111111111111,-0.06,0.1020593021916268,0.16888627625735267,0.0074087661172148106
1592253901.063513,-6.9029259794898765,7.3387148303970555,1.3683992900341835,0.06666666666666667,-0.8011111111111111,-0.06,0.1437737487821632,0.13711861972208358,0.012012906653098624
1592253901.073513,-6.684652684785274,7.361385677373116,1.4386631711963185,0.07603412903482687,-0.8140814436208714,-0.040544501235359576,0.15413115334558994,0.09263951553438617,0.01630306586658308
1592253901.083513,-6.010127459571417,7.353550943997451,0.7315924480203936,0.0811111111111111,-0.8211111111111111,-0.03,0.19337927979809852,0.04371834790556646,0.018465958537932814
1592253901.093513,-5.883718297750394,7.570910827721259,0.8381831207909443,0.0811111111111111,-0.8211111111111111,-0.03,0.16445374671834043,0.037268514766862486,0.009655131495433716
1592253901.103513,-5.7935699957013895,7.791273343841047,1.0034550078807851,0.0811111111111111,-0.8211111111111111,-0.03,0.13112858496969948,0.032898001750647284,0.0003677913359764126
1592253901.113513,-6.147515325393713,7.3094557163202545,0.8852853516068443,0.0811111111111111,-0.8211111111111111,-0.03,0.09806559503480043,0.07535159775680961,-0.009976455683001602
1592253901.123513,-6.93,7.5,1.42,0.08888888888888889,-0.8133333333333334,-0.022222222222222223,0.05126904677733343,0.10799224746714915,-0.01308996938995747
1592253901.133513,-6.5021348314606735,7.377752808988764,1.271011235955056,0.08888888888888889,-0.8133333333333334,-0.022222222222222223,0.034600171898735904,0.11132602244286866,-0.015173578749782162
1592253901.143513,-6.586092270425016,7.18663326726859,1.03,0.08888888888888889,-0.8133333333333334,-0.022222222222222223,-0.01045361483528489,0.12829612912728725,-0.008414042327294103
1592253901.153513,-6.466303994426382,7.399283557826289,1.5246702275894102,0.08888888888888889,-0.8133333333333334,-0.022222222222222223,-0.02482343015646559,0.08228742553177021,-0.004310187561795246
1592253901.163513,-6.700978316376635,7.5998024119102805,1.3364722866009349,0.08888888888888889,-0.8133333333333334,-0.022222222222222223,0.0007911811905571969,0.032183450277619194,-0.0035006468237199677
1592253901.173513,-6.616128332923585,7.42618666607067,1.0841633328118365,0.09743731483757856,-0.8047849073846437,-0.01755944443202785,0.02289472011392965,-0.03453415737447712,-0.015479616056652936
1592253901.183513,-6.160545578799499,7.270500018983257,0.8918182163331941,0.10111111111111111,-0.8011111111111111,-0.015555555555555555,0.042433313297607966,-0.07079491364251582,-0.024266025459306388
1592253901.193513,-6.490059391524254,7.090710016093187,0.997337343857767,0.10111111111111111,-0.8011111111111111,-0.015555555555555555,0.058646679185474546,-0.11001900755003875,-0.044343245189898364
1592253901.203513,-6.25357843677654,7.817217506338882,1.3215345606879065,0.10111111111111111,-0.8011111111111111,-0.015555555555555555,0.10351744818950878,-0.11417153748573368,-0.03316493558305755
1592253901.213513,-6.271869250920838,7.1917045835056825,1.2471961236187437,0.10111111111111111,-0.8011111111111111,-0.015555555555555555,0.09087280687847157,-0.10079223574317264,-0.042601036243994826
1592253901.223513,-6.670915417722292,7.733249595555691,1.0063157412777388,0.06911008685801884,-0.7835621623271574,0.005090266543213647,0.11049841795452568,-0.03222317660936945,-0.009330713658892646
1592253901.2335129,-6.1392860114837315,7.55528251643505,1.250797203961055,0.06666666666666667,-0.7822222222222223,0.006666666666666667,0.08604065092568533,-0.0372277661948518,-0.012234697056373249
1592253901.2435129,-6.076991775021037,7.220353429789082,0.28707673932517164,0.06666666666666667,-0.7822222222222223,0.006666666666666667,0.06304613429660147,-0.0027704123032967973,-0.035157625061982875
1592253901.2535129,-5.908319706654774,7.592944601357713,0.4771044546850998,0.06666666666666667,-0.7822222222222223,0.006666666666666667,0.04335918580819494,0.03349989926122949,-0.03499733896109027
1592253901.2635128,-6.2366129951553155,7.469744585351952,0.8490538614990024,0.06666666666666667,-0.7822222222222223,0.006666666666666667,0.029078847230891026,0.014711255110180455,-0.04469826015731987
1592253901.2735128,-6.4036309213951075,7.572011972930765,0.5132378969286829,0.08808201746775407,-0.7886468274625484,0.03450662270808028,0.015390452579748606,0.015728746405189654,-0.06707700759905523
1592253901.2835128,-6.576916418391175,7.424313551815766,1.0349025686448186,0.08888888888888889,-0.7888888888888889,0.035555555555555556,-0.027185261569275053,0.009414970233482676,-0.07843871752094675
1592253901.2935128,-6.416717027991928,7.36,1.3766414860040357,0.08888888888888889,-0.7888888888888889,0.035555555555555556,-0.04374532267120599,0.0006725482280864996,-0.06626456948020264
1592253901.3035128,-6.71762671334188,7.462968395621734,0.8283542056996351,0.08888888888888889,-0.7888888888888889,0.035555555555555556,-0.03648552521822894,0.04186513562097156,-0.017388376202298432
1592253901.3135128,-6.5849479659413435,7.29197729422895,1.2379280983916745,0.08888888888888889,-0.7888888888888889,0.035555555555555556,-0.02973313687275817,0.03595407155287988,0.00711774825627063
1592253901.3235128,-6.576267089180624,6.681798098687189,1.0298089633318244,0.0760974800060359,-0.7711777073587848,0.035555555555555556,0.035768583325955325,0.038146387030743426,0.04512533374095887
1592253901.3335128,-6.793015332197615,7.294727427597956,0.9659710391822828,0.07444444444444444,-0.7688888888888888,0.035555555555555556,0.06773278667090643,0.04252660484163569,0.06102334111689714
1592253901.3435128,-6.057116695628927,7.159520117631333,0.9015385643630531,0.07444444444444444,-0.7688888888888888,0.035555555555555556,0.10546442465664806,0.0213866116427667,0.047409217657768704
1592253901.3535128,-6.890238032519936,7.217538255226418,0.443641610191815,0.07444444444444444,-0.7688888888888888,0.035555555555555556,0.1090830782496456,-0.002595591605928732,-0.0012380807913791522
1592253901.3635128,-6.86214195183777,7.555369666244191,0.5631178707224335,0.07444444444444444,-0.7688888888888888,0.035555555555555556,0.08966288003485867,-0.02820352896408982,-0.011519855120432578
1592253901.3735127,-6.485561663002199,7.32856586048371,1.0197021786927842,0.0806600484153952,-0.7688888888888888,0.07699291536189398,0.05259753607530483,-0.0847570939257705,0.01930724697598314
1592253901.3835127,-6.943523430041921,7.425292408583406,1.1211754451500435,0.0811111111111111,-0.7688888888888888,0.08,0.042414179342081415,-0.07988740640367313,0.08527649893590192
1592253901.3935127,-6.793666374452098,6.882734376956794,1.16,0.0811111111111111,-0.7688888888888888,0.08,0.05497292615612741,-0.11274482710704671,0.20146328998490953
1592253901.4035127,-6.900855032093981,6.9715647329538575,1.0512740704856485,0.0811111111111111,-0.7688888888888888,0.08,0.08944112234425736,-0.11777101633240136,0.26681374812135306
1592253901.4135127,-6.7533708139819115,7.223324370569543,1.069985333659252,0.0811111111111111,-0.7688888888888888,0.08,0.1647098486833808,-0.1458041593723697,0.3417902677219658
1592253901.4235127,-6.050646944083225,7.6501202860858255,1.1698081924577373,0.0811111111111111,-0.7591579973992197,0.07292298800751336,0.22323057600671378,-0.16469452519982333,0.3920869965457368
1592253901.4335127,-6.420118628854224,7.503442662720458,0.686885325440916,0.0811111111111111,-0.7566666666666667,0.07111111111111111,0.26016961182569875,-0.1444755766547635,0.395861196927905
1592253901.4435127,-5.753464042967821,7.136984647559295,0.7785084842435477,0.0811111111111111,-0.7566666666666667,0.07111111111111111,0.24467237495572358,-0.1397899207060921,0.3457364807583303
1592253901.4535127,-6.220128698045247,7.403146222024364,0.8202586102229956,0.0811111111111111,-0.7566666666666667,0.07111111111111111,0.2214903892521829,-0.12619785077929455,0.3079716514675259
1592253901.4635127,-6.3850393997913475,7.557309937626246,0.8897482852766865,0.0811111111111111,-0.7566666666666667,0.07111111111111111,0.1637893642756272,-0.12648145513586928,0.2513767249766161
1592253901.4735126,-6.030899425109723,7.413733077826544,0.953133461086728,0.05349989353883772,-0.751144423152212,0.10332419827876341,0.10603951404127815,-0.10507053101942775,0.2394210047480348
1592253901.4835126,-6.317648266798094,7.480855922457697,1.098610152784623,0.04777777777777778,-0.75,0.11,0.08053474459188062,-0.07910557168397701,0.2532127915238206
1592253901.4935126,-6.283384120664573,7.725823188627721,0.9657011969476559,0.04777777777777778,-0.75,0.11,0.09318954318193742,-0.06964688540877169,0.2514331685584375
1592253901.5035126,-6.179317966903073,7.965273758865248,0.5194524822695036,0.04777777777777778,-0.75,0.11,0.09305279124764407,-0.06380364662280287,0.22563326713092496
1592253901.5135126,-5.97900688374971,8.036343878103489,0.706610720086627,0.04777777777777778,-0.75,0.11,0.08300877178001649,-0.03918798406980249,0.18801901575296232
1592253901.5235126,-5.830927092103048,7.919138912274794,0.6864236403434922,0.05323032309966137,-0.7409124244635273,0.08637230360517109,0.03036260167119669,0.012876909328045385,0.1346814365295274
1592253901.5335126,-6.01161082003168,7.7367113439746555,0.633576215425856,0.05444444444444444,-0.7388888888888889,0.0811111111111111,-0.0018637296493438892,0.010470088123503512,0.12832792774744556
1592253901.5435126,-6.233095792896832,7.39705169897319,0.8329483010268097,0.05444444444444444,-0.7388888888888889,0.0811111111111111,-0.04028300402630205,0.0053925078536143384,0.14959657764422052
1592253901.5535126,-6.50944577975871,7.811719599561291,1.0236538865423659,0.05444444444444444,-0.7388888888888889,0.0811111111111111,-0.05267577633029592,0.006544984694978735,0.18834477800854
1592253901.5635126,-6.068476242490442,7.58193336974331,0.9768773894046969,0.05444444444444444,-0.7388888888888889,0.0811111111111111,-0.04477678656310343,-0.010892073450948708,0.20860008884525208
1592253901.5735126,-5.631033191830731,7.505445733195173,1.0319246582210784,0.06054250091920981,-0.73366198333909,0.10376103516023963,-0.01874389807455253,-0.03269929075636926,0.20377540868350352
1592253901.5835125,-5.745040607272578,7.906459617189732,0.90026119250704,0.06222222222222222,-0.7322222222222222,0.11,-0.018214910812680892,-0.0390723806760171,0.1853380397111776
1592253901.5935125,-5.43382701095634,7.698336177944173,0.783760392005726,0.06222222222222222,-0.7322222222222222,0.11,-0.02139008477852628,-0.044281195474958956,0.11234650186134479
1592253901.6035125,-5.686228849665246,7.49819679448164,0.7268443903428687,0.06222222222222222,-0.7322222222222222,0.11,-0.03497585467569941,-0.01679392525815187,0.04858452749191276
1592253901.6135125,-5.693374305369058,7.534805709917987,0.8407804656351354,0.06222222222222222,-0.7322222222222222,0.11,-0.039836517321339984,0.03184675140073319,-0.03480768082552964
1592253901.6235125,-6.555828482731859,7.326961583236321,0.8809895227008149,0.06222222222222222,-0.7228504290087526,0.13129953003061268,-0.02737870974461419,0.02574055874412475,-0.07788836559303855
1592253901.6335125,-6.511039057908775,7.430555354640387,1.0327051218299355,0.06222222222222222,-0.72,0.13777777777777778,-0.024232780437478056,0.02648557456445963,-0.0839939702522271
1592253901.6435125,-6.445156646909399,7.383319220999153,0.8822438611346317,0.06222222222222222,-0.72,0.13777777777777778,-0.018725158724429,0.0058310031582558194,-0.08830833992626685
1592253901.6535125,-6.329151565718457,7.318490339738743,1.0028759158344849,0.06222222222222222,-0.72,0.13777777777777778,0.007939318600569074,-0.08112774147987344,-0.12571297882754334
1592253901.6635125,-6.120344202184284,7.34,0.9965798604266056,0.06222222222222222,-0.72,0.13777777777777778,0.043840232386328906,-0.133147309374001,-0.18301839992556204
1592253901.6735125,-6.230015697165454,7.636574999245328,1.0962215111540434,0.06222222222222222,-0.7016077519847859,0.12474993543366773,0.07387657813242095,-0.20278569601748503,-0.24890050395967425
1592253901.6835124,-6.34381965391332,7.799774567391649,1.18,0.06222222222222222,-0.6933333333333334,0.11888888888888889,0.07638274565760864,-0.22060532963335414,-0.26778666166145154
1592253901.6935124,-5.870230387288977,7.601675131224288,1.1524795006383883,0.06222222222222222,-0.6933333333333334,0.11888888888888889,0.06872233929727672,-0.18508301837050012,-0.2581077713076236
1592253901.7035124,-5.733225483655771,6.7205553702468315,0.7787108072048032,0.06222222222222222,-0.6933333333333334,0.11888888888888889,0.08480827288439091,-0.1343180912316475,-0.1779866162559561
1592253901.7135124,-6.544049149792706,8.790724628973143,2.204290692783753,0.06222222222222222,-0.6933333333333334,0.11888888888888889,0.15741200081612605,-0.07068095831267909,0.01116648137854584
1592253901.7235124,-6.756561102831594,7.4745715350223545,2.391043219076006,0.05589335982778606,-0.6964977645305515,0.14420433846663355,0.3057114230918514,-0.048904089875937425,0.2805784217544517
1592253901.7335124,-6.503966898884549,7.090165505577256,1.3154737647485202,0.05333333333333334,-0.6977777777777778,0.15444444444444444,0.4165329853466949,-0.030807876118162297,0.42730898606752865
1592253901.7435124,-6.169069460652494,7.094625805469583,1.723398447409813,0.05333333333333334,-0.6977777777777778,0.15444444444444444,0.5760932566622655,-0.06213689606548715,0.6227047565316562
1592253901.7535124,-6.204226288721445,6.69,1.55169333811745,0.05333333333333334,-0.6977777777777778,0.15444444444444444,0.7342875812856358,-0.08252254246474337,0.7290396427941335
1592253901.7635124,-6.124456586886163,7.456235265912815,1.1870252127702081,0.05333333333333334,-0.6977777777777778,0.15444444444444444,0.7891867376516843,-0.09199859000772578,0.7873595187255719
1592253901.7735124,-5.89127831865245,7.39102364394993,0.9122688919796014,0.06176781881557033,-0.6847426638506843,0.17054664400144234,0.8645477054272394,-0.09098506444848828,0.8361583243818285
1592253901.7835124,-5.828125172754196,7.2239601184600195,0.8722929911154985,0.06555555555555556,-0.6788888888888889,0.17777777777777778,0.8836635600004658,-0.08135767023079786,0.8507344261113642
1592253901.7935123,-5.778230831225857,8.037202289970264,1.1313425784398188,0.06555555555555556,-0.6788888888888889,0.17777777777777778,0.8401258376695497,-0.034134639536579754,0.8470499438876339
1592253901.8035123,-5.678238297277136,8.59704681089146,0.2672992819843344,0.06555555555555556,-0.6788888888888889,0.17777777777777778,0.7524847806972403,0.0012610315104722297,0.8211613211731986
1592253901.8135123,-5.718626498283374,8.39546188286787,-0.0070281285763045265,0.06555555555555556,-0.6788888888888889,0.17777777777777778,0.6259099512952861,0.023541791459916236,0.7941107929187929
1592253901.8235123,-5.738273994522571,8.439188848201372,0.24593962519617196,0.048635019300926924,-0.6718386654494602,0.17777777777777778,0.45162015687373913,0.05319606815043114,0.7568094479011612
1592253901.8335123,-5.717742156825373,8.369699996188007,0.2600068615865513,0.03888888888888889,-0.6677777777777778,0.17777777777777778,0.35962519882434474,0.07396442303132984,0.7334966484997408
1592253901.8435123,-5.789544336020365,7.702375901569792,0.16073228680526094,0.03888888888888889,-0.6677777777777778,0.17777777777777778,0.16332462733916325,0.12025055673146123,0.6633591440118167
1592253901.8535123,-6.0138693395891085,8.23473519584844,0.02931968436766902,0.03888888888888889,-0.6677777777777778,0.17777777777777778,0.054754478723083644,0.14403688842257692,0.59983549431665
1592253901.8635123,-6.1165821308559005,8.415780984384266,0.1300403241747381,0.03888888888888889,-0.6677777777777778,0.17777777777777778,-0.053868799049434576,0.14981664888930732,0.5411306622712804
1592253901.8735123,-5.875104249142254,8.061380311427818,0.446565056743204,0.03888888888888889,-0.663529515263482,0.18769039031113458,-0.15623394373159225,0.15113346773314976,0.47605219966226375
1592253901.8835123,-5.7401108638639435,7.94066518318366,0.491578717317015,0.03888888888888889,-0.6611111111111111,0.19333333333333333,-0.19746165423196207,0.14852519776414402,0.4493376287877207
1592253901.8935122,-5.658815085764957,8.083052068611964,0.18851885720619616,0.03888888888888889,-0.6611111111111111,0.19333333333333333,-0.30476676102056305,0.12802475763741783,0.41425229225987686
1592253901.9035122,-5.593160218371707,7.954198908141467,0.10974032755755993,0.03888888888888889,-0.6611111111111111,0.19333333333333333,-0.3623070809668757,0.10821885442201287,0.40837209074031733
1592253901.9135122,-5.5782564062068145,7.860205117068741,0.1526153906897777,0.03888888888888889,-0.6611111111111111,0.19333333333333333,-0.40285220229502783,0.07080330348913122,0.41221656269331175
1592253901.9235122,-5.307244041624706,7.832977814397753,0.5706228447618176,0.03442098053377006,-0.6528135670230333,0.19014197022253415,-0.4296940206444338,0.023720684432254332,0.44301551153618446
1592253901.9335122,-5.106857250152561,7.731715251373046,0.938856499084636,0.03111111111111111,-0.6466666666666666,0.18777777777777777,-0.4119914197781361,0.02661610723531112,0.5105395807142926
1592253901.9435122,-5.423093470757883,8.174025814382299,0.46305044678738594,0.03111111111111111,-0.6466666666666666,0.18777777777777777,-0.4291679823215224,0.004663738680458232,0.5539248099891284
1592253901.9535122,-5.587346201655839,8.196924033116776,0.5343063536365129,0.03111111111111111,-0.6466666666666666,0.18777777777777777,-0.4137123810801633,0.0062344444590817,0.5888051894994324
1592253901.9635122,-5.532668734367184,8.123626413206603,0.7084458229114557,0.03111111111111111,-0.6466666666666666,0.18777777777777777,-0.39086504536718875,0.009421896726886647,0.6049504361047666
1592253901.9735122,-5.539734296225644,8.19,0.5680978334923015,0.01936829116894521,-0.6508111913521369,0.2022836141769239,-0.3716475636714821,-0.025622335335231006,0.5854793808263968
1592253901.9835122,-5.3478825786646205,8.1358944742901,0.6196016884113584,0.012222222222222223,-0.6533333333333333,0.2111111111111111,-0.3537687710015453,-0.04223176908079593,0.5652310063330589
1592253901.9935122,-5.179422726352036,8.265515495240024,0.7016872594693133,0.012222222222222223,-0.6533333333333333,0.2111111111111111,-0.2992347470552953,-0.04917510241320159,0.5168993467637688
1592253902.0035121,-5.256178525226391,8.34703234152652,0.6469107373868046,0.012222222222222223,-0.6533333333333333,0.2111111111111111,-0.26540886642200767,-0.051238001140574155,0.46461404138710044
1592253902.0135121,-5.155223393171982,8.16397239140888,0.8613403590318961,0.012222222222222223,-0.6533333333333333,0.2111111111111111,-0.21890608210780618,-0.05403998688032225,0.4164536747650479
1592253902.0235121,-5.2678403939111895,8.096503737952984,0.9738304260365689,0.0059068997841628225,-0.6533333333333333,0.19618398534842527,-0.13827762960458834,-0.04988660290187308,0.37420827669315604
1592253902.033512,-5.3615314989138305,8.143548153511949,0.9293555394641564,0.0,-0.6533333333333333,0.18222222222222223,-0.09007331791152036,-0.04261270025642202,0.36394135417248247
1592253902.043512,-5.339740748169692,8.320259251830308,0.6265389629926787,0.0,-0.6533333333333333,0.18222222222222223,0.02230114975239395,-0.07142419947532457,0.45270828567792454
1592253902.053512,-5.054209388118561,8.480863248950516,0.4851794937030912,0.0,-0.6533333333333333,0.18222222222222223,0.040266573099550895,-0.12855301313008557,0.5531411818789115
1592253902.063512,-4.810392435461277,8.54280308184911,0.5496005603362017,0.0,-0.6533333333333333,0.18222222222222223,0.027226433414337548,-0.1813408706229679,0.6316804594015674
1592253902.073512,-4.570443218753078,8.647158475327489,0.6700364424308086,-0.004657627192838461,-0.6498401129387045,0.1862976460159559,0.0010345326115097364,-0.20403767924529248,0.7062463730463668
1592253902.083512,-4.481558712577254,8.686882574845493,0.7715587125772534,-0.008888888888888889,-0.6466666666666666,0.19,-0.01303367240038004,-0.20125053087358585,0.7418223672844684
1592253902.093512,-4.510255481359323,8.634616777961016,0.7182116304847388,-0.008888888888888889,-0.6466666666666666,0.19,-0.05328152030806799,-0.12354651710439549,0.8260077447122142
1592253902.103512,-4.491643471869888,8.59731477749591,0.689699139382157,-0.008888888888888889,-0.6466666666666666,0.19,-0.08000437802240147,-0.07168673834924272,0.8921834858318194
1592253902.113512,-4.3988254267168845,8.608469829313247,0.7769396586264925,-0.008888888888888889,-0.6466666666666666,0.19,-0.09410648909280574,-0.05097400497922291,0.9490733275224559
1592253902.123512,-4.287506499645474,8.663209643110376,0.8771354289766012,-0.011983507970272329,-0.6492455159011529,0.1832949919903359,-0.09572111016539983,-0.05087845149596209,1.0090909208548093
1592253902.133512,-4.246506663426095,8.69074857212298,0.9214971442459594,-0.015555555555555555,-0.6522222222222223,0.17555555555555555,-0.0916297857297023,-0.057485328503503026,1.0418774147736163
1592253902.143512,-4.046307911617962,8.72,0.984899391414003,-0.015555555555555555,-0.6522222222222223,0.17555555555555555,-0.08788870085077702,-0.09848971723649234,1.11325534238149
1592253902.153512,-3.6776360424028267,8.774975265017668,1.0559703180212014,-0.015555555555555555,-0.6522222222222223,0.17555555555555555,-0.07200022798079257,-0.11497140594071585,1.165322113368103
1592253902.163512,-3.3570242732993707,8.879292777944261,1.0780731195684747,-0.015555555555555555,-0.6522222222222223,0.17555555555555555,-0.05123178135653493,-0.11392529472585776,1.2053281341205362
1592253902.173512,-3.205903654818934,9.043679273726173,0.9463207262738267,-0.035825339929055046,-0.6522222222222223,0.1859643637473526,-0.02043059438600804,-0.09239509573867431,1.235236957435812
1592253902.183512,-3.102323358407516,9.157389219196531,0.8557964063988437,-0.056666666666666664,-0.6522222222222223,0.19666666666666666,-0.002287043207121548,-0.07467204850069373,1.2453755943233566
1592253902.193512,-2.685460179364181,9.311394690581892,0.9444212376724369,-0.056666666666666664,-0.6522222222222223,0.19666666666666666,-0.014067469214596609,-0.055619434512645546,1.2503963510246954
1592253902.203512,-2.583949971867967,9.267899943735934,1.022100056264066,-0.056666666666666664,-0.6522222222222223,0.19666666666666666,-0.04120070115890203,-0.03492837301406811,1.2397400782943129
1592253902.213512,-2.6052655925985,9.231183601850375,1.0279590046259373,-0.056666666666666664,-0.6522222222222223,0.19666666666666666,-0.04707041838903414,-0.0043765474304276394,1.2239833055778748
1592253902.223512,-2.59803788398031,9.254641410679794,0.9523680603152844,-0.07976094045319543,-0.6483731765911341,0.18463839906951626,-0.028079665888817426,0.01777950862939508,1.2101697363521626
1592253902.233512,-2.5236127294157265,9.305895942077791,0.8860693719481394,-0.11,-0.6433333333333333,0.1688888888888889,-0.010980821715001535,0.019045402199828088,1.2062444629374045
1592253902.243512,-2.3637252999294285,9.460305222300635,0.7495421665490474,-0.11,-0.6433333333333333,0.1688888888888889,0.01092495511901642,0.006756491933857283,1.1994575516802406
1592253902.253512,-2.1671653506187387,9.560809899823218,0.6344938126104891,-0.11,-0.6433333333333333,0.1688888888888889,0.0030516264330133613,0.0076799886603703925,1.1933247028682274
1592253902.263512,-1.9997384651137846,9.603782691860776,0.6478269186077692,-0.11,-0.6433333333333333,0.1688888888888889,-0.018364134955804266,0.005691200320033844,1.1829346610412612
1592253902.273512,-1.9121167138810198,9.601882152974504,0.7532951841359773,-0.11511123701605289,-0.6418300283286119,0.17610475291155178,-0.04190088077105508,-0.005813602741434085,1.1608105746606263
1592253902.2835119,-1.81,9.58,0.87,-0.1288888888888889,-0.6377777777777778,0.19555555555555557,-0.05781403147231216,-0.01854412330243975,1.1377365061438036
1592253902.2935119,-1.5105667308028687,9.627218821059996,0.9005579849571453,-0.1288888888888889,-0.6377777777777778,0.19555555555555557,-0.05133086751784923,-0.0685387851232761,1.0848335982521589
1592253902.3035119,-1.2797418614656533,9.72014341029686,0.87,-0.1288888888888889,-0.6377777777777778,0.19555555555555557,-0.016306144645564045,-0.09764969176105714,1.0307662574579608
1592253902.3135118,-1.1567538019482795,9.81432826406896,0.87,-0.1288888888888889,-0.6377777777777778,0.19555555555555557,0.012943419343700151,-0.10592862099418612,0.9891067794178424
1592253902.3235118,-1.106521405610754,9.88782619812975,0.8808690093512566,-0.14096556594584064,-0.6377777777777778,0.19241561952074812,0.03087518112447541,-0.1044353724744714,0.9467468828392804
1592253902.3335118,-1.13,9.88,0.92,-0.18444444444444444,-0.6377777777777778,0.1811111111111111,0.03599741582238304,-0.0916297857297023,0.9032078879070654
1592253902.3435118,-1.213958777737762,9.755504058509018,0.9,-0.18444444444444444,-0.6377777777777778,0.1811111111111111,0.02842019582063328,-0.07563334173438353,0.8226477515417285
1592253902.3535118,-1.3609014465743698,9.656756522896698,0.8867565228966986,-0.18444444444444444,-0.6377777777777778,0.1811111111111111,0.03423848990874498,-0.0916693075318814,0.7689272526731279
1592253902.3635118,-1.3732828184473753,9.631094272815792,0.8818743029122776,-0.18444444444444444,-0.6377777777777778,0.1811111111111111,0.0574724624885109,-0.12276866422796731,0.7361748805801431
1592253902.3735118,-1.2856632653061224,9.621154336734694,0.9029017857142857,-0.18590915532879818,-0.6371017573696145,0.17964640022675737,0.09515063687142078,-0.17506373124984417,0.713231498077123
1592253902.3835118,-1.0690746845515517,9.72040013641014,0.839899965897465,-0.1988888888888889,-0.6311111111111111,0.16666666666666666,0.18435040224190105,-0.30543261909900765,0.6730425928003133
1592253902.3935118,-0.5891991171370013,9.953867255241999,0.7425476903673341,-0.1988888888888889,-0.6311111111111111,0.16666666666666666,0.1982274964137419,-0.31751912047448194,0.6578225540311975
1592253902.4035118,-0.35959036318563625,10.130409636814365,0.603672290548509,-0.1988888888888889,-0.6311111111111111,0.16666666666666666,0.2022931233268471,-0.3026269505533804,0.5750223801463742
1592253902.4135118,-0.28,10.21,0.54,-0.1988888888888889,-0.6311111111111111,0.16666666666666666,0.18435040224190105,-0.26616271092913524,0.5061454830783556
1592253902.4235117,-0.4393801931282282,10.077389774683734,0.7261501609401901,-0.20176002861158937,-0.6289577563190857,0.16774334406267932,0.17060906993915265,-0.25154052399159527,0.4860619974051079
1592253902.4335117,-0.54,9.96,0.81,-0.21666666666666667,-0.6177777777777778,0.17333333333333334,0.09926560120717749,-0.17562375598192942,0.3817907738737596
1592253902.4435117,-0.7172683164828015,9.792878052747133,0.9225853142872631,-0.21666666666666667,-0.6177777777777778,0.17333333333333334,0.1142711845275928,-0.13052188142190307,0.3428028797445846
1592253902.4535117,-0.7746869141357331,9.803671728533933,0.7822675290588676,-0.21666666666666667,-0.6177777777777778,0.17333333333333334,0.13421462107784174,-0.10238491915345017,0.3294992010535911
1592253902.4635117,-0.7914574080780741,9.818542591921926,0.6686771629529382,-0.21666666666666667,-0.6177777777777778,0.17333333333333334,0.139323062463008,-0.08744012058144474,0.3227342727706818
1592253902.4735117,-0.7717773398222258,9.845332019466678,0.5686719221332904,-0.22140623952593547,-0.6161979201580216,0.17471570875062006,0.12862216838977406,-0.06971730613496543,0.3192256638736535
1592253902.4835117,-0.78,9.87,0.47,-0.24333333333333335,-0.6088888888888889,0.1811111111111111,0.10799224746714915,-0.04908738521234052,0.3174317577064687
1592253902.4935117,-0.78,9.85,0.4395685608973509,-0.24333333333333335,-0.6088888888888889,0.1811111111111111,0.05967756419039314,-0.01219395564546355,0.3192124751046089
1592253902.5035117,-0.8660321913411474,9.798380685195312,0.45173058177409003,-0.24333333333333335,-0.6088888888888889,0.1811111111111111,0.029099151440303037,0.006240254381996796,0.32086875255397884
1592253902.5135117,-0.98,9.73,0.56,-0.24333333333333335,-0.6088888888888889,0.1811111111111111,0.014180800172453926,0.008726646259971648,0.3239767424014474
1592253902.5235116,-0.9604850948509485,9.651940379403795,0.638059620596206,-0.24333333333333335,-0.6088888888888889,0.1811111111111111,0.010987681284341334,-0.012560812994112306,0.3346204720284894
1592253902.5335116,-0.9494621788772597,9.65,0.6970252140818268,-0.24333333333333335,-0.6166666666666667,0.1811111111111111,0.02788860428558036,-0.0339917558082387,0.3684038099753232
1592253902.5435116,-0.9001601830663616,9.784279176201373,0.6540503432494279,-0.24333333333333335,-0.6166666666666667,0.1811111111111111,0.0370882466048795,-0.04036073895236887,0.3945512474667158
1592253902.5535116,1.5156776217295214,10.78623796963,0.29303985171455055,-0.24333333333333335,-0.6166666666666667,0.1811111111111111,0.05187267039847391,-0.08023388191085076,0.38142114966978113
1592253902.5635116,3.864956599193112,11.283154898091063,0.2274057320502297,-0.24333333333333335,-0.6166666666666667,0.1811111111111111,0.031929314478476925,-0.021814939119393834,0.21523085635571407
1592253902.5735116,1.0317243651870518,9.800249660786974,0.9756786198875751,-0.24333333333333335,-0.6161145786220413,0.1811111111111111,-0.05808717262463411,0.23779176483493752,-0.06052155001657794
1592253902.5835116,-4.05,9.28,1.05,-0.24333333333333335,-0.6088888888888889,0.1811111111111111,0.02399827721492203,0.09490227807719166,0.061086523819801536
1592253902.5935116,-1.0264797136038186,9.887040572792364,0.34727923627684965,-0.24333333333333335,-0.6088888888888889,0.1811111111111111,0.05028300343874027,0.06717786349365854,0.008255428189251221
1592253902.6035116,-0.9603748851158517,9.838125090698012,0.40068736999951626,-0.24333333333333335,-0.6088888888888889,0.1811111111111111,0.029684232009110252,-0.014623981507634488,-0.00039542813737863166
1592253902.6135116,-0.73,10.02,0.14,-0.24333333333333335,-0.6088888888888889,0.1811111111111111,0.028361600344907853,-0.07744898555724837,-0.004363323129985824
1592253902.6235116,-0.6245492825951341,9.8618239238927,0.5272606051154086,-0.2450492999237541,-0.6088888888888889,0.1811111111111111,0.003075064224737163,-0.14577340638910724,-0.0006944434270353295
1592253902.6335115,-0.57,9.78,0.7,-0.26222222222222225,-0.6088888888888889,0.1811111111111111,-0.009817477042468103,-0.1636246173744684,0.0032724923474893677
1592253902.6435115,-0.5920082662144976,9.788995866892751,0.6900275540483256,-0.26222222222222225,-0.6088888888888889,0.1811111111111111,-0.0004366328810395416,-0.14977241899294771,0.009380844161428563
1592253902.6535115,-0.55,9.81,0.55,-0.26222222222222225,-0.6088888888888889,0.1811111111111111,0.001090830782496456,-0.14289883250703572,0.01090830782496456
1592253902.6635115,-0.5408759430008382,9.884622799664712,0.4771898575020956,-0.26222222222222225,-0.6088888888888889,0.1811111111111111,-0.01189032983703597,-0.15281848921416769,0.008528916036405128
1592253902.6735115,-0.5888181056160938,9.772757753562447,0.5970452640402346,-0.26222222222222225,-0.6088888888888889,0.1811111111111111,-0.025836139639748408,-0.14846042365082004,0.0076573029237356
1592253902.6835115,-0.4320988553834583,9.793148283075189,0.7307199097468682,-0.2677777777777778,-0.5966666666666667,0.1811111111111111,-0.02705979237226489,-0.0937083045998405,0.019080552485746995
1592253902.6935115,-0.4238750350238162,9.735645839170637,0.8161249649761838,-0.2677777777777778,-0.5966666666666667,0.1811111111111111,-0.018147554812585686,-0.02594016384327486,0.023831244706478683
1592253902.7035115,-0.5206782931884784,9.760678293188478,0.7273304267028804,-0.2677777777777778,-0.5966666666666667,0.1811111111111111,0.0037164342012192537,0.029679158017226315,0.0264711440527778
1592253902.7135115,-0.5680520156513623,9.787994220483181,0.717994220483182,-0.2677777777777778,-0.5966666666666667,0.1811111111111111,0.025314209076256155,0.04995626715342585,0.026614379750457606
1592253902.7235115,-0.6358064400330259,9.780465951107441,0.7104659511074416,-0.2677777777777778,-0.5966666666666667,0.1811111111111111,0.034347483847637444,0.045029026369036045,0.024150759358262705
1592253902.7335114,-0.6702463664522278,9.812561591613058,0.6074384083869431,-0.2611111111111111,-0.6088888888888889,0.17333333333333334,0.04609431916322188,0.010440760649688676,0.025062233586432035
1592253902.7435114,-0.6822399924292609,9.822537143938677,0.5594056969811678,-0.2611111111111111,-0.6088888888888889,0.17333333333333334,0.04552192629338102,-0.02000895615979044,0.02098633723754916
1592253902.7535114,-0.6225364243163712,9.839951434244838,0.4449757171224192,-0.2611111111111111,-0.6088888888888889,0.17333333333333334,0.03928050357401351,-0.045245637814285464,0.018272740032333274
1592253902.7635114,-0.6093248071888487,9.86440511568669,0.46,-0.2611111111111111,-0.6088888888888889,0.17333333333333334,0.029266515989263903,-0.06304722905403723,0.016639549582148055
1592253902.7735114,-0.6464214957899951,9.842147102526003,0.46,-0.2611111111111111,-0.6088888888888889,0.17333333333333334,0.015508004638626557,-0.07518709201048195,0.013402252793762795
1592253902.7835114,-0.6376135040745052,9.857869615832364,0.5540628637951106,-0.2677777777777778,-0.6233333333333333,0.19555555555555557,-0.008079005166754893,-0.10703475455678554,0.006777373557838865
1592253902.7935114,-0.5560801198053164,9.900134780980906,0.5931074503931112,-0.2677777777777778,-0.6233333333333333,0.19555555555555557,-0.015433764920001335,-0.13023645571508416,0.0012382624232606717
1592253902.8035114,-0.4379744843209729,9.825285084058661,0.5471830213425539,-0.2677777777777778,-0.6233333333333333,0.19555555555555557,-0.012599791370037042,-0.1448354050620684,0.004118234120025609
1592253902.8135114,-0.5216421862862792,9.743329567120966,0.71,-0.2677777777777778,-0.6233333333333333,0.19555555555555557,-0.00800271237861428,-0.14271846528175391,0.002364493770504905
1592253902.8235114,-0.6179028670291646,9.758138902619871,0.71,-0.2677777777777778,-0.6233333333333333,0.19555555555555557,0.004920870845804575,-0.13706439762107067,-0.0016741259871259867
1592253902.8335114,-0.6178744488170309,9.815574889763406,0.5993381063012659,-0.25555555555555554,-0.6088888888888889,0.19555555555555557,0.008601224769878532,-0.1354416586076148,0.003629775503597922
1592253902.8435113,-0.6745320263193232,9.83,0.49937603509243095,-0.25555555555555554,-0.6088888888888889,0.19555555555555557,0.0032044283346519807,-0.13336257116179642,-0.0005283993880388812
1592253902.8535113,-0.6071721660206107,9.83415051526898,0.44622577290346976,-0.25555555555555554,-0.6088888888888889,0.19555555555555557,-0.004857120784008045,-0.13326668428333913,0.001996332746221414
1592253902.8635113,-0.5289294872928568,9.842558760589286,0.5027414534071415,-0.25555555555555554,-0.6088888888888889,0.19555555555555557,-0.012044706446243121,-0.12656200991342523,0.005941181893030235
1592253902.8735113,-0.573436853368233,9.805469288859806,0.6659351290168544,-0.25555555555555554,-0.6088888888888889,0.19555555555555557,-0.017708873691909995,-0.11037867492580561,0.00836868214117318
1592253902.8835113,-0.51,9.79,0.74,-0.2822222222222222,-0.6166666666666667,0.1811111111111111,-0.01308996938995747,-0.08726646259971647,0.017453292519943295
1592253902.8935113,-0.4561666936922329,9.79,0.7072223123074428,-0.2822222222222222,-0.6166666666666667,0.1811111111111111,-0.0054299210898453385,-0.04885107097115107,0.021537849748645768
1592253902.9035113,-0.4390015360983103,9.787749615975422,0.6290015360983103,-0.2822222222222222,-0.6166666666666667,0.1811111111111111,0.0036545344648613986,-0.01254371618704834,0.01742564473513348
1592253902.9135113,-0.48664962711389653,9.78,0.6615136024648998,-0.2822222222222222,-0.6166666666666667,0.1811111111111111,0.01004751358891172,0.006014407291160916,0.008991934961880558
