time,acc_x,acc_y,acc_z,mag_x,mag_y,mag_z,gyr_x,gyr_y,gyr_z
1592254054.123367,-0.35,9.81,1.0606720541386945,-0.38222222222222224,-0.6533333333333333,-0.07777777777777778,-0.048106519031142866,0.027307424429510996,0.0010541759153968558
1592254054.133367,-0.3554033932278617,9.782983033860692,1.1070169661393083,-0.38222222222222224,-0.6467291860548356,-0.062167975119510666,-0.05303730307619876,0.03071927541006162,-0.0005894187662884422
1592254054.143367,-0.36,9.766353652678921,1.1427073053578445,-0.38222222222222224,-0.6411111111111111,-0.04888888888888889,-0.05176923515543898,0.032031847482547726,-0.002476982767188363
1592254054.153367,-0.37929275687243635,9.776430918957479,1.0921217293826908,-0.38222222222222224,-0.6411111111111111,-0.04888888888888889,-0.04386467607213488,0.0330371015641088,-0.003973996783345156
1592254054.163367,-0.3967002470557195,9.759899258832842,1.0801007411671584,-0.38222222222222224,-0.6411111111111111,-0.04888888888888889,-0.037437204656884854,0.029430452814164114,-0.00582509027772783
1592254054.173367,-0.3950891192612597,9.76473264221622,1.0998217614774808,-0.38222222222222224,-0.6411111111111111,-0.04888888888888889,-0.031711863919193554,0.020306747719728475,-0.0060092907070800495
1592254054.183367,-0.4057119355104055,9.774762688163198,1.0995253763263964,-0.38920530467129133,-0.6515857347847148,-0.05296235365084588,-0.0284133737562347,0.009662156808487568,-0.00602545600939393
1592254054.193367,-0.4143393349789458,9.772830332510527,1.0843393349789459,-0.39555555555555555,-0.6611111111111111,-0.056666666666666664,-0.028526206979249288,0.000987639806048591,-0.007471208843133759
1592254054.203367,-0.36001647276845467,9.797135797384948,1.018592607845156,-0.39555555555555555,-0.6611111111111111,-0.056666666666666664,-0.027426089131256513,-0.023682247376360824,-0.01044055221813889
1592254054.213367,-0.34235245260895053,9.834704905217901,0.9738237736955248,-0.39555555555555555,-0.6611111111111111,-0.056666666666666664,-0.03105648745394224,-0.040392475796758975,-0.015624360265774732
1592254054.223367,-0.35,9.85,0.9838601855757064,-0.39555555555555555,-0.6611111111111111,-0.056666666666666664,-0.038268599736494796,-0.049342686849506406,-0.022575887856331474
1592254054.233367,-0.3226803585064909,9.845446726417748,1.0182130943290062,-0.4016265869985576,-0.6611111111111111,-0.05970218238816768,-0.04969091306700255,-0.05792087422850942,-0.0307475652516649
1592254054.243367,-0.33664092935930534,9.813348040366112,1.0599889697254166,-0.4088888888888889,-0.6611111111111111,-0.06333333333333334,-0.06580784220119384,-0.06399500483435691,-0.03854068228769895
1592254054.253367,-0.39064441251243504,9.769355587487565,1.045484469990052,-0.4088888888888889,-0.6611111111111111,-0.06333333333333334,-0.07758957455828638,-0.062353344058485874,-0.04102929632197055
1592254054.263367,-0.4333419317856119,9.75,1.047506448839209,-0.4088888888888889,-0.6611111111111111,-0.06333333333333334,-0.08435851845870199,-0.060449971376934586,-0.03890535996339753
1592254054.273367,-0.4322631540855468,9.76330263443584,1.07330263443584,-0.4088888888888889,-0.6611111111111111,-0.06333333333333334,-0.08714302669261412,-0.05854460072421392,-0.0361208517294854
1592254054.283367,-0.35504120982986764,9.775772400756143,1.1195931947069944,-0.4088888888888889,-0.6611111111111111,-0.06662146607855493,-0.08743497430396148,-0.0544174029941871,-0.0330619468833837
1592254054.293367,-0.2735584748013813,9.757116949602763,1.2115322015889498,-0.4088888888888889,-0.6611111111111111,-0.07111111111111111,-0.0939049071873879,-0.041431787215301566,-0.030543261909900768
1592254054.303367,-0.33630854787964726,9.707803651349316,1.2701402490362033,-0.4088888888888889,-0.6611111111111111,-0.07111111111111111,-0.102777678026393,-0.023503809474879157,-0.031200820138716764
1592254054.313367,-0.37436772983114447,9.68,1.3068968105065666,-0.4088888888888889,-0.6611111111111111,-0.07111111111111111,-0.0996667322266321,-0.009742162646978667,-0.03593479026526411
1592254054.3233669,-0.35289957100429,9.688550214497855,1.3242751072489276,-0.4088888888888889,-0.6611111111111111,-0.07111111111111111,-0.08697446648166508,-0.0082522050638446,-0.0397362500284328
1592254054.3333669,-0.3384601113172542,9.7,1.3469202226345085,-0.4065388579674294,-0.6526509997938569,-0.06500103071531643,-0.06851388740377554,-0.012921993592281765,-0.04082216644477925
1592254054.3433669,-0.3562267289506665,9.687546542098666,1.4260405605559987,-0.4033333333333333,-0.6411111111111111,-0.056666666666666664,-0.05102172385866328,-0.010105415604264593,-0.04213080049623022
1592254054.3533669,-0.35424829492669885,9.674248294926699,1.4369931797067954,-0.4033333333333333,-0.6411111111111111,-0.056666666666666664,-0.03498486345033153,0.0005205625520621274,-0.043169814211941576
1592254054.3633668,-0.4058635805293962,9.658827283894121,1.5037953707940943,-0.4033333333333333,-0.6411111111111111,-0.056666666666666664,-0.01642990465800534,0.016904395949507687,-0.04363323129985824
1592254054.3733668,-0.36935772562268626,9.65848866046077,1.582732990691155,-0.4033333333333333,-0.6411111111111111,-0.056666666666666664,0.0009960304794350873,0.029718954063802643,-0.04502218511977349
1592254054.3833668,-0.30404872089148866,9.673670726740957,1.5926585465180854,-0.39558402132464554,-0.6455975549056145,-0.061968827514716225,0.028595710375863087,0.03439575913311536,-0.04930820868124913
1592254054.3933668,-0.2739883949142418,9.717104061780015,1.521693617202833,-0.38222222222222224,-0.6533333333333333,-0.07111111111111111,0.0725314274936778,0.02989948186045618,-0.05807633722750245
1592254054.4033668,-0.13562284893653898,9.75,1.4206920543739323,-0.38222222222222224,-0.6533333333333333,-0.07111111111111111,0.10343264664145921,0.02943733284311938,-0.07401041208262477
1592254054.4133668,-0.08438119913114024,9.77247520347544,1.3138119913114026,-0.38222222222222224,-0.6533333333333333,-0.07111111111111111,0.13864887173441542,0.031156178004747775,-0.09904686980900712
1592254054.4233668,-0.011272271107555812,9.877055123263762,1.1829448767362374,-0.38222222222222224,-0.6533333333333333,-0.07111111111111111,0.16639342053182896,0.03313349913813621,-0.11807951692407949
1592254054.4333668,0.06545008244640983,9.989099835107181,1.0663502473392295,-0.3882887789603425,-0.6533333333333333,-0.06757228634720765,0.1869355452873032,0.037388180102525155,-0.13566649850996976
1592254054.4433668,0.0790880854764567,10.007469250838614,1.0450204994409245,-0.39555555555555555,-0.6533333333333333,-0.06333333333333334,0.19485132563001828,0.04158289226291093,-0.1448044321632269
1592254054.4533668,0.10235947567207287,10.253087091757386,0.8516924016885137,-0.39555555555555555,-0.6533333333333333,-0.06333333333333334,0.17576026130035666,0.09543927170223421,-0.19722328394613955
1592254054.4633667,-0.03635370001172744,10.203977952386536,0.9482319690395216,-0.39555555555555555,-0.6533333333333333,-0.06333333333333334,0.13082738974122277,0.1334550037053927,-0.28999823982442646
1592254054.4733667,0.19681075382182395,10.146220347917764,1.1137005798629416,-0.39555555555555555,-0.6533333333333333,-0.06333333333333334,0.09184887193325061,0.14398966328953217,-0.3720676016538162
1592254054.4833667,0.23808104738154615,10.15264089775561,1.1836795511221945,-0.39555555555555555,-0.6599197838736492,-0.06991978387364921,0.08123615417418495,0.14050784568340663,-0.4577724424133556
1592254054.4933667,0.22048297308711176,10.122695128037778,1.2032341536453335,-0.39555555555555555,-0.6677777777777778,-0.07777777777777778,0.09000365341298426,0.13506027921645095,-0.5068712936627393
1592254054.5033667,0.41318680695385834,10.150374918465161,1.0244990215819176,-0.39555555555555555,-0.6677777777777778,-0.07777777777777778,0.13281552327279791,0.1230593921207382,-0.6418076041584249
1592254054.5133667,0.14417796789432863,10.225822032105672,0.6052657061602463,-0.39555555555555555,-0.6677777777777778,-0.07777777777777778,0.15587014805861696,0.1304830466378089,-0.7723702385815769
1592254054.5233667,-0.060001255672951004,10.287419233321973,0.46161282221464833,-0.39555555555555555,-0.6677777777777778,-0.07777777777777778,0.15292734530011326,0.1500422312330889,-0.8625660418992257
1592254054.5333667,-0.43116139767054906,10.199199482344241,0.45708005176557587,-0.3888688399991783,-0.6677777777777778,-0.07266440705819519,0.08093048826210127,0.19459340210763917,-0.9709292200547769
1592254054.5433667,-0.78,10.07,0.47,-0.37666666666666665,-0.6677777777777778,-0.06333333333333334,-0.02617993877991494,0.21925698728178766,-1.064650843716541
1592254054.5533667,-0.6187265781842516,9.876242192728084,0.5821015503011376,-0.37666666666666665,-0.6677777777777778,-0.06333333333333334,-0.0631982899705022,0.2172559953255397,-1.0831600193118347
1592254054.5633667,-0.634249857387336,9.881416619129112,0.684249857387336,-0.37666666666666665,-0.6677777777777778,-0.06333333333333334,-0.13435165788322212,0.23358319007423206,-1.1529034928451374
1592254054.5733666,-0.847253987685882,9.839517697043892,0.7561286141216289,-0.37666666666666665,-0.6677777777777778,-0.06333333333333334,-0.16872661671971403,0.25111976834890437,-1.216011853068147
1592254054.5833666,-1.1107949107038637,9.739735029765379,0.793686626979495,-0.3648809601009904,-0.681084220674509,-0.06599462191267957,-0.19517450290479127,0.2526994966887333,-1.262093719492836
1592254054.5933666,-1.17,9.72,0.82,-0.3422222222222222,-0.7066666666666667,-0.07111111111111111,-0.2159844949342983,0.25198191075668136,-1.2893619849108109
1592254054.6033666,-1.5023446893787575,9.565103540414162,0.9743620574482298,-0.3422222222222222,-0.7066666666666667,-0.07111111111111111,-0.24577357524107024,0.24775776510128256,-1.3352708772218491
1592254054.6133666,-1.5545881795570295,9.504588179557029,1.0365100082908918,-0.3422222222222222,-0.7066666666666667,-0.07111111111111111,-0.24369586039087873,0.24708814644931573,-1.3716534684418358
1592254054.6233666,-1.5902799400386498,9.501603063085842,1.0977353753905617,-0.3422222222222222,-0.7066666666666667,-0.07111111111111111,-0.2374513764721633,0.2493061847447335,-1.4000188666647448
1592254054.6333666,-1.6754623773546202,9.500881679258828,1.1291183207411712,-0.32765588260990125,-0.7106117169783369,-0.07111111111111111,-0.23165022864503212,0.2504922784156735,-1.4285074436324476
1592254054.6433666,-1.69,9.324909271266815,1.1950108874479821,-0.28888888888888886,-0.7211111111111111,-0.07111111111111111,-0.22307212386906483,0.23779477652374645,-1.4611713960630233
1592254054.6533666,-1.815468473777254,9.22509369475545,1.144756393635828,-0.28888888888888886,-0.7211111111111111,-0.07111111111111111,-0.21487731133205715,0.22797954533682313,-1.4474629488888822
1592254054.6633666,-2.065036050759469,9.315018746394925,1.0850014420303788,-0.28888888888888886,-0.7211111111111111,-0.07111111111111111,-0.21434934986834212,0.22634723006690194,-1.4246237435314704
1592254054.6733665,-2.2734930720080406,9.300302067628689,1.1659027927345826,-0.28888888888888886,-0.7211111111111111,-0.07111111111111111,-0.22230601163890776,0.2183502327254566,-1.4297833456315037
1592254054.6833665,-2.4819583529156577,9.185990745092369,1.263348758179386,-0.2734903936147564,-0.7296987334755312,-0.0728878605658187,-0.22936518427395258,0.20587629794213336,-1.4470951065059852
1592254054.6933665,-2.68,9.23,1.19,-0.2311111111111111,-0.7533333333333333,-0.07777777777777778,-0.2301652951067522,0.20507618710933373,-1.451895771502783
1592254054.7033665,-2.715872882582887,9.155872882582887,1.2757257854350659,-0.2311111111111111,-0.7533333333333333,-0.07777777777777778,-0.23854316610972875,0.18345000489758823,-1.4542963257077843
1592254054.7133665,-3.403447055791175,9.011626637298779,1.3994577875670735,-0.2311111111111111,-0.7533333333333333,-0.07777777777777778,-0.22922232982737784,0.18063431338504538,-1.4543419040030918
1592254054.7233665,-3.7353697230438287,8.921281168772968,1.3948710226763468,-0.2311111111111111,-0.7533333333333333,-0.07777777777777778,-0.2114809486701136,0.16689617112058533,-1.4861317258620832
1592254054.7333665,-3.007985313805834,8.814805874477665,1.3600352955495152,-0.21661568420625582,-0.7538908497527508,-0.07415392105156396,-0.18104710871689464,0.11208190036471344,-1.5219749115205983
1592254054.7433665,-3.42,8.65,1.39,-0.17333333333333334,-0.7555555555555555,-0.06333333333333334,-0.15489797111449674,0.1112647398146385,-1.5162547876700738
1592254054.7533665,-3.6710957594953992,8.752159571853753,1.3797340469104116,-0.17333333333333334,-0.7555555555555555,-0.06333333333333334,-0.12220205862128539,0.04800003932189419,-1.4868023565426693
1592254054.7633665,-3.57,8.77,1.35,-0.17333333333333334,-0.7555555555555555,-0.06333333333333334,-0.12544553998709243,0.02399827721492203,-1.4868023565426693
1592254054.7733665,-3.82,8.601480887044685,1.4360327650662543,-0.17333333333333334,-0.7555555555555555,-0.06333333333333334,-0.11955267101875418,0.01832476577451177,-1.460945497197503
1592254054.7833664,-3.9084803424580374,8.551613533100522,1.5620731478352297,-0.1659599714618302,-0.7580133428460566,-0.06988743277466945,-0.10448848965467628,0.013205602122449209,-1.4269422442154416
1592254054.7933664,-4.3,8.78,1.35,-0.13333333333333333,-0.7688888888888888,-0.09888888888888889,-0.09381144729469522,0.01854412330243975,-1.3744467859455345
1592254054.8033664,-4.232511837526385,8.599431228250328,1.405853157624508,-0.13333333333333333,-0.7688888888888888,-0.09888888888888889,-0.12557479182891143,0.02362863063793367,-1.3507793859780615
1592254054.8133664,-4.216227245544791,8.30924434876211,1.7935852170792967,-0.13333333333333333,-0.7688888888888888,-0.09888888888888889,-0.14423634943276198,-0.005927669190797389,-1.3981364054083658
1592254054.8233664,-4.26,8.26,1.81,-0.13333333333333333,-0.7688888888888888,-0.09888888888888889,-0.1287180323345818,-0.01308996938995747,-1.401717555507946
1592254054.8333664,-4.6196641959130185,8.32017936852451,1.7573459191613088,-0.12377133470749098,-0.7710538697098342,-0.09780639847841617,-0.08499197387693547,0.000615661159112419,-1.3831172355912147
1592254054.8433664,-4.36,7.96,1.95,-0.07444444444444444,-0.7822222222222223,-0.09222222222222222,-0.06763150851478027,-0.01308996938995747,-1.3940817400304706
1592254054.8533664,-4.703050988386128,8.045678459351448,2.103560872247405,-0.07444444444444444,-0.7822222222222223,-0.09222222222222222,0.0022090179145794267,0.005879362285253275,-1.4050730239061595
1592254054.8633664,-4.69,8.0,1.96,-0.07444444444444444,-0.7822222222222223,-0.09222222222222222,0.0370882466048795,0.008726646259971648,-1.4257158327228678
1592254054.8733664,-4.724337911427885,7.779668254985185,1.9426679746936812,-0.07444444444444444,-0.7822222222222223,-0.09222222222222222,0.10319314237524423,0.03643411503610129,-1.4802576775982903
1592254054.8833663,-5.1260128995474465,7.912601289954745,1.9953729109503615,-0.06909734842635815,-0.7830893188738038,-0.09410093163398227,0.15246745879692775,0.06455438072249979,-1.5093190738646773
1592254054.8933663,-5.3,7.93,1.63,-0.03333333333333333,-0.7888888888888889,-0.10666666666666667,0.17998707911191522,0.05126904677733343,-1.53588974175501
1592254054.9033663,-5.698444904531861,7.694311019093628,1.3139567517828388,-0.03333333333333333,-0.7888888888888889,-0.10666666666666667,0.2147433518355572,0.0597240518314039,-1.5070965267457603
1592254054.9133663,-5.835303856828404,7.737140874724854,1.3408218489807637,-0.03333333333333333,-0.7888888888888889,-0.10666666666666667,0.2093950637654323,0.024176819979374566,-1.4689934922316281
1592254054.9233663,-5.93,7.82,1.11,-0.03333333333333333,-0.7888888888888889,-0.10666666666666667,0.20616701789183017,0.00545415391248228,-1.4431691252428112
1592254054.9333663,-6.102779675658695,7.772926139710213,1.0281957042447087,-0.026287177742001632,-0.7888888888888889,-0.10483466621292042,0.18880414606462062,-0.017533176267905595,-1.3680666658864307
1592254054.9433663,-5.64,7.38,1.36,0.022222222222222223,-0.7888888888888889,-0.09222222222222222,0.16689710972195776,-0.05563236990731925,-1.3166327544732224
1592254054.9533663,-6.115477484678924,7.727936317612577,1.0074313882227552,0.022222222222222223,-0.7888888888888889,-0.09222222222222222,0.13524505450828203,-0.06484635855285227,-1.2764061240535056
1592254054.9633663,-6.032359577417659,7.450388163870166,0.8159448348391415,0.022222222222222223,-0.7888888888888889,-0.09222222222222222,0.09336909739613804,-0.07581886647451871,-1.2592733270814973
1592254054.9733663,-6.39035282546495,7.528588698140201,0.9044527896995708,0.022222222222222223,-0.7888888888888889,-0.09222222222222222,0.06210964584610977,-0.06362383679442384,-1.2261800399210345
1592254054.9833663,-6.454105370323238,7.339956731992873,1.3192135403410539,0.026647436441277116,-0.788335737111507,-0.09102372670456152,0.007006970549413478,-0.07044673481524198,-1.1897532259415653
1592254054.9933662,-6.61,7.45,1.2,0.07555555555555556,-0.7822222222222223,-0.07777777777777778,-0.011999138607461015,-0.07744898555724837,-1.1377365061438036
1592254055.0033662,-6.933100188504065,7.112647216048167,1.3045696761668963,0.07555555555555556,-0.7822222222222223,-0.07777777777777778,-0.030254495434574848,-0.103095861853378,-1.0230510390921206
1592254055.0133662,-7.15441092228375,7.11854735535612,1.1626661256444528,0.07555555555555556,-0.7822222222222223,-0.07777777777777778,-0.01644265456755208,-0.1288223871602512,-0.8879140216674042
1592254055.0233662,-6.929380542003489,6.970949040276343,1.2512389159930202,0.07555555555555556,-0.7822222222222223,-0.07777777777777778,-0.0025478227044043143,-0.16374012555906842,-0.7922254215827234
1592254055.0333662,-7.144103840682788,7.0145914335388015,0.837295716769401,0.07768347294663085,-0.7825262104209473,-0.07777777777777778,0.020480533280882764,-0.1758724557454431,-0.703220434156476
1592254055.0433662,-7.23,7.32,0.99,0.12222222222222222,-0.7888888888888889,-0.07777777777777778,0.038179077387375956,-0.1810779098944117,-0.581412807070611
1592254055.0533662,-6.87260871840494,6.70720498194568,1.1580823172327177,0.12222222222222222,-0.7888888888888889,-0.07777777777777778,0.01368704639919509,-0.2262982660174291,-0.5101234562058692
1592254055.0633662,-7.0717777134028585,6.899038238702202,1.3532203553495559,0.12222222222222222,-0.7888888888888889,-0.07777777777777778,-0.004253249919507956,-0.24593525750550238,-0.4582065459175368
1592254055.0733662,-6.544429909877755,6.843544391897921,1.2086503078433122,0.12222222222222222,-0.7888888888888889,-0.07777777777777778,-0.03735984955084881,-0.28802996012711957,-0.4242134720893177
1592254055.0833662,-6.2188060965283665,6.907703861870927,1.6018786584692413,0.12277886176866407,-0.7887497290022784,-0.07777777777777778,-0.07304225087198961,-0.2915022887417594,-0.39821941714967984
1592254055.0933661,-7.57,6.8,1.69,0.14888888888888888,-0.7822222222222223,-0.07777777777777778,-0.12217304763960307,-0.30325095753401476,-0.3501566811813624
1592254055.1033661,-6.586728239497078,6.756536597524163,1.9358658506189592,0.14888888888888888,-0.7822222222222223,-0.07777777777777778,-0.12230968470042533,-0.3189108395404106,-0.28415134400951
1592254055.1133661,-6.89,6.98,1.88,0.14888888888888888,-0.7822222222222223,-0.07777777777777778,-0.08835729338221293,-0.29888763440402893,-0.234528618236738
1592254055.123366,-6.464640061991476,6.82743432777993,2.0597714064316155,0.14888888888888888,-0.7822222222222223,-0.07777777777777778,-0.07098066754337963,-0.2780736448158264,-0.1876995612705004
1592254055.133366,-6.919659046881054,7.136197210383573,1.8972646261139092,0.14888888888888888,-0.7822222222222223,-0.07777777777777778,-0.047935905759837,-0.2541425460406091,-0.1646547994869578
1592254055.143366,-6.29,6.76,2.18,0.16,-0.7822222222222223,-0.07777777777777778,-0.05126904677733343,-0.2574360646691636,-0.16253378659197193
1592254055.153366,-6.7547976206570235,6.853868054616736,2.2395552250912534,0.16,-0.7822222222222223,-0.07777777777777778,-0.03112983599675461,-0.22956400357876097,-0.15913045943709703
1592254055.163366,-6.442764231521687,6.895925943598797,2.2,0.16,-0.7822222222222223,-0.07777777777777778,-0.020137505557236788,-0.210602275370311,-0.17052828484475768
1592254055.173366,-6.38,6.61,2.2,0.16,-0.7822222222222223,-0.07777777777777778,-0.008726646259971648,-0.20071286397934787,-0.17889624832941878
1592254055.183366,-6.757241035856574,6.704310258964143,2.058534611553785,0.16,-0.7822222222222223,-0.07777777777777778,0.034481497845014336,-0.1791087919268549,-0.1706661256427548
1592254055.193366,-6.456692576758647,7.001507190050525,2.1405682083171396,0.16,-0.7888888888888889,-0.07777777777777778,0.06588957088589514,-0.15906491926645988,-0.1634047554064145
1592254055.203366,-6.57,6.79,1.71,0.16,-0.7888888888888889,-0.07777777777777778,0.08072147790473774,-0.148352986419518,-0.15598880189699318
1592254055.213366,-6.689653553167067,6.755524366064907,1.78483147239904,0.16,-0.7888888888888889,-0.07777777777777778,0.07500380805137272,-0.12089428389019628,-0.14116861984983586
1592254055.223366,-6.666329042297355,6.936123390861508,1.8697943485641533,0.16,-0.7888888888888889,-0.07777777777777778,0.06780929510627606,-0.1214602231317668,-0.14312148528186874
1592254055.233366,-6.72566275286462,6.958373532324233,1.8327107794596125,0.16,-0.7888888888888889,-0.07777777777777778,0.060527953339543854,-0.11094272946870917,-0.14393052325595007
1592254055.243366,-6.89,6.83,1.79,0.18666666666666668,-0.7822222222222223,-0.08444444444444445,0.04799655442984406,-0.12217304763960307,-0.13635384781205698
1592254055.253366,-6.986597825461658,6.946381522176839,1.6354277167347409,0.18666666666666668,-0.7822222222222223,-0.08444444444444445,0.03195908910398033,-0.14251591532157906,-0.11977150049318765
1592254055.263366,-6.9089994527327665,6.981703190805911,1.514215861232065,0.18666666666666668,-0.7822222222222223,-0.08444444444444445,0.018883205638617295,-0.14838241992910353,-0.052377657060769994
1592254055.273366,-7.18,6.74,1.69,0.18666666666666668,-0.7822222222222223,-0.08444444444444445,-0.001090830782496456,-0.17235126363444003,-0.007635815477475192
1592254055.283366,-6.810182482863671,6.7752207159177456,1.6107533891850725,0.18666666666666668,-0.7822222222222223,-0.08444444444444445,-0.02894521558336034,-0.19540316829722396,0.034626009737628624
1592254055.293366,-6.5,6.64,2.01,0.17888888888888888,-0.7888888888888889,-0.07777777777777778,-0.04799655442984406,-0.22798363354175932,0.03599741582238304
1592254055.303366,-6.825302452901079,6.708597498792336,2.0243899951693414,0.17888888888888888,-0.7888888888888889,-0.07777777777777778,-0.02604685637056416,-0.2643802965921947,0.021111390123914955
1592254055.313366,-6.49,6.7,1.99,0.17888888888888888,-0.7888888888888889,-0.07777777777777778,-0.01854412330243975,-0.2868884957965679,-0.0032724923474893677
1592254055.323366,-6.616104522890237,6.848441809156094,1.946489244346387,0.17888888888888888,-0.7888888888888889,-0.07777777777777778,0.0001559833868517409,-0.27986157207413215,-0.026873816661831123
1592254055.333366,-6.574792766527461,6.831917106610984,2.227409187613269,0.17888888888888888,-0.7888888888888889,-0.07777777777777778,-0.00975812642744062,-0.2978872262819364,-0.04580075358002563
1592254055.343366,-6.58,6.95,1.81,0.17777777777777778,-0.7822222222222223,-0.06888888888888889,0.015271630954950384,-0.2530727415391778,-0.05017821599483697
1592254055.353366,-6.73914739728974,6.6882947945794795,2.1387819961281997,0.17777777777777778,-0.7822222222222223,-0.06888888888888889,0.020818789395591845,-0.2376549606114058,-0.04919367610166529
1592254055.363366,-6.690989845307013,6.605561355224447,2.04,0.17777777777777778,-0.7822222222222223,-0.06888888888888889,0.026610701509910933,-0.22755287081176329,-0.057544662420774176
1592254055.3733659,-6.807785335815552,6.982102964341974,2.048948517829013,0.17777777777777778,-0.7822222222222223,-0.06888888888888889,0.013497507863061501,-0.23988515896216425,-0.05504669078498289
1592254055.3833659,-6.537495345839897,6.831941858799943,2.1240290706000287,0.17777777777777778,-0.7822222222222223,-0.06888888888888889,0.007764495393998384,-0.23906615718086952,-0.0501326800972145
1592254055.3933659,-6.675731554716091,6.570421910046039,1.9821588950537126,0.19111111111111112,-0.7744444444444445,-0.06333333333333334,0.01673603039522304,-0.22784556380206,-0.0545415391248228
1592254055.4033659,-6.487367057232988,6.634084046867959,2.0087021180712035,0.19111111111111112,-0.7744444444444445,-0.06333333333333334,0.041318349751964675,-0.20974343368739454,-0.05590716684621764
1592254055.4133658,-7.047139971002781,6.69499940579469,1.8892876666745895,0.19111111111111112,-0.7744444444444445,-0.06333333333333334,0.0520092394902251,-0.1999726712664562,-0.06548889315895808
1592254055.4233658,-6.472789329148686,6.575464888191448,2.2750176539819535,0.19111111111111112,-0.7744444444444445,-0.06333333333333334,0.050875765690980256,-0.2007655011650078,-0.08484558000396031
1592254055.4333658,-6.7869242840329544,6.627820714005492,2.035676735974892,0.19111111111111112,-0.7744444444444445,-0.06333333333333334,0.06800916962327501,-0.18036859172179975,-0.09300434378124353
1592254055.4433658,-6.19,6.47,2.18,0.19666666666666666,-0.7822222222222223,-0.06333333333333334,0.074176493209759,-0.17344209441693648,-0.11453723216212788
1592254055.4533658,-7.580411295273174,6.73890423572744,2.166547984448537,0.19666666666666666,-0.7822222222222223,-0.06333333333333334,0.09865891447363434,-0.16655939190449978,-0.09833615177433214
1592254055.4633658,-6.437623805948899,6.331570063941598,2.03,0.19666666666666666,-0.7822222222222223,-0.06333333333333334,0.12060777931078848,-0.19355148604819084,-0.10245978778025222
1592254055.4733658,-6.7340433324576185,6.608989166885595,2.0388086664915233,0.19666666666666666,-0.7822222222222223,-0.06333333333333334,0.14545066751239769,-0.16846837873253914,-0.08013077488893687
1592254055.4833658,-6.9933148402849685,6.544171289928758,2.0906629680569937,0.19666666666666666,-0.7822222222222223,-0.06333333333333334,0.14120834738596252,-0.1712965921501626,-0.07023202792725482
1592254055.4933658,-6.950796492896002,6.587909206147995,1.8824890403000052,0.19666666666666666,-0.7955555555555556,-0.08444444444444445,0.14051082168690568,-0.17985675326656547,-0.056723200689815706
1592254055.5033658,-6.979264136328428,6.382029434546863,2.13,0.19666666666666666,-0.7955555555555556,-0.08444444444444445,0.12032345152582713,-0.1675612406243917,-0.056612512206076715
1592254055.5133657,-6.580169895962585,6.411945213324425,2.1096931373484775,0.19666666666666666,-0.7955555555555556,-0.08444444444444445,0.12358963358204375,-0.17213907377715953,-0.05498085958743077
1592254055.5233657,-7.352646466100476,6.607306751115589,1.8151169569598389,0.19666666666666666,-0.7955555555555556,-0.08444444444444445,0.12787117424940847,-0.1527712279410654,-0.04492332280827783
1592254055.5333657,-7.06586188282712,6.728058154599108,2.2301999064344322,0.19666666666666666,-0.7955555555555556,-0.08444444444444445,0.11387599352977716,-0.1717058842088019,-0.04821630650701461
1592254055.5433657,-7.199906436064644,6.381671864663075,1.9967186466307532,0.20444444444444446,-0.8011111111111111,-0.05444444444444444,0.0988062687668209,-0.1669882957938903,-0.052812405838798614
1592254055.5533657,-6.89284477124183,6.42284477124183,2.15862908496732,0.20444444444444446,-0.8011111111111111,-0.05444444444444444,0.08221424061771287,-0.16678214471301817,-0.04517180177608527
1592254055.5633657,-7.15564027462099,6.694113222578907,1.9127710476369004,0.20444444444444446,-0.8011111111111111,-0.05444444444444444,0.08674656902434853,-0.15260749996492462,-0.03564409778441298
1592254055.5733657,-6.725472279997131,6.404801334002726,2.3164430180018645,0.20444444444444446,-0.8011111111111111,-0.05444444444444444,0.07765791215874424,-0.16993082881059474,-0.009817477042468103
1592254055.5833657,-6.8758810872839415,6.261912967080256,2.2186772932654377,0.20444444444444446,-0.8011111111111111,-0.05444444444444444,0.0834003816518903,-0.16336800653271352,-0.009817477042468103
1592254055.5933657,-6.95,6.82,2.45,0.21777777777777776,-0.8011111111111111,-0.07777777777777778,0.04908738521234052,-0.15707963267948966,-0.02181661564992912
1592254055.6033657,-6.510731236942197,6.480396957197193,2.1699373225478116,0.21777777777777776,-0.8011111111111111,-0.07777777777777778,0.0556300908908454,-0.1756055238501386,-0.06003215730088668
1592254055.6133657,-6.850774025633175,6.664874458685097,2.154351515681729,0.21777777777777776,-0.8011111111111111,-0.07777777777777778,0.0545415391248228,-0.16689710972195776,-0.07700169769778807
1592254055.6233656,-6.773562498885381,6.623886362420416,2.278704545859861,0.21777777777777776,-0.8011111111111111,-0.07777777777777778,0.054488547077821206,-0.16659682145561538,-0.0727147180982514
1592254055.6333656,-6.938124052574323,6.803408057353807,2.2188639808820647,0.21777777777777776,-0.8011111111111111,-0.07777777777777778,0.0520406996908302,-0.15272568626266636,-0.055579786389314365
1592254055.6433656,-6.83406018254421,6.4996363377067885,1.9425456360524813,0.2111111111111111,-0.8011111111111111,-0.07555555555555556,0.03373641545261643,-0.14379131627759792,-0.028440939149681554
1592254055.6533656,-6.357324836228994,6.472712902307035,2.147829678154372,0.2111111111111111,-0.8011111111111111,-0.07555555555555556,0.02738914225626818,-0.1275482864228475,-0.03483753430180347
1592254055.6633656,-7.15825529676216,6.769403127839686,1.9103673059448083,0.2111111111111111,-0.8011111111111111,-0.07555555555555556,0.04025055507879134,-0.11888553021844402,-0.027380953435988925
1592254055.6733656,-6.780168991559307,6.639042381163927,1.990957618836073,0.2111111111111111,-0.8011111111111111,-0.07555555555555556,0.016221133488043344,-0.115732522955053,-0.0513673620812663
1592254055.6833656,-6.802528653931586,6.5123376277210125,2.1176623722789873,0.2111111111111111,-0.8011111111111111,-0.07555555555555556,-0.0024783326467540563,-0.12955386748946848,-0.06437568634895144
1592254055.6933656,-6.73171000070082,6.518931249561987,2.0132062513140374,0.2111111111111111,-0.8011111111111111,-0.07555555555555556,-0.016199246114724158,-0.12029450080252371,-0.05804719664763028
1592254055.7033656,-7.145934542492274,6.599225627141385,2.5150633730263317,0.2111111111111111,-0.8011111111111111,-0.07555555555555556,-0.04228898759196979,-0.13943628046550238,-0.05997457529352241
1592254055.7133656,-6.656451689558481,6.698709662088304,1.8685162302171952,0.2111111111111111,-0.8011111111111111,-0.07555555555555556,-0.024237559068285102,-0.12455176484854204,-0.03953734082951349
1592254055.7233655,-7.033078675144728,6.709822530131916,2.2921913258043083,0.2111111111111111,-0.8011111111111111,-0.07555555555555556,-0.033641523621825785,-0.11578293462068152,-0.025340774471011428
1592254055.7333655,-6.750444928656779,6.652088985731356,2.227611232164195,0.2111111111111111,-0.8011111111111111,-0.07555555555555556,-0.003809473677721595,-0.11878661879511576,-0.021930552146927063
1592254055.7433655,-6.769452184806955,6.51050567556281,2.2,0.19672753502144943,-0.8276654054304864,-0.06227840839586787,-0.011916397636980474,-0.1362848970033232,-0.03484682767231731
1592254055.7533655,-6.722137299771167,6.605725400457667,2.267007780320366,0.19666666666666666,-0.8277777777777777,-0.06222222222222222,0.0005312870108616606,-0.126956028598315,-0.045348606388488824
1592254055.7633655,-6.768579290615075,6.4253986956627145,2.21170485126191,0.19666666666666666,-0.8277777777777777,-0.06222222222222222,0.0074498450538682615,-0.11169867080305466,-0.06595177139086186
1592254055.7733655,-6.9129758731939965,6.582039322953196,2.276722074157198,0.19666666666666666,-0.8277777777777777,-0.06222222222222222,0.00451656580478877,-0.1195827389418023,-0.07693817664123856
1592254055.7833655,-6.792332717715585,6.604185253587158,2.492778803807359,0.19666666666666666,-0.8277777777777777,-0.06222222222222222,0.015194921019258418,-0.11380190156645438,-0.07899635668428731
1592254055.7933655,-6.76987517038525,6.49287108113925,2.3907489776885,0.19555555555555557,-0.8088888888888889,-0.05444444444444444,0.05248242874753269,-0.0947933436881225,-0.06206842021322882
1592254055.8033655,-6.756806451612903,6.71724193548387,2.44491935483871,0.19555555555555557,-0.8088888888888889,-0.05444444444444444,0.06246237812933738,-0.08587477364978954,-0.053514046903890646
1592254055.8133655,-6.5500981182795694,6.538721102150538,2.116065188172043,0.19555555555555557,-0.8088888888888889,-0.05444444444444444,0.0809110537383087,-0.06640117161809761,-0.057613752594773165
1592254055.8233654,-6.845056539067569,6.48377931226249,2.3033710260450455,0.19555555555555557,-0.8088888888888889,-0.05444444444444444,0.07072013991334297,-0.06343308899089804,-0.06890620024620339
1592254055.8333654,-6.5280654856617515,6.363742265124995,2.4704511863088294,0.19555555555555557,-0.8088888888888889,-0.05444444444444444,0.07279711163047828,-0.053570375345002884,-0.0839868924456224
1592254055.8433654,-7.458516754073422,6.993935305656751,2.106519876696425,0.1902039490950176,-0.8153108166415345,-0.05658508702865963,0.06997335132442657,-0.03017324672834456,-0.07057403099187678
1592254055.8533654,-6.46,6.36,2.43,0.19,-0.8155555555555556,-0.056666666666666664,0.061086523819801536,-0.053450708342326333,-0.05890486225480862
1592254055.8633654,-7.1107240335076884,6.542520155739961,2.2712868210956856,0.19,-0.8155555555555556,-0.056666666666666664,0.058489585502751136,-0.026615679066138896,-0.043323232352506236
1592254055.8733654,-6.68066224509998,6.544595624628786,2.257242625222728,0.19,-0.8155555555555556,-0.056666666666666664,0.061776310697507664,-0.04241805962981034,-0.02639250068798703
1592254055.8833654,-6.788674220363212,6.4657833430401865,2.3477105945888708,0.19,-0.8155555555555556,-0.056666666666666664,0.07763293727230378,-0.04766798259092722,-0.025825088124561617
1592254055.8933654,-6.636823422455473,6.5757353609653295,2.34142154634489,0.21590850861605854,-0.8090784284015409,-0.04263289116630164,0.0776660788688936,-0.03213030597615775,-0.03889774820705202
1592254055.9033654,-6.72,6.82,1.75,0.21666666666666667,-0.8088888888888889,-0.042222222222222223,0.0643590161672909,-0.016362461737446838,-0.019634954084936207
1592254055.9133654,-7.2352404569291435,6.5623797715354275,2.162192365543315,0.21666666666666667,-0.8088888888888889,-0.042222222222222223,0.012838669010088066,-0.006058392306006273,0.010340520624709075
1592254055.9233654,-6.696546464237195,6.547505303048359,2.4317055556879663,0.21666666666666667,-0.8088888888888889,-0.042222222222222223,-0.015639097701376604,0.010638492493535996,0.04527526220199402
1592254055.9333653,-7.001957851801495,6.476267845003399,2.282426920462271,0.21666666666666667,-0.8088888888888889,-0.042222222222222223,0.004481972297354579,0.01565501607701066,0.06920064375323201
1592254055.9433653,-6.97,6.36,2.4,0.21666666666666667,-0.8155555555555556,-0.04888888888888889,0.00545415391248228,-0.02181661564992912,0.05781403147231216
1592254055.9533653,-6.5674419169432525,6.2521719420383715,2.4359426859872095,0.21666666666666667,-0.8155555555555556,-0.04888888888888889,0.0031017106156551455,-0.04847763968063663,-0.0033494942451933185
1592254055.9633653,-6.843942742202138,6.412506613027665,2.430713655902127,0.21666666666666667,-0.8155555555555556,-0.04888888888888889,-0.002025965999762788,-0.06521630360194217,-0.08933327614255798
1592254055.9733653,-6.927764414489509,6.3038324323036985,2.642973874109886,0.21666666666666667,-0.8155555555555556,-0.04888888888888889,0.011546247301850956,-0.0474979661239146,-0.1254215614019334
1592254055.9833653,-7.139545656777775,6.509545656777775,2.2598115356551762,0.21666666666666667,-0.8155555555555556,-0.04888888888888889,-0.021105384894499906,-0.04138830306368745,-0.12811277665063464
1592254055.9933653,-7.21037015383491,5.973689845434282,2.610752000584646,0.21666666666666667,-0.8273253675351091,-0.033909128187638804,-0.01805895531601278,-0.05922852016228373,-0.12346576602078935
1592254056.0033653,-7.330972173300458,6.299475167312433,2.5426312081718914,0.21666666666666667,-0.8277777777777777,-0.03333333333333333,0.006006293339902994,-0.055597020688583895,-0.1049360769690946
1592254056.0133653,-7.251485129446722,6.322250804743169,2.333782155336066,0.21666666666666667,-0.8277777777777777,-0.03333333333333333,0.04565793231810846,-0.0816553481404915,-0.08088348039638535
1592254056.0233653,-7.045284841596818,6.328544300800303,2.1623734431974238,0.21666666666666667,-0.8277777777777777,-0.03333333333333333,0.08137389978203707,-0.09410831732864923,-0.07153916946110359
1592254056.0333652,-7.09525366819998,6.323474633180002,2.2739819695799617,0.21666666666666667,-0.8277777777777777,-0.03333333333333333,0.08114674185449318,-0.10629119166812737,-0.06948038666340267
1592254056.0433652,-7.097462766568398,6.336268616715801,2.396940158505303,0.2211857268655002,-0.8232587175789442,-0.040563829651467,0.08850380107335722,-0.09993315506557265,-0.07404623166794629
1592254056.0533652,-7.019926041445145,6.515184896387137,2.21729661397415,0.2222222222222222,-0.8222222222222222,-0.042222222222222223,0.07811764490271571,-0.09326199809003376,-0.07431183860421775
1592254056.0633652,-6.927001447701773,6.3325036192544335,2.2978981179876943,0.2222222222222222,-0.8222222222222222,-0.042222222222222223,0.0700205384722836,-0.08276150517974853,-0.0705549981797771
1592254056.0733652,-7.26298603990851,6.597731419407419,2.374305544601309,0.2222222222222222,-0.8222222222222222,-0.042222222222222223,0.0657604313117096,-0.05900081934391221,-0.06981317007977318
1592254056.0833652,-7.4977456270382445,6.6075289060183815,2.483367032315446,0.2222222222222222,-0.8222222222222222,-0.042222222222222223,0.06397911728789613,-0.05721344391044612,-0.07324487262418607
1592254056.0933652,-6.481515138963675,6.2411771527979125,2.2711771527979123,0.2222222222222222,-0.8276003626540014,-0.013180263890614718,0.10336117537402394,-0.018742201509392674,-0.071113013130829
1592254056.1033652,-7.179158522704973,6.125402095843636,2.2669731936104243,0.2222222222222222,-0.8277777777777777,-0.012222222222222223,0.09711318087710138,-0.02353855191399001,-0.05949413949843205
1592254056.1133652,-7.365281786220287,6.4302673558272545,2.108338143464344,0.2222222222222222,-0.8277777777777777,-0.012222222222222223,0.11046632174413151,-0.040875416235299916,-0.047683649645643145
1592254056.1233652,-7.325176653758633,6.5692933849654676,2.003118288155216,0.2222222222222222,-0.8277777777777777,-0.012222222222222223,0.08933921092318184,-0.04998886982364074,-0.03675144732060358
1592254056.1333652,-7.122671799807507,6.430183253128007,2.3496334937439847,0.2222222222222222,-0.8277777777777777,-0.012222222222222223,0.08889021513889744,-0.0531792500101586,-0.02441296089391188
1592254056.1433651,-7.114659409020217,6.528040435458786,1.9533219284603422,0.22803663383445655,-0.8277777777777777,-0.02578918265076896,0.10659774839527965,-0.04665159230797285,-0.004552309987171058
1592254056.1533651,-6.768971297636276,6.290869512783406,2.0569247467438494,0.2288888888888889,-0.8277777777777777,-0.027777777777777776,0.09796770727325202,-0.05440735588819154,0.0035466471172340155
1592254056.1633651,-7.677195573895445,6.386994243961416,2.2126653875469815,0.2288888888888889,-0.8277777777777777,-0.027777777777777776,0.1396373210040202,-0.05411744342911255,0.010374919755535589
1592254056.173365,-6.765099395936299,6.42,2.2773408017572763,0.2288888888888889,-0.8277777777777777,-0.027777777777777776,0.1417035311652491,-0.031111739895946417,0.003759837922122985
1592254056.183365,-6.8320555187183025,6.178355585025358,2.2718766688769017,0.2288888888888889,-0.8277777777777777,-0.027777777777777776,0.12753751262840846,-0.014977229213325742,-0.010339013832959723
1592254056.193365,-6.973014844582957,6.24794062166817,2.2437185270237023,0.21893909984781798,-0.8277777777777777,-0.008782725972096925,0.12689270465023214,-0.006747798882128696,-0.02476023946986522
1592254056.203365,-7.0802653053020865,6.284966836837239,2.325187924588978,0.21666666666666667,-0.8277777777777777,-0.0044444444444444444,0.12161195624221494,-0.004905120981355611,-0.022900211352668693
1592254056.213365,-7.085425342058299,6.285276621058894,2.2037656157049375,0.21666666666666667,-0.8277777777777777,-0.0044444444444444444,0.1178700738628428,0.006726032754655423,-0.022967795785651137
1592254056.223365,-7.127326609007141,6.3286633045035705,2.4106431315249925,0.21666666666666667,-0.8277777777777777,-0.0044444444444444444,0.11468304302156085,0.0005389500472518603,-0.03158979930191714
1592254056.233365,-7.0249082593016094,6.249024188582989,2.336478318233794,0.21666666666666667,-0.8277777777777777,-0.0044444444444444444,0.10786419550459132,0.018286426643487425,-0.04125869542411026
1592254056.243365,-7.36050180112256,6.245669766272933,2.4097126581218062,0.22072035594277362,-0.8383173698956559,0.010148836949540645,0.10283298430905373,0.025060413948184687,-0.06043670412521057
1592254056.253365,-7.052445856928233,6.253594591471166,2.2011080550098234,0.2222222222222222,-0.8422222222222222,0.015555555555555555,0.10969630340373963,0.05671288866415891,-0.05650208463844638
1592254056.263365,-6.917242395915726,6.299136406126411,2.123621197957863,0.2222222222222222,-0.8422222222222222,0.015555555555555555,0.11394471503183536,0.06346569109489196,-0.024168486663258652
1592254056.273365,-7.5189170176110265,6.235942524885145,2.0870855666156203,0.2222222222222222,-0.8422222222222222,0.015555555555555555,0.10915162059351131,0.0524969622475613,0.009474765323139563
1592254056.283365,-7.374414893617022,6.201627659574468,2.257599290780142,0.2222222222222222,-0.8422222222222222,0.015555555555555555,0.10799224746714915,0.04817410454656955,0.0413250797824269
1592254056.293365,-7.324519318626811,6.170339054953661,2.409321890092677,0.21858130647290025,-0.8378531233230359,0.01992465445474191,0.12014541377320899,0.05476953713950397,0.07711611913487779
1592254056.303365,-6.915024449308434,6.123463419177572,2.232702463558888,0.21666666666666667,-0.8355555555555556,0.022222222222222223,0.1448697752117951,0.031803307861982086,0.0912519853045439
1592254056.313365,-7.166905085149458,6.240242229367632,2.225121114683816,0.21666666666666667,-0.8355555555555556,0.022222222222222223,0.14294328675185772,0.00445223161962981,0.07219907174911774
1592254056.323365,-7.207653073328115,6.3979531705928405,2.1204561952885914,0.21666666666666667,-0.8355555555555556,0.022222222222222223,0.12078495751142453,-0.0029667191753313216,0.03374176936409293
1592254056.333365,-7.362249659802232,6.52199310532523,2.1738579334119565,0.21666666666666667,-0.8355555555555556,0.022222222222222223,0.07767016008313783,-0.013409094048162547,0.003332224313407437
1592254056.343365,-7.191656297687522,6.41751105372305,2.3462444731384746,0.22035232791190063,-0.830395629812228,0.04138766069743884,0.0436544870704762,0.005683144292734012,-0.017064883860056855
1592254056.353365,-7.369165006385696,6.202256704980843,2.168578288633461,0.2222222222222222,-0.8277777777777777,0.051111111111111114,0.02008513423698717,0.02799573319280157,-0.008487248607782386
1592254056.363365,-7.5931222672064775,6.251365991902834,2.175878137651822,0.2222222222222222,-0.8277777777777777,0.051111111111111114,0.024147283816547255,0.045022075285605145,0.011248894342965075
1592254056.373365,-7.364388377623824,6.273726605314859,2.304834556922759,0.2222222222222222,-0.8277777777777777,0.051111111111111114,0.03331664080350255,0.05578932275954176,0.04771090362261912
1592254056.383365,-7.340904845621361,6.26,2.2875777387100316,0.2222222222222222,-0.8277777777777777,0.051111111111111114,0.0549702724188553,0.060491247357734874,0.06865551827087943
1592254056.393365,-6.958407825322391,6.080369284876904,2.4620845545134817,0.20558974859971343,-0.8335991435456559,0.056100853197863745,0.07688678569469855,0.04394790017373635,0.05649581106670592
1592254056.403365,-6.772246726903928,6.156855614973262,2.3459527936566476,0.2,-0.8355555555555556,0.057777777777777775,0.08786713360887947,0.03554390538863484,0.04033611832028745
1592254056.413365,-7.569065983239769,6.429866569034252,2.3272915141160198,0.2,-0.8355555555555556,0.057777777777777775,0.08809459229066713,0.021557553323502697,0.015833420789235844
1592254056.4233649,-6.9871338083927155,6.344492190311668,2.091918951990211,0.2,-0.8355555555555556,0.057777777777777775,0.08936316923009044,0.04312350169214449,0.01860937057662492
1592254056.4333649,-6.985034838147772,6.230551604006386,2.1821381913194946,0.2,-0.8355555555555556,0.057777777777777775,0.08006696360085487,0.043678359297101885,0.025420125815796894
1592254056.4433649,-7.334182499331014,6.321635001337971,2.397192638182737,0.21009646610306676,-0.8402154629877402,0.061661033971264996,0.08787893393729156,0.05036762674528383,0.04710619416935309
1592254056.4533648,-7.044089495838515,6.5061001626327375,2.1649696259447047,0.21444444444444444,-0.8422222222222222,0.06333333333333334,0.09039494399534082,0.07301697024678055,0.03741764556833019
1592254056.4633648,-6.932202768247959,6.265419377735715,1.9890488583934698,0.21444444444444444,-0.8422222222222222,0.06333333333333334,0.07737117046652964,0.08404584697937292,0.0038636547530987685
1592254056.4733648,-7.018635960177522,6.453145735876214,2.0106990524169364,0.21444444444444444,-0.8422222222222222,0.06333333333333334,0.08493600737203255,0.09114156143057703,-0.034422076657064905
1592254056.4833648,-7.100326495458816,6.495594268712809,1.9086243344816785,0.21444444444444444,-0.8422222222222222,0.06333333333333334,0.09546170037795519,0.10176258905223436,-0.0484771451605916
1592254056.4933648,-7.38949713969367,6.493172171987451,1.9958414836685736,0.1898796415902893,-0.8274833405097292,0.0698839474277747,0.09306241955126113,0.1104017777248503,-0.07125003114739815
1592254056.5033648,-7.209454359619468,6.45783630788584,1.9952944413869014,0.1811111111111111,-0.8222222222222222,0.07222222222222222,0.07672942660881332,0.11735594782354218,-0.0731681672792762
1592254056.5133648,-6.828961852861036,6.38,1.7004822888283377,0.1811111111111111,-0.8222222222222222,0.07222222222222222,0.07197729512809925,0.11815896869747373,-0.05148751016292877
1592254056.5233648,-7.257565458147361,6.25699071532568,2.030735374847841,0.1811111111111111,-0.8222222222222222,0.07222222222222222,0.08049095505708222,0.1000281699540696,-0.041265308107112035
1592254056.5333648,-7.409616714033336,6.350867962209079,2.0722774406636457,0.1811111111111111,-0.8222222222222222,0.07222222222222222,0.08440964054272292,0.10695428666112977,-0.0325269333728091
1592254056.5433648,-7.31675630733945,6.88554615825688,1.7701344610091743,0.19361904306829766,-0.8222222222222222,0.10091688965341487,0.07607765989836973,0.11614323655357112,-0.006942818937643226
1592254056.5533648,-7.172501857427756,6.964387830915419,1.7291330700348022,0.2,-0.8222222222222222,0.11555555555555555,0.06981317007977318,0.10471975511965977,-0.004363323129985824
1592254056.5633647,-6.978319045217684,6.864243850507088,1.5840337311592985,0.2,-0.8222222222222222,0.11555555555555555,0.03167541065109995,0.07953444228940386,-0.0036437427634070834
1592254056.5733647,-7.025541804073715,6.801445586808923,1.6692783705140641,0.2,-0.8222222222222222,0.11555555555555555,0.006505498948322316,0.08620212493341178,0.015521538065353549
1592254056.5833647,-6.993430777716492,6.723570509284795,2.1057179628608202,0.2,-0.8222222222222222,0.11555555555555555,0.0022287925144113107,0.13841076277901482,0.08146995749294822
1592254056.5933647,-7.043325963065616,6.8535028494908286,2.3067845909501417,0.19703376136249606,-0.8140650659690865,0.11036463793992367,0.011999138607461015,0.14654619071621885,0.08871527584261428
1592254056.6033647,-6.918343886030867,6.848895924020577,2.2410473552301804,0.19555555555555557,-0.81,0.10777777777777778,0.004036764567675348,0.1530999924780788,0.08706034004386287
1592254056.6133647,-7.081290966259523,6.677930825976539,1.9559481194824042,0.19555555555555557,-0.81,0.10777777777777778,-0.031831508131507875,0.1577331879345608,0.09075523467485162
1592254056.6233647,-7.341168411867365,6.7976038394415355,2.0238019197207677,0.19555555555555557,-0.81,0.10777777777777778,-0.05373797948557017,0.16226593337888773,0.0916297857297023
1592254056.6333647,-6.955426878822875,6.616750502587792,2.0181932503528808,0.19555555555555557,-0.81,0.10777777777777778,-0.060508260793030934,0.14563276827353508,0.09509936389032589
1592254056.6433647,-7.2168818822241985,6.642216674646057,2.065128924150195,0.19555555555555557,-0.8153121461520341,0.10777777777777778,-0.04882029170291317,0.12275781828957277,0.11009519851469907
1592254056.6533647,-7.343072386907824,6.742175564966161,2.064790042347726,0.19555555555555557,-0.8177777777777778,0.10777777777777778,-0.0483275553246634,0.12127165626319338,0.11818860332179079
1592254056.6633646,-6.710839847121194,6.6317593391690295,2.160635679940821,0.19555555555555557,-0.8177777777777778,0.10777777777777778,-0.04205827122987186,0.10397436977520061,0.11002780145451857
1592254056.6733646,-6.931881422924902,6.847806922984789,1.938717211642113,0.19555555555555557,-0.8177777777777778,0.10777777777777778,-0.029794274421130952,0.09162045702951423,0.08975265265768373
1592254056.6833646,-6.776114236599469,6.6555991170495385,1.910963041100172,0.19555555555555557,-0.8177777777777778,0.10777777777777778,-0.047663074555135715,0.11033148626367358,0.07330676064962509
1592254056.6933646,-6.721981332740722,6.617983110574938,2.057996444331566,0.19555555555555557,-0.8131114568010978,0.11244409875445781,-0.06697681611365339,0.12522747079640764,0.06348649699001549
1592254056.7033646,-6.903677360655089,6.704348668855571,1.999729419676411,0.19555555555555557,-0.81,0.11555555555555555,-0.07528700114866269,0.13151615849701703,0.06098377972022781
1592254056.7133646,-7.207314455957183,6.480267077961455,1.9962313796830922,0.19555555555555557,-0.81,0.11555555555555555,-0.08390495864443817,0.16680970866345354,0.0625609241703371
1592254056.7233646,-7.324517389973391,6.573452798643652,2.107512421409565,0.19555555555555557,-0.81,0.11555555555555555,-0.06719951209167467,0.18592858396598286,0.08033399627537943
1592254056.7333646,-7.116744037602275,6.67141530783961,2.0428770382405848,0.19555555555555557,-0.81,0.11555555555555555,-0.05366162043930761,0.18347048355638587,0.08378812207113975
1592254056.7433646,-6.890438168511916,6.505070369675361,2.0703912553950086,0.18833593961760597,-0.8063901920310252,0.10773430495611017,-0.034502001245252656,0.17553327986898826,0.07372411264505321
1592254056.7533646,-7.146620388734629,6.640608224249636,2.1119635065450217,0.18222222222222223,-0.8033333333333333,0.10111111111111111,0.004858040779590855,0.17322127438150053,0.05954078357174989
1592254056.7633646,-7.247302069403205,6.585957750628981,1.867578367596727,0.18222222222222223,-0.8033333333333333,0.10111111111111111,0.02399827721492203,0.1416914987519623,0.04460654539545776
1592254056.7733645,-7.202030643910008,6.611676202482545,1.675253830488751,0.18222222222222223,-0.8033333333333333,0.10111111111111111,0.030875525242699577,0.11218943893073556,0.01932202253312083
1592254056.7833645,-6.923418546795917,6.676505962082868,1.7903238397529382,0.18222222222222223,-0.8033333333333333,0.10111111111111111,0.03394882120194791,0.09495566393645342,-0.01451758493578967
1592254056.7933645,-6.636387932134201,6.7073577624697025,1.91,0.17846302674660883,-0.7964414749613754,0.12491934912332922,0.04161500649389608,0.07778535635824206,-0.02889497888672555
1592254056.8033645,-6.741874326750448,6.882343506882107,1.897968880909635,0.17555555555555555,-0.7911111111111111,0.14333333333333334,0.05074066949705058,0.07729557727844126,-0.022464324987088294
1592254056.8133645,-7.056919407621055,6.903595318653281,1.965292029508015,0.17555555555555555,-0.7911111111111111,0.14333333333333334,0.06420805811069716,0.07747857212625613,0.027332967911981892
1592254056.8233645,-6.873971048142532,6.668676317285822,2.0101255686125854,0.17555555555555555,-0.7911111111111111,0.14333333333333334,0.11276134993081524,0.06936629851371588,0.08039160290218408
1592254056.8333645,-6.745782070972435,6.679854498423732,1.7556001940021018,0.17555555555555555,-0.7911111111111111,0.14333333333333334,0.1439817274096175,0.06818287581596452,0.11178039565620664
1592254056.8433645,-6.791121643433603,6.604503888481291,1.5699137197358768,0.1694180810304068,-0.7838577321268444,0.15616623461318987,0.1456235565340762,0.054489774682407635,0.11396593454967208
1592254056.8533645,-7.191457291175083,6.808278905143936,1.3554962246342614,0.16333333333333333,-0.7766666666666666,0.1688888888888889,0.1296498973097942,0.024540037628088276,0.0867751769190768
1592254056.8633645,-6.854631723354936,6.716534840815554,1.3244883863948151,0.16333333333333333,-0.7766666666666666,0.1688888888888889,0.07394211346549016,0.003767311230755299,0.05363152441980719
1592254056.8733644,-6.7969001447178,6.5367091172214185,1.7036092619392185,0.16333333333333333,-0.7766666666666666,0.1688888888888889,0.027439840440566785,-0.00027097120667947416,0.03781315180795095
1592254056.8833644,-6.986144944959988,6.574025998422061,1.9229665251530976,0.16333333333333333,-0.7766666666666666,0.1688888888888889,0.017591977246545393,0.001668683810005192,0.03682952418199562
1592254056.8933644,-7.2498273454360795,6.633920908975498,1.903661927129618,0.15941087272368218,-0.7766666666666666,0.1756131070768623,0.026198772471221217,0.03276259085750623,0.08461942883152701
1592254056.9033644,-7.226725522978429,6.50806508175998,1.7517860783754027,0.15555555555555556,-0.7766666666666666,0.18222222222222223,0.028702554467479942,0.03712071842607684,0.09377897547349788
1592254056.9133644,-7.058639409271161,6.336224531655955,1.811632708874607,0.15555555555555556,-0.7766666666666666,0.18222222222222223,0.06612510894245267,0.044045071008660744,0.088976917485931
1592254056.9233644,-7.41059510567297,6.483239710789767,1.6533801446051168,0.15555555555555556,-0.7766666666666666,0.18222222222222223,0.09879276125105503,0.04323205674205747,0.09261649313453137
1592254056.9333644,-7.444849243139024,6.5554366821183905,1.6780723632932684,0.15555555555555556,-0.7766666666666666,0.18222222222222223,0.11344640137963141,0.026881414078204907,0.09178913464123653
1592254056.9433644,-7.083803973653539,6.341490255604044,1.7238039736535387,0.16376470092188522,-0.7716499667205763,0.1881510494312381,0.11837153503460071,0.0032397020800188827,0.06742761159460312
1592254056.9533644,-7.231819262782402,6.304197384066588,1.7630915576694413,0.17555555555555555,-0.7644444444444445,0.19666666666666666,0.11902118223952413,-0.021780297859310925,0.02732524624833869
1592254056.9633644,-7.35274875091014,6.504963217755906,1.7439295488212108,0.17555555555555555,-0.7644444444444445,0.19666666666666666,0.09202422558331433,-0.042602790732416254,-6.039021505447554e-05
1592254056.9733644,-7.403364183996122,6.6862886883467585,1.6334943568675422,0.17555555555555555,-0.7644444444444445,0.19666666666666666,0.061686685940261075,-0.04740585874773055,-0.012789888329727701
1592254056.9833643,-7.442135523206164,6.630150140011518,1.8191011459098763,0.17555555555555555,-0.7644444444444445,0.19666666666666666,0.04820084283925247,-0.037488634556383876,-0.014380994148206112
1592254056.9933643,-7.185514534266921,6.318545512412475,1.873393804370889,0.17128395847576836,-0.7644444444444445,0.19161841557237272,0.038994442344219706,-0.02291847895253994,-0.005952198902680022
1592254057.0033643,-7.81,6.26,2.01,0.16333333333333333,-0.7644444444444445,0.18222222222222223,0.042542400517361786,-0.008726646259971648,0.0032724923474893677
1592254057.0133643,-7.5417858938732305,6.412311763927484,1.7214188169908695,0.16333333333333333,-0.7644444444444445,0.18222222222222223,0.07964591904189038,-0.016362461737446838,0.03685134419913209
1592254057.0233643,-7.383005930420048,6.236317127162417,1.502683720040447,0.16333333333333333,-0.7644444444444445,0.18222222222222223,0.08954000305491884,-0.032035831798322784,0.03250694214938702
1592254057.0333643,-6.69,6.08,1.56,0.16333333333333333,-0.7644444444444445,0.18222222222222223,0.08726646259971647,-0.04908738521234052,0.01090830782496456
1592254057.0433643,-7.585103303931828,6.472017042906264,1.7650180894005083,0.16575671500473413,-0.7469960964103587,0.18852301456786433,0.05226578137781457,0.00025580462930541864,-0.020075004583289986
1592254057.0533643,-7.541484146975331,6.417049698132821,2.018126824197353,0.1688888888888889,-0.7244444444444444,0.19666666666666666,0.03413954489867811,0.00783818462828018,-0.005006979148860826
1592254057.0633643,-7.2918883407757225,6.303537278189512,1.7809840319827928,0.1688888888888889,-0.7244444444444444,0.19666666666666666,0.03343280438176844,0.009901610742499801,0.03672850426700526
1592254057.0733643,-7.258930628957768,6.153521877826977,1.8354039899062038,0.1688888888888889,-0.7244444444444444,0.19666666666666666,0.04062670783477445,0.012530037634203803,0.029098325319897724
1592254057.0833642,-7.773277158719534,6.436448990038194,1.77,0.1688888888888889,-0.7244444444444444,0.19666666666666666,0.07564318965267308,0.011611783509932007,0.004342642143185332
1592254057.0933642,-7.698122514994272,6.287428398140037,1.6578778893456432,0.17071201263936622,-0.7250521523612702,0.20699770125270495,0.10307678268291903,-0.01896262182961492,-0.013780091324459577
1592254057.1033642,-7.434632210179656,6.359856472265232,1.600430583204306,0.17555555555555555,-0.7266666666666667,0.23444444444444446,0.13852376704170782,-0.06658764707365208,-0.008724689204081303
1592254057.1133642,-7.23,6.28,1.84,0.17555555555555555,-0.7266666666666667,0.23444444444444446,0.13199052468207118,-0.09272061651219875,-0.007635815477475192
1592254057.1233642,-7.277874369910818,6.585026754556029,1.5313702985653355,0.17555555555555555,-0.7266666666666667,0.23444444444444446,0.09342426369706153,-0.09914674760117458,0.019123079942641823
1592254057.1333642,-7.130246204101385,6.459206944528462,1.8194712963523076,0.17555555555555555,-0.7266666666666667,0.23444444444444446,0.0677458639528098,-0.07920107187609453,0.03668552805998954
1592254057.1433642,-7.3238460539557835,6.464829724377496,1.9070996331526149,0.17555555555555555,-0.7189239143373481,0.2451982671240536,0.08849898133341147,-0.053450708342326333,0.05950323798872553
1592254057.1533642,-6.95,6.33,1.95,0.17555555555555555,-0.7066666666666667,0.26222222222222225,0.10253809355466686,-0.053450708342326333,0.062177354602297986
1592254057.1633642,-6.926442827015071,6.454814052775063,1.4998760351833753,0.17555555555555555,-0.7066666666666667,0.26222222222222225,0.14717914117569222,-0.015327600488695572,0.03806901799846249
1592254057.1733642,-7.374869959605981,6.564299482673092,1.43,0.17555555555555555,-0.7066666666666667,0.26222222222222225,0.15460970607389515,0.0028712094765419435,0.015831231552674983
1592254057.1833642,-7.161816804813397,6.648919089493836,1.43,0.17555555555555555,-0.7066666666666667,0.26222222222222225,0.141244434123316,-0.0019471744834186958,-0.011272361755488477
1592254057.1933641,-6.778539723383725,6.596442586040527,1.461161145062721,0.17815231764411565,-0.7088306350738001,0.26222222222222225,0.09990697742795701,-0.0035707252729065397,-0.04098176516176698
1592254057.2033641,-6.98,6.92,1.51,0.18222222222222223,-0.7122222222222222,0.26222222222222225,0.07526732399225547,0.001090830782496456,-0.05563236990731925
1592254057.2133641,-7.274498126550214,6.615307404084648,1.4844981265502137,0.18222222222222223,-0.7122222222222222,0.26222222222222225,0.007279276322301209,0.012800495402423383,-0.023797081712002347
1592254057.223364,-7.5,6.65,1.71,0.18222222222222223,-0.7122222222222222,0.26222222222222225,-0.002181661564992912,0.01090830782496456,-0.001090830782496456
1592254057.233364,-7.173457192345761,6.846355163312438,1.4304672550313426,0.18222222222222223,-0.7122222222222222,0.26222222222222225,0.001845208108118489,0.01163218435585991,0.03271475654331812
1592254057.243364,-6.857047651834639,6.821885704449609,1.354099033192759,0.18052825353109372,-0.7054463474577082,0.26815111264117203,-0.029407554880392234,0.05693763028850939,0.04853303525448005
1592254057.253364,-7.156435031376892,6.665861018826135,1.2745997139165743,0.17555555555555555,-0.6855555555555556,0.28555555555555556,-0.08735462198120146,0.1076289140413716,0.042893377032973995
1592254057.263364,-7.1926539224159844,6.586303319945091,1.3275829986272814,0.17555555555555555,-0.6855555555555556,0.28555555555555556,-0.12490270345757515,0.1151265991215864,0.03882013250023764
1592254057.273364,-7.277221863413467,6.497966750388709,1.2971515368975002,0.17555555555555555,-0.6855555555555556,0.28555555555555556,-0.15950889365352716,0.0808362101843846,0.04587034114646352
1592254057.283364,-7.0,6.38,1.48,0.17555555555555555,-0.6855555555555556,0.28555555555555556,-0.18653206380689397,0.062177354602297986,0.04908738521234052
1592254057.293364,-7.332763811958529,6.2701136202244,1.62986649623633,0.17555555555555555,-0.6788443876343323,0.2785647556376146,-0.16964239043007268,0.011340859954595307,0.036495501458759426
1592254057.303364,-6.33,5.2,1.57,0.17555555555555555,-0.6588888888888889,0.2577777777777778,-0.1778054175469223,-0.039269908169872414,0.015271630954950384
1592254057.313364,-8.064828348504552,8.075375812743824,2.362475942782835,0.17555555555555555,-0.6588888888888889,0.2577777777777778,-0.059180903438519686,-0.015725269035889743,0.08827970112759323
1592254057.323364,-6.816193297183671,6.5159759214580895,2.1900434751451163,0.17555555555555555,-0.6588888888888889,0.2577777777777778,0.07134733733919185,0.015710589829420328,0.1343953136863426
1592254057.333364,-8.55,6.3,2.58,0.17555555555555555,-0.6588888888888889,0.2577777777777778,0.1341721862470641,0.039269908169872414,0.17889624832941878
1592254057.343364,-7.3830675355814455,6.633646675478774,1.9838984353386002,0.17555555555555555,-0.6588888888888889,0.2651424453256552,0.21596481162701214,-0.027499189816641696,0.2717862351739894
1592254057.353364,-6.87,6.86,1.75,0.17555555555555555,-0.6588888888888889,0.2877777777777778,0.21925698728178766,-0.03490658503988659,0.28907015736156083
1592254057.363364,-6.825235434956106,6.738411811652035,1.816349149138841,0.17555555555555555,-0.6588888888888889,0.2877777777777778,0.2281394945937598,-0.022388106173930944,0.28391034213124383
1592254057.373364,-7.1745428118393235,6.793678206483439,1.6872714059196618,0.17555555555555555,-0.6588888888888889,0.2877777777777778,0.21328331463907568,-0.006715066661594198,0.27910385859830417
1592254057.383364,-6.755449839262266,6.448462049292905,1.4172239914273208,0.17555555555555555,-0.6588888888888889,0.2877777777777778,0.19448531454882897,-0.016512132604580503,0.2604349808645069
1592254057.393364,-7.230226089318864,6.302863999275548,1.4425453914303394,0.17555555555555555,-0.6588888888888889,0.2877777777777778,0.18412730358162954,0.009728161845658057,0.24800536770386758
1592254057.403364,-7.302090733330336,6.348510858324716,1.0215631041769704,0.15555555555555556,-0.6466666666666666,0.2877777777777778,0.17765104544639143,0.10544428628887109,0.19933749316786656
1592254057.413364,-7.200659751742901,5.955766026186023,1.4884254378507056,0.15555555555555556,-0.6466666666666666,0.2877777777777778,0.14723897015023155,0.09873641565668227,0.14873823646802084
1592254057.423364,-7.65,6.13,1.25,0.15555555555555556,-0.6466666666666666,0.2877777777777778,0.20725784867432664,0.056723200689815706,0.09272061651219875
1592254057.433364,-7.534404538439078,6.191197597296959,1.4131935927918908,0.15555555555555556,-0.6466666666666666,0.2877777777777778,0.1842640385483634,0.05449799325827087,0.0452495246392424
1592254057.443364,-7.547942408247218,6.041651178351052,1.2522015711347358,0.15555555555555556,-0.6466666666666666,0.2877777777777778,0.16417788562281063,0.004350401733459332,-0.029898543694091766
1592254057.453364,-7.650997387207604,6.506915670582426,1.246190672125414,0.16333333333333333,-0.6433333333333333,0.31555555555555553,0.136677840735029,-0.010200895972230319,-0.027809957341543207
1592254057.463364,-7.422491367314333,6.219028500747307,1.3950971499252693,0.16333333333333333,-0.6433333333333333,0.31555555555555553,0.10489802777910914,-0.028319210693307464,0.012962800435156307
1592254057.4733639,-7.651895738165755,6.381971537573414,1.37,0.16333333333333333,-0.6433333333333333,0.31555555555555553,0.09854389297399124,-0.039788957664741345,0.04996728882380257
1592254057.4833639,-7.663968265862386,6.1086772447125375,1.3092592870122328,0.16333333333333333,-0.6433333333333333,0.31555555555555553,0.06414547236561825,-0.046657542836695515,0.05332950946311864
1592254057.4933639,-7.571143943543969,6.1394051493571355,1.092836979989044,0.1633892594621496,-0.6432672388174595,0.31559622910378554,0.023683819309459675,-0.06562953718148012,0.017188748567728934
1592254057.5033638,-7.797164765031337,6.088654698225396,1.6643295300626737,0.17555555555555555,-0.6288888888888889,0.3244444444444444,-0.03531385290681971,-0.12077246488969003,-0.03870011380374505
1592254057.5133638,-7.695525196377776,6.41849943892064,1.433963047052376,0.17555555555555555,-0.6288888888888889,0.3244444444444444,-0.0022635044758120178,-0.1816873335586953,-0.020384976753232198
1592254057.5233638,-7.59,6.72,1.14,0.17555555555555555,-0.6288888888888889,0.3244444444444444,0.014180800172453926,-0.22362031041177347,0.020725784867432664
1592254057.5333638,-7.302132056338028,6.866966985915493,1.4804504788732393,0.17555555555555555,-0.6288888888888889,0.3244444444444444,0.002273377388080107,-0.2583794765851219,0.12775173448153046
1592254057.5433638,-7.17,6.879917466242818,1.5701650675143632,0.1777869481952424,-0.6299187624148982,0.32118317827874826,-0.007298790154200455,-0.23508690192544376,0.2414916555816274
1592254057.5533638,-7.17,6.77,1.79,0.19,-0.6355555555555555,0.30333333333333334,-0.00545415391248228,-0.19634954084936207,0.35124751196385884
1592254057.5633638,-7.247944062675472,6.428503435920747,1.7953287521056713,0.19,-0.6355555555555555,0.30333333333333334,-0.008654923676636296,-0.16510296594557544,0.43655658097063016
1592254057.5733638,-7.289228529495313,6.433396695388694,1.7666033046113057,0.19,-0.6355555555555555,0.30333333333333334,-0.04240360647664787,-0.15469575788048176,0.4371072614554875
1592254057.5833638,-7.365273832070707,6.272354008838383,2.0218063446969694,0.19,-0.6355555555555555,0.30333333333333334,-0.0657026697092722,-0.14411706461198284,0.44121118107462026
1592254057.5933638,-7.212935718809373,6.308257124762508,2.32,0.18854229118288648,-0.634882766870734,0.305688093730209,-0.031243735546323995,-0.1370043394300422,0.4573883522393985
1592254057.6033638,-7.15,6.56,2.32,0.17555555555555555,-0.6288888888888889,0.32666666666666666,0.030543261909900768,-0.13308135546456762,0.4603305902135044
1592254057.6133637,-6.828770289706184,6.904860797205671,2.0254176083829876,0.17555555555555555,-0.6288888888888889,0.32666666666666666,0.09606017915179045,-0.06860590482193116,0.5211981970481399
1592254057.6233637,-6.7310364798615785,6.987090743054888,1.8383274055560896,0.17555555555555555,-0.6288888888888889,0.32666666666666666,0.09799231867407603,0.040051147691644,0.5930072488209112
1592254057.6333637,-6.68,7.06,1.78,0.17555555555555555,-0.6288888888888889,0.32666666666666666,0.0916297857297023,0.12435470920459597,0.6359543461954338
1592254057.6433637,-6.642049659494967,7.070496594949677,1.6274537455553546,0.17430298586418635,-0.6283195390291757,0.3250724870594695,0.08528129914892123,0.23111034650877582,0.6930094702638324
1592254057.6533637,-6.66,7.25,1.43,0.16333333333333333,-0.6233333333333333,0.3111111111111111,0.07744898555724837,0.296705972839036,0.7341291166201148
1592254057.6633637,-6.9446431320231925,7.002321566011596,1.378315973113038,0.16333333333333333,-0.6233333333333333,0.3111111111111111,0.029199187560499638,0.3420060667854198,0.7900593394705844
1592254057.6733637,-7.067112730431425,7.105047292732362,1.2086618087057233,0.16333333333333333,-0.6233333333333333,0.3111111111111111,0.02213156790220575,0.3408231346177809,0.8501490932398519
1592254057.6833637,-7.0616073147256975,7.219579265777533,1.1298597552591778,0.16333333333333333,-0.6233333333333333,0.3111111111111111,0.0065826305806389335,0.32834006553143325,0.9283664383150843
1592254057.6933637,-6.939410020290308,7.117367566723895,1.080257218667083,0.16272146783899555,-0.6240863985571337,0.31016977958136066,-0.04629511719840968,0.3282014430211931,1.014314187402336
1592254057.7033637,-6.7,7.51,0.86,0.14888888888888888,-0.6411111111111111,0.28888888888888886,-0.0818123086872342,0.32506757318394386,1.1093749057988957
1592254057.7133636,-6.590882146762752,7.375462243782072,1.061365560945518,0.14888888888888888,-0.6411111111111111,0.28888888888888886,-0.1624902916147488,0.3398178455687333,1.2092673301904857
1592254057.7233636,-6.271529688024153,7.443735323716874,1.1781465951023147,0.14888888888888888,-0.6411111111111111,0.28888888888888886,-0.2257666599437201,0.32883095767994686,1.288752349190033
1592254057.7333636,-6.05,7.42,1.55,0.14888888888888888,-0.6411111111111111,0.28888888888888886,-0.24216443371421323,0.3141592653589793,1.3319043854281727
1592254057.7433636,-5.889765698494826,7.656134760112888,1.541566615710254,0.14888888888888888,-0.6411111111111111,0.28888888888888886,-0.2118064296074193,0.28196138221541,1.3668620871269053
1592254057.7533636,-5.69,7.63,1.63,0.12222222222222222,-0.6555555555555556,0.2822222222222222,-0.1832595714594046,0.2552544031041707,1.4093533709854211
1592254057.7633636,-5.678612615525558,7.742753482607172,1.7055069652143453,0.12222222222222222,-0.6555555555555556,0.2822222222222222,-0.15948482152874643,0.2424263765356938,1.4358359901037119
1592254057.7733636,-5.58,7.68,1.58,0.12222222222222222,-0.6555555555555556,0.2822222222222222,-0.13308135546456762,0.22580197197676635,1.457349925415265
1592254057.7833636,-5.680729380485992,7.780729380485993,1.4570824780560279,0.12222222222222222,-0.6555555555555556,0.2822222222222222,-0.08658385369412518,0.20253016891325887,1.4860758823912548
1592254057.7933636,-5.6889288995757825,7.788928899575782,1.42428440169687,0.12222222222222222,-0.6555555555555556,0.2822222222222222,-0.0543844175248104,0.17390844787386797,1.5146976034306459
1592254057.8033636,-5.33,7.97,1.28,0.06888888888888889,-0.6611111111111111,0.28888888888888886,-0.006544984694978735,0.0916297857297023,1.5566155266224426
1592254057.8133636,-4.645537411095306,8.382716358463728,1.1484477951635845,0.06888888888888889,-0.6611111111111111,0.28888888888888886,0.014223129992861471,0.03658028875998897,1.5861737823008657
1592254057.8233635,-4.384154698252092,8.53971491596135,1.0843381206991634,0.06888888888888889,-0.6611111111111111,0.28888888888888886,0.013429874845859932,0.008562238311695034,1.5881985131851974
1592254057.8333635,-4.22973540870067,8.627218454656951,1.1652984993867685,0.06888888888888889,-0.6611111111111111,0.28888888888888886,-0.0028824855189519744,-0.0032436299140804815,1.5688818247276946
1592254057.8433635,-4.2826899213620955,8.612088593896544,1.2485127335690065,0.06888888888888889,-0.6611111111111111,0.28888888888888886,-0.0185613974786722,-0.00902007116239846,1.5466012656270394
1592254057.8533635,-4.44,8.53,1.31,0.01,-0.6588888888888889,0.28888888888888886,-0.039269908169872414,-0.030543261909900768,1.5108006337575914
1592254057.8633635,-4.341968169116754,8.53,1.2707872676467016,0.01,-0.6588888888888889,0.28888888888888886,-0.039269908169872414,-0.07866452436627006,1.5011763812663177
1592254057.8733635,-4.117396127806153,8.563072811497802,1.2615754840242308,0.01,-0.6588888888888889,0.28888888888888886,-0.016576948170199498,-0.1557402132357154,1.5089712150439225
1592254057.8833635,-3.620896008833639,8.753040659673369,1.310298669611213,0.01,-0.6588888888888889,0.28888888888888886,0.0074057947030222535,-0.20038314163272497,1.5174453200247402
1592254057.8933635,-3.441617303959109,8.894969634365706,1.250539101319703,0.01,-0.6588888888888889,0.28888888888888886,0.026147222987332276,-0.21179096754491367,1.5247789223968615
1592254057.9033635,-3.19,9.08,1.13,-0.03666666666666667,-0.6855555555555556,0.26666666666666666,0.032724923474893676,-0.19525871006686563,1.5293447570600311
1592254057.9133635,-2.9248482303539296,9.212575884823035,1.177348530293941,-0.03666666666666667,-0.6855555555555556,0.26666666666666666,-0.0023965558835123066,-0.15393932258638798,1.5345096804950908
1592254057.9233634,-2.76,9.27,1.21,-0.03666666666666667,-0.6855555555555556,0.26666666666666666,-0.062177354602297986,-0.09708393964218458,1.5151639568875774
1592254057.9333634,-2.873147919077451,9.251142013487092,1.323147919077451,-0.03666666666666667,-0.6855555555555556,0.26666666666666666,-0.11463307867196616,-0.031257148652797065,1.4956216283126027
1592254057.9433634,-3.046626907415786,9.150023855550529,1.3799880722247357,-0.03666666666666667,-0.6855555555555556,0.26666666666666666,-0.1432563708818029,0.02180490558394665,1.4608122464568993
1592254057.9533634,-2.96,9.03,1.34,-0.08333333333333333,-0.6666666666666666,0.2611111111111111,-0.148352986419518,0.02181661564992912,1.433351648200343
1592254057.9633634,-2.8751870423144905,9.089369070379856,1.3824064788427546,-0.08333333333333333,-0.6666666666666666,0.2611111111111111,-0.1409516596196842,-0.007788691549406174,1.4398278091501975
1592254057.9733634,-2.4563249007699297,9.287314571278275,1.1588692554158098,-0.08333333333333333,-0.6666666666666666,0.2611111111111111,-0.11558951271038087,-0.08400555097212162,1.452493221885449
1592254057.9833634,-1.8,9.58,1.15,-0.08333333333333333,-0.6666666666666666,0.2611111111111111,-0.09817477042468103,-0.14398966328953217,1.4486232791552935
1592254057.9933634,-1.7062530282637953,9.680958277254375,1.1716339165545087,-0.08333333333333333,-0.6666666666666666,0.2611111111111111,-0.09581487621231925,-0.16837523681727057,1.4321040196687609
1592254058.0033634,-1.57,9.74,1.22,-0.12222222222222222,-0.68,0.25333333333333335,-0.11344640137963141,-0.19634954084936207,1.383173432205506
1592254058.0133634,-1.4628445020786451,9.662068728784469,1.336896906823296,-0.12222222222222222,-0.68,0.25333333333333335,-0.15701393902963415,-0.19316167224082526,1.325791797251844
1592254058.0233634,-1.39,9.57,1.4,-0.12222222222222222,-0.68,0.25333333333333335,-0.19525871006686563,-0.1679879405044542,1.2828170002158321
1592254058.0333633,-1.6673938826466916,9.650533707865169,1.4,-0.12222222222222222,-0.68,0.25333333333333335,-0.21673282391679743,-0.12796800105685405,1.2603667902818128
1592254058.0433633,-1.7157359368108736,9.63639609478369,1.4708117156489315,-0.12222222222222222,-0.68,0.25333333333333335,-0.24414659146563178,-0.09665774981178336,1.2534365811522337
1592254058.0533633,-1.5401608373755424,9.500116160326781,1.519973193770743,-0.1599662440076022,-0.6577976342438941,0.26665475278699685,-0.2803171941475565,-0.09707711672817611,1.2402853214204836
1592254058.0633633,-1.5987662110059588,9.568560579506952,1.5591774740039726,-0.16,-0.6577777777777778,0.26666666666666666,-0.2899591098919864,-0.10028913923898365,1.233864200504872
1592254058.0733633,-1.4625374811697471,9.530724994619927,1.6189125080701083,-0.16,-0.6577777777777778,0.26666666666666666,-0.2815925111737979,-0.11428020706634538,1.2123084225778435
1592254058.0833633,-1.3467252554103044,9.651659343073712,1.7910622871580797,-0.16,-0.6577777777777778,0.26666666666666666,-0.26574515629202566,-0.1394501271895737,1.1725320069108818
1592254058.0933633,-1.162421179830825,9.674697352521147,1.9446490168076458,-0.16,-0.6577777777777778,0.26666666666666666,-0.24480301473143717,-0.12185872827867938,1.1406999517387872
1592254058.1033633,-1.06,9.78,1.98,-0.20555555555555555,-0.6444444444444445,0.2311111111111111,-0.21162117180431245,-0.05999569303730508,1.0853766285839737
1592254058.1133633,-0.8135904707884288,9.686534316505956,1.8780374361883154,-0.20555555555555555,-0.6444444444444445,0.2311111111111111,-0.19308385459297164,-0.00809120484555085,1.0427407989978899
1592254058.1233633,-0.6855206136145733,9.657239693192714,1.5609503835091083,-0.20555555555555555,-0.6444444444444445,0.2311111111111111,-0.16673753780763426,0.033289268911360685,0.9810616469864575
1592254058.1333632,-0.46,9.77,1.42,-0.20555555555555555,-0.6444444444444445,0.2311111111111111,-0.14726215563702155,0.025089107997418484,0.9533861039019024
1592254058.1433632,-0.41635434769581114,9.826115838676813,1.4262350931863126,-0.20555555555555555,-0.6444444444444445,0.2311111111111111,-0.14794229879495793,0.000603954311708798,0.9513456744280933
1592254058.1533632,-0.33,10.03,1.49,-0.24,-0.62,0.26666666666666666,-0.17344209441693648,-0.07635815477475191,0.9446594576419308
1592254058.1633632,-0.2748523206751055,10.652380952380952,1.8523990355635924,-0.24,-0.62,0.26666666666666666,-0.18461406899523505,-0.13565555830572112,0.9180185951859883
1592254058.1733632,3.092362279802627,12.293698362375151,1.1437021763485973,-0.24,-0.62,0.26666666666666666,-0.17381140789227192,-0.20554867849568312,0.8270041359638662
1592254058.1833632,3.19,9.14,2.95,-0.24,-0.62,0.26666666666666666,-0.14398966328953217,-0.31525009614147576,0.5628686837681712
1592254058.1933632,1.6738107696988134,9.65155978095528,2.598687861271676,-0.24,-0.62,0.26666666666666666,-0.18298419227372903,-0.08128292223629463,0.3275568709325005
1592254058.2033632,0.38,9.71,2.37,-0.2611111111111111,-0.6255555555555555,0.2311111111111111,-0.07308566242726255,0.1908953869368798,-0.004363323129985824
1592254058.2133632,0.20438929987202298,10.073765021693667,2.5205234572525517,-0.2611111111111111,-0.6255555555555555,0.2311111111111111,-0.014248898357833113,0.2723090488469042,-0.08577698504001029
1592254058.2233632,-3.717741001340226,8.965198161975877,1.5882672793413748,-0.2611111111111111,-0.6255555555555555,0.2311111111111111,0.06766931061541819,0.39777521460482723,-0.21779286075549173
1592254058.2333632,-0.9,10.16,1.19,-0.2611111111111111,-0.6255555555555555,0.2311111111111111,0.07635815477475191,0.3108867730114899,-0.13199052468207118
1592254058.2433631,-0.8313663450195106,9.759637012613812,1.6475576998699295,-0.2611111111111111,-0.6255555555555555,0.2311111111111111,0.15247365340217695,0.19733742260008535,-0.05462723099518013
1592254058.2533631,-0.71,9.93,1.42,-0.2677777777777778,-0.62,0.24666666666666667,0.1407171709420428,0.11344640137963141,0.04036073895236887
1592254058.2633631,-0.7258829076917274,9.604400392319588,1.8091312384473197,-0.2677777777777778,-0.62,0.24666666666666667,0.13032183216663126,0.1169115143047686,0.060285138271907665
1592254058.273363,-0.6904144515569056,9.589274709775415,1.8704144515569059,-0.2677777777777778,-0.62,0.24666666666666667,0.11251380437777918,0.14047982027107647,0.08164277249368682
1592254058.283363,-0.5408861940298508,9.768936567164179,1.7705907960199005,-0.2677777777777778,-0.62,0.24666666666666667,0.15356224610782043,0.13746401234909397,0.08289669488488383
1592254058.293363,-0.6895761859784894,9.721921940221199,1.716579933579111,-0.2677777777777778,-0.62,0.24666666666666667,0.17769876400251383,0.13278289836616056,0.08057224935553421
1592254058.303363,-0.79,9.71,1.57,-0.2677777777777778,-0.6311111111111111,0.23777777777777778,0.20180369476184434,0.13853550937704992,0.07635815477475191
1592254058.313363,-0.5984159333024548,9.833161185734136,1.364731357109773,-0.2677777777777778,-0.6311111111111111,0.23777777777777778,0.2055355840009432,0.11689055179027649,0.07785091047039146
1592254058.323363,-0.46151784945001295,9.860910709670007,1.2118214193400154,-0.2677777777777778,-0.6311111111111111,0.23777777777777778,0.1850458033412742,0.10372826735135948,0.05844320389555454
1592254058.333363,-0.6439444023489298,9.918087706004926,1.1325497253267662,-0.2677777777777778,-0.6311111111111111,0.23777777777777778,0.16217305201372925,0.08145157410899151,0.036692745540719954
1592254058.343363,-0.6426434719579596,9.89793041587388,1.203565280420404,-0.2677777777777778,-0.6311111111111111,0.23777777777777778,0.1357638286396961,0.06467202342362562,0.029577634029938196
1592254058.353363,-0.73,9.78,1.37,-0.2733333333333333,-0.6044444444444445,0.23777777777777778,0.09490227807719166,0.030543261909900768,0.020725784867432664
1592254058.363363,-0.7530984818995718,9.810797975866096,1.3238030362008564,-0.2733333333333333,-0.6044444444444445,0.23777777777777778,0.07474505000919954,0.009546149339075643,0.01652636235326764
1592254058.373363,-0.9071830173718735,9.742079579038421,1.38792042096158,-0.2733333333333333,-0.6044444444444445,0.23777777777777778,0.04983389623728259,-0.02883786085450066,0.020938163872948622
1592254058.383363,-0.835624174060789,9.721420379460072,1.5544331697187088,-0.2733333333333333,-0.6044444444444445,0.23777777777777778,0.030995569529290168,-0.06937962816834206,0.031175529837021727
1592254058.393363,-0.7632490214319566,9.72,1.5926113285706764,-0.2733333333333333,-0.6044444444444445,0.23777777777777778,0.031112965427522003,-0.09934176846512927,0.04510606634665735
1592254058.403363,-0.645379008209697,9.75846408717741,1.5769215476935539,-0.2639310009121886,-0.6249586242723967,0.24461583772042853,0.03692070450626833,-0.12771205688630524,0.0666255330665037
1592254058.413363,-0.4819100456738833,9.760794003044925,1.5331760121797022,-0.2611111111111111,-0.6311111111111111,0.24666666666666667,0.03516642192872681,-0.13500318014072032,0.08094618572443349
1592254058.423363,-0.40388707004567315,9.766611292995432,1.470498363041106,-0.2611111111111111,-0.6311111111111111,0.24666666666666667,0.03274304446643024,-0.12300295377997454,0.08686057002529901
1592254058.433363,-0.3428047001620746,9.8062603997839,1.4671952998379254,-0.2611111111111111,-0.6311111111111111,0.24666666666666667,0.03262294169914488,-0.09496421557867214,0.08648157714446639
1592254058.443363,-0.3586505935174365,9.819325296758718,1.474662648379359,-0.2611111111111111,-0.6311111111111111,0.24666666666666667,0.032724923474893676,-0.07644490329567988,0.08363255162713895
1592254058.453363,-0.42,9.79,1.48,-0.29444444444444445,-0.6177777777777778,0.24444444444444444,0.022907446432425576,-0.025089107997418484,0.07199483164476608
1592254058.463363,-0.41197912220109434,9.814062633396716,1.4238538554076603,-0.29444444444444445,-0.6177777777777778,0.24444444444444444,0.01415802602673686,-0.011090035348316544,0.061495527157939635
1592254058.473363,-0.41,9.786802874327034,1.3934014371635166,-0.29444444444444445,-0.6177777777777778,0.24444444444444444,0.0038513381282040977,-0.013067682463646469,0.04804112828246607
1592254058.483363,-0.44392902064271095,9.763035489678645,1.483304806767455,-0.29444444444444445,-0.6177777777777778,0.24444444444444444,-0.010772125482966457,-0.023433505206710618,0.03286110581689178
1592254058.493363,-0.481561077992169,9.76,1.5631221559843382,-0.29444444444444445,-0.6177777777777778,0.24444444444444444,-0.01446708120606265,-0.02784333162962884,0.023657702829374884
1592254058.503363,-0.5410259410961576,9.76,1.5671792471230739,-0.27256394252649374,-0.6068375268188024,0.2581197581431637,-0.00990134782352137,-0.030347478315975812,0.015159718142078695
1592254058.513363,-0.5757756200819106,9.768591873360636,1.5428162532787262,-0.2677777777777778,-0.6044444444444445,0.2611111111111111,-0.0031032782953152593,-0.03804108586277595,0.009494660201906938
1592254058.5233629,-0.5148835518393129,9.794418668060258,1.4423253277589694,-0.2677777777777778,-0.6044444444444445,0.2611111111111111,-0.003957437217505718,-0.051700337737462056,0.010502421912484452
1592254058.5333629,-0.5080166722082363,9.751899966750582,1.5001667220823636,-0.2677777777777778,-0.6044444444444445,0.2611111111111111,-0.009610222820742656,-0.06416085522454365,0.014406240952135782
1592254058.5433629,-0.47390479772202226,9.788126936370638,1.501952398861011,-0.2677777777777778,-0.6044444444444445,0.2611111111111111,-0.015501912895244233,-0.06654067773228381,0.014615401659196144
1592254058.5533628,-0.4260175338907379,9.796017533890737,1.5299707768487703,-0.2775484121185883,-0.5982267680457468,0.2540051952268853,-0.028136421135565498,-0.06043648820211288,0.008076610642282996
1592254058.5633628,-0.44778376736770176,9.776108116316149,1.553891883683851,-0.28,-0.5966666666666667,0.25222222222222224,-0.030543261909900768,-0.05890486225480862,0.006544984694978735
1592254058.5733628,-0.4876059536512627,9.76,1.4939404634873732,-0.28,-0.5966666666666667,0.25222222222222224,-0.0297135810725969,-0.051437734719073834,0.004885623020371005
1592254058.5833628,-0.5300862277184677,9.76,1.4780172455436935,-0.28,-0.5966666666666667,0.25222222222222224,-0.027703339481425622,-0.04558920192038314,0.006112414775964513
1592254058.5933628,-0.515605893518937,9.753901473379734,1.5592808460634549,-0.28,-0.5966666666666667,0.25222222222222224,-0.027936015618937392,-0.044724062082354694,0.0038840004688747536
1592254058.6033628,-0.5205103582580667,9.729489641741933,1.6578575026021556,-0.28531750028912845,-0.6065420243464766,0.24842400772998766,-0.025378489658517252,-0.04248672906756174,0.002181661564992912
1592254058.6133628,-0.5063648255813954,9.704243217054263,1.7036351744186047,-0.2877777777777778,-0.6111111111111112,0.24666666666666667,-0.01626368447327601,-0.03887337215431665,0.0039004599520253607
