time,acc_x,acc_y,acc_z,mag_x,mag_y,mag_z,gyr_x,gyr_y,gyr_z
1592177680.3703418,-0.010301412020275163,9.68,0.7809698587979725,-0.39444444444444443,-0.6088888888888889,-0.17777777777777778,0.033644201172253675,-0.018055184667852272,-0.008832441443121987
1592177680.3803418,0.09097453324768437,9.679577902567397,0.7921104871630162,-0.39444444444444443,-0.6088888888888889,-0.17777777777777778,0.05282031443252622,-0.03469058431551318,-0.00903473435888432
1592177680.3903418,0.31694647630493794,9.67088667398827,0.8355666300586418,-0.39444444444444443,-0.6088888888888889,-0.17777777777777778,0.06230097410434887,-0.05270383769197619,0.007082387083214157
1592177680.4003417,0.58,9.72,0.7,-0.4066666666666667,-0.6088888888888889,-0.17777777777777778,0.06872233929727672,-0.056723200689815706,0.001090830782496456
1592177680.4103417,0.25410245933038794,9.77831498838011,0.6057874709502771,-0.4066666666666667,-0.6088888888888889,-0.17777777777777778,0.07153531600880625,-0.031738002563396324,-0.015087824700566452
1592177680.4203417,0.19,9.76,0.56,-0.4066666666666667,-0.6088888888888889,-0.17777777777777778,0.06654067773228381,-0.044724062082354694,-0.01308996938995747
1592177680.4303417,0.19934539089848308,9.76,0.6347631271878647,-0.4066666666666667,-0.6088888888888889,-0.17777777777777778,0.0553270136591035,-0.045743486089007454,-0.010031697369999204
1592177680.4403417,0.2644869356291921,9.776121733907297,0.64,-0.4066666666666667,-0.6088888888888889,-0.17777777777777778,0.05014501822149841,-0.05284932631017017,-0.014213997945792492
1592177680.4503417,0.34184031483457844,9.769386561721808,0.69,-0.4066666666666667,-0.5955555555555555,-0.1688888888888889,0.04131773826346246,-0.057747115736610725,-0.011042139296367428
1592177680.4603417,0.36981723585912485,9.760060921380292,0.69,-0.4066666666666667,-0.5955555555555555,-0.1688888888888889,0.039283199153259285,-0.05672984618150914,-0.013076678406570596
1592177680.4703417,0.3787370214699534,9.749579007156651,0.5304209928433489,-0.4066666666666667,-0.5955555555555555,-0.1688888888888889,0.040406662147642436,-0.048949615626519824,-0.0188655856693547
1592177680.4803417,0.3501492672952402,9.74004975576508,0.53995024423492,-0.4066666666666667,-0.5955555555555555,-0.1688888888888889,0.04144614222284973,-0.045831175400897955,-0.02614194619580573
1592177680.4903417,0.3008145703171048,9.789185429682895,0.5481975716138159,-0.4066666666666667,-0.5955555555555555,-0.1688888888888889,0.04592265146390008,-0.04939175824807895,-0.02796837147152884
1592177680.5003417,0.2191124590392526,9.778224918078505,0.6255622951962629,-0.38666666666666666,-0.6166666666666667,-0.17777777777777778,0.034545180321318425,-0.06542398886807162,-0.027173953862340425
1592177680.5103416,0.20816728882133356,9.76,0.5738909627377785,-0.38666666666666666,-0.6166666666666667,-0.17777777777777778,0.018635365200378857,-0.07655807255166339,-0.02591338174403298
1592177680.5203416,0.18004090573797973,9.76,0.48013635245993247,-0.38666666666666666,-0.6166666666666667,-0.17777777777777778,0.00329480296657389,-0.07962618499842439,-0.02182256514835166
1592177680.5303416,0.24786278095414457,9.76969468299345,0.5090840489803476,-0.38666666666666666,-0.6166666666666667,-0.17777777777777778,0.0032724923474893677,-0.08491827644014094,-0.015471460468449539
1592177680.5403416,0.2815875823727232,9.833175164745446,0.47841241762727676,-0.38666666666666666,-0.6166666666666667,-0.17777777777777778,-0.0001731783721915241,-0.07560920655560112,-0.018717301674631273
1592177680.5503416,0.26,9.86835868216698,0.5028723062077839,-0.4011111111111111,-0.6022222222222222,-0.14666666666666667,-0.03823541584253039,-0.054317739122808066,-0.017274252518331507
1592177680.5603416,0.26,9.829767978786633,0.5699071915146527,-0.4011111111111111,-0.6022222222222222,-0.14666666666666667,-0.09066550288807289,-0.04906713754180179,-0.013084907472322788
1592177680.5703416,0.26,9.781828738627532,0.5507314954510127,-0.4011111111111111,-0.6022222222222222,-0.14666666666666667,-0.11681230231559131,-0.044883649633398845,-0.012039035495222053
1592177680.5803416,0.20285424240993438,9.760951414136645,0.7119129798385193,-0.4011111111111111,-0.6022222222222222,-0.14666666666666667,-0.11677078531847851,-0.04160724450893849,-0.01511595618087722
1592177680.5903416,0.23828848698720778,9.775315394794882,0.788919276576974,-0.4011111111111111,-0.6022222222222222,-0.14666666666666667,-0.12173084495362413,-0.044792870552534225,-0.016106956159367608
1592177680.6003416,0.37,9.76,0.85,-0.4011111111111111,-0.6166666666666667,-0.15444444444444444,-0.14180800172453928,-0.04145156973486533,-0.006544984694978735
1592177680.6103415,0.39285793430945787,9.699045508508112,0.8195227542540562,-0.4011111111111111,-0.6166666666666667,-0.15444444444444444,-0.14845710528961623,-0.029815638495980692,-0.002389294966805652
1592177680.6203415,0.4713249468301733,9.661159328476401,0.73,-0.4011111111111111,-0.6166666666666667,-0.15444444444444444,-0.12586792285535897,-0.012855109311984796,-0.0032724923474893677
1592177680.6303415,0.5472433141771121,9.727587899904973,0.73,-0.4011111111111111,-0.6166666666666667,-0.15444444444444444,-0.08756640527811096,0.0006021806475888271,-0.0032724923474893677
1592177680.6403415,0.3878350495768298,9.714555719007318,0.7377221404963414,-0.4011111111111111,-0.6166666666666667,-0.15444444444444444,-0.07269795412094529,0.006144959918599479,-0.0015877826354550272
1592177680.6503415,0.3955634389363606,9.77482401209242,0.7863028657803005,-0.3959663482466333,-0.6032902832190243,-0.1688497804649824,-0.07377319842837207,0.010666330956132402,0.0019396846961607557
1592177680.6603415,0.3643705655787553,9.744370565578755,0.8078147172106224,-0.39555555555555555,-0.6022222222222222,-0.17,-0.09458097722031605,0.021596370878113495,-0.004619833105192775
1592177680.6703415,0.23229785559708835,9.712635254770806,0.7826352547708046,-0.39555555555555555,-0.6022222222222222,-0.17,-0.10305400093242045,0.016937385142189707,-0.009434194772639523
1592177680.6803415,0.1924774656306037,9.71,0.8809159593544531,-0.39555555555555555,-0.6022222222222222,-0.17,-0.09562294361650887,0.012359471377119617,-0.009817477042468103
1592177680.6903415,0.17529045325995568,9.687935679889934,0.9120643201100666,-0.39555555555555555,-0.6022222222222222,-0.17,-0.08848402752494736,0.00718545069327779,-0.00741063308537649
1592177680.7003415,0.16060389219554605,9.708188323413363,1.0233571858489936,-0.38302741181628364,-0.6022222222222222,-0.16895598802172734,-0.08925050090584609,0.0013543284609808534,-0.005520028332103379
1592177680.7103415,0.2674017222924978,9.719763792935682,1.0104724141286368,-0.38222222222222224,-0.6022222222222222,-0.1688888888888889,-0.0841228012206279,-0.0021043629839524293,0.0041314273868643765
1592177680.7203414,0.1510283672101854,9.710848335939247,0.8544217109671655,-0.38222222222222224,-0.6022222222222222,-0.1688888888888889,-0.06602471988885864,-0.0011833698781391082,-0.005619593738552212
1592177680.7303414,0.17601897972191402,9.71900474493048,0.8850237246523925,-0.38222222222222224,-0.6022222222222222,-0.1688888888888889,-0.05355409791272655,-0.016807075516408237,-0.0035981888073702765
1592177680.7403414,0.2019385539833301,9.749251405311107,0.9046257026555534,-0.38222222222222224,-0.6022222222222222,-0.1688888888888889,-0.045180502557286874,-0.027318914972214548,-0.0064633256819529306
1592177680.7503414,0.23933964892727777,9.711100585121205,0.9295597659515186,-0.38874214420606173,-0.5826624562707037,-0.1775821182006749,-0.04040876103752753,-0.04441191852882339,-0.01937083261656356
1592177680.7603414,0.18840267459138188,9.704266963843487,0.9242669638434869,-0.3888888888888889,-0.5822222222222222,-0.17777777777777778,-0.04348762511071372,-0.051603211630713346,-0.020260331316605176
1592177680.7703414,0.2029822695035461,9.691169621749408,0.8493569739952719,-0.3888888888888889,-0.5822222222222222,-0.17777777777777778,-0.0419619134981184,-0.056723200689815706,-0.013983070975650344
1592177680.7803414,0.2806008085126156,9.707650202128155,0.8753004042563078,-0.3888888888888889,-0.5822222222222222,-0.17777777777777778,-0.03856356216506412,-0.06346188501935186,-0.004425946680553844
1592177680.7903414,0.35620017149580235,9.72471114922129,0.953555746106447,-0.3888888888888889,-0.5822222222222222,-0.17777777777777778,-0.030957758899959394,-0.06355664744646684,-0.002470123626665305
1592177680.8003414,0.39814340386500935,9.720928298067497,0.9255697884049721,-0.3646976837355431,-0.606413427375568,-0.17777777777777778,-0.02638246200138612,-0.059309908697750977,-0.005150369080275515
1592177680.8103414,0.32616491186560986,9.72,0.9015412279664025,-0.3622222222222222,-0.6088888888888889,-0.17777777777777778,-0.02315962926871501,-0.05085070355827546,-0.010488003097815505
1592177680.8203413,0.2767908680695171,9.728641826386097,0.7876562569807444,-0.3622222222222222,-0.6088888888888889,-0.17777777777777778,-0.021022092384636724,-0.05866230920988681,-0.009965630801070133
1592177680.8303413,0.2524823543778239,9.73,0.7612411771889119,-0.3622222222222222,-0.6088888888888889,-0.17777777777777778,-0.021681224221509362,-0.07528272270253224,-0.010772916396544801
1592177680.8403413,0.2567488739975832,9.723251126002417,0.7802466219927496,-0.3622222222222222,-0.6088888888888889,-0.17777777777777778,-0.028442307203307433,-0.08481086506100205,-0.0035464283212108764
1592177680.8503413,0.3226302160402486,9.755788694880142,0.7631584788398935,-0.39900504751570154,-0.5850297589687942,-0.1817542994311269,-0.026754166437318188,-0.09226123438627615,0.009759852510158066
1592177680.8603413,0.31330033606078317,9.837931765049678,0.7043344535359439,-0.4033333333333333,-0.5822222222222222,-0.18222222222222223,-0.02617993877991494,-0.08543401351930126,0.009693873992814976
1592177680.8703413,0.35798510366294256,9.866865655049747,0.5274626201989884,-0.4033333333333333,-0.5822222222222222,-0.18222222222222223,-0.051480713180629245,-0.06517306175040453,0.004208650831272663
1592177680.8803413,0.22970812856186984,9.86,0.5742721672319513,-0.4033333333333333,-0.5822222222222222,-0.18222222222222223,-0.10083320011945476,-0.036971640642504244,-0.0003283239324811675
1592177680.8903413,0.2065156972776219,9.82742151361189,0.6290941836657314,-0.4033333333333333,-0.5822222222222222,-0.18222222222222223,-0.1464222771474195,-0.0245265695325389,-0.0025123354144681205
1592177680.9003413,0.11404560724829481,9.762022803624147,0.8259163867114595,-0.38645246794182964,-0.5982146210141731,-0.20088002081283157,-0.1858680299609133,-0.025087035089487446,-0.000655742214256497
1592177680.9103413,0.005260534236267864,9.72457816027088,0.9547394657637321,-0.38222222222222224,-0.6022222222222222,-0.20555555555555555,-0.19274411529182744,-0.02802866713486261,0.0
1592177680.9203413,0.1234558823529412,9.711102941176472,0.8899264705882353,-0.38222222222222224,-0.6022222222222222,-0.20555555555555555,-0.20084119701258277,-0.04388989736632799,0.00679362994687131
1592177680.9303412,0.20302417034337233,9.66498273546902,1.060069058123921,-0.38222222222222224,-0.6022222222222222,-0.20555555555555555,-0.20376794347761154,-0.06447525566463921,0.01156431290900952
1592177680.9403412,0.21466059745924054,9.66,1.0986423898369622,-0.38222222222222224,-0.6022222222222222,-0.20555555555555555,-0.19890143315347292,-0.06806585468429312,0.015049492511479627
1592177680.9503412,0.2026356284582392,9.703410928854403,1.1373643715417607,-0.37546941106709303,-0.5964340983749685,-0.18529712209016796,-0.16371758245736262,-0.058448215481898304,0.008126248254387783
1592177680.9603412,0.18759580425425215,9.71,1.1213937063813784,-0.37444444444444447,-0.5955555555555555,-0.18222222222222223,-0.1484365914032239,-0.04319232213824238,-0.004956262073858588
1592177680.9703412,0.07044420626414195,9.702174586161725,1.055222103132071,-0.37444444444444447,-0.5955555555555555,-0.18222222222222223,-0.14180800172453928,-0.0314921041196607,-0.018828100447912808
1592177680.9803412,0.04,9.660750938972752,1.1341977464653956,-0.37444444444444447,-0.5955555555555555,-0.18222222222222223,-0.14352056508264344,-0.035680951984213276,-0.024150911583641
1592177680.9903412,0.04622697126013265,9.62509211495947,1.2098157700810612,-0.37444444444444447,-0.5955555555555555,-0.18222222222222223,-0.1412726345166228,-0.043201561343925596,-0.018975793258372394
1592177681.0003412,0.11811137514206015,9.6478396528567,1.3383830974274202,-0.36014946447635776,-0.5913511496825888,-0.18222222222222223,-0.13054547536983133,-0.054335522111659915,-0.002063100351728497
1592177681.0103412,0.17325483840213557,9.585176613595195,1.3616862903994662,-0.35555555555555557,-0.59,-0.18222222222222223,-0.11221015595878758,-0.06307139593411479,0.0076229717743921226
1592177681.0203412,0.20363932203389828,9.577879774011299,1.2733224858757062,-0.35555555555555557,-0.59,-0.18222222222222223,-0.08329657809772259,-0.0609208161470345,-0.0015879538007975546
1592177681.0303411,0.2257817952694843,9.587890897634741,1.297345385808453,-0.35555555555555557,-0.59,-0.18222222222222223,-0.040206091800430034,-0.052248822399950386,-0.0060848499382868656
1592177681.0403411,0.1689957421817648,9.64490383203641,1.3527029804727646,-0.35555555555555557,-0.59,-0.18222222222222223,-0.015237837782860126,-0.04019641765111481,-0.0045486250262343035
1592177681.0503411,0.06655300449652542,9.616553004496526,1.3870496661670526,-0.37435466533436285,-0.5939164812039182,-0.1924050733524095,-7.115890954083326e-05,-0.035353752829659114,-0.0048104909197583525
1592177681.0603411,0.032125399266532594,9.566376197799599,1.3663761977995978,-0.38222222222222224,-0.5955555555555555,-0.19666666666666666,0.027951232204799167,-0.04372828701432492,-0.013185025104424156
1592177681.070341,0.037589923087551234,9.575179846175102,1.2916906922120388,-0.38222222222222224,-0.5955555555555555,-0.19666666666666666,0.0754752615692256,-0.05326628243146444,-0.0036805805179963794
1592177681.080341,0.15800463928395697,9.7201305091497,1.1593706506712904,-0.38222222222222224,-0.5955555555555555,-0.19666666666666666,0.1213425859655977,-0.06126400522643373,0.007240673981718609
1592177681.090341,0.24451530823334713,9.795437318990484,1.0500473727761688,-0.38222222222222224,-0.5955555555555555,-0.19666666666666666,0.1310002696711425,-0.054943842211093934,0.011204867571418187
1592177681.100341,0.27843725089245486,9.801562749107546,0.9846882473226354,-0.3756599159725351,-0.6011803894838588,-0.20322897291635378,0.09759621764110418,-0.029009906110625427,0.009238054709520379
1592177681.110341,0.3021190396798933,9.811059519839947,0.8915238412804267,-0.37444444444444447,-0.6022222222222222,-0.20444444444444446,0.07353368870813617,-0.011818636848269995,0.004504223621606219
1592177681.120341,0.26274627960595265,9.811820897086566,0.7382089708656465,-0.37444444444444447,-0.6022222222222222,-0.20444444444444446,0.02767780194567263,0.025675220911048686,0.001090830782496456
1592177681.130341,0.20885988406955827,9.78942994203478,0.7714251449130521,-0.37444444444444447,-0.6022222222222222,-0.20444444444444446,-0.0011517062481116898,0.03892658973091201,-0.0033968597027434115
1592177681.140341,0.15207245155855098,9.75207245155855,0.8797584948048301,-0.37444444444444447,-0.6022222222222222,-0.20444444444444446,-0.03746135300563229,0.04451116475187589,-0.015458184155326779
1592177681.150341,0.14722669925358345,9.71831990223925,0.9705868947750842,-0.360794012521009,-0.5933895898011757,-0.18758214618608304,-0.04799655442984406,0.03969167829903174,-0.016784231866606165
1592177681.160341,0.18108616131252037,9.717771540328132,0.9783426895078049,-0.35555555555555557,-0.59,-0.1811111111111111,-0.04587719557550984,0.035211974991308036,-0.007641939079347162
1592177681.170341,0.2766437117787822,9.769980324381812,0.8533858016484978,-0.35555555555555557,-0.59,-0.1811111111111111,-0.04472298894385556,0.021820908203925647,0.004363323129985824
1592177681.180341,0.42544264782588076,9.783030964009672,0.8209071079709801,-0.35555555555555557,-0.59,-0.1811111111111111,-0.061779174728256656,0.009091049639111842,0.002082711435213609
1592177681.190341,0.48,9.774550840014202,0.8844915998579731,-0.35555555555555557,-0.59,-0.1811111111111111,-0.0829882067802903,0.0173423768149936,-0.0030700472333825054
1592177681.200341,0.391108678075731,9.746295647486862,0.9892608812828461,-0.36345700639326833,-0.5932922711823803,-0.19888937549596492,-0.10977030458246685,0.04795671948279426,-0.014302215915122311
1592177681.210341,0.18362180085933122,9.73697039043527,1.0927335139174295,-0.3688888888888889,-0.5955555555555555,-0.2111111111111111,-0.1374794739160762,0.08270684902488856,-0.01659354750381168
1592177681.220341,-0.014374951681484338,9.680277799252673,1.1423958252802473,-0.3688888888888889,-0.5955555555555555,-0.2111111111111111,-0.1540381811309009,0.10221614316291497,0.003458078349964349
1592177681.230341,0.008866301239275495,9.644696377502383,1.1576518112488083,-0.3688888888888889,-0.5955555555555555,-0.2111111111111111,-0.14706343517702625,0.10247185340133509,0.014825575793699806
1592177681.240341,-0.006574663298064318,9.652191554432688,1.1539042227836558,-0.3688888888888889,-0.5955555555555555,-0.2111111111111111,-0.13667525571562067,0.09147307062592744,0.0190222463097783
1592177681.250341,0.11287668182830243,9.653196348484366,1.211232863640701,-0.372668695286463,-0.6000913232326445,-0.2111111111111111,-0.131248361431408,0.06504639326681816,0.03260039687804328
1592177681.260341,0.20738242050538025,9.656845605126346,1.22630878974731,-0.37444444444444447,-0.6022222222222222,-0.2111111111111111,-0.12604588598176342,0.04965845247001306,0.04116603610602905
1592177681.270341,0.17692048685588868,9.708344390681898,1.1233112186362049,-0.37444444444444447,-0.6022222222222222,-0.2111111111111111,-0.10486784191442029,0.04027043947197016,0.033660430444917636
1592177681.280341,0.03856599467478128,9.762655001901864,1.0734689996196274,-0.37444444444444447,-0.6022222222222222,-0.2111111111111111,-0.10458656505454705,0.049288207615812665,0.016918457647886263
1592177681.290341,-0.004810647744089857,9.707349068417258,1.1685976928622928,-0.37444444444444447,-0.6022222222222222,-0.2111111111111111,-0.11308688213091693,0.04948821471495139,0.007470574461889647
1592177681.300341,-0.05159386231683716,9.645732651368538,1.3115938623168373,-0.3591573741283446,-0.5984004546431972,-0.2193916075323319,-0.1146830482205567,0.03831086977110583,-0.0023555249728196208
1592177681.310341,-0.035200243360490956,9.634342926674426,1.389142683313935,-0.3477777777777778,-0.5955555555555555,-0.22555555555555556,-0.09954615743662974,0.01564570592755339,-0.008252906449712764
1592177681.3203409,-0.028265359847717792,9.638265359847718,1.4,-0.3477777777777778,-0.5955555555555555,-0.22555555555555556,-0.08832941625193245,0.0023430043221788106,-0.005120202679851333
1592177681.3303409,0.05680265941372017,9.65,1.4207434270172257,-0.3477777777777778,-0.5955555555555555,-0.22555555555555556,-0.07292347181227668,-0.024148270568211814,-0.0022627568724858486
1592177681.3403409,0.12114028373591557,9.639429858132043,1.4352850709339788,-0.3477777777777778,-0.5955555555555555,-0.22555555555555556,-0.07205702447476194,-0.04899163970977746,-0.006731563184966248
1592177681.3503408,0.23284884652355015,9.63,1.40286046139058,-0.3477777777777778,-0.5831757093524156,-0.22555555555555556,-0.0683591513649276,-0.08030459600284007,-0.013868772238755205
1592177681.3603408,0.2867855742845943,9.642857702861624,1.3253547628381026,-0.3477777777777778,-0.5755555555555556,-0.22555555555555556,-0.054930663394549085,-0.08909748471286812,-0.019167577352177043
1592177681.3703408,0.3603293657263982,9.67,1.1497529757052014,-0.3477777777777778,-0.5755555555555556,-0.22555555555555556,-0.008627843634881682,-0.08105514797614868,-0.029470395241057032
1592177681.3803408,0.3557071729274612,9.69384998380829,1.1370357027202074,-0.3477777777777778,-0.5755555555555556,-0.22555555555555556,0.007360767511794718,-0.06852911247149124,-0.030890769935250795
1592177681.3903408,0.24606091143209047,9.711273093718509,1.1939390885679095,-0.3477777777777778,-0.5755555555555556,-0.22555555555555556,0.012138011589176217,-0.04709088762296788,-0.031541510704587085
1592177681.4003408,0.1992407688604126,9.617722306581237,1.2770878856338654,-0.3587340386570045,-0.5893950429819472,-0.22901542741215347,0.008726646259971648,-0.04027791968255969,-0.026456191544283327
1592177681.4103408,0.2004465852656734,9.573011463350884,1.3374351219147904,-0.3688888888888889,-0.6022222222222222,-0.23222222222222222,0.011362545713258516,-0.03838183888378264,-0.015376962660395878
1592177681.4203408,0.3011356850602676,9.663407055180803,1.3254572597589296,-0.3688888888888889,-0.6022222222222222,-0.23222222222222222,0.03626930928514397,-0.026515402719550312,0.01663435520020776
1592177681.4303408,0.2387653783591835,9.743425966230612,1.2306378152993196,-0.3688888888888889,-0.6022222222222222,-0.23222222222222222,0.05597129742163154,0.005653931714385569,0.016910113820372618
1592177681.4403408,0.21142907732351224,9.775714184535296,1.1642851072117852,-0.3688888888888889,-0.6022222222222222,-0.23222222222222222,0.05376217561570379,0.05017891132051239,0.01309004664836585
1592177681.4503407,0.2221039970392302,9.773579200592154,1.1801088082901554,-0.36650275516078623,-0.5998360884941195,-0.24057369027058145,0.03004863353287832,0.10818877464143459,0.019405443611268836
1592177681.4603407,0.17820657907355905,9.750516447683898,1.2758967104632206,-0.3622222222222222,-0.5955555555555555,-0.25555555555555554,-0.013590818375399282,0.16432109823516372,0.02419390909017554
1592177681.4703407,0.08883674231810966,9.701013122256468,1.2452157467077614,-0.3622222222222222,-0.5955555555555555,-0.25555555555555554,-0.03911232504548404,0.17998707911191522,0.019397547861819332
1592177681.4803407,-0.02587473455767391,9.752637154924976,1.2591123141903717,-0.3622222222222222,-0.5955555555555555,-0.25555555555555554,-0.05604820571024699,0.17023509824482255,0.02624260943042964
1592177681.4903407,-0.041206985839032845,9.707167806567975,1.3516993160592154,-0.3622222222222222,-0.5955555555555555,-0.25555555555555554,-0.06910115653021318,0.15714950553466234,0.030419684158795257
1592177681.5003407,0.03249131441806601,9.65422481181239,1.4042595541401273,-0.36005613459435115,-0.5955555555555555,-0.25266743871839414,-0.07106933088966885,0.13739335838547537,0.011593393139072965
1592177681.5103407,0.013695431973713451,9.85575363786842,1.3012318106579046,-0.35555555555555557,-0.5955555555555555,-0.24666666666666667,-0.06346265224070013,0.12176993854444823,-0.014808424702274812
1592177681.5203407,-0.1113617414426392,9.69822813619668,1.274421659868851,-0.35555555555555557,-0.5955555555555555,-0.24666666666666667,-0.10961818191379967,0.154275137881811,-0.011620615876774784
1592177681.5303407,-0.20638611803823773,9.494622558187864,1.252605205735661,-0.35555555555555557,-0.5955555555555555,-0.24666666666666667,-0.14226633993907792,0.17010547722372837,-0.024538960458916598
1592177681.5403407,-0.2580547372142352,9.477171517794012,1.2240693495168513,-0.35555555555555557,-0.5955555555555555,-0.24666666666666667,-0.13439354031346273,0.16539104724783282,-0.034143800469613905
1592177681.5503407,-0.4728874918707999,9.806769997832212,1.0941924994580534,-0.35322638918997035,-0.5908972228243852,-0.25272249921718815,-0.06742152418032181,0.1408257101419487,-0.006653523894884626
1592177681.5603406,-0.5472345961288289,9.807305948673473,1.1070918910395395,-0.35,-0.5844444444444444,-0.2611111111111111,-0.07036978748225019,0.116154492969433,0.007806103248937563
1592177681.5703406,-0.49218263785804606,9.564632470174281,1.1555456594645115,-0.35,-0.5844444444444444,-0.2611111111111111,-0.14286968611304524,0.027219733386925966,-0.007388011156551811
1592177681.5803406,-0.47855820157715095,9.498203146455333,1.211299776374122,-0.35,-0.5844444444444444,-0.2611111111111111,-0.14678258210535472,-0.014291599375870434,-0.007290279452606566
1592177681.5903406,-0.23583877784455515,9.638092126945969,1.4980537407184815,-0.35,-0.5844444444444444,-0.2611111111111111,-0.07194039690262953,-0.08140863721951754,0.012886040012170818
1592177681.6003406,-0.10570159719516946,9.731492014024154,1.5571936112193223,-0.35525360342812623,-0.5896980478725706,-0.25251430550145004,-0.02617025006084953,-0.11065248076071528,0.019778330129351596
1592177681.6103406,-0.10936522607120412,9.741269547857591,1.5643912898813266,-0.3622222222222222,-0.5966666666666667,-0.2411111111111111,-0.02879746485365944,-0.11392541679737303,0.01162683095157698
1592177681.6203406,-0.07575607337630143,9.59787803668815,1.411551809618245,-0.3622222222222222,-0.5966666666666667,-0.2411111111111111,-0.07975070881471238,-0.10242235840967219,-0.009073851694955646
1592177681.6303406,0.0013433934486566065,9.560268678689733,1.3502686786897313,-0.3622222222222222,-0.5966666666666667,-0.2411111111111111,-0.09116085295312672,-0.10047366518381783,-0.01538886414909428
1592177681.6403406,0.08599452554744526,9.584397810218977,1.367198905109489,-0.3622222222222222,-0.5966666666666667,-0.2411111111111111,-0.0596488367164109,-0.1086461487665106,-0.01610119980277045
1592177681.6503406,0.21746441317635476,9.653653443819994,1.4038109693563605,-0.3573718395755562,-0.5944619472818184,-0.2433158304959593,-0.025590737117974143,-0.11995701933379065,-0.006354311931135055
1592177681.6603405,0.32,9.72,1.44,-0.35,-0.5911111111111111,-0.24666666666666667,-0.01308996938995747,-0.1265363707695889,-0.001090830782496456
1592177681.6703405,0.2694130932215982,9.70988261864432,1.3442370211880776,-0.35,-0.5911111111111111,-0.24666666666666667,-0.014244821770487581,-0.1055929124688418,-0.013718612858649452
1592177681.6803405,0.20640603893524037,9.695817242749303,1.2904568931267382,-0.35,-0.5911111111111111,-0.24666666666666667,-0.022144428285558963,-0.08201938018023253,-0.019813248794478936
1592177681.6903405,0.09700453011352356,9.663502265056762,1.3835022650567617,-0.35,-0.5911111111111111,-0.24666666666666667,-0.0501278748048999,-0.021806732475369704,-0.007796722221845822
1592177681.7003405,0.08622649059623849,9.678644912510459,1.39,-0.3473584989551376,-0.5923117934042305,-0.24666666666666667,-0.06429913535493734,0.015032107705536122,0.0018860273356794196
1592177681.7103405,0.0392891543055288,9.700177711423619,1.3359774128298978,-0.3377777777777778,-0.5966666666666667,-0.24666666666666667,-0.07038766343471393,0.06135085222868859,0.011405259943391897
1592177681.7203405,0.10379373427852734,9.685241253144294,1.2466887720100617,-0.3377777777777778,-0.5966666666666667,-0.24666666666666667,-0.0692414380529079,0.07848718306851073,0.020409985240028017
1592177681.7303405,0.15703730901338386,9.675493781831102,1.2325310908444866,-0.3377777777777778,-0.5966666666666667,-0.24666666666666667,-0.07816955661494579,0.07766443852573009,0.033169395351945
1592177681.7403405,0.19658022178551376,9.666709889107244,1.286320887142055,-0.3377777777777778,-0.5966666666666667,-0.24666666666666667,-0.09051066592600059,0.0767029056881139,0.03820736640858121
1592177681.7503405,0.19603651176825587,9.668378092939047,1.3609452323476163,-0.340415325554885,-0.5949600181050091,-0.24790786562059947,-0.0945976420213074,0.08404786993256319,0.033206482145621594
1592177681.7603405,0.10090161205953682,9.724549193970232,1.4399588663274525,-0.3566666666666667,-0.5844444444444444,-0.25555555555555554,-0.08924693593940564,0.1281369025967765,0.023497550145473257
1592177681.7703404,-0.04088114597405246,9.72030510029822,1.375152550149109,-0.3566666666666667,-0.5844444444444444,-0.25555555555555554,-0.09037254854868314,0.1583997066960412,0.004200642455339815
1592177681.7803404,-0.18,9.71,1.37,-0.3566666666666667,-0.5844444444444444,-0.25555555555555554,-0.09599310885968812,0.16907877128695067,-0.008726646259971648
1592177681.7903404,-0.20223752288466132,9.600228050624851,1.5542469951444717,-0.3566666666666667,-0.5844444444444444,-0.25555555555555554,-0.14705797760748718,0.1717983375480803,-0.0012053580293413827
1592177681.8003404,-0.2172177594442032,9.515112896222318,1.7153386886669562,-0.3566666666666667,-0.5875689921358614,-0.2518629082838809,-0.15809657305726643,0.15510294593912782,0.012581499201069088
1592177681.8103404,-0.18,9.53,1.76,-0.3566666666666667,-0.5966666666666667,-0.2411111111111111,-0.148352986419518,0.1461713248545251,0.017453292519943295
1592177681.8203404,0.027712204329617178,9.54,1.7702055683359879,-0.3566666666666667,-0.5966666666666667,-0.2411111111111111,-0.09833173861284243,0.09285516067347996,0.027929752837285313
1592177681.8303404,0.07,9.54,1.74,-0.3566666666666667,-0.5966666666666667,-0.2411111111111111,-0.07526732399225547,0.07308566242726255,0.0272707695624114
1592177681.8403404,0.14946818465377418,9.61,1.6267553025577042,-0.3566666666666667,-0.5966666666666667,-0.2411111111111111,-0.03080431615752098,0.05171000644486787,0.003713452015023805
1592177681.8503404,0.18204676023561922,9.62060431968584,1.6279532397643808,-0.35990687545956257,-0.5934264578737708,-0.24494044877544258,-0.005992112530146429,0.046104080823369864,-0.004784353191661334
1592177681.8603404,0.16,9.65,1.65,-0.3688888888888889,-0.5844444444444444,-0.25555555555555554,0.007635815477475192,0.04690572364734761,-0.011999138607461015
1592177681.8703403,0.09489038461538463,9.657445192307692,1.4887225961538462,-0.3688888888888889,-0.5844444444444444,-0.25555555555555554,0.01758466420793145,0.0675160797382286,-0.03165003560383371
1592177681.8803403,0.035204433556121115,9.62,1.511812192279333,-0.3688888888888889,-0.5844444444444444,-0.25555555555555554,0.002570975265046651,0.08637331132942992,-0.03300575862913438
1592177681.8903403,0.07726133111119163,9.617123111481467,1.6145226622223834,-0.3688888888888889,-0.5844444444444444,-0.25555555555555554,-0.023580318411244944,0.09255616787316512,-0.005841957870789822
1592177681.9003403,0.12178458397141398,9.611784583971414,1.697323124042879,-0.3682940275650842,-0.5855350235380863,-0.25555555555555554,-0.0410622339088717,0.08983745999070301,0.02358878412791443
1592177681.9103403,0.14361419966191283,9.626385800338088,1.6627716006761744,-0.3622222222222222,-0.5966666666666667,-0.25555555555555554,-0.030386030187864774,0.09341719927016494,0.029360517836309934
1592177681.9203403,0.16078473790562225,9.612810174729585,1.6284305241887556,-0.3622222222222222,-0.5966666666666667,-0.25555555555555554,-0.013054105394422165,0.0907598958307639,0.02491790474468958
1592177681.9303403,0.1688600074266617,9.59257333828444,1.623419977720015,-0.3622222222222222,-0.5966666666666667,-0.25555555555555554,0.0007781232577704013,0.08281078543393074,0.018295415504276803
1592177681.9403403,0.15,9.582872019160678,1.6914880766427158,-0.3622222222222222,-0.5966666666666667,-0.25555555555555554,0.012961723221735198,0.07464074661057782,0.011361201954904511
1592177681.9503403,0.14966331135022562,9.59,1.7203366886497744,-0.36203517297234755,-0.5973774538161903,-0.2557426048054302,0.026804298363509754,0.07293875428994613,0.004363323129985824
1592177681.9603403,0.15628211926915103,9.585929470182712,1.7422115894518633,-0.3566666666666667,-0.6177777777777778,-0.2611111111111111,0.048276269462968424,0.06783428745212329,0.006139426820292689
1592177681.9703403,0.222651405065838,9.611019203684245,1.6436779861840782,-0.3566666666666667,-0.6177777777777778,-0.2611111111111111,0.05641141978721533,0.06527180139875996,0.014225110371908357
1592177681.9803402,0.27515337736185835,9.70825152357396,1.4377300660427874,-0.3566666666666667,-0.6177777777777778,-0.2611111111111111,0.06594506971673962,0.06934136775596705,0.0261464770303843
1592177681.9903402,0.2750795435993252,9.764920456400674,1.3874602282003374,-0.3566666666666667,-0.6177777777777778,-0.2611111111111111,0.07178270861996223,0.08886381625431453,0.028556369648372812
1592177682.0003402,0.3097128712871287,9.724044935262757,1.3678027418126428,-0.3566666666666667,-0.6136163154777016,-0.2611111111111111,0.05939104212831732,0.1099342253453559,0.019603633201082347
1592177682.0103402,0.2,9.8,1.41,-0.3566666666666667,-0.5911111111111111,-0.2611111111111111,0.020725784867432664,0.11453723216212788,0.007635815477475192
1592177682.0203402,0.2272898730022471,9.632898730022472,1.4583189840179767,-0.3566666666666667,-0.5911111111111111,-0.2611111111111111,-0.04875060941997132,0.12178573344528772,0.032154238882672374
1592177682.0303402,0.20144037109791021,9.581652900385771,1.4278394433531347,-0.3566666666666667,-0.5911111111111111,-0.2611111111111111,-0.06342530549797631,0.11139867657888226,0.0224914628005328
1592177682.0403402,0.16903139045192342,9.643547085677886,1.4809686095480765,-0.3566666666666667,-0.5911111111111111,-0.2611111111111111,-0.054471588833642434,0.09511359589944404,0.02325939831139433
1592177682.0503402,0.19871819372190963,9.688077290582864,1.4512818062780903,-0.3566666666666667,-0.5911111111111111,-0.2611111111111111,-0.03989911335527461,0.08863694013128057,0.02083065239833303
1592177682.0603402,0.2287170263788969,9.68687170263789,1.3724604316546762,-0.38222222222222224,-0.5966666666666667,-0.27666666666666667,-0.04908738521234052,0.07090400086226964,0.009817477042468103
1592177682.0703402,0.11638273428524537,9.717386227755505,1.2650758481629973,-0.38222222222222224,-0.5966666666666667,-0.27666666666666667,-0.05520469242390959,0.07736115847448144,0.009817477042468103
1592177682.0803401,0.06148783303102401,9.782219500129562,1.2366707498056582,-0.38222222222222224,-0.5966666666666667,-0.27666666666666667,-0.06839908068749591,0.08872045824167496,0.008201183993564023
1592177682.0903401,0.18858995846389273,9.726804634555126,1.3043984551482912,-0.38222222222222224,-0.5966666666666667,-0.27666666666666667,-0.06835120405545818,0.0818123086872342,-0.0023538352496746363
1592177682.1003401,0.2879230124608322,9.680958609633462,1.3196804634555126,-0.38222222222222224,-0.5966666666666667,-0.27666666666666667,-0.07085171681744074,0.0818123086872342,-0.025691954361511837
1592177682.11034,0.21295202601656893,9.608671635768035,1.4395202601656893,-0.3688888888888889,-0.5966666666666667,-0.24666666666666667,-0.09599310885968812,0.07648293730236723,-0.01312218135599886
1592177682.12034,0.22,9.533887115248701,1.4950705529695612,-0.3688888888888889,-0.5966666666666667,-0.24666666666666667,-0.08589609862008721,0.06929084309382308,0.0177328257170761
1592177682.13034,0.22930812569246364,9.602410834256618,1.4817189599490819,-0.3688888888888889,-0.5966666666666667,-0.24666666666666667,-0.046946969553269775,0.04867580044289523,0.036036321717433074
1592177682.14034,0.2252954299980523,9.638983480000709,1.5479669600014165,-0.3688888888888889,-0.5966666666666667,-0.24666666666666667,-0.0077002683046648555,0.023706858498518776,0.020568467433372185
1592177682.15034,0.14360323671583122,9.668689732103335,1.6073794642066683,-0.3688888888888889,-0.5966666666666667,-0.24666666666666667,0.010122203519714533,0.008314723741100215,0.009226894454221665
1592177682.16034,0.062163752096881686,9.60044833053749,1.5495516694625089,-0.36,-0.6044444444444445,-0.28444444444444444,0.03244848709671111,-0.005551964462687973,-0.014612450012162293
1592177682.17034,0.0375566367265469,9.634886726546906,1.4857929141716566,-0.36,-0.6044444444444445,-0.28444444444444444,0.053110041453491304,-0.014397904891814561,-0.028553992630373608
1592177682.18034,0.06486849069194836,9.658046574775065,1.4148684906919482,-0.36,-0.6044444444444445,-0.28444444444444444,0.057788628873147785,-0.02591275966380264,-0.040440235030979134
1592177682.19034,0.1506911427260211,9.663244056906837,1.5304794860027535,-0.36,-0.6044444444444445,-0.28444444444444444,0.03647285584567471,-0.03850986093388461,-0.03916530055155646
1592177682.20034,0.11219366681964205,9.593948600275356,1.6151739329967876,-0.36,-0.6044444444444445,-0.28444444444444444,-0.002161837380051719,-0.044389053381277764,-0.02068783857403513
1592177682.21034,0.28,9.57,1.77,-0.3566666666666667,-0.6177777777777778,-0.25555555555555554,-0.025089107997418484,-0.04363323129985824,0.02181661564992912
1592177682.22034,0.2821740252367559,9.554347792428972,1.8136957138802159,-0.3566666666666667,-0.6177777777777778,-0.25555555555555554,0.014583911870545217,-0.033602333903020455,0.013279688881971667
1592177682.23034,0.11582079358936417,9.61985088897489,1.7214924761536186,-0.3566666666666667,-0.6177777777777778,-0.25555555555555554,0.04641731196819491,-0.03068980031333172,-0.004330792150745941
1592177682.24034,0.06413722594570033,9.668017153243213,1.6940514597296377,-0.3566666666666667,-0.6177777777777778,-0.25555555555555554,0.04934110281169999,-0.03532981945288405,-0.01851605637386592
1592177682.25034,0.0006088833352266287,9.660076110416904,1.67022833125071,-0.3566666666666667,-0.6177777777777778,-0.25555555555555554,0.03288266828758458,-0.041393453224926574,-0.03150955731395704
1592177682.26034,-0.21,9.68,1.61,-0.36,-0.5966666666666667,-0.2611111111111111,0.01308996938995747,-0.056723200689815706,-0.03599741582238304
1592177682.27034,-0.16762555969142795,9.594068080056104,1.49982979985974,-0.36,-0.5966666666666667,-0.2611111111111111,0.01926545921072273,-0.08029628516487002,-0.05740740468766251
1592177682.28034,-0.07727677689758838,9.59366066138553,1.4790625617168813,-0.36,-0.5966666666666667,-0.2611111111111111,0.037580103068831076,-0.08468548482236031,-0.06168549813834641
1592177682.29034,-0.03383678877072368,9.546855372936585,1.5504400759121997,-0.36,-0.5966666666666667,-0.2611111111111111,0.04781129248257508,-0.08841904736463592,-0.0502537191245167
1592177682.30034,0.13887939986393094,9.531836573924876,1.6480622694883087,-0.36,-0.5966666666666667,-0.2611111111111111,0.06255596393286475,-0.08350415688120603,-0.029775008776892157
1592177682.31034,0.15910451410964935,9.622686457671053,1.595485156746711,-0.35555555555555557,-0.6044444444444445,-0.24666666666666667,0.09846373628438623,-0.057325619685069294,-0.0026782357775168523
1592177682.32034,0.13,9.71,1.53,-0.35555555555555557,-0.6044444444444445,-0.24666666666666667,0.11671889372712078,-0.04145156973486533,-0.001090830782496456
1592177682.33034,0.04403046532281939,9.733074790752752,1.2978808838173157,-0.35555555555555557,-0.6044444444444445,-0.24666666666666667,0.09987144868836219,-0.032262604042142,-0.006649232618886611
1592177682.34034,-0.10661101684091448,9.710235006477275,1.237952998704545,-0.35555555555555557,-0.6044444444444445,-0.24666666666666667,0.053717848137656635,-0.018071901667511533,0.006175303979849479
1592177682.35034,-0.20609812615176892,9.748499279289142,1.2303001441421717,-0.35555555555555557,-0.6044444444444445,-0.24666666666666667,0.02616954934665891,-0.012228323136087772,0.01702766410963646
1592177682.3603399,-0.3,9.79,1.25,-0.38,-0.5966666666666667,-0.2611111111111111,0.004363323129985824,-0.022907446432425576,0.0
1592177682.3703399,-0.48985413000790556,9.793912478004744,1.2459416520031623,-0.38,-0.5966666666666667,-0.2611111111111111,-0.03174547632673062,-0.04453453743182685,-0.016868806620597847
1592177682.3803399,-0.42186554662071607,9.752096256940455,1.2479037430595443,-0.38,-0.5966666666666667,-0.2611111111111111,-0.0716633322843377,-0.05514987099572392,-0.03962440728904528
1592177682.3903399,-0.34,9.7,1.3,-0.38,-0.5966666666666667,-0.2611111111111111,-0.09926560120717749,-0.06326818538479445,-0.05017821599483697
1592177682.4003398,-0.3221981949239809,9.71780180507602,1.3267027076140288,-0.38,-0.5966666666666667,-0.2611111111111111,-0.12839373664856252,-0.06618099892893295,-0.04143977536242147
1592177682.4103398,-0.18014358520862908,9.694928207395686,1.2534290568057527,-0.37444444444444447,-0.6044444444444445,-0.23222222222222222,-0.15159415333391063,-0.06997670204088281,-0.0340262743681449
1592177682.4203398,-0.1271828288490284,9.727042927877429,1.2073227298206277,-0.37444444444444447,-0.6044444444444445,-0.23222222222222222,-0.16468492649970048,-0.07912390608468862,-0.025227500019338347
1592177682.4303398,-0.11491952597820644,9.761390829538138,1.1607470373637903,-0.37444444444444447,-0.6044444444444445,-0.23222222222222222,-0.1808910805110055,-0.1009570014540828,-0.033798197549357395
1592177682.4403398,-0.15492679481550767,9.69408784622139,1.400692538225132,-0.37444444444444447,-0.6044444444444445,-0.23222222222222222,-0.2053667032884887,-0.14065328736709676,-0.04220397165699729
1592177682.4503398,-0.1949586729532136,9.646049592456144,1.568826426403497,-0.37444444444444447,-0.6044444444444445,-0.23222222222222222,-0.22545398556721669,-0.17558769133010196,-0.0483174923505232
1592177682.4603398,-0.27,9.59,1.73,-0.38,-0.6044444444444445,-0.2111111111111111,-0.234528618236738,-0.21489366415180183,-0.056723200689815706
1592177682.4703398,-0.35,9.568855168185491,1.8271379204637295,-0.38,-0.6044444444444445,-0.2111111111111111,-0.21314531925413618,-0.24706038918096354,-0.060869865486137896
1592177682.4803398,-0.32491629411205175,9.555788547512604,1.7896475791876725,-0.38,-0.6044444444444445,-0.2111111111111111,-0.17950941911883786,-0.27842903200258395,-0.0769511442089731
1592177682.4903398,-0.20693866821370946,9.574194963650537,1.841610072698925,-0.38,-0.6044444444444445,-0.2111111111111111,-0.15783652396719405,-0.30064634417610947,-0.08589366395527845
1592177682.5003397,-0.13850251092296817,9.543778893743541,1.9024422125129172,-0.38,-0.6044444444444445,-0.2111111111111111,-0.15037129726634307,-0.3155767975778115,-0.09584729955641311
1592177682.5103397,-0.11,9.54,1.96,-0.4011111111111111,-0.5822222222222222,-0.23222222222222222,-0.14508049407202864,-0.3337942194439155,-0.09381144729469522
1592177682.5203397,0.08920188770907074,9.530039905614546,1.8902793393018251,-0.4011111111111111,-0.5822222222222222,-0.23222222222222222,-0.12986980549891666,-0.33162126393347097,-0.07208189219024952
1592177682.5303397,0.07947967363298025,9.60947967363298,1.7737918694531922,-0.4011111111111111,-0.5822222222222222,-0.23222222222222222,-0.10601740029829372,-0.30424849152399164,-0.06612704894000881
1592177682.5403397,0.12,9.65,1.79,-0.4011111111111111,-0.5822222222222222,-0.23222222222222222,-0.10690141668465267,-0.2945243112740431,-0.0643590161672909
1592177682.5503397,-0.018270750693429566,9.588546333025143,1.9666792925527155,-0.4011111111111111,-0.5822222222222222,-0.23222222222222222,-0.12701208217469082,-0.2760895345748415,-0.07106257133063695
1592177682.5603397,-0.17,9.48,2.13,-0.4066666666666667,-0.59,-0.21777777777777776,-0.14726215563702155,-0.2552544031041707,-0.074176493209759
1592177682.5703397,-0.13293156540955695,9.48,2.167068434590443,-0.4066666666666667,-0.59,-0.21777777777777776,-0.12097915245538393,-0.2431237862511072,-0.08327445584955663
1592177682.5803397,-0.08230203738710355,9.475173282923755,2.047475320310859,-0.4066666666666667,-0.59,-0.21777777777777776,-0.0679960352475994,-0.23442872279015778,-0.09297172983662978
1592177682.5903397,0.01,9.455166433711238,1.9320665734844955,-0.4066666666666667,-0.59,-0.21777777777777776,-0.04212785432621893,-0.2212896245451287,-0.08042342930143412
1592177682.6003397,0.01,9.491354765232696,1.9465419060930786,-0.4066666666666667,-0.59,-0.21777777777777776,-0.04686489584511408,-0.2126050484271543,-0.0630542770654852
1592177682.6103396,0.11258610887383333,9.586896290330222,1.9253453830482778,-0.39555555555555555,-0.5755555555555556,-0.20444444444444446,-0.03202911638529586,-0.17688397122880412,-0.025465242286280436
1592177682.6203396,0.1369012075905693,9.66,1.7692253018976423,-0.39555555555555555,-0.5755555555555556,-0.20444444444444446,-0.015709669455256838,-0.14145446967795214,-0.029114405312526973
1592177682.6303396,0.09394730025666989,9.653514964560717,1.7673497068311865,-0.39555555555555555,-0.5755555555555556,-0.20444444444444446,-0.04940523060058577,-0.11032152964360523,-0.02475898443755684
1592177682.6403396,-0.04117505866337077,9.507649882673258,1.9337601877227864,-0.39555555555555555,-0.5755555555555556,-0.20444444444444446,-0.10515556377448272,-0.08896104390343668,-0.016248409768373957
1592177682.6503396,-0.0787402153080051,9.43251956938399,2.0539686889856164,-0.39555555555555555,-0.5755555555555556,-0.20444444444444446,-0.11908782170835397,-0.07338969680087469,0.02227018569585833
1592177682.6603396,0.01,9.50847817380857,2.1015218261914295,-0.39555555555555555,-0.5822222222222222,-0.19666666666666666,-0.06603484639759793,-0.04225786129042305,0.045095584300537755
1592177682.6703396,0.009107539874335428,9.590892460125664,2.0176201063315613,-0.39555555555555555,-0.5822222222222222,-0.19666666666666666,-0.00798027864409871,-0.017797755686566812,0.03765986513285565
1592177682.6803396,-0.022576352321685016,9.6169942556247,1.9391412158927717,-0.39555555555555555,-0.5822222222222222,-0.19666666666666666,0.016128264702525985,0.0075286122416463154,0.019601639099812572
1592177682.6903396,-0.08384541183615869,9.548951251317412,1.920349582894196,-0.39555555555555555,-0.5822222222222222,-0.19666666666666666,0.010641372777548133,0.030138835535046548,-0.00533975317787524
1592177682.7003396,-0.16626141012129114,9.526474160876012,1.9278419463746628,-0.39555555555555555,-0.5822222222222222,-0.19666666666666666,0.004920342274846467,0.04485005682770798,-0.0028878829624316687
1592177682.7103395,-0.18011323003575685,9.510113230035756,1.9497735399284863,-0.39555555555555555,-0.5954045821745464,-0.19117401668653158,0.0021940130458435866,0.04908738521234052,0.008603131451464898
1592177682.7203395,-0.14015611531462505,9.579726798199406,1.95,-0.39555555555555555,-0.5955555555555555,-0.19111111111111112,0.01522054233770675,0.059953119189602055,0.04349699498720855
1592177682.7303395,-0.0014394095670311033,9.60913635425978,1.7920151733938436,-0.39555555555555555,-0.5955555555555555,-0.19111111111111112,0.01290155111823698,0.06688611123043804,0.04456704685592095
1592177682.7403395,-0.04950720850810241,9.580295674895138,1.8593100919113434,-0.39555555555555555,-0.5955555555555555,-0.19111111111111112,0.006609490950424445,0.0784215548714277,0.03932366338274384
1592177682.7503395,-0.09488943356101429,9.609926289040676,1.9198525780813525,-0.39555555555555555,-0.5955555555555555,-0.19111111111111112,0.01797056574698831,0.07853981633974483,0.01397040726899407
1592177682.7603395,-0.20554252435522397,9.60142481414884,1.9726797455784868,-0.3888888888888889,-0.5822222222222222,-0.20555555555555555,0.04301010435196535,0.07966914427687972,-0.031030931569191338
1592177682.7703395,-0.48,9.45,2.02,-0.3888888888888889,-0.5822222222222222,-0.20555555555555555,0.05126904677733343,0.061086523819801536,-0.05890486225480862
1592177682.7803395,-0.4226489863181696,9.46911700456061,1.9339734794772543,-0.3888888888888889,-0.5822222222222222,-0.20555555555555555,0.06169575529925275,0.04231844848034674,-0.030752749245626432
1592177682.7903395,-0.2930249967811356,9.487511541928008,1.8594634612908567,-0.3888888888888889,-0.5822222222222222,-0.20555555555555555,0.09858446148263522,0.037944968211402134,0.008162561123416286
1592177682.8003395,-0.19273272389500984,9.595518605036142,1.851748671068847,-0.3888888888888889,-0.5822222222222222,-0.20555555555555555,0.10447533294090479,0.03457875594953381,0.015736538712620027
1592177682.8103395,-0.07020519516858649,9.659794804831414,1.819743506039267,-0.39111111111111113,-0.59,-0.15555555555555556,0.08944812416470939,0.04809727937268522,0.049031426910762094
1592177682.8203394,-0.10932565405959987,9.6206743459404,1.7708429324255002,-0.39111111111111113,-0.59,-0.15555555555555556,0.08944812416470939,0.06730048972535227,0.038362976714835954
1592177682.8303394,-0.14842998321834794,9.67764497482752,1.6354950587357822,-0.39111111111111113,-0.59,-0.15555555555555556,0.09573621546451881,0.07391959981458969,0.023506864354487306
1592177682.8403394,-0.19772398586974563,9.546372839564711,1.6968135802176438,-0.39111111111111113,-0.59,-0.15555555555555556,0.0887048778606679,0.06792943806774167,-0.008327829277661073
1592177682.8503394,-0.2,9.555373653177636,1.730747306355273,-0.39111111111111113,-0.59,-0.15555555555555556,0.09422681232616956,0.06092348686454412,-0.012332985161306657
1592177682.8603394,-0.09484637273395786,9.607797103302746,1.7304405793394506,-0.39111111111111113,-0.5815027371906228,-0.17679871257899843,0.12101961362615156,0.05681932019093666,-0.0047478011344696605
1592177682.8703394,-0.00446193856751248,9.62900845809611,1.7014873128558374,-0.39111111111111113,-0.5811111111111111,-0.17777777777777778,0.11180554203008858,0.07020095798218454,-0.004363323129985824
1592177682.8803394,-0.05692146447202306,9.56359162478264,1.6810261785093257,-0.39111111111111113,-0.5811111111111111,-0.17777777777777778,0.09056751127101813,0.0967755365417951,-0.0002238774212617485
1592177682.8903394,-0.16275843448453975,9.531974972413307,1.7080250275866926,-0.39111111111111113,-0.5811111111111111,-0.17777777777777778,0.09454321796002217,0.1104029955334317,0.004076075036250228
1592177682.9003394,-0.20059228138739618,9.59883263312164,1.717648070346849,-0.39111111111111113,-0.5811111111111111,-0.17777777777777778,0.11409060436758664,0.10625908947801373,0.01437462380323537
1592177682.9103394,-0.08255798380714677,9.701927010409692,1.6562789919035734,-0.39717977854886605,-0.5811111111111111,-0.1494573297349215,0.12396331962451232,0.08783903753257552,0.012488375582565577
1592177682.9203393,-0.006672775780071916,9.691906507365735,1.5776260294629394,-0.3977777777777778,-0.5811111111111111,-0.14666666666666667,0.10757831128551604,0.1019651827998835,0.014959679416710416
1592177682.9303393,-0.10103027213361494,9.65326171922414,1.505708008642245,-0.3977777777777778,-0.5811111111111111,-0.14666666666666667,0.08677484330816096,0.11164397385042447,0.0072565814416892145
1592177682.9403393,-0.06453967057049273,9.604539670570492,1.6363809882885216,-0.3977777777777778,-0.5811111111111111,-0.14666666666666667,0.06029003767265552,0.10541303685575591,0.014479308970840508
1592177682.9503393,-0.0750502795503487,9.584949720449652,1.6575251397751742,-0.3977777777777778,-0.5811111111111111,-0.14666666666666667,0.052888839006702985,0.10964494758526895,0.01855509259868984
1592177682.9603393,-0.16896266675627541,9.589884740750698,1.6402305184986055,-0.39118795061064626,-0.5811111111111111,-0.16314123458449545,0.06312988421397692,0.1112647398146385,0.019634954084936207
1592177682.9703393,-0.18904238762244804,9.609042387622447,1.620957612377552,-0.39111111111111113,-0.5811111111111111,-0.16333333333333333,0.09442621927098818,0.11022613868509872,0.018596352955396415
1592177682.9803393,-0.27165816675014803,9.700731296389055,1.3387329811939348,-0.39111111111111113,-0.5811111111111111,-0.16333333333333333,0.11776705688782568,0.1052252844802926,0.002708524736521528
1592177682.9903393,-0.2995020469116095,9.72950204691161,1.270995906176781,-0.39111111111111113,-0.5811111111111111,-0.16333333333333333,0.11680037111067912,0.08663733699071725,-0.015927915691802377
1592177683.0003393,-0.16853762707786088,9.79573118646107,1.212485211846564,-0.39111111111111113,-0.5811111111111111,-0.16333333333333333,0.07817928288768072,0.0655614213682172,-0.010088571600793805
1592177683.0103393,-0.05,9.79,1.21,-0.39111111111111113,-0.5733333333333334,-0.14666666666666667,0.006544984694978735,0.0643590161672909,0.001090830782496456
1592177683.0203393,-0.09798790322580644,9.742012096774193,1.3139737903225808,-0.39111111111111113,-0.5733333333333334,-0.14666666666666667,-0.03184258212421308,0.07133857377078033,0.008942833086422053
1592177683.0303392,-0.1733805093046033,9.711891283055829,1.2856738491674828,-0.39111111111111113,-0.5733333333333334,-0.14666666666666667,-0.06416814749021647,0.08395011265808267,0.006957598650120881
1592177683.0403392,-0.30168119779066055,9.63177637284886,1.3756066554069475,-0.39111111111111113,-0.5733333333333334,-0.14666666666666667,-0.07981403735239304,0.07939621834039104,-9.169511507587606e-05
1592177683.0503392,-0.43564071856287423,9.576634730538922,1.4550479041916167,-0.39111111111111113,-0.5733333333333334,-0.14666666666666667,-0.08654272576917392,0.06277175939994575,0.01546562900429257
1592177683.0603392,-0.36522859772936483,9.598257134090211,1.451307149432341,-0.39111111111111113,-0.566957144318298,-0.12009921243735297,-0.06436135916068689,0.032727266468289655,0.04894245433513249
1592177683.0703392,-0.3277319903488951,9.709711232813756,1.404824786488453,-0.39111111111111113,-0.5666666666666667,-0.11888888888888889,-0.04144484369005732,0.030226135163704506,0.05229015228787604
1592177683.0803392,-0.13228858426580428,9.86353232407063,1.239701513894056,-0.39111111111111113,-0.5666666666666667,-0.11888888888888889,-0.037614666187778444,0.04985801877833965,0.03202484130884424
1592177683.0903392,0.1086655462184874,9.936694117647058,1.2776386554621848,-0.39111111111111113,-0.5666666666666667,-0.11888888888888889,-0.12756010170899396,0.10323475859222761,0.027425319201007117
1592177683.1003392,0.10842589968829697,9.853194247662227,1.4188892037404364,-0.39111111111111113,-0.5666666666666667,-0.11888888888888889,-0.2127929880401991,0.1493681638061471,0.03168965427730902
1592177683.1103392,0.1191889907085156,9.569326606852071,1.7406733931479295,-0.39111111111111113,-0.5687987767453906,-0.1327476044005946,-0.3794163648535371,0.2281747788316581,0.052698735527290784
1592177683.1203392,-0.10849772322312412,9.414592357948921,1.9508010294991092,-0.39111111111111113,-0.5688888888888889,-0.13333333333333333,-0.38472774559094075,0.2535799098245895,0.06704629108171575
1592177683.1303391,-0.2824833638219465,9.40436252286646,2.04,-0.39111111111111113,-0.5688888888888889,-0.13333333333333333,-0.30303116607753466,0.2590393565844005,0.08198070943079784
1592177683.1403391,-0.33693369044720395,9.456933690447205,2.080228877526175,-0.39111111111111113,-0.5688888888888889,-0.13333333333333333,-0.2308941092453376,0.23877959137378596,0.07558932314459209
1592177683.1503391,-0.2941913767608374,9.572132072534828,2.080257413028251,-0.39111111111111113,-0.5688888888888889,-0.13333333333333333,-0.16588257936484604,0.20394933913020918,0.05189473148952884
1592177683.160339,-0.27962552848802097,9.639625528488022,2.030748943023958,-0.37148558262309017,-0.5688888888888889,-0.12788179764221638,-0.17297233660663652,0.14914953227176575,0.014691406487997365
1592177683.170339,-0.5305753681778804,9.497781547790932,2.0435446144961014,-0.3711111111111111,-0.5688888888888889,-0.12777777777777777,-0.20446934751866683,0.1335781039901226,-0.018323941172215946
1592177683.180339,-0.44581885188572656,9.394490235110561,1.9612255877764029,-0.3711111111111111,-0.5688888888888889,-0.12777777777777777,-0.22894077343694058,0.10426366261273713,-0.010574667485023077
1592177683.190339,-0.3515590387098236,9.543992162902898,2.0269960814514487,-0.3711111111111111,-0.5688888888888889,-0.12777777777777777,-0.16577319500963816,0.09864760624620893,0.0035628106263707326
1592177683.200339,-0.35342899218366497,9.65057395310199,2.026571007816335,-0.3711111111111111,-0.5688888888888889,-0.12777777777777777,-0.1080219453485893,0.08059626076246573,-0.00040534930825614993
1592177683.210339,-0.35246191178277425,9.546776323872711,1.989847647131097,-0.38032433004327587,-0.5538127124544374,-0.13196560456512538,-0.08590707890157592,0.06130521937568537,-0.016428938217127174
1592177683.220339,-0.4134123776370815,9.412807980749013,2.027559283227811,-0.38333333333333336,-0.5488888888888889,-0.13333333333333333,-0.07320584928262908,0.05176146628950305,-0.031101610895105422
1592177683.230339,-0.5557906374075747,9.405723829675948,1.890623618078505,-0.38333333333333336,-0.5488888888888889,-0.13333333333333333,-0.0020626222342195466,0.04245979915167263,-0.030385346771539316
1592177683.240339,-0.5663962845340147,9.488679051553284,1.794924663912701,-0.38333333333333336,-0.5488888888888889,-0.13333333333333333,0.09618020591335874,0.02491214330541818,-0.026019409872526378
1592177683.250339,-0.45967745436391655,9.617488441752947,1.7513364155325475,-0.38333333333333336,-0.5488888888888889,-0.13333333333333333,0.14595013275602317,-0.004287911351594835,-0.006328835833147861
1592177683.260339,-0.3124972087830294,9.816367696315593,1.691135094901377,-0.38224744655336396,-0.5467171153289501,-0.12573212587354754,0.11017269113398519,-0.04403067206504768,0.02241216784863485
1592177683.270339,-0.2254379148453942,9.72893313906427,1.7095143273433706,-0.38222222222222224,-0.5466666666666666,-0.12555555555555556,0.038836542662304616,-0.04969098884105557,0.023617007397954273
1592177683.280339,-0.2497674905739422,9.524961132057907,1.7277519433971047,-0.38222222222222224,-0.5466666666666666,-0.12555555555555556,-0.056410366893280744,-0.04305821322992475,0.017233430429536477
1592177683.290339,-0.3156892159637702,9.43431078403623,1.8213784319275403,-0.38222222222222224,-0.5466666666666666,-0.12555555555555556,-0.04152083373303687,-0.03786877879229842,0.00198117676790799
1592177683.300339,-0.3351012035449286,9.491416849629001,1.8704048141797145,-0.38222222222222224,-0.5466666666666666,-0.12555555555555556,0.01955976596981389,-0.03486242666304423,-0.0005122966086164625
1592177683.310339,-0.3170517269205939,9.532462072304712,1.8945896546158811,-0.3796724141022882,-0.5436068969227459,-0.11280651495588552,0.0997628658206638,-0.023212504056436344,0.0015914844360994736
1592177683.320339,-0.2677772585669782,9.514815160955347,1.8703696780893042,-0.37666666666666665,-0.54,-0.09777777777777778,0.17675593185638966,0.007393861733818657,-0.0018585468394403536
1592177683.330339,-0.21496159537735185,9.752698423883682,1.6873527822798486,-0.37666666666666665,-0.54,-0.09777777777777778,0.21464120471272216,0.027281941014298004,-0.008185420163180896
1592177683.340339,-0.33673278370514065,9.769229873908827,1.6983663918525702,-0.37666666666666665,-0.54,-0.09777777777777778,0.13635257817390084,0.030805468639941685,0.004269131849276077
1592177683.350339,-0.34942126668321466,9.51760162679243,1.8423149332671414,-0.37666666666666665,-0.54,-0.09777777777777778,-0.0029938330184644674,0.022537768247892904,0.010060895203639625
1592177683.360339,-0.32331186524647015,9.249613574436463,1.9735050780282388,-0.37666666666666665,-0.5236512261580382,-0.09852090386150332,-0.07709474251641288,0.003591608313337352,0.02112218039825315
1592177683.370339,-0.3057514819881441,9.57470998632011,1.7933964888280893,-0.37666666666666665,-0.5155555555555555,-0.09888888888888889,0.05357332110469995,-0.0032724923474893677,0.037059844216516286
1592177683.380339,-0.3157548411355518,10.060851663846588,1.4894322241022748,-0.37666666666666665,-0.5155555555555555,-0.09888888888888889,0.21775025034646117,0.002742560641911094,0.043170156303265456
1592177683.390339,-0.33433584663511673,10.164335846635117,1.4491144621801555,-0.37666666666666665,-0.5155555555555555,-0.09888888888888889,0.1887155190697325,0.0048845892234102755,0.03425044161821811
1592177683.400339,-0.3562002143622722,9.969192711682744,1.5692034297963557,-0.37666666666666665,-0.5155555555555555,-0.09888888888888889,-0.05825667727537022,0.006806830849370918,0.015205877125145881
1592177683.4103389,-0.3681104524598948,9.450698281925048,1.9868599082353728,-0.3811724735888305,-0.5191602010932866,-0.11601095519311133,-0.31526255380237633,0.011174667958766149,0.006278624561177146
1592177683.4203389,-0.4244729849424269,9.365447298494242,2.1299202834366695,-0.38222222222222224,-0.52,-0.12,-0.3330222320256563,0.01912963566222084,-0.0046473835817608085
1592177683.4303389,-0.4933421380133594,9.38556142534224,2.156657861986641,-0.38222222222222224,-0.52,-0.12,-0.24577268351612755,0.03272780479969442,-0.006300016676823308
1592177683.4403389,-0.5,9.382060968320383,2.1976341900777046,-0.38222222222222224,-0.52,-0.12,-0.16495617423281522,0.02884448694234771,-0.004363323129985824
1592177683.4503388,-0.490575133326362,9.373716755550909,2.21,-0.38222222222222224,-0.52,-0.12,-0.12819655217905393,0.02350109350995066,-0.0050487187758877766
1592177683.4603388,-0.42230154844237716,9.373628129016463,2.121417161392986,-0.38222222222222224,-0.5298425376230016,-0.10107204303268934,-0.025321574659065628,0.012298434427152038,-0.0028284890352308035
1592177683.4703388,-0.35763820783233696,9.443542688251496,2.0093970130538947,-0.38222222222222224,-0.5344444444444445,-0.09222222222222222,0.07733658316453329,0.02169053543454552,-0.004171467242376731
1592177683.4803388,-0.31751307198043754,9.657391066829687,1.7401394344580006,-0.38222222222222224,-0.5344444444444445,-0.09222222222222222,0.16304783148219132,0.041715246528678106,-0.003818858359980894
1592177683.4903388,-0.3937379567030223,9.74283762455537,1.6828376245553696,-0.38222222222222224,-0.5344444444444445,-0.09222222222222222,0.18190830935654817,0.06683531073862299,-0.000781293961079945
1592177683.5003388,-0.471943089264937,9.737014227683765,1.73545020310682,-0.38222222222222224,-0.5344444444444445,-0.09222222222222222,0.14888033226086736,0.08300135855118959,-0.0070826400885193146
1592177683.5103388,-0.5230165762974439,9.683966847405113,1.8137053446940357,-0.37795989327825114,-0.5139852655133833,-0.08625496170066271,0.06980553172944494,0.08500966805782226,-0.01927737113594124
1592177683.5203388,-0.53,9.598681660485704,1.849018223870479,-0.37666666666666665,-0.5077777777777778,-0.08444444444444445,0.01859462593586793,0.07569570464169618,-0.01611155804268911
1592177683.5303388,-0.4286826052273474,9.52,1.8362275350757826,-0.37666666666666665,-0.5077777777777778,-0.08444444444444445,-0.04103092089761902,0.04738385467542228,0.007128943353986332
1592177683.5403388,-0.31220952105339317,9.553895239473304,1.82,-0.37666666666666665,-0.5077777777777778,-0.08444444444444445,-0.05235987755982988,0.02486844797225135,0.026363822134220886
1592177683.5503387,-0.24644390100753205,9.603556098992469,1.8255926831654115,-0.37666666666666665,-0.5077777777777778,-0.08444444444444445,-0.044429005320175366,0.02098439168387191,0.028583757215607027
1592177683.5603387,-0.2547202765938422,9.64157342553128,1.8184265744687194,-0.3753807304965244,-0.5148504267135604,-0.08058663593401753,-0.03565414762168567,0.026694841080961002,0.01671145215857637
1592177683.5703387,-0.31843665768194074,9.643593890386343,1.8035938903863433,-0.37444444444444447,-0.52,-0.07777777777777778,-0.03940613950748877,0.03783800900255227,0.002829495479844806
1592177683.5803387,-0.3714160664027095,9.646283213280542,1.737167867194581,-0.37444444444444447,-0.52,-0.07777777777777778,-0.05282328420647026,0.04939632297676743,-0.008630145487842673
1592177683.5903387,-0.4835216064712978,9.581417488587714,1.7623477376475318,-0.37444444444444447,-0.52,-0.07777777777777778,-0.07046670360044857,0.05549103328567456,-0.011729752761058653
1592177683.6003387,-0.4392653560150759,9.529396353264744,1.8477164103086483,-0.37444444444444447,-0.52,-0.07777777777777778,-0.07744898555724837,0.052674826196878674,-0.005124915692197366
1592177683.6103387,-0.28249853753656157,9.526136496587585,1.9268189795255117,-0.3703534467193876,-0.5124998375040624,-0.08186877550283465,-0.06272245093351883,0.03636901440093773,0.012718370811402781
1592177683.6203387,-0.15094708759448644,9.548890011722381,1.944602853793605,-0.36777777777777776,-0.5077777777777778,-0.08444444444444445,-0.044619648512972274,0.02424043909120929,0.025141314782109694
1592177683.6303387,0.10360800068381913,9.579587998974272,1.9163919993161809,-0.36777777777777776,-0.5077777777777778,-0.08444444444444445,-0.008108362738411345,0.014574371993371745,0.04154145441512232
1592177683.6403387,0.10385229859807485,9.579221552102888,1.9222954028038501,-0.36777777777777776,-0.5077777777777778,-0.08444444444444445,-0.0005051360822887691,0.01862468192035867,0.03994487523790912
1592177683.6503386,0.046324257151099564,9.594540532143887,1.9663784035683376,-0.36777777777777776,-0.5077777777777778,-0.08444444444444445,0.000294814550740615,0.03570850772951095,0.023892130420850467
1592177683.6603386,-0.1242499140705559,9.529587538668249,2.000137487110583,-0.3595736163623549,-0.5129986077694105,-0.07996944730875925,-0.016093835752481224,0.05388430701695489,0.01598885313178663
1592177683.6703386,-0.23679883002924926,9.494150146246344,2.0012252193695157,-0.35555555555555557,-0.5155555555555555,-0.07777777777777778,-0.02418368654194369,0.06081922241908579,0.012081030681155094
1592177683.6803386,-0.33670983473313465,9.499935247900298,1.9268393389325384,-0.35555555555555557,-0.5155555555555555,-0.07777777777777778,-0.008424251771580866,0.05385198984773779,-0.003610203627673247
1592177683.6903386,-0.3239915339649264,9.537038097157831,1.9060084660350736,-0.35555555555555557,-0.5155555555555555,-0.07777777777777778,0.012560715269121154,0.04078691275253711,-0.00829123744813946
1592177683.7003386,-0.2667821434150914,9.580792063740041,1.9872277769098579,-0.35555555555555557,-0.5155555555555555,-0.07777777777777778,0.0376984625593279,0.009331451516506554,-0.011912737856527456
1592177683.7103386,-0.18461089301619765,9.53472206644014,2.0751667601359154,-0.3482530414160408,-0.5155555555555555,-0.07047526363826301,0.025519315565285246,-0.024192311443775025,-0.018592631859653
1592177683.7203386,-0.16217149823895963,9.49782850176104,2.1082572473584396,-0.3411111111111111,-0.5155555555555555,-0.06333333333333334,0.01726318769717417,-0.05605631917783975,-0.023571298679833503
1592177683.7303386,-0.17575605876298306,9.501512117525966,2.022147001029288,-0.3411111111111111,-0.5155555555555555,-0.06333333333333334,0.034869227122192786,-0.06984506720895163,-0.022114611389565914
1592177683.7403386,-0.1912446554697281,9.538111638674321,1.955622327734864,-0.3411111111111111,-0.5155555555555555,-0.06333333333333334,0.06714465058350944,-0.07676546732474653,-0.019499183234938006
1592177683.7503386,-0.2165320245745357,9.564133006143635,1.9682660122872677,-0.3411111111111111,-0.5155555555555555,-0.06333333333333334,0.08425566256744751,-0.07963064712224129,-0.01628991813957832
1592177683.7603385,-0.22387693902484174,9.560326163414905,1.98,-0.3457688842817124,-0.5155555555555555,-0.06404991382111815,0.08230637494887062,-0.08103764961982288,-0.010627715019189675
1592177683.7703385,-0.12739027854683777,9.545691792859378,1.9173902785468377,-0.35555555555555557,-0.5155555555555555,-0.06555555555555556,0.08038527606836247,-0.08834011825324953,-0.007937667055923666
1592177683.7803385,-0.06881696428571428,9.577957589285715,1.8029017857142857,-0.35555555555555557,-0.5155555555555555,-0.06555555555555556,0.09972336055340368,-0.09284966568959231,-0.014696996882028142
1592177683.7903385,-0.04924620999438518,9.610753790005614,1.75,-0.35555555555555557,-0.5155555555555555,-0.06555555555555556,0.12123572020627178,-0.090292277744707,-0.01854412330243975
1592177683.8003385,-0.031957798564281055,9.607936697846421,1.7821688057428757,-0.35555555555555557,-0.5155555555555555,-0.06555555555555556,0.12366798649749466,-0.08112558598013288,-0.021175927567975573
1592177683.8103385,-0.026419744241859798,9.56753089515349,1.855678976967439,-0.35698216538707994,-0.5112757260609824,-0.06091907360310126,0.1085848057225691,-0.06569226247346854,-0.02403867980220223
1592177683.8203385,-0.056458079759432955,9.509027946827045,1.8825698670676119,-0.36,-0.5022222222222222,-0.051111111111111114,0.10317430086863666,-0.042186522213819466,-0.017627586978042474
1592177683.8303385,-0.1231197379650774,9.531871842779047,1.801568288238415,-0.36,-0.5022222222222222,-0.051111111111111114,0.13284038283513094,-0.024544611004517804,-0.010124674999322281
1592177683.8403385,-0.2314962309771014,9.62662091689186,1.7090025126819324,-0.36,-0.5022222222222222,-0.051111111111111114,0.17057763577133386,-0.011890329620291218,-0.005426951665689831
1592177683.8503385,-0.3166947353397677,9.69,1.6585593991400995,-0.36,-0.5022222222222222,-0.051111111111111114,0.18112416798532555,-0.008467799450024181,-0.005195307102534813
1592177683.8603384,-0.3550833981797882,9.675250194539364,1.6301667963595763,-0.36,-0.5005833549488183,-0.052476833838947724,0.16296569756560106,-0.011426431225697642,-0.006276825664440479
1592177683.8703384,-0.32081889610072717,9.644385827924456,1.5952047240251819,-0.36,-0.4955555555555556,-0.056666666666666664,0.12214126656610005,-0.022116379845733985,-0.006500320841261761
1592177683.8803384,-0.2602305558905101,9.67491354154106,1.5800576389726275,-0.36,-0.4955555555555556,-0.056666666666666664,0.10637171988480786,-0.03269977372864825,-0.007635815477475192
1592177683.8903384,-0.17950851931845452,9.679877129829613,1.595307175425966,-0.36,-0.4955555555555556,-0.056666666666666664,0.0975556382231734,-0.03764036352433313,-0.01094851699419697
1592177683.9003384,-0.13619376792745283,9.662387535854906,1.6352249282901887,-0.36,-0.4955555555555556,-0.056666666666666664,0.08374107102058881,-0.034857513299328166,-0.016256777727483795
1592177683.9103384,-0.1367604731766124,9.647295810729355,1.66,-0.36105162916080635,-0.4955555555555556,-0.056666666666666664,0.0685441505437767,-0.027682543388534608,-0.019929935374747822
1592177683.9203384,-0.17626375075346595,9.631494499698615,1.66,-0.3671965834505391,-0.4955555555555556,-0.056666666666666664,0.054754905362869866,-0.017340609502854487,-0.021653591022361175
1592177683.9303384,-0.21310791955797817,9.612100719959816,1.6131942403214703,-0.36777777777777776,-0.4955555555555556,-0.056666666666666664,0.04644741764783317,-0.006774137694735958,-0.02112915665065745
1592177683.9403384,-0.29893996614142465,9.619903633285583,1.5507709337153275,-0.36777777777777776,-0.4955555555555556,-0.056666666666666664,0.044745086038053286,-0.007625303499625897,-0.018575659235987634
1592177683.9503384,-0.23327293980128583,9.62,1.5949210987726476,-0.36777777777777776,-0.4955555555555556,-0.056666666666666664,0.035460607219892096,-0.020440166988672633,-0.013232778329337487
1592177683.9603384,-0.12582366149078145,9.621392112836405,1.6472157743271876,-0.3669270421555295,-0.4964062911778038,-0.05627996865655383,0.030515422801666536,-0.027250519802146846,-0.008802574236704663
1592177683.9703383,-0.09929508870687202,9.630234970431042,1.6295300591379147,-0.3615230736254739,-0.5018102597078594,-0.05382361932471037,0.037267665690289956,-0.01326373096142689,-0.009284877300177765
1592177683.9803383,-0.0727665159229626,9.63907782802568,1.6118443439486418,-0.35611910509541833,-0.5072142282379151,-0.05136726999286691,0.044019908578913386,0.0007230578792930611,-0.009767180363650867
1592177683.9903383,-0.20082753007144796,9.59972415664285,1.6405516867142986,-0.35555555555555557,-0.5077777777777778,-0.051111111111111114,0.019334055659810567,0.032471642636607595,-0.0036160427133131437
1592177684.0003383,-0.26950359519801126,9.576832134933996,1.689503595198011,-0.35555555555555557,-0.5077777777777778,-0.051111111111111114,0.0026561850553159607,0.033103969021905565,-0.0028727825107513223
1592177684.0103383,-0.28930141447834223,9.570232861840553,1.7093014144783423,-0.35555555555555557,-0.5077777777777778,-0.051111111111111114,0.01273435138071653,0.01798671953380471,-0.004312520557237118
1592177684.0203383,-0.29,9.58698912541462,1.7184945627073098,-0.35555555555555557,-0.4973955344688435,-0.051111111111111114,0.03254884340841563,-0.007565259789502912,-0.009923001420973871
1592177684.0303383,-0.11658901059755988,9.608579748864546,1.6456810045418115,-0.35555555555555557,-0.4955555555555556,-0.051111111111111114,0.04207762442013353,-0.026186292002212144,-0.01090830782496456
1592177684.0403383,0.026370295529174026,9.651174539025005,1.563629704470826,-0.35555555555555557,-0.4955555555555556,-0.051111111111111114,0.0378801252785079,-0.022437664547061482,-0.009774769598344096
1592177684.0503383,0.06,9.68,1.53,-0.35555555555555557,-0.4955555555555556,-0.051111111111111114,0.030543261909900768,-0.01090830782496456,-0.008726646259971648
1592177684.0603383,0.10714935468822889,9.64714935468823,1.6528051624941689,-0.35143795677188616,-0.5012568461790978,-0.04667677395946716,0.011856063539036857,0.006224104717869784,-0.008104731928759821
1592177684.0703382,0.1,9.64,1.71,-0.3411111111111111,-0.5155555555555555,-0.035555555555555556,-0.002181661564992912,0.016362461737446838,-0.006544984694978735
1592177684.0803382,0.05594526762874656,9.614009122061875,1.6819361455668709,-0.3411111111111111,-0.5155555555555555,-0.035555555555555556,-0.013527296765545425,0.03950598545298039,0.003493643691756773
1592177684.0903382,-0.07065427759857493,9.611758702036493,1.6564825959270135,-0.3411111111111111,-0.5155555555555555,-0.035555555555555556,-0.010135362494610563,0.05486499137986087,0.003206688535902633
1592177684.1003382,-0.17219304433706042,9.596910338259674,1.6738206765193466,-0.3411111111111111,-0.5155555555555555,-0.035555555555555556,-0.0023411442496759144,0.057636484343610184,0.00033702981338498483
1592177684.1103382,-0.12161927360404148,9.592112595200735,1.6610562976003673,-0.341815309511356,-0.5155555555555555,-0.037785517156331196,0.0025273341463802846,0.05178375659085093,0.0012060549762922467
1592177684.1203382,-0.2156738249406065,9.597021474821819,1.6397167745842456,-0.3477777777777778,-0.5155555555555555,-0.056666666666666664,0.005926066405007764,0.034635998841685,0.000765924087416457
1592177684.1303382,-0.21,9.584089830666171,1.5754610160029774,-0.3477777777777778,-0.5155555555555555,-0.056666666666666664,0.012790823155178136,0.005160183744869609,-0.0033214873754248125
1592177684.1403382,-0.17826944297845798,9.57413472148923,1.571730557021542,-0.3477777777777778,-0.5155555555555555,-0.056666666666666664,0.030469782736143387,-0.019805358778493203,-0.006544984694978735
1592177684.1503382,-0.12424620920071962,9.54712310460036,1.6257537907992805,-0.3477777777777778,-0.5155555555555555,-0.056666666666666664,0.05555841432766812,-0.02867542095090285,-0.006858805300973733
1592177684.1603382,-0.11055664504450144,9.54208741891688,1.6394433549554985,-0.3476850036036942,-0.5153700072073883,-0.05626464524563785,0.08547948464187664,-0.02940689071119434,-0.007590275061265222
1592177684.1703382,-0.14242924584821107,9.697570754151789,1.5621462292410555,-0.3411111111111111,-0.5022222222222222,-0.027777777777777776,0.10725259262301826,-0.028657462282560203,-0.003124561378663193
1592177684.1803381,-0.14944518667865037,9.71,1.449442514635509,-0.3411111111111111,-0.5022222222222222,-0.027777777777777776,0.08138749757384281,-0.036967205114986045,-0.000666602618487219
1592177684.1903381,-0.18,9.70235279378602,1.400588824855926,-0.3411111111111111,-0.5022222222222222,-0.027777777777777776,0.042542127194690145,-0.049055406459759185,-0.0008341807938309155
1592177684.2003381,-0.15630889401739748,9.682102964672465,1.4894851766376709,-0.3411111111111111,-0.5022222222222222,-0.027777777777777776,0.0127434907043472,-0.05752688716478762,-0.002181661564992912
1592177684.210338,-0.08910471395509359,9.659283771164075,1.6019696292987942,-0.3411111111111111,-0.5021028507495681,-0.028036415968528516,-0.006701241587286483,-0.056586475909046426,-0.002240257899608317
1592177684.220338,-0.04,9.62,1.71,-0.3411111111111111,-0.4955555555555556,-0.042222222222222223,-0.015271630954950384,-0.04908738521234052,-0.00545415391248228
1592177684.230338,-0.06898412285268089,9.599661374284226,1.678811296199896,-0.3411111111111111,-0.4955555555555556,-0.042222222222222223,-0.009188758748673165,-0.031818784369652284,-0.01125960530731304
1592177684.240338,-0.13722446939053765,9.623612234695269,1.5572244693905377,-0.3411111111111111,-0.4955555555555556,-0.042222222222222223,-0.003666526027409462,-0.022695953267033133,-0.010423003887780639
1592177684.250338,-0.12051109413582989,9.63,1.5749148176440284,-0.3411111111111111,-0.4955555555555556,-0.042222222222222223,-0.00516750828645525,-0.028860555968146358,-0.007903877196298334
1592177684.260338,-0.031097866444014147,9.63,1.589817022259331,-0.3411111111111111,-0.4955555555555556,-0.042222222222222223,-0.007605875814670178,-0.03698844772886278,-0.008716666372369977
1592177684.270338,-0.03,9.65,1.63,-0.36,-0.4955555555555556,-0.021111111111111112,-0.014180800172453926,-0.0370882466048795,-0.008726646259971648
1592177684.280338,-0.015122808976219718,9.59,1.642929831416769,-0.36,-0.4955555555555556,-0.021111111111111112,-0.0041776919119194825,-0.042037174269601754,-0.009817477042468103
1592177684.290338,0.020263319462446278,9.59,1.6068860995520386,-0.36,-0.4955555555555556,-0.021111111111111112,0.013176140482537516,-0.03193068099233378,-0.0109226696737279
1592177684.300338,0.044117324270263575,9.601344768378382,1.6309241852972933,-0.36,-0.4955555555555556,-0.021111111111111112,0.027912469939355526,-0.016866526622956016,-0.013832482744003435
1592177684.310338,-0.007853893402722453,9.638467066716231,1.6012263466270158,-0.36,-0.4955555555555556,-0.021111111111111112,0.03358165034350723,-0.0006688683253797331,-0.016262131488639878
