time,acc_x,acc_y,acc_z,mag_x,mag_y,mag_z,gyr_x,gyr_y,gyr_z
1592177746.7202785,0.18361731869606546,9.665638268130394,1.3656382681303936,-0.39444444444444443,-0.5688888888888889,-0.24666666666666667,0.009701385793739145,0.016107121983893954,0.004061668864242994
1592177746.7302785,0.14,9.681391619562545,1.37,-0.38305282488189835,-0.565724550121515,-0.24666666666666667,0.01946904405777536,0.024301881506191933,-0.0029688880562194642
1592177746.7402785,0.10102149037119731,9.69,1.3764964182714672,-0.37444444444444447,-0.5633333333333334,-0.24666666666666667,0.019690667741982495,0.029723185293159315,-0.004634077295740828
1592177746.7502785,0.06638796748790925,9.66277593497582,1.3119398374395463,-0.37444444444444447,-0.5633333333333334,-0.24666666666666667,0.014089596079480404,0.03831588352683624,-0.005802563491152178
1592177746.7602785,0.07349235192639447,9.65,1.3137308798159864,-0.37444444444444447,-0.5633333333333334,-0.24666666666666667,0.009055564045543724,0.03997978245390668,-0.007661834833920248
1592177746.7702785,0.09559147424511545,9.65,1.3403943161634104,-0.37444444444444447,-0.5633333333333334,-0.24666666666666667,0.007635815477475192,0.03530145415795547,-0.0064589582531619635
1592177746.7802784,0.14607278914080704,9.668036394570404,1.313927210859193,-0.37444444444444447,-0.5633333333333334,-0.24265857898435478,0.012226568171426415,0.030322449065554015,-0.00567496675682903
1592177746.7902784,0.1646536294332118,9.688019555850182,1.2739608882996354,-0.37444444444444447,-0.5633333333333334,-0.24,0.015271630954950384,0.032951622480735666,-0.005961786136090176
1592177746.8002784,0.15582029750479848,9.733281190019195,1.1717970249520153,-0.37444444444444447,-0.5633333333333334,-0.24,0.018446110795711124,0.052065840039644,-0.006902907002594416
1592177746.8102784,0.14810362392664825,9.755948188036676,1.1418963760733516,-0.37444444444444447,-0.5633333333333334,-0.24,0.014886164917997772,0.0640956355431952,-0.0054824129547300406
1592177746.8202784,0.11064208444806328,9.720856112597417,1.23807374665581,-0.37444444444444447,-0.5633333333333334,-0.24,-0.0019014993726290466,0.07083396031417867,-0.004873718247188568
1592177746.8302784,0.040936521848003005,9.655585326155002,1.3739464129209966,-0.3711891545984447,-0.5633333333333334,-0.2362021618463336,-0.028587769842317916,0.07151326543228549,-0.0022838202510211255
1592177746.8402784,-0.011660326644039999,9.61833967335596,1.4666413065761599,-0.36777777777777776,-0.5633333333333334,-0.23222222222222222,-0.04508628916481827,0.05791081254558666,0.0002737450794005479
1592177746.8502784,-0.001864194373401535,9.5979094629156,1.4214115089514068,-0.36777777777777776,-0.5633333333333334,-0.23222222222222222,-0.03371699361877025,0.036330049464830746,-0.00043139428106758824
1592177746.8602784,0.01,9.614666402738642,1.4008330034233016,-0.36777777777777776,-0.5633333333333334,-0.23222222222222222,-0.00961765694197866,0.013817333862028944,-0.0013453435700382457
1592177746.8702784,0.01,9.625147117636976,1.4345586470890703,-0.36777777777777776,-0.5633333333333334,-0.23222222222222222,0.007411142851588217,-0.0024863562856479527,-0.0037697636046189584
1592177746.8802783,0.020427487853472683,9.62,1.4552137439267363,-0.36777777777777776,-0.559278199168094,-0.2397531856719525,0.021527674559022127,-0.016026888955568714,-0.007160347622683664
1592177746.8902783,0.028486042692939244,9.624541871921181,1.4403185550082103,-0.36777777777777776,-0.5555555555555556,-0.24666666666666667,0.028096505179375054,-0.02006519637386174,-0.008726646259971648
1592177746.9002783,0.02507840313069,9.655078403130691,1.34015680626138,-0.36777777777777776,-0.5555555555555556,-0.24666666666666667,0.0366026983975118,-0.02079420450615326,-0.010942517644324858
1592177746.9102783,0.08150606315283948,9.637108416376515,1.3728915836234843,-0.36777777777777776,-0.5555555555555556,-0.24666666666666667,0.042857823360027705,-0.030083276812736152,-0.012465698288042762
1592177746.9202783,0.12897063197026024,9.611029368029739,1.4213972118959106,-0.36777777777777776,-0.5555555555555556,-0.24666666666666667,0.046191878306095696,-0.03772993085403281,-0.01004205030913968
1592177746.9302783,0.1727241218422982,9.608181030460575,1.4763620609211492,-0.37141379131581087,-0.5555555555555556,-0.24666666666666667,0.052458614359312,-0.04789687243272331,-0.00852822746336878
1592177746.9402783,0.25347605659768635,9.625579342766281,1.4497859151034704,-0.37666666666666665,-0.5555555555555556,-0.24666666666666667,0.07168571180948105,-0.06354432439354504,-0.011034700809579764
1592177746.9502783,0.2581479525706879,9.673704094858625,1.3499068695693917,-0.37666666666666665,-0.5555555555555556,-0.24666666666666667,0.09134706308582066,-0.06683355933021491,-0.010807294307637707
1592177746.9602783,0.22383843815758708,9.731548749123217,1.2892256254383914,-0.37666666666666665,-0.5555555555555556,-0.24666666666666667,0.10044090315057244,-0.059657808393711126,-0.008642175099073161
1592177746.9702783,0.22263714800417178,9.728938086659713,1.2673628519958282,-0.37666666666666665,-0.5555555555555556,-0.24666666666666667,0.093635768412819,-0.051037373225347835,-0.009014314482066616
1592177746.9802783,0.2118956729586277,9.7,1.2861341347674786,-0.37666666666666665,-0.5586782585601525,-0.23819075851133217,0.0758958103135989,-0.04165835557654705,-0.013536056258513968
1592177746.9902782,0.20251733307231767,9.69187066673192,1.34406466663404,-0.37666666666666665,-0.5633333333333334,-0.22555555555555556,0.06411968790428832,-0.037975019301878854,-0.015236360777444911
1592177747.0002782,0.23913510767186463,9.686518935396881,1.3130593660843397,-0.37666666666666665,-0.5633333333333334,-0.22555555555555556,0.0619403194222972,-0.039981013709874794,-0.01010285716745467
1592177747.0102782,0.1948454772096524,9.704845477209652,1.1748454772096524,-0.37666666666666665,-0.5633333333333334,-0.22555555555555556,0.05546381169101083,-0.05153873992342692,-0.0027102211346102974
1592177747.0202782,0.19,9.68797893313806,1.165992977712687,-0.37666666666666665,-0.5633333333333334,-0.22555555555555556,0.05148951097198206,-0.06130698801445018,-0.005241349844998133
1592177747.0302782,0.22667459301262116,9.70300713371136,1.1416627034936895,-0.37136922545373247,-0.5633333333333334,-0.22800052842306365,0.0550509393420742,-0.06486841638454231,-0.00901736154259417
1592177747.0402782,0.2910446400392748,9.75791071992145,1.1058214398429007,-0.3622222222222222,-0.5633333333333334,-0.23222222222222222,0.05758612637001831,-0.06763150851478027,-0.007635815477475192
1592177747.0502782,0.30903682485471123,9.753555237282066,1.033852700581155,-0.3622222222222222,-0.5633333333333334,-0.23222222222222222,0.046760487852526,-0.06467421449651585,-0.011578874168494412
1592177747.0602782,0.35543894707828005,9.764937293274532,1.0203762403528114,-0.3622222222222222,-0.5633333333333334,-0.23222222222222222,0.019982002439593465,-0.05666847874868716,-0.015257950469668246
1592177747.0702782,0.3549462857142857,9.740525714285715,1.131792,-0.3622222222222222,-0.5633333333333334,-0.23222222222222222,-0.008382567064578478,-0.044287480436605825,-0.01375593716596845
1592177747.0802782,0.3134791496320523,9.696520850367948,1.2802187244480785,-0.36933621786136095,-0.5674519623875716,-0.23222222222222222,-0.03534574923165412,-0.026855464506728724,-0.01308996938995747
1592177747.0902781,0.3348519612557533,9.65455588376726,1.3354441162327404,-0.38333333333333336,-0.5755555555555556,-0.23222222222222222,-0.06031866347575804,-0.016330164693601545,-0.007474330258248712
1592177747.1002781,0.31538073211392614,9.654619267886074,1.3353807321139262,-0.38333333333333336,-0.5755555555555556,-0.23222222222222222,-0.07249871560503876,-0.016334774116796468,0.004197197406083595
1592177747.1102781,0.34276174948607074,9.674751305498452,1.334253916495357,-0.38333333333333336,-0.5755555555555556,-0.23222222222222222,-0.06795704885605128,-0.026264172021029243,0.010390020795488916
1592177747.1202781,0.3826200228169594,9.691069965774561,1.3352400456339188,-0.38333333333333336,-0.5755555555555556,-0.23222222222222222,-0.05947646256272509,-0.04284017616495792,0.008609931099660772
1592177747.130278,0.3535947342109648,9.70726578903516,1.2881263122812865,-0.38667514673480347,-0.5682643263159844,-0.238602047806847,-0.0570214568384443,-0.05782235675973732,0.0032641670600642154
1592177747.140278,0.2362332906061161,9.709220838674236,1.1654541292803515,-0.39555555555555555,-0.5488888888888889,-0.25555555555555554,-0.056305275272368685,-0.06503192153234033,-0.01551252857877216
1592177747.150278,0.14539752826978886,9.743012358651056,1.0669876413489443,-0.39555555555555555,-0.5488888888888889,-0.25555555555555554,-0.0555456426925996,-0.06025587468146402,-0.01923794102019693
1592177747.160278,0.16337763698551525,9.77,1.04,-0.39555555555555555,-0.5488888888888889,-0.25555555555555554,-0.05213301240156673,-0.04856286595515085,-0.01236758164705087
1592177747.170278,0.18644991478886574,9.755799659155462,1.0861511077447452,-0.39555555555555555,-0.5488888888888889,-0.25555555555555554,-0.054650808104928957,-0.04043167083850962,-0.017595156292224787
1592177747.180278,0.18832646592709984,9.696694136291601,1.2144078182778657,-0.38784586488231493,-0.5507392146504666,-0.24907941539003345,-0.0811354519322842,-0.03769825900126131,-0.01697247413382864
1592177747.190278,0.20002049084897314,9.614989754575513,1.3449692637265405,-0.36777777777777776,-0.5555555555555556,-0.23222222222222222,-0.1216108682117403,-0.025633405786225742,0.002168250335701287
1592177747.200278,0.24099430335217087,9.633907537277864,1.3182773881664058,-0.36777777777777776,-0.5555555555555556,-0.23222222222222222,-0.11615517032280757,-0.03174255436276596,0.004175415328548088
1592177747.210278,0.2569355256039329,9.70167736927528,1.2613871051207866,-0.36777777777777776,-0.5555555555555556,-0.23222222222222222,-0.08720313678476102,-0.04381620390376721,-0.004848915126757292
1592177747.220278,0.20332670667666916,9.750039759939986,1.2533267066766691,-0.36777777777777776,-0.5555555555555556,-0.23222222222222222,-0.07598225596009345,-0.05526080822930537,-0.015260788113338922
1592177747.230278,0.20775973797281116,9.698798689864056,1.2846428822990772,-0.36653318776267285,-0.5572979815767024,-0.235458156261495,-0.09348916162045548,-0.06326818538479445,-0.02593556410190339
1592177747.240278,0.20951197955234935,9.631464061342951,1.4080479182093975,-0.3622222222222222,-0.5633333333333334,-0.24666666666666667,-0.1112647398146385,-0.06326818538479445,-0.025089107997418484
1592177747.250278,0.21106492345513467,9.608935076544865,1.423194770365404,-0.3622222222222222,-0.5633333333333334,-0.24666666666666667,-0.10005608479467212,-0.05352152884569325,-0.014367785804407169
1592177747.260278,0.2040397677862129,9.62,1.4142386067172772,-0.3622222222222222,-0.5633333333333334,-0.24666666666666667,-0.08088758815081372,-0.04233291034593305,0.0028752019673082725
1592177747.270278,0.19369481860190738,9.626522072559236,1.4630441451184741,-0.3622222222222222,-0.5633333333333334,-0.24666666666666667,-0.0681055281679587,-0.04683474618083928,0.008370922384307087
1592177747.280278,0.1475377668041974,9.64,1.4924924466391605,-0.36720711550054325,-0.5663796570034184,-0.24666666666666667,-0.05156070518154206,-0.05589766210827986,0.0027419079455681524
1592177747.290278,0.11850024822855079,9.631499751771448,1.4744992553143477,-0.38222222222222224,-0.5755555555555556,-0.24666666666666667,-0.023916207669657706,-0.071149667947374,-0.011999138607461015
1592177747.300278,0.11050747116910181,9.62389850576618,1.4127104596367426,-0.38222222222222224,-0.5755555555555556,-0.24666666666666667,-0.006896006492874598,-0.08904174584956495,-0.011573877597912147
1592177747.310278,0.09523150436645246,9.618576371725162,1.3890393804580656,-0.38222222222222224,-0.5755555555555556,-0.24666666666666667,0.004413829547827561,-0.10617167982900337,-0.015892805972961218
1592177747.320278,0.1230684248739232,9.612273699495693,1.4660263731088479,-0.38222222222222224,-0.5755555555555556,-0.24666666666666667,0.008478624119966811,-0.11562806294462433,-0.021989997831170092
1592177747.330278,0.13203724222837798,9.642037242228378,1.5761117266851339,-0.37927953900345407,-0.5714810710987996,-0.2437239834478985,0.004787467952247373,-0.11496137698438942,-0.016342149252885116
1592177747.340278,0.15840628507295174,9.631593714927048,1.5963187429854098,-0.36777777777777776,-0.5555555555555556,-0.23222222222222222,0.007803541422707531,-0.1131586962910942,-0.012400701454440631
1592177747.350278,0.19697875650187158,9.579063730494385,1.5551062174906423,-0.36777777777777776,-0.5555555555555556,-0.23222222222222222,0.028110991902047605,-0.11453723216212788,-0.016515658477062427
1592177747.360278,0.2316158014831717,9.572423702224757,1.4972052671610572,-0.36777777777777776,-0.5555555555555556,-0.23222222222222222,0.060965104335240994,-0.11335827307981906,-0.022907446432425576
1592177747.370278,0.2868636032093363,9.63562120106978,1.4931363967906637,-0.36777777777777776,-0.5555555555555556,-0.23222222222222222,0.08859280462336461,-0.110344972940411,-0.02321403539050141
1592177747.3802779,0.3248412756868233,9.652579362156589,1.4474206378434116,-0.3696406504464249,-0.5572751303266145,-0.23408509489086937,0.10035643198967394,-0.10742951793922655,-0.02442032436086398
1592177747.3902779,0.2597147385103011,9.6656735340729,1.3780824088748018,-0.38222222222222224,-0.5688888888888889,-0.24666666666666667,0.09422115711316059,-0.10362892433716332,-0.02868660222622217
1592177747.4002779,0.22,9.652107853909374,1.2665931965015602,-0.38222222222222224,-0.5688888888888889,-0.24666666666666667,0.08445383263809737,-0.10061577577369868,-0.02796056314121679
1592177747.4102778,0.2063979777457535,9.653602022254248,1.2102015166906848,-0.38222222222222224,-0.5688888888888889,-0.24666666666666667,0.0832960591451476,-0.09488029601625307,-0.021772651528051943
1592177747.4202778,0.1773625546015966,9.690549781593614,1.2273625546015967,-0.38222222222222224,-0.5688888888888889,-0.24666666666666667,0.08675103314276643,-0.09588532380270398,-0.018604095171036106
1592177747.4302778,0.1680392292285379,9.721960770771462,1.220980385385731,-0.37884533922692637,-0.5669281181174267,-0.24808277889050043,0.08621842426728273,-0.1061100200443644,-0.022244389472915158
1592177747.4402778,0.15371193994839316,9.743711939948394,1.2225761201032137,-0.3477777777777778,-0.5488888888888889,-0.2611111111111111,0.054798292492675704,-0.12537911266569057,-0.02820448795915772
1592177747.4502778,0.17052154772937905,9.728956904541242,1.1714209916589435,-0.3477777777777778,-0.5488888888888889,-0.2611111111111111,0.026872525339987935,-0.13788414489775197,-0.033164389778092204
1592177747.4602778,0.1702804929876753,9.703146338008215,1.1197195070123247,-0.3477777777777778,-0.5488888888888889,-0.2611111111111111,0.009848074080991165,-0.13749057415233804,-0.03097826526062006
1592177747.4702778,0.13757358300162584,9.752720749004878,1.1448528339967483,-0.3477777777777778,-0.5488888888888889,-0.2611111111111111,0.0024249381727616454,-0.1240151126729369,-0.020725784867432664
1592177747.4802778,0.15465620483171588,9.819332025603964,1.1020039231881067,-0.34874262968316244,-0.5493342051529125,-0.25918140730034184,-0.009605302234061813,-0.10173444205106427,-0.02050719075749816
1592177747.4902778,0.06959530270422008,9.796127070272293,1.1369364648638531,-0.3622222222222222,-0.5555555555555556,-0.23222222222222222,-0.0712761510478205,-0.06883579100633866,-0.01631831611066386
1592177747.5002778,0.037164957890882463,9.744329915781764,1.1564175210545586,-0.3622222222222222,-0.5555555555555556,-0.23222222222222222,-0.11530193210101086,-0.057073222165497296,-0.017330993453588246
1592177747.5102777,0.001285487651836243,9.666761300404897,1.207762886842043,-0.3622222222222222,-0.5555555555555556,-0.23222222222222222,-0.13561630435092029,-0.059398374526282584,-0.023364539993333863
1592177747.5202777,-0.010964773327298786,9.603223579995474,1.3271056800181036,-0.3622222222222222,-0.5555555555555556,-0.23222222222222222,-0.13835843554104385,-0.06696414915282527,-0.018613447050969074
1592177747.5302777,0.022688499364420953,9.580896166454806,1.4214936107580116,-0.36238817897311243,-0.5553564074544873,-0.23245456167346848,-0.1253632916234159,-0.08024977222716594,-0.007440302286446356
1592177747.5402777,0.10703192367672691,9.624840381616366,1.440319236767269,-0.36777777777777776,-0.5488888888888889,-0.24,-0.07528708723228326,-0.10391786790972166,-0.0023858983897865334
1592177747.5502777,0.08366295768868721,9.679059882696532,1.3427715961478122,-0.36777777777777776,-0.5488888888888889,-0.24,-0.04660870783654549,-0.1165137919483646,-0.0075332645880971
1592177747.5602777,0.048415556612749766,9.7468311132255,1.281220742150333,-0.36777777777777776,-0.5488888888888889,-0.24,-0.05683083071088601,-0.12762720155208535,-0.015537955577965216
1592177747.5702777,0.0657155155045149,9.760008608531603,1.3699827829367914,-0.36777777777777776,-0.5488888888888889,-0.24,-0.09606787283551284,-0.12505669538594316,-0.022283980407409514
1592177747.5802777,0.05035093503306043,9.652456545231423,1.585086909537154,-0.36777777777777776,-0.5488888888888889,-0.24,-0.135454242580768,-0.11583860884981963,-0.023959996141250158
1592177747.5902777,0.08,9.55,1.66,-0.3622222222222222,-0.5688888888888889,-0.24666666666666667,-0.15707963267948966,-0.11562806294462433,-0.011999138607461015
1592177747.6002777,0.0926994289669493,9.512116571494492,1.6646011420661013,-0.3622222222222222,-0.5688888888888889,-0.24666666666666667,-0.11281060250686642,-0.11846222843935593,-0.009984779289146196
1592177747.6102777,0.14698229094472195,9.544438018306526,1.57,-0.3622222222222222,-0.5688888888888889,-0.24666666666666667,-0.05724594855327242,-0.1391745537804468,-0.006164159800236288
1592177747.6202776,0.16761875161875162,9.602697919364585,1.5522229128895797,-0.3622222222222222,-0.5688888888888889,-0.24666666666666667,-0.027444164851777926,-0.15552110925846832,-0.008501435802122901
1592177747.6302776,0.18934524734524735,9.638908745575414,1.501527756194423,-0.3622222222222222,-0.5688888888888889,-0.24666666666666667,-0.009274218262194506,-0.16974106745901185,-0.017191410258010624
1592177747.6402776,0.20471876462330368,9.67904679457183,1.4283125877398222,-0.35555555555555557,-0.5488888888888889,-0.24,0.012636588060517437,-0.19608022764353844,-0.022454065102985542
1592177747.6502776,0.19,9.762481135422826,1.3300754583086931,-0.35555555555555557,-0.5488888888888889,-0.24,0.013664194067276836,-0.21350748980605394,-0.0283533691203161
1592177747.6602776,0.18280495867768595,9.762804958677686,1.3311785123966942,-0.35555555555555557,-0.5488888888888889,-0.24,-0.009329578183387872,-0.222529479629277,-0.033727045373921
1592177747.6702776,0.16,9.716012036563901,1.4613688752625902,-0.35555555555555557,-0.5488888888888889,-0.24,-0.05084697150436952,-0.22212691333811552,-0.04136715468027254
1592177747.6802776,0.16,9.612819508317719,1.5963129506614433,-0.35555555555555557,-0.5488888888888889,-0.24,-0.07249419964563301,-0.22039513508681446,-0.045696600308525244
1592177747.6902776,0.19331661182318152,9.48,1.7011473410497733,-0.3288888888888889,-0.5688888888888889,-0.25333333333333335,-0.03371248716948277,-0.241555072550859,-0.04799655442984406
1592177747.7002776,0.2579593589712126,9.501950327631482,1.564081282057575,-0.3288888888888889,-0.5688888888888889,-0.25333333333333335,0.027899161123938365,-0.25154410069417493,-0.04560214512321374
1592177747.7102776,0.3647043092021116,9.62253528987698,1.3983098067486803,-0.3288888888888889,-0.5688888888888889,-0.25333333333333335,0.07843535269558956,-0.24895829961677024,-0.03410458938423613
1592177747.7202775,0.4884669719497951,9.750731196351435,1.321533028050205,-0.3288888888888889,-0.5688888888888889,-0.25333333333333335,0.09046689891950725,-0.2226400612625793,-0.02593295021233621
1592177747.7302775,0.48069096572053616,9.805163239956247,1.329309034279464,-0.3288888888888889,-0.5688888888888889,-0.25333333333333335,0.07350228499998746,-0.1844696799436598,-0.0191471046445283
1592177747.7402775,0.32924790680742627,9.748495813614852,1.37,-0.3477777777777778,-0.5488888888888889,-0.2588888888888889,0.03290115598354745,-0.12223229480114237,-0.028607722266637485
1592177747.7502775,0.2655444878180105,9.684699151972001,1.3302436397900121,-0.3477777777777778,-0.5488888888888889,-0.2588888888888889,0.019700588942895003,-0.0834688913885567,-0.034998796876124005
1592177747.7602775,0.1742800214397241,9.667859989280139,1.2456801286383445,-0.3477777777777778,-0.5488888888888889,-0.2588888888888889,0.023374324346045156,-0.05197805755206738,-0.023378671298197446
1592177747.7702775,0.20341394825646794,9.655528683914511,1.351923509561305,-0.3477777777777778,-0.5488888888888889,-0.2588888888888889,0.02248780174444606,-0.027941955656928343,-0.009350591651309609
1592177747.7802775,0.2719010123734533,9.632699662542183,1.4128008998875141,-0.3477777777777778,-0.5488888888888889,-0.2588888888888889,0.009206415479269862,-0.014660569391752143,0.009741401104881175
1592177747.7902775,0.344905918242831,9.657609762050031,1.4975470408785845,-0.3622222222222222,-0.5633333333333334,-0.23777777777777778,0.01860569966851454,0.030858730970854592,0.0373626647551168
1592177747.8002775,0.3694044975929305,9.734787320568904,1.4505955024070696,-0.3622222222222222,-0.5633333333333334,-0.23777777777777778,0.05313392116535594,0.05451369945239356,0.037097526495689245
1592177747.8102775,0.5437735849056603,9.806377358490566,1.2218867924528303,-0.3622222222222222,-0.5633333333333334,-0.23777777777777778,0.06121413043964074,0.06929862725784089,0.03025923427219414
1592177747.8202775,0.3761590614206612,9.779757497121762,1.142560625719559,-0.3622222222222222,-0.5633333333333334,-0.23777777777777778,0.02084638804051253,0.09358503227984544,0.014599781576056027
1592177747.8302774,0.3531644158549734,9.718438442279929,1.1578903894300177,-0.3622222222222222,-0.5633333333333334,-0.23777777777777778,-0.017614621690147495,0.10529055698048108,0.01710810829762081
1592177747.8402774,0.32695838142440087,9.703194604748003,1.2530416185755993,-0.33555555555555555,-0.5633333333333334,-0.24444444444444444,-0.04078799150069001,0.14478208136017182,0.02164237699007758
1592177747.8502774,0.338947949744581,9.77447397487229,1.2042118827373556,-0.33555555555555555,-0.5633333333333334,-0.24444444444444444,-0.05324937478564164,0.17550859348871542,0.01946261195799478
1592177747.8602774,0.29763439595341723,9.760688154334785,1.1190107046229856,-0.33555555555555555,-0.5633333333333334,-0.24444444444444444,-0.09566936270461947,0.20098733604660587,0.026529476840321992
1592177747.8702774,0.335794551645857,9.831564982973893,1.2947190692395005,-0.33555555555555555,-0.5633333333333334,-0.24444444444444444,-0.15592225007570013,0.18779097663107475,0.017165262428254034
1592177747.8802774,0.3060393019296254,9.91339191969353,1.398862443246311,-0.33555555555555555,-0.5633333333333334,-0.24444444444444444,-0.20947785492240178,0.2121344333795755,0.02284540233623754
1592177747.8902774,0.29,9.96,1.48,-0.3422222222222222,-0.5555555555555556,-0.26666666666666666,-0.34797501961636945,0.27598018797160334,0.02399827721492203
1592177747.9002774,0.1454128144485057,9.34948613201462,1.7380918082132875,-0.3422222222222222,-0.5555555555555556,-0.26666666666666666,-0.4014137665805175,0.31254002310519396,0.008378359071838508
1592177747.9102774,0.16495868359012217,9.560082632819755,1.6191322363251017,-0.3422222222222222,-0.5555555555555556,-0.26666666666666666,-0.3116756011107462,0.3282070918745,0.040996305755296523
1592177747.9202774,0.06059257526407659,9.746864191754693,1.541567904122654,-0.3422222222222222,-0.5555555555555556,-0.26666666666666666,-0.24845085867359168,0.3294766723011313,0.03653339924028205
1592177747.9302773,0.015306724730524919,9.73176890824351,1.549115545878246,-0.3422222222222222,-0.5555555555555556,-0.26666666666666666,-0.26821053858300437,0.29819051244456124,0.023360279300673595
1592177747.9402773,-0.029733987219497698,9.405884232426809,1.704866993609749,-0.3466666666666667,-0.5577777777777778,-0.26666666666666666,-0.30357874172813093,0.2244260726950843,0.01681142233369055
1592177747.9502773,0.04604784517516352,9.334191380700654,1.6503445031807185,-0.3466666666666667,-0.5577777777777778,-0.26666666666666666,-0.22805566492664414,0.18115306882925084,0.03089921618907397
1592177747.9602773,0.09257093045471915,9.493207871608712,1.540966994650363,-0.3466666666666667,-0.5577777777777778,-0.26666666666666666,-0.11834219227718136,0.15634125340770189,0.052534839814683876
1592177747.9702773,0.21732392363209727,9.71292956945284,1.5617182778113556,-0.3466666666666667,-0.5577777777777778,-0.26666666666666666,-0.06473388623319237,0.1498432752693417,0.06491825746154904
1592177747.9802773,0.29188395491876135,9.742753581967504,1.681014327870018,-0.3466666666666667,-0.5577777777777778,-0.26666666666666666,-0.09076024696003782,0.1539098941329113,0.07061152387054648
1592177747.9902773,0.3031902220527971,9.618605737158106,1.7891689697893833,-0.3466666666666667,-0.5577777777777778,-0.3022222222222222,-0.15245896164117734,0.19088078084472876,0.06387353253493995
1592177748.0002773,0.1522722607760727,9.518722510018572,1.8384397908317858,-0.3466666666666667,-0.5577777777777778,-0.3022222222222222,-0.14857001174038317,0.20238394828799441,0.04755565344330135
1592177748.0102773,-0.17238156668816743,9.6253063857235,1.8229248190353329,-0.3466666666666667,-0.5577777777777778,-0.3022222222222222,-0.09018957325387991,0.19537722934345592,0.029622626684882615
1592177748.0202773,-0.23,9.65,1.79,-0.3466666666666667,-0.5577777777777778,-0.3022222222222222,-0.032724923474893676,0.17562375598192942,-0.015271630954950384
1592177748.0302773,-0.43699339043836505,9.567202643824654,1.8065594712350692,-0.3466666666666667,-0.5577777777777778,-0.3022222222222222,-0.022789953944100726,0.14852838453431227,-0.03875428620955191
1592177748.0402772,-0.52,9.51,1.9,-0.3233333333333333,-0.5433333333333333,-0.2966666666666667,-0.05781403147231216,0.07744898555724837,-0.02399827721492203
1592177748.0502772,-0.26458327638520623,9.433314380996638,1.6686173905912582,-0.3233333333333333,-0.5433333333333333,-0.2966666666666667,-0.05032903528515945,0.02278143569282439,-0.029597048280046463
1592177748.0602772,-0.47,9.48,1.79,-0.3233333333333333,-0.5433333333333333,-0.2966666666666667,-0.0370882466048795,-0.025089107997418484,-0.031634092692397225
1592177748.0702772,-0.30821173525730694,9.59268239711404,1.8632940072149011,-0.3233333333333333,-0.5433333333333333,-0.2966666666666667,-0.02328471583597948,-0.07847310002725429,-0.005223186576072076
1592177748.0802772,-0.2773326952808658,9.639000957078702,1.7474976073032467,-0.3233333333333333,-0.5433333333333333,-0.2966666666666667,0.007872805953743105,-0.09615709888088061,-0.038906993916312714
1592177748.0902772,-0.33765017921146956,9.582349820788531,1.750200238948626,-0.33555555555555555,-0.5577777777777778,-0.3022222222222222,-0.008301365613682228,-0.13885736310470262,-0.0671705706042028
1592177748.1002772,-0.3662791104120243,9.524069777603005,1.8057674662472145,-0.33555555555555555,-0.5577777777777778,-0.3022222222222222,-0.046555649277730066,-0.1597407459968539,-0.048569875681325245
1592177748.1102772,-0.18699249535370646,9.483007504646293,1.7003759380807866,-0.33555555555555555,-0.5577777777777778,-0.3022222222222222,-0.017666546896929335,-0.18819701335255912,-0.04443700270077036
1592177748.1202772,-0.10980100076982294,9.560596997690531,1.7107959969207083,-0.33555555555555555,-0.5577777777777778,-0.3022222222222222,0.033224194792625214,-0.20291623299293784,-0.03658897528714796
1592177748.1302772,-0.10172882986913011,9.58481351039261,1.7430846805234796,-0.33555555555555555,-0.5577777777777778,-0.3022222222222222,0.05347655154273537,-0.20379677024294263,-0.016336618537037807
1592177748.1402771,-0.02,9.61,1.86,-0.3477777777777778,-0.5433333333333333,-0.31555555555555553,0.06981317007977318,-0.19962203319685143,0.004363323129985824
1592177748.1502771,0.026782826112435053,9.666139391334921,1.803860608665078,-0.3477777777777778,-0.5433333333333333,-0.31555555555555553,0.06573059833452333,-0.1843123891521645,0.012528466620485526
1592177748.1602771,0.06004034171808258,9.759991931656383,1.670016136687233,-0.3477777777777778,-0.5433333333333333,-0.31555555555555553,0.05232907336829759,-0.16142623353407223,-0.006566987688930373
1592177748.170277,0.10980659705742762,9.750038680588515,1.689922638822971,-0.3477777777777778,-0.5433333333333333,-0.31555555555555553,0.014328479090682265,-0.14079733949765247,-0.033710269315798465
1592177748.180277,0.13288311972833827,9.69660605396721,1.69,-0.3477777777777778,-0.5433333333333333,-0.31555555555555553,-0.021597509499766153,-0.11325939840289717,-0.04796066738361668
1592177748.190277,0.12144019645608628,9.50783970531587,1.7178397053158705,-0.3477777777777778,-0.57,-0.3111111111111111,-0.05079774358919106,-0.07291968470804602,-0.05407023593668043
1592177748.200277,0.1347644831836591,9.492714826553971,1.6825206902623702,-0.3477777777777778,-0.57,-0.3111111111111111,-0.04235805030720137,-0.055336228269898244,-0.0447330899123912
1592177748.210277,0.0701402095439338,9.64965949110759,1.590200299348477,-0.3477777777777778,-0.57,-0.3111111111111111,-0.013153332271516903,-0.038216221145531484,-0.004450720207998832
1592177748.220277,-0.21928115168271523,9.799628181904854,1.59,-0.3477777777777778,-0.57,-0.3111111111111111,0.002143806440116497,-0.02947406262733369,-0.004363323129985824
1592177748.230277,-0.07484889368591474,9.816127900701565,1.55774419859687,-0.3477777777777778,-0.57,-0.3111111111111111,-0.0338836000467494,-0.03648955534432964,0.00619236319540217
1592177748.240277,-0.1,9.87,1.65,-0.35555555555555557,-0.5666666666666667,-0.2877777777777778,-0.13526301702956053,-0.0370882466048795,0.01308996938995747
1592177748.250277,-0.034368431110261805,9.73217370533155,1.6696894706669214,-0.35555555555555557,-0.5666666666666667,-0.2877777777777778,-0.19611701233075426,-0.014178507197371286,0.005214746468626522
1592177748.260277,-0.05535154878134438,9.371549483739551,2.000071644307087,-0.35555555555555557,-0.5666666666666667,-0.2877777777777778,-0.2743666594579704,0.03357003575493413,0.016792833059023196
1592177748.270277,0.005956184637576632,9.3941235124414,2.114960151460512,-0.35555555555555557,-0.5666666666666667,-0.2877777777777778,-0.23821614160372717,0.04428295025474835,0.03510649856446816
1592177748.280277,0.1042719076812117,9.4621882437793,2.031769924269744,-0.35555555555555557,-0.5666666666666667,-0.2877777777777778,-0.17304368352024974,0.055007531964687675,0.03840636985983411
1592177748.290277,0.14,9.58,2.01,-0.3477777777777778,-0.5644444444444444,-0.2966666666666667,-0.1112647398146385,0.074176493209759,0.038179077387375956
1592177748.300277,0.18067961907675834,9.514912609477186,2.0262718476307033,-0.3477777777777778,-0.5644444444444444,-0.2966666666666667,-0.11037724820045534,0.0786139512806748,0.03462911093064332
1592177748.310277,0.17108531482804368,9.424341259312175,1.9827132870701092,-0.3477777777777778,-0.5644444444444444,-0.2966666666666667,-0.09057282424668278,0.0847888273289411,0.02453102988533048
1592177748.320277,0.14171891277583107,9.372864854626384,2.1308324651955677,-0.3477777777777778,-0.5644444444444444,-0.2966666666666667,-0.03700332730350512,0.08816978908538264,0.02399827721492203
1592177748.330277,-0.015307755510306165,9.546486085807166,2.1329405565677133,-0.3477777777777778,-0.5644444444444444,-0.2966666666666667,0.02316911644651709,0.08989742502285908,0.017067684832014395
1592177748.340277,-0.12266935845670704,9.595805293853745,1.943813369223867,-0.3477777777777778,-0.56,-0.3022222222222222,0.10627745560448983,0.07879869901535749,-0.014638371631240012
1592177748.350277,-0.1932942957099968,9.49,2.0373046671463664,-0.3477777777777778,-0.56,-0.3022222222222222,0.08900354221216772,0.057520016267730394,-0.024742531113070742
1592177748.360277,-0.3,9.49,1.95,-0.3477777777777778,-0.56,-0.3022222222222222,0.039269908169872414,0.04799655442984406,0.02181661564992912
1592177748.370277,-0.058618507988627694,9.49894005525968,1.8427193368838346,-0.3477777777777778,-0.56,-0.3022222222222222,0.059749291866277865,0.03336842321812589,0.03546953811419942
1592177748.380277,-0.03,9.590225542662358,1.8230595736413573,-0.3477777777777778,-0.56,-0.3022222222222222,0.10381692353841379,0.03693367419335741,0.03481699739018228
1592177748.390277,-0.07701883044956268,9.677018830449562,1.801192467820175,-0.3477777777777778,-0.5714934918876708,-0.2969979077278264,0.15704996721533102,0.0423472834265543,0.022532044982889916
1592177748.400277,-0.3248106115718512,9.503736359668267,1.809792424462874,-0.3477777777777778,-0.5722222222222222,-0.2966666666666667,0.16032948204841999,0.025451395654362843,0.0015210473751178857
1592177748.410277,-0.1759192182123004,9.536254301597104,1.7284278214065119,-0.3477777777777778,-0.5722222222222222,-0.2966666666666667,0.14749924986846816,-0.01742424829611745,0.0188871194635115
1592177748.4202769,-0.0972611207531918,9.58481348517629,1.7737761822115499,-0.3477777777777778,-0.5722222222222222,-0.2966666666666667,0.1618141821669243,-0.04234786587245305,0.02952489210565721
1592177748.4302769,-0.02955175865027166,9.556417643694594,1.7128352873891908,-0.3477777777777778,-0.5722222222222222,-0.2966666666666667,0.18706952489875597,-0.04618936880262267,0.020286114868024955
1592177748.4402769,-0.03926536731634183,9.765775862068965,1.9646739130434783,-0.3477777777777778,-0.5580430618024321,-0.2966666666666667,0.2028143895498246,-0.05225970756668459,0.020625614874287376
1592177748.4502769,0.15136348844777092,9.77,1.678398493793873,-0.3477777777777778,-0.5577777777777778,-0.2966666666666667,0.19991245148941603,-0.05733000098470449,0.001839315852909161
1592177748.4602768,0.06286650907631239,9.761072209089692,1.444660809062932,-0.3477777777777778,-0.5577777777777778,-0.2966666666666667,0.15190235838804067,-0.06170951513017427,-0.05453677121006946
1592177748.4702768,0.05889397169065696,9.724424113237372,1.5178336885972266,-0.3477777777777778,-0.5577777777777778,-0.2966666666666667,0.05788478015525711,-0.06023699098253386,-0.04847416029133468
1592177748.4802768,0.09371542644481781,9.645826061821401,1.6176601087565263,-0.3477777777777778,-0.5577777777777778,-0.2966666666666667,0.013805681137445527,-0.059260136537085034,-0.04469905414668747
1592177748.4902768,0.008461865060985022,9.545384823220626,1.6692307395399104,-0.35495724186437483,-0.563931604137718,-0.2812821007668159,0.009901348237416882,-0.06192561470541107,-0.05571624110226803
1592177748.5002768,-0.057360964870297695,9.626041447305447,1.7273609648702977,-0.35555555555555557,-0.5644444444444444,-0.28,-0.001605913413879152,-0.07156302053143077,-0.03378046175193557
1592177748.5102768,0.1195330930904045,9.647953309309042,1.6761400720728785,-0.35555555555555557,-0.5644444444444444,-0.28,-0.03253689635006422,-0.0915788540867476,-0.0013904875677232809
1592177748.5202768,0.14893658233296667,9.605317088335166,1.6789365823329665,-0.35555555555555557,-0.5644444444444444,-0.28,-0.04964503456114269,-0.08211348837575838,-0.0017176580746527006
1592177748.5302768,0.11636164639178957,9.613455341443284,1.68,-0.35555555555555557,-0.5644444444444444,-0.28,-0.045398046523199564,-0.06604397726940307,-0.01318978704149391
1592177748.5402768,0.09140313338652353,9.62,1.6714031333865236,-0.3660628369720268,-0.5692204814519313,-0.3067458072419268,-0.038791309823363304,-0.053278226213810904,-0.024170759343437462
1592177748.5502768,0.13712245352607738,9.648273472115648,1.7171224535260774,-0.36777777777777776,-0.57,-0.3111111111111111,-0.05462791670033719,-0.053387930016889955,-0.007612216227397172
1592177748.5602767,0.14,9.632528664667491,1.7025286646674898,-0.36777777777777776,-0.57,-0.3111111111111111,-0.07564355381894027,-0.04487448666591733,0.00012540994222827017
1592177748.5702767,0.12248827199303575,9.594976543986071,1.8050703680417857,-0.36777777777777776,-0.57,-0.3111111111111111,-0.09000121551856599,-0.027396249129861598,-0.0008194024139737367
1592177748.5802767,0.07878667960875083,9.535048906145,1.9573777346374972,-0.36777777777777776,-0.57,-0.3111111111111111,-0.09237906503856336,-0.028835504541723775,0.004154124379530949
1592177748.5902767,0.04098946334831376,9.471978926696629,2.0675263416292156,-0.3561602276017473,-0.57,-0.2815391652084881,-0.0761307936550496,-0.035727581552759874,0.013803032194981496
1592177748.6002767,0.04693769599879095,9.449186912003627,2.056124608002418,-0.35555555555555557,-0.57,-0.28,-0.044239129336412455,-0.038267771528908145,0.014180800172453926
1592177748.6102767,0.012620270643468663,9.533449323391327,1.91917094725214,-0.35555555555555557,-0.57,-0.28,0.01634794142711369,-0.043347404112221495,0.019277670100390283
1592177748.6202767,0.003325205604000496,9.613422738355995,1.8499268504360045,-0.35555555555555557,-0.57,-0.28,0.04803113174150149,-0.05164240961324844,0.00652902593575223
1592177748.6302767,0.006119254792937863,9.607165216449435,1.771045961656497,-0.35555555555555557,-0.57,-0.28,0.07218996184341138,-0.062307441401394846,-0.014017650137558756
1592177748.6402767,-0.03870646529134309,9.628706465291344,1.7010348277669254,-0.3620497509277346,-0.5775765612675422,-0.2756705364185473,0.07110154470924991,-0.07929200052741796,-0.04309704085805463
1592177748.6502767,-0.011528094226684688,9.644235952886659,1.6288202355667118,-0.3622222222222222,-0.5777777777777777,-0.27555555555555555,0.06702174695553577,-0.08118354868493484,-0.0420803297371647
1592177748.6602767,0.026103414338708456,9.702206828677419,1.5216897569838745,-0.3622222222222222,-0.5777777777777777,-0.27555555555555555,0.06165325923126435,-0.07801572096871119,-0.05284133289043435
1592177748.6702766,-0.06767042301102773,9.603450447624333,1.6254286817403054,-0.3622222222222222,-0.5777777777777777,-0.27555555555555555,0.048495207897270354,-0.06582623239798882,-0.046793037018649765
1592177748.6802766,-0.04731342237178813,9.648835839730781,1.6465373155256422,-0.3622222222222222,-0.5777777777777777,-0.27555555555555555,0.024086187614506965,-0.06221968466421209,-0.03155268284432575
1592177748.6902766,-0.0064101927984122516,9.648546923731217,1.7050428834703715,-0.36659070503733104,-0.5672934190215165,-0.25720792773209844,-0.009444601266412736,-0.06709077098448618,-0.020567278835102232
1592177748.7002766,-0.042288580646680646,9.614626851611991,1.7030845677413278,-0.36777777777777776,-0.5644444444444444,-0.25222222222222224,-0.016194224665300044,-0.06410937074552842,-0.03347385974018114
1592177748.7102766,-0.04199067683464959,9.5939813536693,1.5958787988504448,-0.36777777777777776,-0.5644444444444444,-0.25222222222222224,-0.005878282230575424,-0.07812077301952895,-0.04997632183154493
1592177748.7202766,-0.1496719606730951,9.5743325770467,1.57,-0.36777777777777776,-0.5644444444444444,-0.25222222222222224,-0.010963220605422052,-0.10402996809903974,-0.05088713225634878
1592177748.7302766,-0.05515788519089507,9.61755890087966,1.6591729391493606,-0.36777777777777776,-0.5644444444444444,-0.25222222222222224,-0.02800509939506105,-0.1186041999045919,-0.026832795117283547
1592177748.7402766,0.0021754572900017713,9.670868407032499,1.706087728645001,-0.359275834171945,-0.5737192920144438,-0.276955149075554,-0.04576704431161431,-0.1122139621258146,-0.004837934285573875
1592177748.7502766,0.0293187869648201,9.672136242607037,1.7629100591437121,-0.35555555555555557,-0.5777777777777777,-0.2877777777777778,-0.056807610979636824,-0.09317657087612591,-0.010759690195322143
1592177748.7602766,0.05558816556825186,9.584265089374615,1.8033822483523778,-0.35555555555555557,-0.5777777777777777,-0.2877777777777778,-0.06655668513483384,-0.08519711145358426,-0.032644627861133035
1592177748.7702765,0.02170057968973691,9.49872092750358,1.8482994203102632,-0.35555555555555557,-0.5777777777777777,-0.2877777777777778,-0.06621564809970443,-0.07730946039203432,-0.05321922457280974
1592177748.7802765,-0.053239170697498776,9.462752953446136,1.86,-0.35555555555555557,-0.5777777777777777,-0.2877777777777778,-0.0522803204481149,-0.07589444430185892,-0.057186911162708715
1592177748.7902765,-0.020701906412478335,9.507671340790925,1.8383732472034033,-0.35555555555555557,-0.568165887645957,-0.26214607075958896,-0.024455869299118787,-0.092085573225398,-0.04099578223916962
1592177748.8002765,0.16057019438444925,9.63874514038877,1.6208747300215984,-0.35555555555555557,-0.5644444444444444,-0.25222222222222224,0.005358735669088961,-0.11094950621053909,-0.01848192474378337
1592177748.8102765,0.029592528973059973,9.698192255006415,1.5341692939923028,-0.35555555555555557,-0.5644444444444444,-0.25222222222222224,0.016483283028700276,-0.1201122073658636,-0.012771953710113318
1592177748.8202765,-0.027397834106866595,9.680408663572534,1.556989170534333,-0.35555555555555557,-0.5644444444444444,-0.25222222222222224,-0.0064722107170342505,-0.11329628395527358,-0.014420074157732693
1592177748.8302765,-0.05222421299697204,9.681112106498485,1.6588968519878882,-0.35555555555555557,-0.5644444444444444,-0.25222222222222224,-0.03769627243476617,-0.11926497990233764,-0.013453416780911265
1592177748.8402765,-0.023344221496344693,9.656674443925962,1.736665111214808,-0.3637018025958763,-0.5733312593975216,-0.2618496050880559,-0.06871928517469392,-0.1308986758587138,-0.009817986062898573
1592177748.8502765,0.023967102427812095,9.616032897572188,1.747989034142604,-0.36777777777777776,-0.5777777777777777,-0.26666666666666666,-0.07875319773832253,-0.14005310295670176,-0.01656986218862254
1592177748.8602765,0.08240314229601857,9.587541510444563,1.6676522049633993,-0.36777777777777776,-0.5777777777777777,-0.26666666666666666,-0.08208048829578582,-0.1401747742755096,-0.02181057820049913
1592177748.8702765,0.18737966391341498,9.630971470616158,1.6909714706161587,-0.36777777777777776,-0.5777777777777777,-0.26666666666666666,-0.07575440743265957,-0.13247760812247528,-0.02370174999210014
1592177748.8802764,0.18722092814907723,9.622684106790897,1.7591686077763842,-0.36777777777777776,-0.5777777777777777,-0.26666666666666666,-0.06891408002432009,-0.12265757899774833,-0.025786098244754512
1592177748.8902764,0.10886804060289143,9.580825515226085,1.8063914949246387,-0.36777777777777776,-0.5777777777777777,-0.25743450733107764,-0.06684425483178048,-0.09161955185124455,-0.028665177444404524
1592177748.9002764,0.015847885520061084,9.521885914140046,1.8901901430999235,-0.36777777777777776,-0.5777777777777777,-0.25222222222222224,-0.06500729221839449,-0.06257842654439565,-0.02945243112740431
1592177748.9102764,0.06985537355173792,9.536195765081901,1.8707063523771474,-0.36777777777777776,-0.5777777777777777,-0.25222222222222224,-0.05816773433410766,-0.05080857062679977,-0.018974877255863443
1592177748.9202764,0.15289879100137735,9.591303626995868,1.8484048359944907,-0.36777777777777776,-0.5777777777777777,-0.25222222222222224,-0.03313653778383242,-0.01712208684645358,0.00926365908793074
1592177748.9302764,0.20472474765552295,9.632834848593314,1.86,-0.36777777777777776,-0.5777777777777777,-0.25222222222222224,-0.020210394849215423,0.012063679493833215,0.021241174885649902
1592177748.9402764,0.3053807763401109,9.549238447319778,1.8846136783733827,-0.36777777777777776,-0.5777777777777777,-0.25222222222222224,-0.015271630954950384,0.04379998121799586,0.01879636531887285
1592177748.9502764,0.33258069069351653,9.48,1.9445158558389009,-0.36777777777777776,-0.5777777777777777,-0.25222222222222224,-0.015271630954950384,0.06639984590452573,0.009324873586629156
1592177748.9602764,0.2974311251314406,9.46371556256572,1.9328592709428671,-0.36777777777777776,-0.5777777777777777,-0.25222222222222224,0.00012345925680620415,0.0780094271138496,0.014741241729055157
1592177748.9702764,0.18674975623171738,9.505500162512188,1.9218928919668974,-0.36777777777777776,-0.5777777777777777,-0.25222222222222224,0.0403335479557904,0.09264272535249152,0.019860909357406222
1592177748.9802763,-0.023792795917356196,9.64292176584254,1.869437645543279,-0.36777777777777776,-0.5777777777777777,-0.25222222222222224,0.1010552057689385,0.10773487561032666,0.01806305087539714
1592177748.9902763,-0.043664496230294725,9.72328238519534,1.7733588074023303,-0.37220523950955753,-0.5689228543142182,-0.25222222222222224,0.11023226361923859,0.11234723422754973,0.02179994291075868
1592177749.0002763,0.0,9.73,1.77,-0.37444444444444447,-0.5644444444444444,-0.25222222222222224,0.10253809355466686,0.11344640137963141,0.02399827721492203
1592177749.0102763,-0.10377581068928426,9.645103242757138,1.78,-0.37444444444444447,-0.5644444444444444,-0.25222222222222224,0.03672141770302643,0.11962026778860768,0.009242564922102802
1592177749.0202763,-0.08158805170072825,9.556352206802913,1.78,-0.37444444444444447,-0.5644444444444444,-0.25222222222222224,0.00041678195403242746,0.12607442525509552,-0.004472519694183814
1592177749.0302763,-0.08726640395024216,9.463287199696136,1.9227335960497578,-0.37444444444444447,-0.5644444444444444,-0.25222222222222224,-0.032351248415748685,0.11026449221695765,-0.010655410345573704
1592177749.0402763,0.020205348928899986,9.478980155079512,2.0122450387698776,-0.37818617572757407,-0.5689345219842,-0.25222222222222224,-0.026223986323340102,0.09463498224410392,0.012801026106724246
1592177749.0502763,0.08221858982783545,9.506541595479037,2.0191353988697593,-0.38967010922737694,-0.5827152421839634,-0.25222222222222224,-0.0029237139350874637,0.08711876534466759,0.035349676805033245
1592177749.0602763,-0.02413002512562814,9.693712311557789,1.7277261306532663,-0.39111111111111113,-0.5844444444444444,-0.25222222222222224,0.05438462942055666,0.09493516744751819,0.018577012672766277
1592177749.0702763,-0.17624619399739017,9.669534580252284,1.5779730317529361,-0.39111111111111113,-0.5844444444444444,-0.25222222222222224,0.03363070684322154,0.07189329280724793,-0.007617785216607481
1592177749.0802763,-0.18119995938364683,9.65800002538522,1.5472000101540884,-0.39111111111111113,-0.5772444342903561,-0.2418222075552058,-0.010777440252602005,0.05366885788423752,-0.004188773036378674
1592177749.0902762,-0.13861066686974843,9.684618333206407,1.5578473332825629,-0.39111111111111113,-0.5665971111618815,-0.2264427408140758,-0.04445928092980904,0.03624721615464767,0.013813590084197497
1592177749.1002762,-0.13,9.69,1.56,-0.39111111111111113,-0.5644444444444444,-0.22333333333333333,-0.05126904677733343,0.032724923474893676,0.017453292519943295
1592177749.1102762,-0.11776907630522089,9.714461847389558,1.5281995983935743,-0.39111111111111113,-0.5644444444444444,-0.22333333333333333,-0.05500476983542993,0.038061670700745814,0.021989527661917613
1592177749.1202762,-0.11547615396411595,9.677658845780298,1.601468077493227,-0.39111111111111113,-0.5644444444444444,-0.22333333333333333,-0.10007936108243962,0.06421615932198313,0.03212756774351891
1592177749.1302762,-0.13502081774400893,9.55518735969608,1.819583645119822,-0.39111111111111113,-0.5644444444444444,-0.22333333333333333,-0.14987796027692618,0.08339632499820868,0.026736708489156692
1592177749.1402762,-0.18027287575190215,9.48486356212405,1.9954093136278532,-0.37435348586047706,-0.5644444444444444,-0.2191439270206748,-0.18425497681871011,0.10010604888929772,0.021941807200117236
1592177749.1502762,-0.18376169321342145,9.48124498862282,2.058741647704699,-0.36444444444444446,-0.5644444444444444,-0.21666666666666667,-0.17930950090563164,0.09804042098384913,0.025632336762870186
1592177749.1602762,-0.18560886584849767,9.5,1.894533432077867,-0.36444444444444446,-0.5644444444444444,-0.21666666666666667,-0.13164147498870887,0.07632422499797939,0.03239428126246749
1592177749.1702762,-0.18529080947715976,9.531448060665433,1.7652908094771598,-0.36444444444444446,-0.5644444444444444,-0.21666666666666667,-0.09934523371450245,0.062106469005568876,0.034084415022659395
1592177749.1802762,-0.13889117603814405,9.700497384948225,1.6367875821798399,-0.36444444444444446,-0.5644444444444444,-0.21666666666666667,-0.036535487827595234,0.029842421061006617,0.037357282607485595
1592177749.1902761,-0.12501743679163035,9.78,1.5854152136006976,-0.3740714908456844,-0.5608343020439794,-0.21666666666666667,-0.08965746952303288,0.016862584350999868,0.012822016841597943
1592177749.2002761,-0.05032209982913441,9.752942887265059,1.626896062820373,-0.38222222222222224,-0.5577777777777778,-0.21666666666666667,-0.1461713248545251,0.016362461737446838,-0.002181661564992912
1592177749.2102761,0.03197610841906144,9.631541810266642,1.783952216838123,-0.38222222222222224,-0.5577777777777778,-0.21666666666666667,-0.18153034278043792,0.02475273717749395,-0.008174715450740848
1592177749.220276,0.018335396678015065,9.524004952027237,1.9466584132879399,-0.38222222222222224,-0.5577777777777778,-0.21666666666666667,-0.23609047679599493,0.04959526918236079,-0.008945082507658186
1592177749.230276,0.010070283130232642,9.469929716869768,2.1458785391279083,-0.38222222222222224,-0.5577777777777778,-0.21666666666666667,-0.23276587150977918,0.07098066786421761,-0.006544984694978735
1592177749.240276,0.00870019342359768,9.437400386847196,2.2869497098646034,-0.38222222222222224,-0.5646832151300236,-0.21227229744251022,-0.18407822202731297,0.09598741206449907,-0.014556999647345838
1592177749.250276,-0.055422245299113604,9.4170830397211,2.297083039721099,-0.38222222222222224,-0.57,-0.2088888888888889,-0.14603352974102946,0.10785598970371597,-0.018180256816597185
1592177749.260276,-0.2022789572695512,9.465255307712981,2.1917683418435905,-0.38222222222222224,-0.57,-0.2088888888888889,-0.09318248264974865,0.10950419580381279,0.004073978872441077
1592177749.270276,-0.22333687977560693,9.513336879775606,2.0833209207853756,-0.38222222222222224,-0.57,-0.2088888888888889,-0.07017368548588503,0.1025363526988867,0.008361488571779343
1592177749.280276,-0.21821396297915757,9.521683719574405,2.053265121702376,-0.38222222222222224,-0.57,-0.2088888888888889,-0.06325702428277852,0.09595962555364035,0.007474472367421642
1592177749.290276,-0.1299910514541387,9.572869926494088,2.015713007350591,-0.3788878946060154,-0.57,-0.2088888888888889,-0.06482860679177882,0.07916300876761018,0.012776908973632185
1592177749.300276,-0.1233091898874331,9.574484683520945,2.0377576582395274,-0.37444444444444447,-0.57,-0.2088888888888889,-0.08931594723860554,0.08944022324051433,-0.0025386877223291865
1592177749.310276,-0.1881191117092867,9.497326475677754,2.0382176504518363,-0.37444444444444447,-0.57,-0.2088888888888889,-0.10738747712272911,0.10411498477523976,0.0002808873534817097
1592177749.320276,-0.1767881977071979,9.486204425859802,2.074014752866003,-0.37444444444444447,-0.57,-0.2088888888888889,-0.10410663687821055,0.11085070690370082,0.016975579978896052
1592177749.330276,-0.1832549504950495,9.487023514851485,2.1459529702970297,-0.37444444444444447,-0.57,-0.2088888888888889,-0.0843443051384373,0.11282740891208856,0.026357468789690044
1592177749.340276,-0.19754052505644862,9.49547568496613,2.184245947494355,-0.37774684805116515,-0.558205701404569,-0.2088888888888889,-0.05419983885443205,0.11298324035686079,0.039178812605587504
1592177749.350276,-0.18661262358839792,9.5416531558971,2.18417342205145,-0.38222222222222224,-0.5422222222222223,-0.2088888888888889,-0.029641605239489936,0.11235557059713495,0.039648256394043666
1592177749.360276,-0.21455255553548852,9.566342333393536,2.109183221961351,-0.38222222222222224,-0.5422222222222223,-0.2088888888888889,-0.03519091618072784,0.09571729829521367,0.02044145372659141
1592177749.370276,-0.1840137466886232,9.538421994701798,2.0448027493377245,-0.38222222222222224,-0.5422222222222223,-0.2088888888888889,-0.04136550289715421,0.07670991978115015,0.014266867010165038
1592177749.380276,-0.16,9.53085452819135,2.0223688410335146,-0.38222222222222224,-0.5422222222222223,-0.2088888888888889,-0.03157686379718009,0.06814830945841993,0.01972816865049973
1592177749.390276,-0.14667735807928253,9.578881761280478,2.022204403201196,-0.385182809315715,-0.5422222222222223,-0.20494143943089854,-0.013581391833527872,0.06181491059366482,0.015763053398520785
1592177749.400276,-0.11349969178785874,9.59550010273738,2.05,-0.3888888888888889,-0.5422222222222223,-0.2,-0.0074722693084686796,0.05999569303730508,-0.0035453681467591024
1592177749.410276,-0.16673493419533597,9.589733087046872,2.0037988917109213,-0.3888888888888889,-0.5422222222222223,-0.2,-0.02658755839164255,0.06391550567897457,-0.0125882275285372
1592177749.420276,-0.279325106966409,9.545472425123513,2.004392596269768,-0.3888888888888889,-0.5422222222222223,-0.2,-0.05059847838977651,0.06870761541535805,-0.017409120874187285
1592177749.430276,-0.33,9.492917716642022,2.0585411416789885,-0.3888888888888889,-0.5422222222222223,-0.2,-0.05673476394591856,0.06655224098838666,-0.014669773697714852
1592177749.440276,-0.27156578072128873,9.474173872805622,2.0908693640281113,-0.3828599615029901,-0.5422222222222223,-0.20973903654645187,-0.04507509525807376,0.06172205570843823,-0.0019919957563811555
1592177749.450276,-0.20014143481901925,9.535777891504607,2.0845049781334324,-0.37444444444444447,-0.5422222222222223,-0.22333333333333333,-0.027715902008362662,0.061086523819801536,0.0054695820579125825
1592177749.460276,-0.15638853009558254,9.565631150043446,1.9768934501303397,-0.37444444444444447,-0.5422222222222223,-0.22333333333333333,-0.02285236820076433,0.055770065486472356,0.00760827636164457
1592177749.4702759,-0.12872613890607892,9.54,1.8952123101823202,-0.37444444444444447,-0.5422222222222223,-0.22333333333333333,-0.030833923370605476,0.05278949570992197,0.014471461633158642
1592177749.4802759,-0.10612758931828217,9.5861763520129,1.8976960586688167,-0.37444444444444447,-0.5422222222222223,-0.22333333333333333,-0.040866040569809345,0.06360771272217114,0.02702210814231574
1592177749.4902759,-0.04391646530894028,9.653166724197446,1.947583016914049,-0.3771018294787712,-0.540324090054846,-0.2183981896981552,-0.056223158135740706,0.08940256305850225,0.04006982564116529
1592177749.5002759,-0.10080962283769733,9.607571131486909,2.0902625484450326,-0.38222222222222224,-0.5366666666666666,-0.2088888888888889,-0.09127412375063755,0.12514955456681112,0.04345659899714376
1592177749.5102758,-0.19766450733037846,9.492335492669621,2.215748380497784,-0.38222222222222224,-0.5366666666666666,-0.2088888888888889,-0.10401757696849942,0.14493023984900494,0.044439917957626675
1592177749.5202758,-0.27,9.42,2.27,-0.38222222222222224,-0.5366666666666666,-0.2088888888888889,-0.10253809355466686,0.1538071403320003,0.04690572364734761
1592177749.5302758,-0.3823777341615912,9.407212723336233,2.419590457497825,-0.38222222222222224,-0.5366666666666666,-0.2088888888888889,-0.040029368835665054,0.13505699500402843,0.0316427670716595
1592177749.5402758,-0.46561101816908534,9.376762634711902,2.449712095864296,-0.37934456418835677,-0.5341487158870344,-0.20601123085502343,0.014062859903047335,0.09354484032369406,0.011324260534735705
1592177749.5502758,-0.5279032379518073,9.37636671686747,2.4534465361445785,-0.37333333333333335,-0.5288888888888889,-0.2,0.05070510861940953,0.05914192081190838,0.007705265584899947
1592177749.5602758,-0.3161825654229903,9.512271793221263,2.1212292342353494,-0.37333333333333335,-0.5288888888888889,-0.2,0.0997612296026214,0.02593212458219299,0.012876669854908648
1592177749.5702758,-0.2457094418362024,9.623439227960354,2.0,-0.37333333333333335,-0.5288888888888889,-0.2,0.09963706408397127,0.018575078542172566,0.02225368770211249
1592177749.5802758,-0.22,9.68,2.0,-0.37333333333333335,-0.5288888888888889,-0.2,0.08617563181722002,0.017453292519943295,0.02617993877991494
1592177749.5902758,-0.13208587200981395,9.67374238397056,1.9762576160294418,-0.37904055067130105,-0.524188827551739,-0.19462850132897158,-0.012696770725156561,0.019964545115476642,0.012611484752711937
1592177749.6002758,-0.16,9.59,2.06,-0.39222222222222225,-0.5133333333333333,-0.18222222222222223,-0.062177354602297986,0.020725784867432664,-0.001090830782496456
1592177749.6102757,-0.20087827257492927,9.466841295568804,2.1507010796406694,-0.39222222222222225,-0.5133333333333333,-0.18222222222222223,-0.07279824839921598,0.022486409304487462,-0.012841212863337238
1592177749.6202757,-0.26846951521293394,9.4577042728194,2.175408545638802,-0.39222222222222225,-0.5133333333333333,-0.18222222222222223,-0.04110918599747314,0.016276158823614013,-0.012166088599248434
1592177749.6302757,-0.31098802504852235,9.496996008349507,2.2469960083495075,-0.39222222222222225,-0.5133333333333333,-0.18222222222222223,-0.01565755823329287,0.007528038663794617,-0.00867275785313136
1592177749.6402757,-0.3420109286224347,9.515991803533174,2.2400273215560866,-0.3897811170790773,-0.5162182757752319,-0.18222222222222223,-0.002181661564992912,-0.000649133894504939,-0.007198589068644453
1592177749.6502757,-0.3061396848137536,9.567022206303724,2.1445587392550145,-0.38,-0.5277777777777778,-0.18222222222222223,-0.010182467772055564,-0.02562655313509833,-0.010238572105997717
1592177749.6602757,-0.15433571786817304,9.635705461552675,1.995756935828736,-0.38,-0.5277777777777778,-0.18222222222222223,-0.044405016466377595,-0.052978877885340704,-0.01231032326196143
1592177749.6702757,0.04,9.67,1.83,-0.38,-0.5277777777777778,-0.18222222222222223,-0.07308566242726255,-0.06981317007977318,-0.014180800172453926
1592177749.6802757,0.28722754752545804,9.563782038020367,1.95,-0.38,-0.5277777777777778,-0.18222222222222223,-0.1273614834682264,-0.06444118641932503,-0.0016956860829442297
1592177749.6902757,0.2662609689867086,9.61303101329141,1.9999005287980562,-0.3774409985231766,-0.5222332745779937,-0.17625121877630096,-0.13894337438965063,-0.027479488192053567,0.006291585187494137
1592177749.7002757,0.18,9.65,2.08,-0.37333333333333335,-0.5133333333333333,-0.16666666666666666,-0.148352986419518,0.00545415391248228,0.007635815477475192
1592177749.7102757,0.046414869727550656,9.624528016016882,2.0920754308595546,-0.37333333333333335,-0.5133333333333333,-0.16666666666666666,-0.20906912182124832,0.05573534083884518,0.0067919496577213655
1592177749.7202756,-0.03871599876034043,9.460457005268552,2.1361479962810215,-0.37333333333333335,-0.5133333333333333,-0.16666666666666666,-0.22374019335709275,0.08591568606420229,0.002181661564992912
1592177749.7302756,-0.06,9.37,2.2,-0.37333333333333335,-0.5133333333333333,-0.16666666666666666,-0.2127120025868089,0.09926560120717749,0.002181661564992912
1592177749.7402756,-0.26419145120310866,9.337744731729188,2.347425646390674,-0.3756997791394743,-0.516130042013318,-0.16666666666666666,-0.10464304971192333,0.11703451895427863,0.01769930412520217
1592177749.7502756,-0.24,9.37,2.42,-0.38555555555555554,-0.5277777777777778,-0.16666666666666666,-0.031634092692397225,0.10471975511965977,0.014180800172453926
1592177749.7602756,-0.1576884504726675,9.521809014933552,2.3530653514180027,-0.38555555555555554,-0.5277777777777778,-0.16666666666666666,0.031453199202996794,0.07872070982914525,0.030137626492740623
1592177749.7702756,-0.11587878393898025,9.651757567877961,2.272969728488158,-0.38555555555555554,-0.5277777777777778,-0.16666666666666666,0.012937887974226209,0.06711584047536572,0.02765421139113266
1592177749.7802756,-0.10423865271673603,9.576625179884097,2.3516874100579517,-0.38555555555555554,-0.5277777777777778,-0.16666666666666666,-0.04723353291345779,0.07143823683960213,0.022575246011323817
1592177749.7902756,-0.1007953855494839,9.389413074276462,2.4515907710989677,-0.38555555555555554,-0.5215804268141851,-0.16546717938339067,-0.09357389742180183,0.10026547423165158,0.015773664794132114
1592177749.8002756,-0.18262734212352533,9.258156835530881,2.509215822345593,-0.38555555555555554,-0.49333333333333335,-0.16,-0.014245144805703186,0.15341781745105793,0.015759287575411327
1592177749.8102756,-0.24483727474921702,9.310802505560346,2.357267032817394,-0.38555555555555554,-0.49333333333333335,-0.16,0.10979993395610393,0.17870220512499757,0.019634954084936207
1592177749.8202755,-0.26328946126993114,9.38671053873007,2.2033552693650345,-0.38555555555555554,-0.49333333333333335,-0.16,0.2136019368991258,0.1883549008107798,0.028419028741608773
1592177749.8302755,-0.2677902170168791,9.444475542542198,2.2011048914915605,-0.38555555555555554,-0.49333333333333335,-0.16,0.27194640621132105,0.18754050924696453,0.04872581031724675
1592177749.8402755,-0.28953142748958727,9.652342862552064,2.150759182127982,-0.3813318818629307,-0.49853170095502547,-0.1638987757162691,0.2701488279962226,0.17610835167127586,0.06073585538574644
1592177749.8502755,-0.24,9.9,2.08,-0.3711111111111111,-0.5111111111111111,-0.17333333333333334,0.21380283336930533,0.16144295580947549,0.07308566242726255
1592177749.8602755,-0.18621732444900052,9.462510251153255,2.214456688877499,-0.3711111111111111,-0.5111111111111111,-0.17333333333333334,0.03815056258988374,0.14771154325436214,0.052964559000767825
1592177749.8702755,-0.18885373055396412,9.248853730553964,2.316067163192455,-0.3711111111111111,-0.5111111111111111,-0.17333333333333334,0.07231923013404756,0.16373239766684675,0.04699518802028075
1592177749.8802755,-0.2600472923208125,9.422789665464977,2.3373995038182733,-0.3711111111111111,-0.5111111111111111,-0.17333333333333334,0.208977925216963,0.18544639181632933,0.04826732757849375
1592177749.8902755,-0.3211183896281133,9.815722961446605,2.198816103718867,-0.3681287387694757,-0.5083772697979453,-0.1693568368778195,0.30463632379289046,0.1900342595863031,0.04459491903168043
1592177749.9002755,-0.3458824116590138,9.936617338790178,2.1139706029147534,-0.34444444444444444,-0.4866666666666667,-0.13777777777777778,0.1289583189016884,0.1632716598997766,0.02364531974023025
1592177749.9102755,-0.37,9.81,2.12,-0.34444444444444444,-0.4866666666666667,-0.13777777777777778,-0.009817477042468103,0.1461713248545251,0.006544984694978735
1592177749.9202754,-0.4614752020282047,9.348524797971795,2.05,-0.34444444444444444,-0.4866666666666667,-0.13777777777777778,-0.09610917491426685,0.09931615864718386,-0.01225546914944204
1592177749.9302754,-0.4074142954064732,9.4246106876322,2.0437071477032362,-0.34444444444444444,-0.4866666666666667,-0.13777777777777778,-0.03677893772074982,0.07607609815824577,-0.012525856156945176
1592177749.9402754,-0.34894796415657914,9.488056909290991,2.0467203269926113,-0.3521411029013607,-0.48799367674544536,-0.13140812939964017,0.025839742253218435,0.07647291408298122,-0.0008127126622240535
1592177749.9502754,-0.25,9.45,2.1,-0.37666666666666665,-0.4922222222222222,-0.1111111111111111,0.04908738521234052,0.08726646259971647,0.017453292519943295
1592177749.9602754,-0.3037461881304246,9.510241613886935,2.037009148486981,-0.37666666666666665,-0.4922222222222222,-0.1111111111111111,0.09479020116357838,0.10801860345368376,0.0379055380708175
1592177749.9702754,-0.3452561873228365,9.608396655629928,1.95,-0.37666666666666665,-0.4922222222222222,-0.1111111111111111,0.11781694803829769,0.11385208826196193,0.04524153177181938
1592177749.9802754,-0.3345780346820809,9.628222543352601,1.9478815028901733,-0.37666666666666665,-0.4922222222222222,-0.1111111111111111,0.09398768267256097,0.10188201874010758,0.04155340162583248
1592177749.9902754,-0.23743857298974158,9.509634081855678,1.9392681637113547,-0.3752436516609675,-0.4917749889347168,-0.11139571411225092,0.06209752364715777,0.08686730782401537,0.033536345914399364
1592177750.0002754,-0.17,9.5,1.92,-0.3377777777777778,-0.48,-0.11888888888888889,0.05999569303730508,0.07635815477475191,0.02617993877991494
1592177750.0102754,-0.1919971788660268,9.705761552850266,1.7342384471497347,-0.3377777777777778,-0.48,-0.11888888888888889,0.09236170037052303,0.07280354698095379,0.01778712132645995
1592177750.0202754,-0.33,9.86,1.58,-0.3377777777777778,-0.48,-0.11888888888888889,0.07199483164476608,0.062177354602297986,0.009817477042468103
1592177750.0302753,-0.4100491114943391,9.755833020919246,1.7261768013796206,-0.3377777777777778,-0.48,-0.11888888888888889,-0.04525896748218425,0.050167501528877084,-0.010929736756884337
1592177750.0402753,-0.4493598635375272,9.622176463972407,1.867695508735098,-0.3377777777777778,-0.48,-0.11888888888888889,-0.12416070375988715,0.04159122584651807,-0.028082288121602357
1592177750.0502753,-0.46,9.48,2.09,-0.35555555555555557,-0.4922222222222222,-0.11888888888888889,-0.1712604328519436,0.015271630954950384,-0.032724923474893676
1592177750.0602753,-0.3018432448036952,9.4,2.270211893764434,-0.35555555555555557,-0.4922222222222222,-0.11888888888888889,-0.14430630022711885,-0.009082551846108337,-0.034395840684767934
1592177750.0702753,-0.21460084612111047,9.422699576939445,2.23297118682254,-0.35555555555555557,-0.4922222222222222,-0.11888888888888889,-0.10209727744026927,-0.01126204207175303,-0.019812722337722445
1592177750.0802753,-0.12,9.47,2.26,-0.35555555555555557,-0.4922222222222222,-0.11888888888888889,-0.08072147790473774,-0.011999138607461015,-0.006544984694978735
1592177750.0902753,-0.0819804177545692,9.501711488250653,2.198019582245431,-0.3542243980272701,-0.489179576443284,-0.11755773136060342,-0.05102368105432541,-0.0023390203136428576,0.0012481895311464018
1592177750.1002753,-0.14,9.51,2.14,-0.3477777777777778,-0.47444444444444445,-0.1111111111111111,-0.039269908169872414,0.002181661564992912,-0.0032724923474893677
1592177750.1102753,-0.28917974588938716,9.513974682361734,2.113627849402093,-0.3477777777777778,-0.47444444444444445,-0.1111111111111111,-0.025133845919084772,-0.0033998017976980465,-0.006544984694978735
1592177750.1202753,-0.36512121072726433,9.568398270389622,2.06888311329868,-0.3477777777777778,-0.47444444444444445,-0.1111111111111111,-0.026529381972762143,-0.017715374914578697,-0.0051311547981288275
1592177750.1302752,-0.4153979968371112,9.482329994728518,2.2207380073800738,-0.3477777777777778,-0.47444444444444445,-0.1111111111111111,-0.04497189975618494,-0.03322059882255417,0.0006693342281633499
1592177750.1402752,-0.3908311368827974,9.441385228137996,2.278060680606806,-0.3477777777777778,-0.47444444444444445,-0.1111111111111111,-0.052118109640836935,-0.047513018591858164,0.00424243917048935
1592177750.1502752,-0.35141538461538463,9.479292307692308,2.3237384615384613,-0.3466666666666667,-0.48,-0.11888888888888889,-0.01639602576152365,-0.05621638392625582,-0.002435069946772858
1592177750.1602752,-0.28232526092836907,9.508465052185674,2.2454408349707813,-0.3466666666666667,-0.48,-0.11888888888888889,0.010233577752825034,-0.05387179179466574,-0.003774802845107163
1592177750.1702752,-0.2149489468047126,9.504175175532549,2.1246131143639175,-0.3466666666666667,-0.48,-0.11888888888888889,0.018771843802101215,-0.047901010998222325,-0.007000425694301664
1592177750.1802752,-0.12,9.523227050989556,2.18,-0.3466666666666667,-0.48,-0.11888888888888889,0.018930920773717268,-0.03522171663036351,-0.007494587965338504
1592177750.1902752,-0.12,9.53878656353755,2.18,-0.3466666666666667,-0.48,-0.11888888888888889,0.015536361724118927,-0.015703002095173044,-0.0015541096285414044
1592177750.2002752,-0.3061560344214494,9.508790270962235,2.23,-0.3388888888888889,-0.47444444444444445,-0.10444444444444445,0.0015702656901010429,0.01076463250961121,-0.0027930574398847808
1592177750.2102752,-0.44157643434732385,9.46,2.2201925298421257,-0.3388888888888889,-0.47444444444444445,-0.10444444444444445,0.0019046905145585016,0.01749529601561124,-0.0058820855263472735
1592177750.2202752,-0.53,9.46,2.18,-0.3388888888888889,-0.47444444444444445,-0.10444444444444445,0.014180800172453926,0.008726646259971648,-0.007635815477475192
1592177750.2302752,-0.5589940882219191,9.448994088221918,2.261005911778081,-0.3388888888888889,-0.47444444444444445,-0.10444444444444445,0.041245011327484,-0.030452880205230074,-0.009488293182866172
1592177750.2402751,-0.544183900344166,9.442181037370938,2.2685459750860413,-0.3403429138028474,-0.4733943153399188,-0.10549457354897004,0.060808176416403875,-0.06017373836253879,-0.006703594208445006
1592177750.2502751,-0.47,9.47,2.25,-0.35888888888888887,-0.46,-0.11888888888888889,0.08508480103472357,-0.07635815477475191,-0.008726646259971648
1592177750.2602751,-0.3439286751313254,9.521587255497188,2.1510318612570285,-0.35888888888888887,-0.46,-0.11888888888888889,0.11769716590737406,-0.087883303320426,-0.00999061975807012
1592177750.270275,-0.17630730984366783,9.59,1.9891284601042214,-0.35888888888888887,-0.46,-0.11888888888888889,0.1361049076800951,-0.0798570582635239,-0.018200112915828962
1592177750.280275,-0.13,9.59,2.02,-0.35888888888888887,-0.46,-0.11888888888888889,0.13526301702956053,-0.062177354602297986,-0.020725784867432664
1592177750.290275,-0.18792155190790877,9.573450985169169,2.0696470444924935,-0.35888888888888887,-0.46,-0.11888888888888889,0.11901605971184571,-0.04412517980483707,-0.024336219826924844
1592177750.300275,-0.25,9.54,2.06,-0.35333333333333333,-0.46,-0.09555555555555556,0.09381144729469522,-0.02399827721492203,-0.02181661564992912
1592177750.310275,-0.38621068586585827,9.566210685865858,1.9129206138688897,-0.35333333333333333,-0.46,-0.09555555555555556,0.08004399717244835,-0.01410619048839155,-0.005867503962689349
1592177750.320275,-0.42732838156634667,9.605862705253077,1.82,-0.35333333333333333,-0.46,-0.09555555555555556,0.07475934993506181,-0.019634954084936207,-0.002021781081023901
1592177750.330275,-0.4690374169649694,9.63807483392994,1.8248129151751529,-0.35333333333333333,-0.46,-0.09555555555555556,0.06240480285435883,-0.02047496624919235,-0.000985829261964438
1592177750.340275,-0.4615677369948888,9.623135473989777,1.8621613150255563,-0.35333333333333333,-0.46,-0.09555555555555556,0.038775147998751334,-0.026993491726601315,-0.00017101357728831722
1592177750.350275,-0.380492495993006,9.558415415998835,1.9615845840011656,-0.3388888888888889,-0.4666666666666667,-0.0811111111111111,0.008607517938322064,-0.03237922087370909,-0.00029197962224187537
1592177750.360275,-0.3316090228882954,9.554827068664887,1.9571278168936368,-0.3388888888888889,-0.4666666666666667,-0.0811111111111111,0.002708213073881108,-0.030543261909900768,-0.008688918495251583
1592177750.370275,-0.3371456268327558,9.577145626832756,1.9071262390034656,-0.3388888888888889,-0.4666666666666667,-0.0811111111111111,0.00545415391248228,-0.03095841365864236,-0.014284588109639325
1592177750.380275,-0.308355998143984,9.549177999071993,2.070822000928008,-0.3388888888888889,-0.4666666666666667,-0.0811111111111111,0.004826489171624038,-0.03472725225678423,-0.014823298997194497
1592177750.390275,-0.29338544455152227,9.54169272227576,2.078307277724239,-0.3388888888888889,-0.4666666666666667,-0.0811111111111111,-0.0008891300697605143,-0.03309421818781722,-0.01074071382477696
1592177750.400275,-0.28050328330206376,9.518417213883676,2.1068344277673545,-0.3466666666666667,-0.4488888888888889,-0.0811111111111111,0.006607840493116489,-0.029625086309183594,-0.004245567640027306
1592177750.410275,-0.22185482604697068,9.520860231937371,2.0642069491487405,-0.3466666666666667,-0.4488888888888889,-0.0811111111111111,0.02061729148034872,-0.03128367911629683,0.0015893277998760638
1592177750.420275,-0.16510209937353548,9.590816316771077,1.9024489503132322,-0.3466666666666667,-0.4488888888888889,-0.0811111111111111,0.03399384694982201,-0.03555218409130336,-0.0016473834876972924
1592177750.430275,-0.10937629020590363,9.6,1.933742258764578,-0.3466666666666667,-0.4488888888888889,-0.0811111111111111,0.03504490924254026,-0.029794863882881436,0.004295286945711339
1592177750.440275,-0.101975933800307,9.6,1.978144397198158,-0.3466666666666667,-0.4488888888888889,-0.0811111111111111,0.02374335804640278,-0.020915073657344845,0.003488033288844376
1592177750.450275,-0.15165498753703616,9.546690024925928,2.0742075436203735,-0.3388888888888889,-0.4688888888888889,-0.08888888888888889,0.0007297685124870473,-0.006454719127476383,0.0020011304299882076
1592177750.460275,-0.16720087710935266,9.511399561445323,2.0023024120507196,-0.3388888888888889,-0.4688888888888889,-0.08888888888888889,-0.0018984761115905045,-0.006141162030431711,-0.00038167117663857306
