time,acc_x,acc_y,acc_z,mag_x,mag_y,mag_z,gyr_x,gyr_y,gyr_z
1592177776.8202498,0.07291317188422917,9.700078440637922,1.1999215593620791,-0.38333333333333336,-0.5644444444444444,-0.23222222222222222,0.012634694120665093,0.008262814444434998,-0.008572035654792764
1592177776.8302498,0.13762499141149256,9.71,1.1323750085885076,-0.38333333333333336,-0.5644444444444444,-0.23222222222222222,0.02136469896933964,0.010522620959193076,-0.010522620959193076
1592177776.8402498,0.4701796239124334,9.653968565815324,1.1680269435868649,-0.38333333333333336,-0.5644444444444444,-0.23222222222222222,0.014175901690130058,0.010035153350735009,-0.009161998876505456
1592177776.8502498,0.3462549785612196,9.659101095759885,1.1608989042401143,-0.38333333333333336,-0.5644444444444444,-0.23222222222222222,0.0022756424314563026,0.005650264395608942,0.01002581065089458
1592177776.8602498,0.1805015685284679,9.73599790862871,1.1829989543143546,-0.37325031951505827,-0.5589446187253854,-0.22672239650316311,0.007526390199398348,0.041968488140503676,-0.0071713283786939315
1592177776.8702497,0.17,9.75,1.1945589681519024,-0.3711111111111111,-0.5577777777777778,-0.22555555555555556,0.009817477042468103,0.05017821599483697,-0.01308996938995747
1592177776.8802497,0.10501493475868574,9.706676623172457,1.1494560603678665,-0.3711111111111111,-0.5577777777777778,-0.22555555555555556,0.00036578243343262686,0.05569170451677433,-0.011514686955118226
1592177776.8902497,0.09479356986049148,9.653016075348772,1.2113646342327031,-0.3711111111111111,-0.5577777777777778,-0.22555555555555556,-0.013761725248932698,0.05862089554165396,-0.00929457968628097
1592177776.9002497,0.06861931056884162,9.646276137886233,1.2462761378862317,-0.3711111111111111,-0.5577777777777778,-0.22555555555555556,-0.00786860635785204,0.06027410313510737,-0.006672784939523521
1592177776.9102497,0.05,9.687860557641095,1.2045673308306863,-0.3711111111111111,-0.5485229747988435,-0.23060362990770153,0.008556198481527852,0.051174653007628516,-0.006280143146830031
1592177776.9202497,0.05895758919407153,9.704478794597035,1.1810424108059283,-0.3711111111111111,-0.5455555555555556,-0.23222222222222222,0.009556335099998307,0.04115670460894848,-0.0055678632919936525
1592177776.9302497,0.09211715091459471,9.71,1.1036485472562159,-0.3711111111111111,-0.5455555555555556,-0.23222222222222222,-0.00712645442698501,0.027899709667141767,-0.007580132335153764
1592177776.9402497,0.12211320842222428,9.69525786105185,1.1242264168444485,-0.3711111111111111,-0.5455555555555556,-0.23222222222222222,-0.020039728089701725,0.022159644038794588,-0.007922587311747577
1592177776.9502497,0.13,9.701632176044695,1.169080440111738,-0.3711111111111111,-0.5455555555555556,-0.23222222222222222,-0.02354188321727415,0.020725784867432664,-0.0070013786926266175
1592177776.9602497,0.13,9.696810961080223,1.2361616362192216,-0.3747747330332715,-0.558011870090901,-0.23222222222222222,-0.02112087528587459,0.01784838293838522,-0.010861087588549898
1592177776.9702497,0.13733098640479885,9.69,1.2233450679760056,-0.37666666666666665,-0.5644444444444444,-0.23222222222222222,-0.018035580957652685,0.013963402046521555,-0.011490596262673949
1592177776.9802496,0.15438012622024724,9.697190063110122,1.152479495119011,-0.37666666666666665,-0.5644444444444444,-0.23222222222222222,-0.018237606736804798,0.009952712522511451,-0.01090830782496456
1592177776.9902496,0.1672038062366674,9.692796193763332,1.1444076124733347,-0.37666666666666665,-0.5644444444444444,-0.23222222222222222,-0.0201157500212591,0.0071550195411523,-0.007765054387325865
1592177777.0002496,0.20577361611626396,9.684037730647288,1.2036604241743958,-0.37666666666666665,-0.5644444444444444,-0.23222222222222222,-0.019425019478738263,0.0006915404458539293,-0.003943453917589933
1592177777.0102496,0.24286430050103508,9.673567849749482,1.2850250517536228,-0.3688051496938119,-0.5644444444444444,-0.23222222222222222,-0.01503592955698634,-0.015200351082030958,-0.003584939063174276
1592177777.0202496,0.2721975180972079,9.677399172699069,1.3026008273009309,-0.36444444444444446,-0.5644444444444444,-0.23222222222222222,-0.011475720320927038,-0.02827361192605085,-0.004363323129985824
1592177777.0302496,0.2102077309728215,9.68,1.1883323695565142,-0.36444444444444446,-0.5644444444444444,-0.23222222222222222,-0.011669623379315762,-0.035872470790359184,-0.007408585347390636
1592177777.0402496,0.13852543323015426,9.673087572205025,1.1952994223597941,-0.36444444444444446,-0.5644444444444444,-0.23222222222222222,-0.012753167509515221,-0.03290087507299652,-0.012496790770242672
1592177777.0502496,0.11425867817219063,9.687223965483428,1.22,-0.36444444444444446,-0.5644444444444444,-0.23222222222222222,-0.011837407273558814,-0.03179582402629942,-0.012301956997855941
1592177777.0602496,0.08327078722209376,9.693317696805522,1.2266823031944765,-0.3592470975154071,-0.5599895756481268,-0.2515266536729323,-0.012366160229466445,-0.034911702081646505,-0.01090830782496456
1592177777.0702496,0.07,9.698486826299352,1.2186842316008648,-0.3566666666666667,-0.5577777777777778,-0.2611111111111111,-0.017101635651605065,-0.035071646685079755,-0.009365359262792408
1592177777.0802495,0.06372283744254074,9.701168512327623,1.139782699540326,-0.3566666666666667,-0.5577777777777778,-0.2611111111111111,-0.03685702056458643,-0.029985994617129384,-0.004769421698041206
1592177777.0902495,0.0735554304457445,9.662889139108511,1.1506662913372334,-0.3566666666666667,-0.5577777777777778,-0.2611111111111111,-0.04476040263739295,-0.02244692802482475,-0.0021453210099546607
1592177777.1002495,0.09648218853804742,9.671976251384063,1.2084584399221105,-0.3566666666666667,-0.5577777777777778,-0.2611111111111111,-0.03742456284208537,-0.014241170498872491,0.0025050249415460206
1592177777.1102495,0.09845814977973569,9.713083700440528,1.2573127753303965,-0.365002447381302,-0.5545717082721487,-0.25277533039647576,-0.02487766943164825,-0.006040415390299758,0.0016770922603139347
1592177777.1202495,0.09,9.723384319004735,1.27,-0.3711111111111111,-0.5522222222222222,-0.24666666666666667,-0.02938569103960697,0.003944096129322554,-0.0003691719348152638
1592177777.1302495,0.06419835451095028,9.674847120394164,1.2570991772554752,-0.3711111111111111,-0.5522222222222222,-0.24666666666666667,-0.04225932299894501,0.00974670766286391,-0.0028145229138516257
1592177777.1402495,0.004788478631657336,9.611247267398564,1.3404230427366852,-0.3711111111111111,-0.5522222222222222,-0.24666666666666667,-0.04549663452643091,0.0017492285390060154,-0.005067867690444173
1592177777.1502495,-0.004049801614447939,9.579366534409631,1.41658366397592,-0.3711111111111111,-0.5522222222222222,-0.24666666666666667,-0.03428468165082342,-0.010812044881373068,-0.002554326014834703
1592177777.1602495,0.02262293355796567,9.595245867115931,1.4526229335579657,-0.36690346659178924,-0.5480145777029003,-0.24666666666666667,-0.0030579328127201405,-0.027780405887770643,0.0
1592177777.1702495,0.03222888303058755,9.61,1.4466267018164747,-0.36444444444444446,-0.5455555555555556,-0.24666666666666667,0.01711147970351479,-0.037949022431983254,-0.0009725336881395581
1592177777.1802495,0.0512004387167535,9.632400877433508,1.2599945160405812,-0.36444444444444446,-0.5455555555555556,-0.24666666666666667,0.05048395968166666,-0.05846876922467979,-0.0061959906294407965
1592177777.1902494,0.07850314375535868,9.687006287510718,1.162335429170239,-0.36444444444444446,-0.5455555555555556,-0.24666666666666667,0.06075996044607618,-0.06730494514105491,-0.010999781941025577
1592177777.2002494,0.10038587469618143,9.71,1.1959646867404534,-0.36444444444444446,-0.5455555555555556,-0.24666666666666667,0.05930295424718344,-0.06698086212433675,-0.011390584616695612
1592177777.2102494,0.08822862841084217,9.72088568579458,1.2363285286918684,-0.36444444444444446,-0.5522079190966871,-0.2303381379747983,0.0473202611000015,-0.05842179559063536,-0.008630032927136997
1592177777.2202494,0.07636178476695718,9.698191076165214,1.25,-0.36444444444444446,-0.5577777777777778,-0.21666666666666667,0.03411507136249633,-0.05206278221124355,-0.009717704674099372
1592177777.2302494,0.08,9.673743291592128,1.2312298747763863,-0.36444444444444446,-0.5577777777777778,-0.21666666666666667,0.025765754820013562,-0.049904044751651375,-0.0068133017479183825
1592177777.2402494,0.10403100775193798,9.645968992248063,1.22,-0.36444444444444446,-0.5577777777777778,-0.21666666666666667,0.03142691940424867,-0.05498548188514112,-0.0017419468309633327
1592177777.2502494,0.12955407344216527,9.668216293768662,1.1961148163945867,-0.36444444444444446,-0.5577777777777778,-0.21666666666666667,0.046467936272930666,-0.06255251934793962,0.0005210938704472872
1592177777.2602494,0.1538370734706425,9.728449431294191,1.160775284352905,-0.3577821498104314,-0.5608526829934761,-0.2274288349216108,0.060748242204866874,-0.07056571924733498,-0.0004185597856477333
1592177777.2702494,0.18708637540528564,9.767086375405285,1.1101317907210002,-0.35,-0.5644444444444444,-0.24,0.054266840397761806,-0.07278221142513867,-0.0015603834232137148
1592177777.2802494,0.2,9.774381159697636,0.956385513348005,-0.35,-0.5644444444444444,-0.24,0.03233064414460181,-0.06538771729489491,-0.003542512367996337
1592177777.2902493,0.17744182161013916,9.775639544597464,0.8769186337923957,-0.35,-0.5644444444444444,-0.24,0.004591606880634532,-0.05431955608900723,-0.010375584989423588
1592177777.3002493,0.16,9.78,0.9040559689677011,-0.35,-0.5644444444444444,-0.24,-0.022014972070717145,-0.0501095641208594,-0.01469188962671337
1592177777.3102493,0.15486156989613487,9.785138430103864,0.9662458709347863,-0.35342562006924344,-0.561018824375201,-0.24342562006924343,-0.05782733020958898,-0.046784920592531386,-0.012469052089449102
1592177777.3202493,0.15266597548783647,9.78066908579257,1.0166649387195912,-0.3566666666666667,-0.5577777777777778,-0.24666666666666667,-0.0825382097803962,-0.041960774891859176,-0.009526664229716798
1592177777.3302493,0.15491209029737357,9.714970696765793,1.06,-0.3566666666666667,-0.5577777777777778,-0.24666666666666667,-0.1315378074135378,-0.032692958604992,-0.0010524729386144445
1592177777.3402493,0.16749802113889278,9.704500395772222,1.0984972295944497,-0.3566666666666667,-0.5577777777777778,-0.24666666666666667,-0.1490618969119841,-0.02907051083737395,0.006054067670803129
1592177777.3502493,0.18554294049238168,9.717828238030473,1.1656564760609465,-0.3566666666666667,-0.5577777777777778,-0.24666666666666667,-0.15004845821347806,-0.026653743741637922,0.007031174466011592
1592177777.3602493,0.20141219481968026,9.74,1.2014351220721278,-0.353811707357376,-0.5577777777777778,-0.24666666666666667,-0.15738522482025472,-0.015743774530098342,0.008570098726679926
1592177777.3702493,0.2354234587854999,9.7237296236435,1.2225407527129992,-0.35,-0.5577777777777778,-0.24666666666666667,-0.17982009208610245,0.008929196736832339,0.008042654305220867
1592177777.3802493,0.20307285084058663,9.71,1.2130728508405866,-0.35,-0.5577777777777778,-0.24666666666666667,-0.1978608103569686,0.03844450810883998,0.004818644508710468
1592177777.3902493,0.17,9.678453314326443,1.2641244951294845,-0.35,-0.5577777777777778,-0.24666666666666667,-0.20450265217902613,0.05924229672352099,0.004419562208104553
1592177777.4002492,0.15720554854981086,9.645735182849938,1.3655889029003783,-0.35,-0.5577777777777778,-0.24666666666666667,-0.20072882064653197,0.07103247954459646,0.007315031444085313
1592177777.4102492,0.14,9.64,1.4165704152307022,-0.3449368175683965,-0.5577777777777778,-0.24666666666666667,-0.19318632502219238,0.0807992562162946,0.011625028943707923
1592177777.4202492,0.1457634433962264,9.628473113207548,1.4630537735849056,-0.3377777777777778,-0.5577777777777778,-0.24666666666666667,-0.1880850312249089,0.07833572292942538,0.016695576760365802
1592177777.4302492,0.17698627053792482,9.609205491784829,1.453013729462075,-0.3377777777777778,-0.5577777777777778,-0.24666666666666667,-0.18173540366788132,0.0694665004725517,0.019721621486741576
1592177777.4402492,0.18500488372093024,9.619993488372094,1.4799837209302324,-0.3377777777777778,-0.5577777777777778,-0.24666666666666667,-0.16799078173812027,0.06490460913564325,0.01581864454013576
1592177777.4502492,0.17441725747881723,9.631165485042365,1.5962588621822584,-0.3377777777777778,-0.5577777777777778,-0.24666666666666667,-0.1549246618555867,0.060022383778395035,0.008980915652121954
1592177777.4602492,0.1486651327089477,9.557330265417894,1.8157844249278932,-0.3476424582212572,-0.5577777777777778,-0.2501483185878947,-0.14488634549447832,0.053971855161380776,0.007684352621862774
1592177777.4702492,0.11473630150515544,9.493420376881444,1.9439477738711333,-0.3566666666666667,-0.5577777777777778,-0.25333333333333335,-0.13669790789847314,0.05043626105964907,0.008296010933874895
1592177777.4802492,0.09555442998519442,9.444815190004935,1.9077822800592223,-0.3566666666666667,-0.5577777777777778,-0.25333333333333335,-0.0790672821400761,0.013010435843463602,0.007150879015685877
1592177777.4902492,0.12123916540613221,9.456858748109198,1.8275216691877356,-0.3566666666666667,-0.5577777777777778,-0.25333333333333335,-0.009107123552999717,-0.022275535119085713,0.013017655918074047
1592177777.5002491,0.1719583349726561,9.521282409411025,1.7400694417122398,-0.3566666666666667,-0.5577777777777778,-0.25333333333333335,0.04884346434235906,-0.049293431503671735,0.01585391236666383
1592177777.5102491,0.23338677113153533,9.602311285219226,1.6064529154738587,-0.35121279694641155,-0.5552987460867527,-0.25680397770076846,0.09119549143112332,-0.0691092661961999,0.013811360752099018
1592177777.5202491,0.25,9.63088253170712,1.5373524048786418,-0.34444444444444444,-0.5522222222222222,-0.2611111111111111,0.10715813475202733,-0.07635815477475191,0.011774510298508182
1592177777.530249,0.25488951702769547,9.699116136221564,1.3619886935014813,-0.34444444444444444,-0.5522222222222222,-0.2611111111111111,0.1108277908278086,-0.07529142763768175,9.641458170517401e-05
1592177777.540249,0.26,9.71740510191627,1.2756487245209325,-0.34444444444444444,-0.5522222222222222,-0.2611111111111111,0.09595170175931507,-0.07232795243297628,-0.0074442244246236845
1592177777.550249,0.2608324302357085,9.7,1.2824972907071255,-0.34444444444444444,-0.5522222222222222,-0.2611111111111111,0.0875400569093605,-0.07081319680973049,-0.010044487173816001
1592177777.560249,0.3014676820441815,9.687119390773491,1.3442935364088364,-0.3382426696316809,-0.5431580898035677,-0.263973468717002,0.06638057845701276,-0.063570465448696,-0.014334926618844798
1592177777.570249,0.33270833333333333,9.672166666666667,1.3478333333333334,-0.33,-0.5311111111111111,-0.2677777777777778,0.06309092538263877,-0.05619142068334868,-0.012676362718260899
1592177777.580249,0.4155852272727273,9.714448153409093,1.2699666193181818,-0.33,-0.5311111111111111,-0.2677777777777778,0.056113946906182745,-0.04399441404900586,-0.0010871895149696569
1592177777.590249,0.46,9.72,1.2244687175273676,-0.33,-0.5311111111111111,-0.2677777777777778,0.04249474043049212,-0.03402373992409459,0.006313168984839449
1592177777.600249,0.4671249883144807,9.71643750584276,1.1943750584275965,-0.33,-0.5311111111111111,-0.2677777777777778,0.02658219091646122,-0.018019174372633708,0.007949430602135339
1592177777.610249,0.47014173228346456,9.729716535433072,1.1078188976377952,-0.3335599300087489,-0.5363140857392825,-0.2642178477690289,0.016646764878396704,0.002642043690518976,0.005200771959067749
1592177777.620249,0.3856982673396119,9.82455564805661,1.0103808730943338,-0.34444444444444444,-0.5522222222222222,-0.25333333333333335,0.005564945404621989,0.03580353071113856,-0.0016016238324510245
1592177777.630249,0.32970132386180173,9.860149338069098,0.9780586051017113,-0.34444444444444444,-0.5522222222222222,-0.25333333333333335,-0.004005553879962971,0.05164372267170883,-0.004395903642540206
1592177777.640249,0.24279469623422412,9.838637524909304,0.9485677788564714,-0.34444444444444444,-0.5522222222222222,-0.25333333333333335,-0.0895034153678281,0.08466657770548836,-0.0026351386099262904
1592177777.650249,0.1711659315923357,9.751614296433212,1.1183857035667881,-0.34444444444444444,-0.5522222222222222,-0.25333333333333335,-0.15962330082189943,0.09693230172655323,0.011113765622183846
1592177777.660249,0.20955810805867506,9.653235907378278,1.233528185243443,-0.34444444444444444,-0.5481864221466226,-0.25736913340893297,-0.20345588222020722,0.09791819355335454,0.02922773682531419
1592177777.670249,0.26,9.61,1.32,-0.34444444444444444,-0.5377777777777778,-0.2677777777777778,-0.210530341021816,0.0916297857297023,0.0370882466048795
1592177777.680249,0.3713184052430366,9.64391480065538,1.362170398689241,-0.34444444444444444,-0.5377777777777778,-0.2677777777777778,-0.17073604767731038,0.07957976948771087,0.025845838341452893
1592177777.690249,0.44816273905880666,9.65,1.4344882171764202,-0.34444444444444444,-0.5377777777777778,-0.2677777777777778,-0.16656308625693575,0.06199936502257397,0.017520097212947696
1592177777.700249,0.49569172004933754,9.646077069987665,1.5770751601480126,-0.34444444444444444,-0.5377777777777778,-0.2677777777777778,-0.17577466588646687,0.056916145751829315,0.015506611174440129
1592177777.710249,0.5065696355440323,9.60642408886008,1.7003638667098788,-0.34630977284110664,-0.5403892375331049,-0.2677777777777778,-0.17631657702957904,0.060003631377462306,0.011250749178710759
1592177777.720249,0.5034269703630347,9.55405618221782,1.7906292118547862,-0.35,-0.5455555555555556,-0.2677777777777778,-0.14696431860010603,0.0626884518105506,0.009031834370250541
1592177777.730249,0.53,9.57,1.78,-0.35,-0.5455555555555556,-0.2677777777777778,-0.12435470920459597,0.06326818538479445,0.01308996938995747
1592177777.740249,0.44800492024442506,9.619991799592626,1.6820032801629499,-0.35,-0.5455555555555556,-0.2677777777777778,-0.08137615527937149,0.06741209002232984,0.021597197157478702
1592177777.750249,0.42290347547267165,9.632258688681679,1.67,-0.35,-0.5455555555555556,-0.2677777777777778,-0.08691436382725844,0.07702655145681415,0.03237282470243564
1592177777.760249,0.4057720106126681,9.593658015919003,1.667886005306334,-0.3474162287077416,-0.5455555555555556,-0.2694219958728513,-0.09517695679303056,0.088020440205928,0.04478623654280073
1592177777.770249,0.3824287429095959,9.585142514180808,1.6486431143643938,-0.3377777777777778,-0.5455555555555556,-0.27555555555555555,-0.07119258179279568,0.0944893300623713,0.045370853078957205
1592177777.7802489,0.4424695129060088,9.602753048709399,1.582894816611094,-0.3377777777777778,-0.5455555555555556,-0.27555555555555555,-0.03911093942898117,0.08827780901176731,0.03373626988694451
1592177777.7902489,0.5594075812187038,9.579407581218703,1.5423696751251845,-0.3377777777777778,-0.5455555555555556,-0.27555555555555555,-0.014242837066661556,0.08123587484888216,0.027079486939650402
1592177777.8002489,0.5223737461587523,9.562937708973541,1.640563962814789,-0.3377777777777778,-0.5455555555555556,-0.27555555555555555,0.0033275809780659547,0.0935460815874363,0.03592946685324858
1592177777.8102489,0.48,9.586182266009853,1.6810098522167487,-0.3363793103448276,-0.5467542419266557,-0.27795292829775586,0.026523846021687225,0.11499129719228034,0.0373569241375141
1592177777.8202488,0.38119125240939483,9.664117031149608,1.631765937700783,-0.33,-0.5522222222222222,-0.28888888888888886,0.04620016070564815,0.14187069016514867,0.0028883666563349402
1592177777.8302488,0.23621583018370396,9.65107915091852,1.5708057923881515,-0.33,-0.5522222222222222,-0.28888888888888886,0.035790242348419855,0.1700236242311461,-0.0021518427750345397
1592177777.8402488,0.21926302547436838,9.609263025474368,1.5007369745256316,-0.33,-0.5522222222222222,-0.28888888888888886,0.013928075984455484,0.20127560412828016,0.00522452940139591
1592177777.8502488,0.19309543601314175,9.555477180065708,1.5096431540197126,-0.33,-0.5522222222222222,-0.28888888888888886,0.0030905360906140927,0.22088010704307623,0.022283725945818234
1592177777.8602488,0.17425793907971485,9.52445236552171,1.4842579390797148,-0.3357420609202852,-0.5503082019154605,-0.28888888888888886,0.030001734768363313,0.23173119930845645,0.05645243711904698
1592177777.8702488,0.16,9.61,1.47,-0.35,-0.5455555555555556,-0.28888888888888886,0.07199483164476608,0.23561944901923448,0.07744898555724837
1592177777.8802488,0.16967382657120128,9.704518695306284,1.4367700875099443,-0.35,-0.5455555555555556,-0.28888888888888886,0.1259384531807742,0.2044765339106821,0.05739054267210669
1592177777.8902488,0.07533533319048638,9.722134133276194,1.4038211556317406,-0.35,-0.5455555555555556,-0.28888888888888886,0.12201340816575583,0.17817900040543747,0.038087064591566494
1592177777.9002488,-0.0721423281207017,9.68790168652263,1.46,-0.35,-0.5455555555555556,-0.28888888888888886,0.09472220801488863,0.16161342336621282,0.03243761004514288
1592177777.9102488,-0.20644522758711548,9.719397272906924,1.4553013635465384,-0.3439961867539102,-0.5426841666117735,-0.29071613639856836,0.06033114811326086,0.15496371844115403,0.03342798874011577
1592177777.9202487,-0.26,9.75,1.44,-0.3244444444444444,-0.5333333333333333,-0.2966666666666667,0.02945243112740431,0.15162547876700738,0.039269908169872414
1592177777.9302487,-0.3848615582743078,9.724861558274307,1.4265743721828719,-0.3244444444444444,-0.5333333333333333,-0.2966666666666667,-0.026638080684540384,0.14920271761019738,0.03496084561808868
1592177777.9402487,-0.2925654724991652,9.636282736249584,1.407172637504174,-0.3244444444444444,-0.5333333333333333,-0.2966666666666667,-0.06686046500384951,0.14152815208716552,0.042388191815175634
1592177777.9502487,-0.28,9.63,1.47,-0.3244444444444444,-0.5333333333333333,-0.2966666666666667,-0.0839939702522271,0.14289883250703572,0.04581489286485115
1592177777.9602487,-0.20394288136145797,9.594265314771949,1.5949101815929319,-0.3250816316920056,-0.5333333333333333,-0.29577460452008103,-0.07712841865236711,0.12128169098285313,0.034621190163952244
1592177777.9702487,-0.08701052431971176,9.542989475680288,1.6994842135204322,-0.33,-0.5333333333333333,-0.28888888888888886,-0.05016673574293054,0.06466215687303634,0.01673334627200949
1592177777.9802487,-0.10327051521352913,9.533270515213529,1.6440243326511794,-0.33,-0.5333333333333333,-0.28888888888888886,-0.027435227015485723,0.02670115409994333,-0.0002950863220511817
1592177777.9902487,-0.13269287956385264,9.55701965967289,1.5529803403271105,-0.33,-0.5333333333333333,-0.28888888888888886,-0.000534692703067401,0.004866658728121062,-0.011348929213235473
1592177778.0002487,-0.23805365815137997,9.616017886050459,1.51228826943578,-0.33,-0.5333333333333333,-0.28888888888888886,0.025653172645539655,-0.011629599060186582,-0.02172423076311051
1592177778.0102487,-0.4,9.670875725970749,1.5182485480585033,-0.32892966825797426,-0.5339171506471655,-0.2914187639154951,0.033855789309370346,-0.02661753815089666,-0.023847258497717468
1592177778.0202487,-0.3945264026781006,9.68273679866095,1.4917896040171508,-0.31777777777777777,-0.54,-0.31777777777777777,0.019026446940108833,-0.05000586107950937,-0.007325846755133721
1592177778.0302486,-0.3481142037988293,9.697358260661808,1.4307559431370207,-0.31777777777777777,-0.54,-0.31777777777777777,0.0044457837343537315,-0.07917755685456238,0.0024492154728440315
1592177778.0402486,-0.22554385053263104,9.729782459786948,1.3295649195738952,-0.31777777777777777,-0.54,-0.31777777777777777,-0.014595700805246529,-0.1181297053180785,-0.0007291357515616889
1592177778.0502486,-0.1215790860002634,9.746882655077044,1.411862241538259,-0.31777777777777777,-0.54,-0.31777777777777777,-0.04226412589261588,-0.15683669907574918,-0.015474769994388021
1592177778.0602486,-0.004190855861467547,9.678262426809518,1.5137137162077987,-0.31821692067051477,-0.538682571321789,-0.31667992054593525,-0.08217837638629359,-0.18692415543704197,-0.026800606138997655
1592177778.0702486,0.06,9.59,1.61,-0.32,-0.5333333333333333,-0.31222222222222223,-0.10581058590215622,-0.20180369476184434,-0.038179077387375956
1592177778.0802486,0.19749109493572867,9.472544525321357,1.812473284807186,-0.32,-0.5333333333333333,-0.31222222222222223,-0.0724839063102961,-0.18731813096361627,-0.03571596560035438
1592177778.0902486,0.17140105078809106,9.534798598949212,1.802399299474606,-0.32,-0.5333333333333333,-0.31222222222222223,-0.00682963230722387,-0.1461503106012721,-0.025656492835249393
1592177778.1002486,0.13,9.59,1.83,-0.32,-0.5333333333333333,-0.31222222222222223,0.03381575425739013,-0.11453723216212788,-0.019634954084936207
1592177778.1102486,0.035314831310544484,9.597062966262108,1.757272853802472,-0.32,-0.53540013485259,-0.3127661173588687,0.054305056825132265,-0.11177581243740317,-0.013776521110040003
1592177778.1202486,-0.11086253246457375,9.578690025971659,1.631309974028341,-0.32,-0.5544444444444444,-0.31777777777777777,0.06573211003876522,-0.13411984903405236,0.0028438043491737924
1592177778.1302485,-0.1371272365805169,9.626550695825049,1.576093439363817,-0.32,-0.5544444444444444,-0.31777777777777777,0.08215061803528478,-0.17046996004832538,0.01308996938995747
1592177778.1402485,-0.035208220659816124,9.719474686669646,1.473894937333929,-0.32,-0.5544444444444444,-0.31777777777777777,0.09541310402384713,-0.21839046847034327,0.01181535412803413
1592177778.1502485,0.18337669094693027,9.753272632674298,1.5000130072840792,-0.32,-0.5544444444444444,-0.31777777777777777,0.07598413943361498,-0.25125516319321267,0.003996402161783971
1592177778.1602485,0.35225720435634655,9.5369290326726,1.545485591287307,-0.32213180411432735,-0.5528142412981941,-0.3161475746315275,0.03415074482666708,-0.2543038555363218,-0.013774213648261943
1592177778.1702485,0.37,9.67,1.51,-0.3388888888888889,-0.54,-0.30333333333333334,0.019634954084936207,-0.26398104936414235,-0.053450708342326333
1592177778.1802485,0.6049379418695994,9.794777690494893,1.4576732128829537,-0.3388888888888889,-0.54,-0.30333333333333334,-0.0034856884972812915,-0.21013891014872535,-0.035173937124834666
1592177778.1902485,0.7073495849381594,9.504097509628956,1.5085529054328843,-0.3388888888888889,-0.54,-0.30333333333333334,-0.07508287883614233,-0.15270386185008872,-0.007281069092047647
1592177778.2002485,0.7041781319233704,9.493425055386965,1.5453765382682032,-0.3388888888888889,-0.54,-0.30333333333333334,-0.07745253954579745,-0.11519086142756917,-0.0016773201271190826
1592177778.2102485,0.7197955802133561,9.61836464170685,1.4907154692532534,-0.3388888888888889,-0.54,-0.30333333333333334,-0.020381961860941405,-0.07685987641535241,0.004285277541447969
1592177778.2202485,0.74,9.79,1.41,-0.32666666666666666,-0.54,-0.30333333333333334,0.01854412330243975,-0.016362461737446838,0.011999138607461015
1592177778.2302485,0.6372978251434634,9.590324781791,1.416378695086078,-0.32666666666666666,-0.54,-0.30333333333333334,-0.03090285679967006,0.030171620906942892,-0.008655789864927873
1592177778.2402484,0.48193332813271966,9.48701666796682,1.3435083339834102,-0.32666666666666666,-0.54,-0.30333333333333334,-0.03787455131199614,0.0777925985301574,-0.03597787237361845
1592177778.2502484,0.2934562248361885,9.602796242204152,1.3155727480855768,-0.32666666666666666,-0.54,-0.30333333333333334,0.04116988445109285,0.11568102425600314,-0.047083639207199005
1592177778.2602484,0.06120619229052965,9.93051728280644,1.1410345656128789,-0.32695404600357747,-0.540344855204293,-0.3029884781290404,0.1030269510940989,0.13840393420903793,-0.030091847503084537
1592177778.2702484,-0.1,9.94,1.16,-0.3322222222222222,-0.5466666666666666,-0.2966666666666667,0.07199483164476608,0.15598880189699318,-0.02181661564992912
1592177778.2802484,0.15513967899227957,9.820875152377083,1.2137058106460787,-0.3322222222222222,-0.5466666666666666,-0.2966666666666667,-0.07927521846165032,0.14654509285832037,0.00810100316793843
1592177778.2902484,0.18664312718453527,9.677785624271822,1.3242875145635684,-0.3322222222222222,-0.5466666666666666,-0.2966666666666667,-0.18722590345933143,0.148111435498687,0.02593838785908394
1592177778.3002484,0.21719093218682822,9.664606800859879,1.514156927887434,-0.3322222222222222,-0.5466666666666666,-0.2966666666666667,-0.22093612482810188,0.14451672407253868,0.020578756141482336
1592177778.3102484,0.2499781121751026,9.640016415868674,1.6698960328317374,-0.3322222222222222,-0.5466666666666666,-0.2966666666666667,-0.22361851971828647,0.13199888125167716,1.3728650066990866e-05
1592177778.3202484,0.22,9.57,1.77,-0.32,-0.5544444444444444,-0.2911111111111111,-0.2181661564992912,0.12326387842209952,-0.017453292519943295
1592177778.3302484,-0.04486931951966094,9.490955968919238,1.8314786908405933,-0.32,-0.5544444444444444,-0.2911111111111111,-0.20298005571871597,0.12470581956006399,-0.025174638171793648
1592177778.3402483,-0.039145658588721856,9.57,1.7602727758544576,-0.32,-0.5544444444444444,-0.2911111111111111,-0.17425727112776698,0.09938462212668314,0.005882512634919434
1592177778.3502483,0.11613799146601646,9.575544803413594,1.7186137991466017,-0.32,-0.5544444444444444,-0.2911111111111111,-0.1467543715804865,0.0810562534064293,0.03911869711371144
1592177778.3602483,0.036240475464797306,9.60750380981408,1.7106240475464798,-0.32,-0.5544444444444444,-0.2911111111111111,-0.12496570410570321,0.07669851991147265,0.038247150414720106
1592177778.3702483,0.054509767441860466,9.591503255813953,1.7345097674418604,-0.3388888888888889,-0.5466666666666666,-0.31777777777777777,-0.10750030815240098,0.0614644078973845,0.026065883542749732
1592177778.3802483,0.0836818212769821,9.598772726241005,1.7501818099280477,-0.3388888888888889,-0.5466666666666666,-0.31777777777777777,-0.10391650632274327,0.049930298782472606,0.011751221395096646
1592177778.3902483,0.11471258884701617,9.588429137050994,1.6917814721175404,-0.3388888888888889,-0.5466666666666666,-0.31777777777777777,-0.09697528846278027,0.0391612569904681,0.0007251477541134076
1592177778.4002483,0.16730335247871606,9.56932583811968,1.834044971281926,-0.3388888888888889,-0.5466666666666666,-0.31777777777777777,-0.08253544120401074,0.024574330425410604,-0.017244937575174632
1592177778.4102483,0.13313251048922564,9.560783127622306,1.8853012342661615,-0.3388888888888889,-0.5466666666666666,-0.31777777777777777,-0.07787611541576592,0.018051274321867858,-0.028427319466962205
1592177778.4202483,-0.029906332722459787,9.51377927102423,1.9424882915903074,-0.32,-0.5666666666666667,-0.31777777777777777,-0.05728138797477063,0.027677915321791566,-0.03218717121986946
1592177778.4302483,-0.17434823415837603,9.480435761980104,1.9408677697031456,-0.32,-0.5666666666666667,-0.31777777777777777,-0.03666125733314904,0.03025867064973322,-0.018923373553038195
1592177778.4402483,-0.22,9.59,1.74,-0.32,-0.5666666666666667,-0.31777777777777777,-0.020725784867432664,0.0272707695624114,0.0
1592177778.4502482,-0.2262067907995619,9.668735596933187,1.7309483023001095,-0.32,-0.5666666666666667,-0.31777777777777777,-0.007704777966813303,0.011240551224741793,0.010494532888935893
1592177778.4602482,-0.1159513691128149,9.631983789704272,1.7585121577217964,-0.32,-0.5666666666666667,-0.31777777777777777,-0.009709278098697151,-0.010808950225980541,-0.001532467902367201
1592177778.4702482,0.06395327433628319,9.548682241887906,1.8786822418879054,-0.32666666666666666,-0.5466666666666666,-0.3322222222222222,-0.022763701321169876,-0.04507068241241522,-0.015787481292424046
1592177778.4802482,0.08537397862979258,9.538843494657447,1.8607479572595853,-0.32666666666666666,-0.5466666666666666,-0.3322222222222222,-0.01954582271993021,-0.05492000461315595,-0.01136836279357243
1592177778.4902482,0.04877471496608458,9.53245057006783,1.7912252850339154,-0.32666666666666666,-0.5466666666666666,-0.3322222222222222,-0.0009119118642821075,-0.05761354467746309,-0.006210840036896944
1592177778.5002482,0.03292630057803468,9.573511560693643,1.8064884393063585,-0.32666666666666666,-0.5466666666666666,-0.3322222222222222,0.019310227002285525,-0.05345622555004128,-0.0007077789325735676
1592177778.5102482,0.07501746146435453,9.624020953757226,1.7559790462427745,-0.32666666666666666,-0.5466666666666666,-0.3322222222222222,0.03032966715407957,-0.03784535200166639,0.004801941143323452
1592177778.5202482,-0.03644175795399991,9.617852747348666,1.7610736263256666,-0.31222222222222223,-0.5544444444444444,-0.3322222222222222,0.029760261260500027,-0.022981047636534135,-0.002181661564992912
1592177778.5302482,-0.09025024131274131,9.6,1.7677478281853283,-0.31222222222222223,-0.5544444444444444,-0.3322222222222222,0.013689452503870943,-0.005317668448987007,-0.0017995022672061469
1592177778.5402482,-0.1022142874260107,9.59926190419133,1.6814761916173404,-0.31222222222222223,-0.5544444444444444,-0.3322222222222222,-0.00553466767533519,-0.00016102752570582013,0.01317048315281038
1592177778.5502481,-0.15863225202744854,9.580683873986276,1.7217096849656892,-0.31222222222222223,-0.5544444444444444,-0.3322222222222222,-0.007113621920570502,-0.004997415306227233,0.015159732335613664
1592177778.5602481,-0.1259256082345602,9.59703719588272,1.7625929897067998,-0.31222222222222223,-0.5544444444444444,-0.3322222222222222,0.005373472923929732,-0.020160316188834657,0.01248392629750647
1592177778.5702481,-0.12613547466752567,9.61903386866688,1.7871016060006444,-0.3388888888888889,-0.5544444444444444,-0.31222222222222223,0.022765112868219202,-0.04690572364734761,-0.0008431086384800734
1592177778.580248,-0.09176625659050966,9.61,1.7605887521968366,-0.3388888888888889,-0.5544444444444444,-0.31222222222222223,0.031826761398268746,-0.04671305494147609,-0.009625766887372066
1592177778.590248,-0.11940883128295254,9.61,1.7698029437609841,-0.3388888888888889,-0.5544444444444444,-0.31222222222222223,0.034842098536466165,-0.04369771780327867,-0.023697340198960026
1592177778.600248,-0.05115974818020854,9.560463899272085,1.79,-0.3388888888888889,-0.5544444444444444,-0.31222222222222223,0.0380778702661827,-0.04802185621014238,-0.034830679698991646
1592177778.610248,-0.09241786346645682,9.576967145386583,1.79,-0.3388888888888889,-0.5544444444444444,-0.31222222222222223,0.034477420491620524,-0.04892196865378292,-0.03213034236807002
1592177778.620248,0.04396841626902977,9.54396841626903,1.7082992501704157,-0.32666666666666666,-0.5733333333333334,-0.32666666666666666,0.030627410296780462,-0.05534547224071174,0.004548846156729427
1592177778.630248,0.11048792722132288,9.61087826899838,1.6782434620032376,-0.32666666666666666,-0.5733333333333334,-0.32666666666666666,0.050412404249197226,-0.06895652755163699,0.007582590874211497
1592177778.640248,0.15830365489409243,9.696946578809365,1.5061068423812674,-0.32666666666666666,-0.5733333333333334,-0.32666666666666666,0.07336230600768408,-0.09190642931012383,0.0023667041109190308
1592177778.650248,0.13107050915331808,9.709643163615562,1.5385726544622427,-0.32666666666666666,-0.5733333333333334,-0.32666666666666666,0.08364364695101204,-0.0937725224834491,-0.01675264591751315
1592177778.660248,0.03303626011387473,9.685759065028469,1.6450440515433022,-0.32666666666666666,-0.5733333333333334,-0.32666666666666666,0.06195833853269277,-0.08764147041322559,-0.03684464843313352
1592177778.670248,-0.17473237911955736,9.55360416165504,1.835286865528025,-0.346112180258199,-0.5409241440141128,-0.3039802341432123,0.020663200517751307,-0.06920621997154265,-0.05948156982089753
1592177778.680248,-0.027781436986873215,9.521459019435039,1.9446502620715247,-0.3466666666666667,-0.54,-0.30333333333333334,-0.0031961913678518784,-0.06353344260346126,-0.04027788560080628
1592177778.690248,0.05642667050276917,9.510446666187153,1.7302733223045386,-0.3466666666666667,-0.54,-0.30333333333333334,0.01022617570793772,-0.043468151247612496,-0.005922482254618604
1592177778.700248,0.09773300696667295,9.585466013933345,1.7388665034833364,-0.3466666666666667,-0.54,-0.30333333333333334,0.04692359265093962,-0.03945537610370678,-0.0002472905784458171
1592177778.710248,0.13912419594260267,9.629124195942603,1.6774012864918357,-0.3466666666666667,-0.54,-0.30333333333333334,0.07554766912260116,-0.056341059079717995,0.0017071150909845575
1592177778.720248,0.178872375020038,9.746617125060114,1.4721066251402661,-0.3511111111111111,-0.56,-0.31222222222222223,0.10215286669005794,-0.08073769035757032,-0.014705244293820877
1592177778.730248,0.17,9.72,1.41,-0.3511111111111111,-0.56,-0.31222222222222223,0.09053895494720585,-0.08944812416470939,-0.03599741582238304
1592177778.740248,0.07166842290129961,9.675303828591499,1.3742430628731999,-0.3511111111111111,-0.56,-0.31222222222222223,0.05543466401207227,-0.08652276658678158,-0.04574860774880904
1592177778.750248,0.09,9.65,1.51,-0.3511111111111111,-0.56,-0.31222222222222223,0.0,-0.07308566242726255,-0.03381575425739013
1592177778.760248,0.15054994271430058,9.6432722285873,1.6378276568413013,-0.3511111111111111,-0.56,-0.31222222222222223,-0.024218238510090563,-0.05400462602537301,-0.010331401762756855
1592177778.770248,0.20958781959904157,9.659725213066029,1.7591756391980833,-0.3467277304297716,-0.5545207741483256,-0.31222222222222223,-0.04460416366387278,-0.02320719247863036,0.002166674262682673
1592177778.780248,0.21916258115807605,9.614187094209619,1.7141870942096198,-0.3466666666666667,-0.5544444444444444,-0.31222222222222223,-0.04872199231209525,-0.008914690628333631,0.013175969696779437
1592177778.790248,0.2015668937527178,9.61,1.62705102188723,-0.3466666666666667,-0.5544444444444444,-0.31222222222222223,-0.05511960512580946,0.0004071444071500757,0.020213020085922878
1592177778.800248,0.3961764066912883,9.591316532696068,1.610658266348034,-0.3466666666666667,-0.5544444444444444,-0.31222222222222223,-0.05053724459259541,0.004147905971330756,0.01868773474154313
1592177778.810248,0.4406854460093897,9.62068544600939,1.6023286384976527,-0.3466666666666667,-0.5544444444444444,-0.31222222222222223,-0.03427871718104121,0.0010160602218182956,0.011849597486104695
1592177778.820248,0.46,9.7,1.57,-0.32666666666666666,-0.56,-0.28888888888888886,-0.014180800172453926,0.04363323129985824,-0.025089107997418484
1592177778.8302479,0.23312678951618826,9.671640848689524,1.506191909551428,-0.32666666666666666,-0.56,-0.28888888888888886,-0.014180800172453926,0.04363323129985824,-0.025089107997418484
1592177778.8402479,0.10453908102895568,9.713191378456568,1.4356738512861946,-0.32666666666666666,-0.56,-0.28888888888888886,-0.031587638067606394,0.06780939504312555,-0.008649316651996707
1592177778.8502479,0.1384139393474873,9.691189545489385,1.5068278786949745,-0.32666666666666666,-0.56,-0.28888888888888886,-0.0914325270935277,0.09080797693293535,0.029072656694633586
1592177778.8602479,0.05066812771433167,9.714363237896091,1.5424843171947886,-0.32666666666666666,-0.56,-0.28888888888888886,-0.13278982975359482,0.07834170080053199,0.034086751224346186
1592177778.8702478,0.06,9.68,1.59,-0.35888888888888887,-0.56,-0.2966666666666667,-0.18435040224190105,0.04690572364734761,0.02617993877991494
1592177778.8802478,0.08342457864629324,9.60972626406112,1.6446573501746842,-0.35888888888888887,-0.56,-0.2966666666666667,-0.18860911081763201,0.023056955623254168,0.02021774677389158
1592177778.8902478,0.05517301038062284,9.555173010380624,1.6077595155709343,-0.35888888888888887,-0.56,-0.2966666666666667,-0.1660605859428201,-0.009281026091041433,0.0004987059416517135
1592177778.9002478,0.08470431893687708,9.628084717607974,1.7127890365448506,-0.35888888888888887,-0.56,-0.2966666666666667,-0.14076627644736783,-0.037696719988205604,-0.019217104286857
1592177778.9102478,0.09,9.64,1.7656691646721858,-0.35888888888888887,-0.56,-0.2966666666666667,-0.1405574004193819,-0.04767701338452219,-0.04127112705510682
1592177778.9202478,0.1585774193548387,9.630203225806452,1.8779677419354837,-0.3469150537634409,-0.56,-0.3031978494623656,-0.16318124744351822,-0.03628560627750065,-0.04481273606854473
1592177778.9302478,0.15309079455075203,9.540180329159776,1.9352736435939837,-0.3466666666666667,-0.56,-0.30333333333333334,-0.16136358517847882,-0.020170190450455962,-0.04773877167700747
1592177778.9402478,-0.018254325117210007,9.434567762454417,1.96,-0.3466666666666667,-0.56,-0.30333333333333334,-0.12262507561774172,-0.00901136945382371,-0.03685158540393923
1592177778.9502478,0.07478750812645976,9.477630685512027,2.0266829597168377,-0.3466666666666667,-0.56,-0.30333333333333334,-0.06803436812668295,-0.019118049849557086,0.005568198535958704
1592177778.9602478,0.04855617142084629,9.500962552386103,2.056203190482628,-0.3466666666666667,-0.56,-0.30333333333333334,-0.05001489368963015,-0.023064943698304474,0.005920820670791058
1592177778.9702477,0.08047536357716518,9.511360662346119,2.105918012961642,-0.35050637229061365,-0.56,-0.2850947316195851,-0.02563095482382584,-0.03654639977847215,0.006248134220632588
1592177778.9802477,0.11540761788782897,9.535407617887829,2.0591847642243417,-0.3511111111111111,-0.56,-0.2822222222222222,-0.011988265477409745,-0.02616906564986367,0.002849596468051879
1592177778.9902477,0.08563394640188808,9.530181127543395,1.9616301478905693,-0.3511111111111111,-0.56,-0.2822222222222222,0.00035771486634800925,-0.016500767387373317,-0.0053158482625558015
1592177779.0002477,0.028857852917497987,9.53153208022682,1.8719220133711365,-0.3511111111111111,-0.56,-0.2822222222222222,0.012166262634727878,-0.007259032315247776,-0.01434792419972079
1592177779.0102477,-0.02119111293972433,9.585544126722896,1.8689117465542069,-0.3511111111111111,-0.56,-0.2822222222222222,0.012010358837686242,0.006166414127179616,-0.0087490867204221
1592177779.0202477,0.018151022644265886,9.614453067932796,1.86,-0.3511111111111111,-0.5554716540865189,-0.27044852284717147,-0.005701264136311144,0.02355794093940917,0.013337079613786334
1592177779.0302477,0.12812382608695652,9.62,1.9514893913043478,-0.3511111111111111,-0.5544444444444444,-0.2677777777777778,-0.01417025231306144,0.04069622158815439,0.033600547572231174
1592177779.0402477,0.15891716797778807,9.584331328088847,1.9343313280888477,-0.3511111111111111,-0.5544444444444444,-0.2677777777777778,-0.011867138491948372,0.048496791961289684,0.024929344951300888
1592177779.0502477,0.16969998457504243,9.54120006169983,1.8912000616998301,-0.3511111111111111,-0.5544444444444444,-0.2677777777777778,-0.007750358598743811,0.05437790609443906,0.010226559618427458
1592177779.0602477,0.1348163216104632,9.580367356779073,1.9007347135581472,-0.3511111111111111,-0.5544444444444444,-0.2677777777777778,0.02052098494654085,0.056843417914647386,0.005819243466482991
1592177779.0702477,0.13,9.585082678283928,1.895413391419642,-0.3511111111111111,-0.5500734918079363,-0.2819833738464291,0.03106162089600307,0.05463172714197588,-0.008027911239563179
1592177779.0802476,0.1131077404688257,9.61378451906235,1.757384936458838,-0.3511111111111111,-0.5455555555555556,-0.2966666666666667,0.026582724580718985,0.04355940620758329,0.002815963830833188
1592177779.0902476,0.10869061313700679,9.69214367882204,1.5657126423559187,-0.3511111111111111,-0.5455555555555556,-0.2966666666666667,0.0199206179842061,0.04495790116704147,0.023284117466747297
1592177779.1002476,0.11,9.7,1.55,-0.3511111111111111,-0.5455555555555556,-0.2966666666666667,0.019634954084936207,0.04581489286485115,0.02399827721492203
1592177779.1102476,0.08832225615232621,9.685548170768216,1.5861295730794565,-0.3511111111111111,-0.5455555555555556,-0.2966666666666667,-0.012682271303355294,0.030838617684911182,-0.005166048135487381
1592177779.1202476,0.030488745034574077,9.613984993379432,1.6907706341032809,-0.36303048730649146,-0.5611424321187451,-0.27924603991957236,-0.042191768312918904,0.041291628296313616,-0.04696722230202652
1592177779.1302476,-0.04277456899370109,9.6,1.733540463372638,-0.3655555555555556,-0.5644444444444444,-0.27555555555555555,-0.06635782252973416,0.04301215127694778,-0.04061137730177445
1592177779.1402476,-0.12189363961007627,9.60773670495126,1.74,-0.3655555555555556,-0.5644444444444444,-0.27555555555555555,-0.07959032396910007,0.027351415868693833,-0.026116979914174873
1592177779.1502476,-0.1704455144687018,9.670891028937403,1.7171658641484737,-0.3655555555555556,-0.5644444444444444,-0.27555555555555555,-0.08845448956151443,-0.014454820985400716,-0.027889082088135748
1592177779.1602476,-0.12921409748048174,9.693906607886117,1.6631207053665986,-0.36859402835586863,-0.5618400391870333,-0.2725170827552425,-0.11823836783978327,-0.06495911682952334,-0.01581579708798158
1592177779.1702476,-0.06206893579292169,9.69907162032362,1.6011405561165433,-0.37261126025170554,-0.5583966975620303,-0.2684998508594056,-0.15486037247202936,-0.11622992331466785,0.0022134975002011045
1592177779.1802475,-0.0035520453624949405,9.73096530309167,1.6287066288645875,-0.37333333333333335,-0.5577777777777778,-0.2677777777777778,-0.18762083280581343,-0.1398011499528261,-0.004679217828035628
1592177779.1902475,0.01,9.68728686744713,1.6701217900302114,-0.37333333333333335,-0.5577777777777778,-0.2677777777777778,-0.21333048675073288,-0.15631132921035074,-0.026529036556063673
1592177779.2002475,0.05100987467757484,9.596182225580366,1.8276355488392695,-0.37333333333333335,-0.5577777777777778,-0.2677777777777778,-0.22909865069240418,-0.1496157649426701,-0.032724923474893676
1592177779.2102475,-0.08915116137662654,9.55159025497588,2.0020487251205967,-0.37333333333333335,-0.5577777777777778,-0.2677777777777778,-0.22428332540033205,-0.13564082148882722,-0.06061612543056008
1592177779.2202475,-0.18193139491236682,9.516051453815724,2.0440343025438166,-0.37688126610137407,-0.5418120803215944,-0.25092509712958416,-0.20489356831001182,-0.13351207503695925,-0.0885399121815348
1592177779.2302475,-0.22053779827551634,9.514362542610789,2.04,-0.37777777777777777,-0.5377777777777778,-0.24666666666666667,-0.19547818863256783,-0.13845510243988413,-0.07939598835675858
1592177779.2402475,-0.3386984252412937,9.575088897668905,1.9927809448552238,-0.37777777777777777,-0.5377777777777778,-0.24666666666666667,-0.19643992520273482,-0.1525743297682521,-0.044149554996986154
1592177779.2502475,-0.2204964928186286,9.524351290738178,1.9635878226845445,-0.37777777777777777,-0.5377777777777778,-0.24666666666666667,-0.2074826565260994,-0.17548631557150893,-0.03837476275869797
1592177779.2602475,-0.06944334875490757,9.490964739277091,2.093246825060365,-0.37777777777777777,-0.5377777777777778,-0.24666666666666667,-0.20597880218108702,-0.19036920328661286,-0.02295196193115278
1592177779.2702475,0.09456152228913516,9.472119873142573,2.2015205074297115,-0.3742754991744765,-0.5377777777777778,-0.2580490721273959,-0.18679358643471836,-0.20322624880620963,-0.02363627361311932
1592177779.2802474,0.14147947859074217,9.475369869647686,2.290548044715283,-0.37333333333333335,-0.5377777777777778,-0.2611111111111111,-0.16928197863559283,-0.1998043299106138,-0.01797927202635064
1592177779.2902474,0.16,9.48,2.297990333248537,-0.37333333333333335,-0.5377777777777778,-0.2611111111111111,-0.13787784747053336,-0.18849450473638135,-0.038810654813212116
1592177779.3002474,0.0345355916143551,9.385901693710766,2.3035245765723085,-0.37333333333333335,-0.5377777777777778,-0.2611111111111111,-0.09777541498837919,-0.1642922425059942,-0.0657240339788782
1592177779.3102474,-0.039028468556433646,9.39577609617673,2.293738138101486,-0.37333333333333335,-0.5377777777777778,-0.2611111111111111,-0.07771392965844971,-0.1567513482988177,-0.07161355844385385
1592177779.3202474,-0.046901370689366256,9.496581319749321,2.233418680250679,-0.38588562321495734,-0.5377777777777778,-0.2529890411877074,-0.039684722905251865,-0.1291607767833507,-0.03974058233203073
1592177779.3302474,-0.0625324904232568,9.525009282978074,2.1749721510657802,-0.39222222222222225,-0.5377777777777778,-0.24888888888888888,-0.03245272208718135,-0.10198356462100652,-0.03518688735418746
1592177779.3402474,-0.08,9.536916232447231,2.1046701404221495,-0.39222222222222225,-0.5377777777777778,-0.24888888888888888,-0.044041582353404725,-0.09482060786648237,-0.03247991284276579
1592177779.3502474,-0.08672063804742114,9.499676171715473,2.073279361952579,-0.39222222222222225,-0.5377777777777778,-0.24888888888888888,-0.05275292464241245,-0.09381144729469522,-0.03238486267146185
1592177779.3602474,-0.11758849341784497,9.474482301316431,2.036893807898586,-0.39222222222222225,-0.5377777777777778,-0.24888888888888888,-0.04370756309418379,-0.08899634683663343,-0.03201009158561697
1592177779.3702474,-0.028908802646998008,9.594160749982768,1.9903956710553525,-0.3747961520492023,-0.5239821388908037,-0.23364107748749646,-0.023501248782282505,-0.0843719675186233,-0.02555342729719898
1592177779.3802474,0.03318696013589215,9.656813039864108,1.960878239184647,-0.3655555555555556,-0.5166666666666667,-0.22555555555555556,-0.02127737016064557,-0.07530288470517647,-0.032989105667004304
1592177779.3902473,-0.003819024641492051,9.675039442652281,1.9137401393369295,-0.3655555555555556,-0.5166666666666667,-0.22555555555555556,-0.05403484646690101,-0.038286389185193184,-0.06205283270078012
1592177779.4002473,-0.22349832871061803,9.536535808263993,2.156877178010099,-0.3655555555555556,-0.5166666666666667,-0.22555555555555556,-0.11093712596110872,-0.013441787724259541,-0.05780658393976684
1592177779.4102473,-0.32598276305634166,9.42410342166195,2.3757242089014663,-0.3655555555555556,-0.5166666666666667,-0.22555555555555556,-0.15809525310703137,0.002591670253757338,-0.016251470336758042
1592177779.4202473,-0.2314231096006797,9.35071155480034,2.411835174171623,-0.3671202681015765,-0.5307490795808553,-0.22633791182856602,-0.15411761468385782,0.005654340360247135,0.021783946333800826
1592177779.4302473,-0.20109077775102335,9.34478770366803,2.3963030740829923,-0.36777777777777776,-0.5366666666666666,-0.22666666666666666,-0.11927108229039005,0.0015404187163691025,0.03170676221238053
1592177779.4402473,-0.161217128294172,9.531652897191027,2.184259949029602,-0.36777777777777776,-0.5366666666666666,-0.22666666666666666,-0.04400776809638011,-0.019303033832553648,0.035262272798606345
1592177779.4502473,-0.12495708586855786,9.59,2.068631986138534,-0.36777777777777776,-0.5366666666666666,-0.22666666666666666,-0.032314691630067977,-0.028370962756024094,0.024380421826399008
1592177779.4602473,-0.10585065451972404,9.59,1.988298690960552,-0.36777777777777776,-0.5366666666666666,-0.22666666666666666,-0.039930788954624326,-0.03062471723345663,0.0029827796168913467
1592177779.4702473,-0.059917891097666376,9.62577293493024,1.9943091739720953,-0.3725475024351429,-0.535076758447545,-0.23223134543359264,-0.058302002817538084,-0.022898489740607327,-0.0026517195265823214
1592177779.4802473,-0.05500403551251009,9.613742937853107,2.0187550443906375,-0.37444444444444447,-0.5344444444444445,-0.23444444444444446,-0.07677084801873514,-0.017452412107689465,-0.010637581056911564
1592177779.4902472,-0.1486620897916814,9.53254795102272,2.1373881142803217,-0.37444444444444447,-0.5344444444444445,-0.23444444444444446,-0.12854419219643182,-0.006551958888529978,-0.028354626151356616
1592177779.5002472,-0.2851251110066343,9.462437444496683,2.3258930157237634,-0.37444444444444447,-0.5344444444444445,-0.23444444444444446,-0.15135959481824657,0.006362866156564763,-0.031634092692397225
1592177779.5102472,-0.36584031244966986,9.39818630214205,2.485574166532453,-0.37444444444444447,-0.5344444444444445,-0.23444444444444446,-0.13621406809852443,0.018727451039842722,-0.017298996798453925
1592177779.5202472,-0.40437358750122826,9.384373587501228,2.55,-0.37444444444444447,-0.5344444444444445,-0.22246645486008756,-0.096132236142353,0.035757640990856605,-0.005283942722288277
1592177779.5302472,-0.44055198609932517,9.411822847213804,2.5194480139006745,-0.37444444444444447,-0.5344444444444445,-0.21777777777777776,-0.07651498897381129,0.04036073895236887,-0.006743826480239233
1592177779.5402472,-0.3845146044970645,9.433179614606933,2.357233062924797,-0.37444444444444447,-0.5344444444444445,-0.21777777777777776,-0.056521983347491575,0.02399298901482661,-0.016513374744189936
1592177779.5502472,-0.35854339564104554,9.448543395641046,2.253641510897386,-0.37444444444444447,-0.5344444444444445,-0.21777777777777776,-0.046291565526650966,0.009788457034836343,-0.018623568746073054
1592177779.5602472,-0.3802353469571076,9.56964697956434,2.075147091848192,-0.37444444444444447,-0.5344444444444445,-0.21777777777777776,-0.016420224571157292,-0.02121664647128768,0.006416622842288833
1592177779.5702472,-0.28266247311127046,9.61725832735806,2.0691125089629097,-0.37939953936075443,-0.5252421253141546,-0.20928332934981786,-0.02530864649171206,-0.02706850972532052,0.02141209597574736
1592177779.5802472,-0.24058187586091748,9.581745627582752,2.1459268689735778,-0.38222222222222224,-0.52,-0.20444444444444446,-0.050380427436380854,-0.01789760219041958,0.01676838720499102
1592177779.5902472,-0.2854605478045822,9.496196164434698,2.337607671130605,-0.38222222222222224,-0.52,-0.20444444444444446,-0.0863563510880545,0.01274876346627379,0.006832695067712682
1592177779.6002471,-0.3171990837151187,9.415995418575594,2.402002290712203,-0.38222222222222224,-0.52,-0.20444444444444446,-0.07548449063700069,0.037569261636519705,-0.006589167657743325
1592177779.6102471,-0.303447787739102,9.386552212260899,2.426552212260898,-0.38222222222222224,-0.52,-0.20444444444444446,-0.0670954569027074,0.047065679959687835,-0.012159094919801244
1592177779.6202471,-0.30096033539680983,9.488112737872981,2.4909603353968097,-0.37878218495591004,-0.5158719552804254,-0.19550034755203272,-0.07854346065993789,0.060205205719777284,0.0010439190921680067
1592177779.630247,-0.3142288750145422,9.518457750029084,2.501343312521813,-0.37666666666666665,-0.5133333333333333,-0.19,-0.09293225130511105,0.06372948408891371,0.01938529017372924
1592177779.640247,-0.2827389544523554,9.449724227055496,2.433970545206281,-0.37666666666666665,-0.5133333333333333,-0.19,-0.10815667533941561,0.0427208454534724,0.02737503311130894
1592177779.650247,-0.2758200455580866,9.390899772209567,2.3941799544419133,-0.37666666666666665,-0.5133333333333333,-0.19,-0.0938462346089434,0.006776071853913063,0.016102799284665792
1592177779.660247,-0.29852427184466024,9.411679611650486,2.4131553398058254,-0.37666666666666665,-0.5133333333333333,-0.19,-0.060675608923094135,-0.021861096128438683,0.006947427119589078
1592177779.670247,-0.3687045630317092,9.47771075019335,2.448855375096674,-0.36731932628684366,-0.5123494027670361,-0.18754017358425712,-0.013655210398675666,-0.03370734609377776,-0.01677964334761273
1592177779.680247,-0.5516677883968233,9.488939291963925,2.421287521873738,-0.35555555555555557,-0.5111111111111111,-0.18444444444444444,0.01912264979093565,-0.03005569916750213,-0.0489221968114375
1592177779.690247,-0.5741642272022829,9.496250522742368,2.3358315908587737,-0.35555555555555557,-0.5111111111111111,-0.18444444444444444,0.008044363819791702,-0.03172503327250301,-0.03663308752557752
1592177779.700247,-0.40631592499824437,9.47725766052576,2.3500276223694376,-0.35555555555555557,-0.5111111111111111,-0.18444444444444444,-0.02390760233703058,-0.019628927818762625,-0.01784913649546379
1592177779.710247,-0.30701244813278006,9.48030428769018,2.40432918395574,-0.35555555555555557,-0.5111111111111111,-0.18444444444444444,-0.04965920383829647,-0.008254405547770554,-0.014001258176441371
1592177779.720247,-0.2816492454542399,9.53252613181864,2.4475783954559205,-0.3583391404041423,-0.5032242873734488,-0.17841334393917327,-0.0705555934772643,-0.014923223569945044,-0.012274696842302656
1592177779.730247,-0.21204342092869927,9.434086841857399,2.47102171046435,-0.3622222222222222,-0.4922222222222222,-0.17,-0.09020460097961244,-0.03899768850723472,-0.018606257607395454
1592177779.740247,-0.1864745577238738,9.333525442276127,2.3731187306219224,-0.3622222222222222,-0.4922222222222222,-0.17,-0.08510330318004039,-0.056275767089627025,-0.02181661564992912
1592177779.750247,-0.28828163800777773,9.366737337768823,2.258069624701307,-0.3622222222222222,-0.4922222222222222,-0.17,-0.040712500319586786,-0.07010796987143506,-0.025215450765273578
1592177779.760247,-0.2876510282090158,9.533523457686476,2.1505257425954003,-0.3622222222222222,-0.4922222222222222,-0.17,0.005745770444248347,-0.08892710915025044,-0.0278625514930382
1592177779.770247,-0.16853880093433687,9.64244290163509,2.1121917985984946,-0.3699720996626006,-0.4910299333852409,-0.17,0.0024232269335797557,-0.09668545941213949,-0.022588662248389495
1592177779.780247,-0.14067638784324601,9.585758608392439,2.169835558901613,-0.37666666666666665,-0.49,-0.17,-0.025442114099595788,-0.08512067651712925,-0.01752707498797521
1592177779.790247,-0.06472404622372849,9.44472404622373,2.3352759537762715,-0.37666666666666665,-0.49,-0.17,-0.07640975801024388,-0.04078144652451152,-0.00539395013774166
1592177779.800247,-0.0033191826714062816,9.345966038411374,2.49806792317725,-0.37666666666666665,-0.49,-0.17,-0.06485850022632983,-0.01402949039662443,0.005092087249412401
1592177779.810247,-0.0036662407155977975,9.29946649628624,2.6289329925724783,-0.37666666666666665,-0.49,-0.17,-0.014494127615090176,0.003381436033577684,0.010217401865329694
1592177779.820247,-0.04007052277432713,9.365387875258799,2.5996473861283644,-0.36379877645502645,-0.48664315907522426,-0.17391631441223834,0.06189734223625538,0.02188585122172189,0.018033325697087908
1592177779.830247,-0.0446249706089819,9.438812602868563,2.5276040442040912,-0.3511111111111111,-0.48333333333333334,-0.17777777777777778,0.0985815556635805,0.03241585902793666,0.023005167224368003
1592177779.840247,0.01,9.580217443885449,2.286422939241486,-0.3511111111111111,-0.48333333333333334,-0.17777777777777778,0.05559144792242055,0.0452974975561061,0.01856784275081108
1592177779.850247,0.01,9.482676073352822,2.2979929449853826,-0.3511111111111111,-0.48333333333333334,-0.17777777777777778,-0.010902535954627833,0.06297434710906773,0.01098128640470151
1592177779.860247,-0.00943830120364028,9.405011057833446,2.3611012819258246,-0.3511111111111111,-0.48333333333333334,-0.17777777777777778,-0.025214064109953013,0.08738418137718365,0.008121165257478606
1592177779.870247,-0.04998787878787879,9.346670707070707,2.436634343434344,-0.35776969696969696,-0.48666262626262624,-0.16815982042648708,0.01197666088224594,0.11161997602097876,0.009449018644824857
1592177779.8802469,-0.037235744486344424,9.368083647583134,2.480638784138956,-0.3711111111111111,-0.49333333333333335,-0.14888888888888888,0.0761478666328171,0.13463589216763164,0.024090769094777177
1592177779.8902469,-0.0044985300496409465,9.382005879801437,2.4295132295532316,-0.3711111111111111,-0.49333333333333335,-0.14888888888888888,0.12849281092284076,0.15636690469653605,0.045864784349384825
1592177779.9002469,-0.0866323113207547,9.42310896226415,2.321398820754717,-0.3711111111111111,-0.49333333333333335,-0.14888888888888888,0.18390961913349277,0.18492128750283496,0.07261091949260672
1592177779.9102468,-0.21190218669174699,9.603682106748177,2.1941711732894427,-0.3711111111111111,-0.49333333333333335,-0.14888888888888888,0.2375269280997485,0.20550451708976378,0.08181897729770796
1592177779.9202468,-0.30053726282845405,9.805041403142726,2.1009917193714545,-0.3711111111111111,-0.48782827294922226,-0.1553948693428383,0.22527451542835447,0.2153354161235098,0.08492704771428429
1592177779.9302468,-0.35,9.86,2.09,-0.3711111111111111,-0.4811111111111111,-0.16333333333333333,0.17671458676442586,0.222529479629277,0.09272061651219875
1592177779.9402468,-0.4815385269603674,9.371999489709134,2.2429231161762204,-0.3711111111111111,-0.4811111111111111,-0.16333333333333333,0.007451196217637808,0.2159509109282374,0.0448247213270399
1592177779.9502468,-0.5571692595344824,9.22861543255747,2.244276913488506,-0.3711111111111111,-0.4811111111111111,-0.16333333333333333,0.0846127186954568,0.19753882017552415,0.028828139233641508
1592177779.9602468,-0.5868889108715006,9.470444158670492,2.1688149174003364,-0.3711111111111111,-0.4811111111111111,-0.16333333333333333,0.221034537532066,0.1787023396424917,0.029654432831315018
1592177779.9702468,-0.4944440295023807,9.849507048828308,2.035431799085053,-0.36504797767611696,-0.48437587526841563,-0.15820298965756907,0.26070835333244374,0.15985381160911374,0.03821950870290682
1592177779.9802468,-0.39,10.07,1.96,-0.3566666666666667,-0.4888888888888889,-0.1511111111111111,0.20943951023931953,0.15162547876700738,0.04581489286485115
1592177779.9902468,-0.33404151723776865,9.58111541582681,2.047909217036203,-0.3566666666666667,-0.4888888888888889,-0.1511111111111111,-0.12848205354903822,0.1696602659612984,0.036225484864025916
1592177780.0002468,-0.5077510193376094,9.391405612913994,2.1877510193376093,-0.3566666666666667,-0.4888888888888889,-0.1511111111111111,-0.24675118221012682,0.18048649592811766,0.028922348594504675
1592177780.0102468,-0.59,9.34,2.27,-0.3566666666666667,-0.4888888888888889,-0.1511111111111111,-0.2585268954516601,0.18216874067690814,0.028361600344907853
1592177780.0202467,-0.7247820163487738,9.308477520435966,2.397826975476839,-0.3566666666666667,-0.48149788071450195,-0.14043521041477444,-0.136972084331837,0.13561932040844818,0.02387975711287286
1592177780.0302467,-0.75,9.34,2.36,-0.3566666666666667,-0.4688888888888889,-0.12222222222222222,-0.06544984694978735,0.11017390903214205,0.02181661564992912
1592177780.0402467,-0.776040621017866,9.536694146100434,2.170856630171898,-0.3566666666666667,-0.4688888888888889,-0.12222222222222222,0.07322823948270236,0.025832488764987196,-0.008499617972131447
1592177780.0502467,-0.6736946114329435,9.561019346376654,2.0976430210952017,-0.3566666666666667,-0.4688888888888889,-0.12222222222222222,0.07251607921443687,-0.03293324127390754,-0.026103464972515963
1592177780.0602467,-0.5657711742527306,9.49444144284215,2.1973405371788393,-0.3566666666666667,-0.4688888888888889,-0.12222222222222222,0.021691810565454512,-0.06806960891747567,-0.03497911063764226
1592177780.0702467,-0.4526579854461892,9.452531597089239,2.2899578705476826,-0.3597093493340142,-0.47193157155623644,-0.12941401761777097,-0.01827716011974529,-0.08971508734740385,-0.03163868830274094
1592177780.0802467,-0.34,9.43,2.32,-0.3688888888888889,-0.4811111111111111,-0.1511111111111111,-0.014180800172453926,-0.09381144729469522,-0.028361600344907853
1592177780.0902467,-0.2979267481167984,9.5639633740584,2.2420732518832014,-0.3688888888888889,-0.4811111111111111,-0.1511111111111111,0.017247112174804822,-0.08615565546495199,-0.04009462955042631
1592177780.1002467,-0.3238142703477949,9.556185729652205,2.271442811043385,-0.3688888888888889,-0.4811111111111111,-0.1511111111111111,-0.009843421266887462,-0.09648033878682398,-0.04548504920766028
1592177780.1102467,-0.34,9.54,2.32,-0.3688888888888889,-0.4811111111111111,-0.1511111111111111,-0.039269908169872414,-0.10471975511965977,-0.042542400517361786
1592177780.1202466,-0.31574182574182574,9.44858060858061,2.397612927612928,-0.3638136038136038,-0.4787849387849388,-0.14836199836199837,-0.0891877349607228,-0.13333823982574522,-0.0456600612795828
1592177780.1302466,-0.1205638948083273,9.415211109289746,2.4147888907102546,-0.3422222222222222,-0.4688888888888889,-0.13666666666666666,-0.08027605682531964,-0.14627889313837147,-0.036212552390075835
1592177780.1402466,-0.052315219985679055,9.464630439971359,2.3571594133715226,-0.3422222222222222,-0.4688888888888889,-0.13666666666666666,-0.051039812334908896,-0.12856942338320185,-0.02855684305716469
1592177780.1502466,-0.07,9.5,2.31,-0.3422222222222222,-0.4688888888888889,-0.13666666666666666,-0.038179077387375956,-0.10799224746714915,-0.0272707695624114
1592177780.1602466,-0.05269707540753417,9.421908773777398,2.528568419666952,-0.3422222222222222,-0.4688888888888889,-0.13666666666666666,-0.0462471422508111,-0.04183406293493243,-0.020535687039367777
1592177780.1702466,-0.08293168777741691,9.31068312222583,2.610521814441918,-0.34808559777705605,-0.4653057149387127,-0.13243200654373113,-0.05282870923748615,9.624630158434726e-05,-0.008612804008772495
1592177780.1802466,-0.09,9.250836205125864,2.631103452997695,-0.3622222222222222,-0.45666666666666667,-0.12222222222222222,-0.004687756723282796,0.027938432587168285,0.00493977032556529
1592177780.1902466,-0.07547772689425479,9.36802534346378,2.4021021544546213,-0.3622222222222222,-0.45666666666666667,-0.12222222222222222,0.09374886190035184,0.03728278642022168,0.011797644859414015
1592177780.2002466,-0.07076822452134618,9.573229159234153,2.0733854203829227,-0.3622222222222222,-0.45666666666666667,-0.12222222222222222,0.17793892724383578,0.045982493456001756,0.018443277559745883
1592177780.2102466,-0.09312777074097531,9.623436114629513,2.043127770740975,-0.3622222222222222,-0.45666666666666667,-0.12222222222222222,0.19362488182075788,0.051235411676812344,0.024406734276448967
1592177780.2202466,-0.09359889684236622,9.632719779368474,2.043598896842366,-0.3549694772396269,-0.4545512827134097,-0.11980464056135712,0.16763132729893415,0.05442765951445341,0.029347542902121968
1592177780.2302465,-0.13,9.64,2.08,-0.33555555555555555,-0.4488888888888889,-0.11333333333333333,0.1287180323345818,0.06872233929727672,0.03490658503988659
1592177780.2402465,-0.25,9.500678291874426,2.3106782918744253,-0.33555555555555555,-0.4488888888888889,-0.11333333333333333,0.04721119516066098,0.0903587349585993,0.04076292943781758
1592177780.2502465,-0.20916111662179396,9.459790279155449,2.283403240281517,-0.33555555555555555,-0.4488888888888889,-0.11333333333333333,0.007241702556247315,0.07652349774301186,0.03230793355836901
1592177780.2602465,-0.0985669950831012,9.460955336611265,2.2611864121595096,-0.33555555555555555,-0.4488888888888889,-0.11333333333333333,0.009506536532443172,0.05209934991402622,0.02412769470535413
1592177780.2702465,-0.010868600021142394,9.524343000105711,2.1756569998942883,-0.3361346222363171,-0.44956446668311073,-0.11536006671599891,0.02589326849640042,0.035239419309791686,0.014513634442359027
1592177780.2802465,-0.02,9.57,2.13,-0.3422222222222222,-0.45666666666666667,-0.13666666666666666,0.04581489286485115,0.0272707695624114,0.006544984694978735
1592177780.2902465,-0.0638119070534855,9.621905953526742,2.062846418259315,-0.3422222222222222,-0.45666666666666667,-0.13666666666666666,0.036772291135828625,0.035843532640361685,0.0011961492721800817
1592177780.3002465,-0.10623837602256042,9.574607872841261,2.0337306267042674,-0.3422222222222222,-0.45666666666666667,-0.13666666666666666,-0.004130853913420983,0.05385765658702815,0.011862362099902086
1592177780.3102465,-0.1768325738296739,9.44227752460989,2.1604977214890217,-0.3422222222222222,-0.45666666666666667,-0.13666666666666666,-0.03297336287012994,0.06793424090215001,0.015174557753398992
1592177780.3202465,-0.20265739802381558,9.453543197365088,2.234428996706359,-0.3422222222222222,-0.45597771162345524,-0.1340092686428511,-0.030916982691666876,0.0772277862444689,0.01902725189672696
1592177780.3302464,-0.26951236406455636,9.49,2.261763524277897,-0.3422222222222222,-0.4488888888888889,-0.10666666666666667,0.0048770419420792925,0.09214350454179576,0.027645310546607207
1592177780.3402464,-0.35723105091429774,9.487231050914298,2.2116931527428934,-0.3422222222222222,-0.4488888888888889,-0.10666666666666667,0.017335941343299993,0.11064331373871525,0.03599741582238304
1592177780.3502464,-0.3526420286073487,9.485284057214697,2.1926420286073487,-0.3422222222222222,-0.4488888888888889,-0.10666666666666667,0.013892599559140704,0.11894086922240117,0.035132813982443376
1592177780.3602464,-0.3536989040569121,9.504200730628725,2.206301095943088,-0.3422222222222222,-0.4488888888888889,-0.10666666666666667,0.015839341157230985,0.10575584511495538,0.03180846621913584
1592177780.3702464,-0.32895203448381277,9.52,2.2318339396533275,-0.3420475613028577,-0.44871422796952437,-0.10666666666666667,0.026208517606016238,0.10139010511996782,0.02824728504050267
1592177780.3802464,-0.2782925640549573,9.522341487189008,2.3,-0.33555555555555555,-0.44222222222222224,-0.10666666666666667,0.024716603259819784,0.09824393468614084,0.023232027324144547
1592177780.3902464,-0.22899335466404133,9.525597341865616,2.2889933546640413,-0.33555555555555555,-0.44222222222222224,-0.10666666666666667,0.01252041772321172,0.09562266132986075,0.02144616812010175
1592177780.4002464,-0.18025833412479816,9.497822917655999,2.2646124988128027,-0.33555555555555555,-0.44222222222222224,-0.10666666666666667,-0.004013120760099449,0.09950308405086422,0.02506092811586857
1592177780.4102464,-0.1539076940962198,9.46781538819244,2.31,-0.33555555555555555,-0.44222222222222224,-0.10666666666666667,-0.009892994633405303,0.10469458258934737,0.028574731995344663
1592177780.4202464,-0.17027338744126444,9.500273387441265,2.3095899188381033,-0.3354644264084674,-0.4423133513693104,-0.10687930134320567,0.0035707117839685353,0.10911290019329352,0.02946734209922827
1592177780.4302464,-0.2095074190910153,9.525573548311717,2.274426451688281,-0.3288888888888889,-0.4488888888888889,-0.12222222222222222,0.026913047417264645,0.1115687297179462,0.030239272006593074
1592177780.4402463,-0.2625215173732866,9.522349378386993,2.254956965253427,-0.3288888888888889,-0.4488888888888889,-0.12222222222222222,0.028058379292202434,0.11263062547407302,0.02862726649659013
1592177780.4502463,-0.2851899549259498,9.463490019317451,2.2530199613651,-0.3288888888888889,-0.4488888888888889,-0.12222222222222222,0.018400130829540992,0.11462994926662853,0.025943229202515516
1592177780.4602463,-0.3330687156469313,9.44,2.31212974761787,-0.3288888888888889,-0.4488888888888889,-0.12222222222222222,0.025597044817210812,0.11682131925010875,0.024711065080690316
1592177780.4702463,-0.30116015899883986,9.44,2.3679697217520306,-0.3288888888888889,-0.4488888888888889,-0.12222222222222222,0.04300046272559585,0.10724943940049697,0.022970723289851815
1592177780.4802463,-0.21150822905172212,9.468113774563895,2.278300894513183,-0.3288888888888889,-0.45666666666666667,-0.09888888888888889,0.08580535427270956,0.08162696503046134,0.021425516716313188
1592177780.4902463,-0.08852188743604321,9.53426094371802,2.1423038658328597,-0.3288888888888889,-0.45666666666666667,-0.09888888888888889,0.10713381511315781,0.06748918579472175,0.01496807116641598
1592177780.5002463,-0.11384414484365073,9.55615585515635,2.042051951718783,-0.3288888888888889,-0.45666666666666667,-0.09888888888888889,0.10664924820772209,0.05778569620528607,0.008922144202850063
1592177780.5102463,-0.10587977823168952,9.58,2.05,-0.3288888888888889,-0.45666666666666667,-0.09888888888888889,0.10006149069902288,0.05275782230575257,0.005107710894195398
1592177780.5202463,-0.18747300846221185,9.58,2.05,-0.3288888888888889,-0.45666666666666667,-0.09888888888888889,0.09294113812472093,0.04919764601860161,0.0033276227506199153
1592177780.5302463,-0.29441149495567104,9.57,2.0833827575664934,-0.3288888888888889,-0.44222222222222224,-0.11333333333333333,0.07820316281637883,0.03481054124124428,0.0001283918836016923
1592177780.5402462,-0.30356184491772037,9.57160953877057,2.045514151064871,-0.3288888888888889,-0.44222222222222224,-0.11333333333333333,0.06334296562591636,0.02044941822124276,-0.003448065791145283
1592177780.5502462,-0.23226163659213242,9.577780096270125,1.9766597111896236,-0.3288888888888889,-0.44222222222222224,-0.11333333333333333,0.04969618430483142,0.004729968290204145,-0.004363323129985824
1592177780.5602462,-0.08963136779956098,9.568271894633261,2.010368632200439,-0.3288888888888889,-0.44222222222222224,-0.11333333333333333,0.038664175475875445,-0.005265646859538565,-0.003797801971154681
