time,acc_x,acc_y,acc_z,mag_x,mag_y,mag_z,gyr_x,gyr_y,gyr_z
1592176007.2805257,0.1372032923094927,9.498390123071522,2.17,-0.4122222222222222,-0.5222222222222223,-0.3,0.018276218615322366,-0.019588806906858252,-0.019810564415897684
1592176007.2905257,0.12834017886717455,9.521659821132825,2.1617008943358726,-0.4044763902690368,-0.5187181553862574,-0.30258194398439514,0.031815151090909634,-0.025994399989980547,-0.01835858451250536
1592176007.3005257,0.09117748194724173,9.550587512894827,2.066472466473449,-0.3655555555555556,-0.5011111111111111,-0.31555555555555553,0.028233424914749602,-0.03323816104598721,-0.023356596288439984
1592176007.3105257,0.05,9.58,1.99,-0.3655555555555556,-0.5011111111111111,-0.31555555555555553,0.02181661564992912,-0.0370882466048795,-0.02399827721492203
1592176007.3205256,0.055706786269463064,9.592853393134732,1.9299737519431206,-0.3655555555555556,-0.5011111111111111,-0.31555555555555553,-0.0032639026909619755,-0.04176282664145825,-0.02337862662057865
1592176007.3305256,0.07777262051224695,9.589636505983671,1.9929543675204116,-0.3655555555555556,-0.5011111111111111,-0.31555555555555553,-0.02443950185700887,-0.042259780060181044,-0.01777556402335056
1592176007.3405256,0.10154446671589831,9.556138833210255,2.0446724338010336,-0.36761484451008664,-0.5022265592948154,-0.3150407333169228,-0.039442641264558265,-0.04136733214305317,-0.021732378058116966
1592176007.3505256,0.1347592527317589,9.49893056045118,2.2421388790976384,-0.39222222222222225,-0.5155555555555555,-0.3088888888888889,-0.05735901238595111,-0.03834825805156293,-0.0195182963269491
1592176007.3605256,0.16706179656971712,9.469407305145424,2.269407305145424,-0.39222222222222225,-0.5155555555555555,-0.3088888888888889,-0.0587109033172091,-0.032595617516494,-0.01552748625044947
1592176007.3705256,0.1901888675076616,9.443207421661558,2.2601888675076616,-0.39222222222222225,-0.5155555555555555,-0.3088888888888889,-0.04420936866133072,-0.026879689636089825,-0.00977627254423397
1592176007.3805256,0.20234537616565357,9.440206165112462,2.28,-0.39222222222222225,-0.5155555555555555,-0.3088888888888889,-0.02196001087625682,-0.02344161726112629,-0.0029491841204014406
1592176007.3905256,0.17913798263992817,9.470646513020055,2.278706973959892,-0.39207855266221026,-0.5155555555555555,-0.30838604542884696,-0.0029668899492802437,-0.0217931077731438,0.004574894021053679
1592176007.4005256,0.1308359963896275,9.506109335740248,2.204726660649379,-0.38555555555555554,-0.5155555555555555,-0.28555555555555556,0.011241520399267992,-0.020725784867432664,0.01451401274675736
1592176007.4105256,0.11,9.535809237701839,2.135219677055952,-0.38555555555555554,-0.5155555555555555,-0.28555555555555556,0.009584810168845126,-0.020725784867432664,0.014926726892290972
1592176007.4205256,0.11,9.576143772037131,2.0661437720371305,-0.38555555555555554,-0.5155555555555555,-0.28555555555555556,0.0003422337347401992,-0.01972051251862126,0.011500073908956843
1592176007.4305255,0.11,9.585191117984976,2.0920222050375608,-0.38555555555555554,-0.5155555555555555,-0.28555555555555556,-0.014234606617922849,-0.01614187338709777,0.003093599473360337
1592176007.4405255,0.11148610811975017,9.567770837820374,2.132229162179625,-0.38572067867997223,-0.5153629119104027,-0.28607844544954175,-0.032147438645392004,-0.011972120399408658,-0.004444377754142894
1592176007.4505255,0.17,9.48,2.22,-0.39222222222222225,-0.5077777777777778,-0.30666666666666664,-0.05235987755982988,-0.01090830782496456,-0.007635815477475192
1592176007.4605255,0.22164639306113815,9.508231965305692,2.156950497144066,-0.39222222222222225,-0.5077777777777778,-0.30666666666666664,-0.043659769387437486,-0.006737847361886164,-0.007263359187449958
1592176007.4705255,0.22254339423330854,9.554971070511128,2.037514464744436,-0.39222222222222225,-0.5077777777777778,-0.30666666666666664,-0.030013625107144462,-0.0008260123811183041,-0.013890736029488697
1592176007.4805255,0.19396837690796434,9.567989458969322,2.042063246184071,-0.39222222222222225,-0.5077777777777778,-0.30666666666666664,-0.022913195672797277,0.0037111243566366314,-0.02575855449188279
1592176007.4905255,0.1701983527278223,9.560066117575941,2.0896032945443554,-0.39222222222222225,-0.5077777777777778,-0.30666666666666664,-0.027234708018861284,0.005439729295062234,-0.03699448659164921
1592176007.5005255,0.08,9.48,2.12,-0.37777777777777777,-0.5011111111111111,-0.3,-0.04581489286485115,0.004363323129985824,-0.038179077387375956
1592176007.5105255,0.08114157500136814,9.502283150002736,2.188584249986319,-0.37777777777777777,-0.5011111111111111,-0.3,-0.0777279464419748,-0.0004681982064860562,0.013304219468126342
1592176007.5205255,0.0830753087610961,9.52,2.1184658433037438,-0.37777777777777777,-0.5011111111111111,-0.3,-0.08760192674594494,0.004363323129985824,0.04161968334614885
1592176007.5305254,0.06559775852151485,9.523731839014342,2.176268160985657,-0.37777777777777777,-0.5011111111111111,-0.3,-0.08569542176554859,0.0031420816683357736,0.044186570915984415
1592176007.5405254,0.08894568867942032,9.539297125786279,2.1607028742137198,-0.37777777777777777,-0.5011111111111111,-0.3,-0.08824228585793065,-0.0019516465164283545,0.03739493333629891
1592176007.5505254,0.11,9.533420854861436,2.17,-0.37777777777777777,-0.5077777777777778,-0.3,-0.08968734863269792,-0.01090830782496456,0.019663595438032287
1592176007.5605254,0.11618935837245697,9.507936880542514,2.1596844027125717,-0.37777777777777777,-0.5077777777777778,-0.3,-0.09076400636842512,-0.010008102140087464,0.009523572974049
1592176007.5705254,0.1420299580587178,9.497970041941283,2.1362396644697426,-0.37777777777777777,-0.5077777777777778,-0.3,-0.09273695609851536,-0.006102116547453512,0.0002214340737626119
1592176007.5805254,0.14501358331739048,9.491662138894203,2.206648555576813,-0.37777777777777777,-0.5077777777777778,-0.3,-0.09780918455041715,-0.0020062771782299463,0.0009095195554383116
1592176007.5905254,0.12094069255787258,9.499686435814043,2.23874574325617,-0.37777777777777777,-0.5077777777777778,-0.3,-0.10131044458563804,0.009372817936237912,3.4204546633091575e-05
1592176007.6005254,0.07612851771675971,9.54419277657514,2.2961285177167596,-0.3655555555555556,-0.5077777777777778,-0.3211111111111111,-0.09792856605187421,0.022661242059618752,-0.010556960141004495
1592176007.6105254,0.06,9.513625021280735,2.270437531921103,-0.3655555555555556,-0.5077777777777778,-0.3211111111111111,-0.10475042370891886,0.02722304223362498,-0.02744462013802974
1592176007.6205254,0.05825361512791991,9.47301446051168,2.2339710789766407,-0.3655555555555556,-0.5077777777777778,-0.3211111111111111,-0.12598306839270526,0.03462993385144477,-0.026837592043666977
1592176007.6305254,0.05541219255431142,9.444059144415734,2.306765240692889,-0.3655555555555556,-0.5077777777777778,-0.3211111111111111,-0.1441372579455082,0.0462899351074267,-0.01638787165346365
1592176007.6405253,0.08752473920949372,9.46814355440712,2.346905924011867,-0.3655555555555556,-0.5077777777777778,-0.3211111111111111,-0.14501299180540386,0.062053144585548614,0.002878273264240911
1592176007.6505253,0.047043584054963145,9.488637610630025,2.3321594026575063,-0.3655555555555556,-0.4888888888888889,-0.33,-0.12754026088927561,0.08487451444503026,0.013176910052767192
1592176007.6605253,-0.020250340257480088,9.513924897922756,2.3217746937682677,-0.3655555555555556,-0.4888888888888889,-0.33,-0.12613553870825475,0.09709759358513245,0.01634880779449897
1592176007.6705253,-0.10590518370359789,9.487047408148202,2.263286663333095,-0.3655555555555556,-0.4888888888888889,-0.33,-0.14050441777063943,0.10193037948418399,0.012643294223479113
1592176007.6805253,-0.14114512492780087,9.463129250433196,2.346870749566805,-0.3655555555555556,-0.4888888888888889,-0.33,-0.1597943422393501,0.10521941012807945,0.016362461737446838
1592176007.6905253,-0.14895995975480242,9.416240241471186,2.393759758528814,-0.3655555555555556,-0.4888888888888889,-0.33,-0.17087640334559434,0.10862927508384691,0.016362461737446838
1592176007.7005253,-0.13119151457691397,9.37,2.5858203365726475,-0.37777777777777777,-0.4888888888888889,-0.3377777777777778,-0.16847585393646394,0.10467075952039855,0.041696547731171416
1592176007.7105253,-0.048516682299343424,9.364258341149672,2.5585166822993433,-0.37777777777777777,-0.4888888888888889,-0.3377777777777778,-0.1494229155804284,0.0997301141680208,0.06452082102810071
1592176007.7205253,0.013570110264540249,9.349499077185179,2.51,-0.37777777777777777,-0.4888888888888889,-0.3377777777777778,-0.12468256242023343,0.09530761636237278,0.06803684679996139
1592176007.7305253,0.10746034869534418,9.417460348695345,2.516394584596009,-0.37777777777777777,-0.4888888888888889,-0.3377777777777778,-0.08264340763321196,0.08434274073815733,0.054514320945590916
1592176007.7405252,0.16523534967924752,9.475235349679249,2.5659160140107833,-0.37777777777777777,-0.4888888888888889,-0.3377777777777778,-0.06373658277361052,0.08704371571810039,0.037408146072618186
1592176007.7505252,0.19,9.43,2.6,-0.36,-0.4888888888888889,-0.34444444444444444,-0.07090400086226964,0.08835729338221293,0.01854412330243975
1592176007.7605252,0.12105715498337695,9.351208177123858,2.6196979557190354,-0.36,-0.4888888888888889,-0.34444444444444444,-0.07090400086226964,0.09158036384979928,0.004577484609565573
1592176007.7705252,0.061219110783591255,9.357314664701548,2.574876443134365,-0.36,-0.4888888888888889,-0.34444444444444444,-0.03477539595830706,0.08253114232521092,0.001755752567503814
1592176007.7805252,0.06772067614545589,9.414558647709088,2.608860338072728,-0.36,-0.4888888888888889,-0.34444444444444444,0.008064828367488236,0.0703786998392862,0.005923395539024936
1592176007.7905252,0.05229109570143654,9.445417808597126,2.6011455478507184,-0.36,-0.4888888888888889,-0.34444444444444444,0.02573744274229696,0.05943850998821414,0.0017156302116895254
1592176007.8005252,0.01020110560426992,9.43020110560427,2.55713591307663,-0.35333333333333333,-0.49777777777777776,-0.3511111111111111,0.018209762666096956,0.040248401680115016,-0.002759982783791667
1592176007.8105252,-0.030797942821209606,9.387668380982326,2.4215958856424193,-0.35333333333333333,-0.49777777777777776,-0.3511111111111111,0.013417779633193825,0.021569061468036634,0.007461731359065691
1592176007.8205252,0.023072228119270483,9.437168532278298,2.32,-0.35333333333333333,-0.49777777777777776,-0.3511111111111111,0.02916982879764388,0.013287125238226878,0.018879251402774893
1592176007.8305252,0.05346205157257991,9.50346205157258,2.320865512893145,-0.35333333333333333,-0.49777777777777776,-0.3511111111111111,0.045059590379659065,0.00545415391248228,0.0216277900286311
1592176007.8405252,0.0841226996107385,9.534122699610737,2.3285306749026846,-0.35333333333333333,-0.49777777777777776,-0.3511111111111111,0.038370474641396465,0.00545415391248228,0.01995551109406545
1592176007.8505251,0.18556117722511223,9.474438822774887,2.452780588612556,-0.3388888888888889,-0.49,-0.3466666666666667,0.00304895741410385,0.005736144254435982,0.014744780856361332
1592176007.8605251,0.24780680959699897,9.419024148800375,2.4760965952015006,-0.3388888888888889,-0.49,-0.3466666666666667,-0.008752988514781198,-0.002394559270530293,-0.0016230750463399088
1592176007.8705251,0.32,9.41,2.44,-0.3388888888888889,-0.49,-0.3466666666666667,0.001090830782496456,-0.004363323129985824,-0.006544984694978735
1592176007.880525,0.4174777429335129,9.47108096731421,2.4285587102477217,-0.3388888888888889,-0.49,-0.3466666666666667,0.01644107189886093,0.006515391091572554,-0.015271630954950384
1592176007.890525,0.35568391808557653,9.497564035106182,2.393247953191758,-0.3388888888888889,-0.49,-0.3466666666666667,0.018366974936355886,0.032515082097754416,-0.015271630954950384
1592176007.900525,0.26657744887843793,9.461220231920143,2.3826786084791483,-0.3655555555555556,-0.48333333333333334,-0.3244444444444444,0.004123087372206617,0.05001913179053348,-0.007236495515392493
1592176007.910525,0.16220509022353893,9.473464404345094,2.316142382619625,-0.3655555555555556,-0.48333333333333334,-0.3244444444444444,-0.0058320618027465606,0.057006631607513916,-0.004079892212287614
1592176007.920525,0.08029680800381134,9.510890424011434,2.17,-0.3655555555555556,-0.48333333333333334,-0.3244444444444444,-0.01017362108022171,0.06015757669082945,-0.0010584540517915826
1592176007.930525,0.08792975513232748,9.542070244867672,2.1709201088300767,-0.3655555555555556,-0.48333333333333334,-0.3244444444444444,-0.022443917546863142,0.06547493902566472,-0.0002509207587736097
1592176007.940525,0.016108183184611574,9.61389181681539,2.202840807473506,-0.3655555555555556,-0.48333333333333334,-0.3244444444444444,-0.044206467971266594,0.06634544104264085,-0.008955940928534993
1592176007.950525,0.03978960745552104,9.468527252188649,2.262314317989268,-0.3388888888888889,-0.5022222222222222,-0.3388888888888889,-0.09484420928235954,0.05531106617782368,-0.0272707695624114
1592176007.960525,0.03032921418006584,9.4,2.3691769645498355,-0.3388888888888889,-0.5022222222222222,-0.3388888888888889,-0.1430963468359433,0.040270959711956336,-0.02706427730946256
1592176007.970525,0.07052843302944467,9.400440360857871,2.270528433029445,-0.3388888888888889,-0.5022222222222222,-0.3388888888888889,-0.16681064506970683,0.029346752107986526,-0.0021048040963254316
1592176007.980525,0.12994313474429464,9.450284326278526,2.330796113579875,-0.3388888888888889,-0.5022222222222222,-0.3388888888888889,-0.15710444482804084,0.01740987125997874,0.006594608992081082
1592176007.990525,0.12204545454545454,9.489772727272728,2.4413636363636364,-0.3388888888888889,-0.5022222222222222,-0.3388888888888889,-0.16055045789652383,0.011379348390133484,0.013486635129047093
1592176008.000525,0.11015021867275147,9.440901312036509,2.489699562654497,-0.3651549724282183,-0.4901836006000296,-0.359682871690858,-0.17003851154757268,-0.004150301031939833,-0.00514281392303045
1592176008.010525,0.07141252006420545,9.411059390048154,2.528587479935794,-0.3655555555555556,-0.49,-0.36,-0.17016960206944715,-0.009624874496601956,-0.02755266965227003
1592176008.020525,-0.010604201085673826,9.43992447486429,2.4803021005428367,-0.3655555555555556,-0.49,-0.36,-0.18114381800871876,-0.011962065293163283,-0.021800138621352348
1592176008.030525,-0.1689917394382818,9.420126032570215,2.559495869719141,-0.3655555555555556,-0.49,-0.36,-0.19842121824860504,-0.002243527658227251,-0.01748078856138078
1592176008.040525,-0.2168945858260038,9.404368471391333,2.6459734073476735,-0.3655555555555556,-0.49,-0.36,-0.21728769025654485,-0.005591932081754706,-0.011485319115610154
1592176008.050525,-0.15,9.34,2.8,-0.3411111111111111,-0.49,-0.36,-0.234528618236738,-0.02617993877991494,-0.004363323129985824
1592176008.060525,-0.08720729932748654,9.24132575608605,2.8897038581035908,-0.3411111111111111,-0.49,-0.36,-0.21006568580471532,-0.04672880202281403,-0.005341840427266733
1592176008.070525,0.04430891629790039,9.283351379342811,2.9028726108652667,-0.3411111111111111,-0.49,-0.36,-0.16304423089938247,-0.08794539461060931,0.000777477546699762
1592176008.080525,0.13173329205526102,9.348555589953948,2.9594222359815796,-0.3411111111111111,-0.49,-0.36,-0.12908408392431975,-0.10088004427348983,-0.0058322995782693334
1592176008.090525,0.18042684106652218,9.307977632444565,2.943191052977826,-0.3411111111111111,-0.49,-0.36,-0.10872278875896771,-0.08494511762234476,-0.01645558401236604
1592176008.100525,0.10034852784675417,9.28007745063261,2.880232351897836,-0.3621404687766873,-0.49,-0.36,-0.09820011608493415,-0.05247393303096888,-0.023977155831377772
1592176008.110525,0.07001577664100972,9.329973705598317,2.740073624324712,-0.3622222222222222,-0.49,-0.36,-0.0785501421271395,-0.0174716494753116,-0.014185963066151261
1592176008.120525,-0.06,9.41,2.55,-0.3622222222222222,-0.49,-0.36,-0.05890486225480862,0.014180800172453926,-0.00545415391248228
1592176008.1305249,-0.21782619114181875,9.451533208195217,2.5832265665561724,-0.3622222222222222,-0.49,-0.36,-0.05618652013509811,0.025960282691199453,-0.00545415391248228
1592176008.1405249,-0.2876675924630847,9.43739944452215,2.6653351849261693,-0.3622222222222222,-0.49,-0.36,-0.07699863397517667,0.016034909536528565,-0.00545415391248228
1592176008.1505249,-0.19,9.32,2.79,-0.3477777777777778,-0.48333333333333334,-0.3888888888888889,-0.12762720155208535,-0.011999138607461015,0.002181661564992912
1592176008.1605248,-0.10619005542613864,9.289523656518595,2.9195244597959675,-0.3477777777777778,-0.48333333333333334,-0.3888888888888889,-0.14092501499506568,-0.011168025267274744,0.012155021647228162
1592176008.1705248,-0.004774810057178655,9.223581107542884,2.9505968512571474,-0.3477777777777778,-0.48333333333333334,-0.3888888888888889,-0.12969462792038383,-0.001676788133977673,0.025528875056046924
1592176008.1805248,-0.08573662590982246,9.239052583535516,2.95,-0.3477777777777778,-0.48333333333333334,-0.3888888888888889,-0.09130837204265477,0.009300741520816608,0.03864982554389062
1592176008.1905248,-0.06861827324275169,9.282763453514498,2.8716003352234227,-0.3477777777777778,-0.48333333333333334,-0.3888888888888889,-0.045132817278213666,0.006707630945170158,0.04315721579149485
1592176008.2005248,-0.07,9.46,2.62,-0.3477777777777778,-0.4633333333333333,-0.38222222222222224,0.017453292519943295,0.004363323129985824,0.04690572364734761
1592176008.2105248,-0.06271952792215404,9.49640236038923,2.5617562233772326,-0.3477777777777778,-0.4633333333333333,-0.38222222222222224,0.020629997741391414,-0.0004017347021863533,0.04928825256343369
1592176008.2205248,0.01003211915015108,9.479946468083082,2.5101177702172204,-0.3477777777777778,-0.4633333333333333,-0.38222222222222224,-0.021878513568519064,-0.001090830782496456,0.052356373904060644
1592176008.2305248,0.03996930836763341,9.43005115272061,2.619887464014656,-0.3477777777777778,-0.4633333333333333,-0.38222222222222224,-0.07957150022225533,-0.001090830782496456,0.049090733150075574
1592176008.2405248,0.04,9.34181506743619,2.779835190271905,-0.3477777777777778,-0.4633333333333333,-0.38222222222222224,-0.10067326815195518,0.0031176934234463227,0.04908738521234052
1592176008.2505248,0.1,9.28,2.98,-0.37444444444444447,-0.48333333333333334,-0.38222222222222224,-0.11453723216212788,0.017453292519943295,0.04799655442984406
1592176008.2605247,0.07893505544047764,9.28,3.001064944559522,-0.37444444444444447,-0.48333333333333334,-0.38222222222222224,-0.08772922721216826,0.02511272250564604,0.04952844042698461
1592176008.2705247,-0.016244704709693497,9.356661959741949,2.741683140903176,-0.37444444444444447,-0.48333333333333334,-0.38222222222222224,-0.03350022668907769,0.03045223098323343,0.041815693441534685
1592176008.2805247,-0.03401023890784983,9.409035836177473,2.6809641638225257,-0.37444444444444447,-0.48333333333333334,-0.38222222222222224,-0.01100231286680086,0.0351281018711444,0.02998946983175623
1592176008.2905247,-0.05354012454470685,9.443540124544706,2.63968981318294,-0.37444444444444447,-0.48333333333333334,-0.38222222222222224,-0.009566653891093933,0.04299624046576032,0.01991961336914777
1592176008.3005247,-0.024464148572226493,9.387812260001397,2.647767925713887,-0.36852180253981554,-0.4764235844445996,-0.39604171999968973,-0.03634812976173906,0.042907622818378455,0.011638752426997898
1592176008.3105247,-0.13826950621052383,9.425488271619432,2.613609382704454,-0.36777777777777776,-0.47555555555555556,-0.3977777777777778,-0.07003431246339512,0.05147400176386837,0.02480190976397481
1592176008.3205247,-0.07231007997824954,9.52495434669325,2.56683893332125,-0.36777777777777776,-0.47555555555555556,-0.3977777777777778,-0.07685217603834757,0.03917707992103228,0.0007559719050909998
1592176008.3305247,-0.008624982114751753,9.488624982114752,2.6970000476939955,-0.36777777777777776,-0.47555555555555556,-0.3977777777777778,-0.12415019469102734,0.03615422242220392,0.0013976285658885298
1592176008.3405247,0.04773754367309738,9.289049825307611,2.883671578307762,-0.36777777777777776,-0.47555555555555556,-0.3977777777777778,-0.19373491490934022,0.03971695740233901,0.009620744724904847
1592176008.3505247,0.07,9.13574598316756,3.0976871789266585,-0.35655882245782783,-0.4775953656137283,-0.40287730292320956,-0.2035049806330261,0.049461885101707806,0.022101574177655268
1592176008.3605247,0.046925812186843385,9.251139486019072,3.035008889607241,-0.35555555555555557,-0.4777777777777778,-0.4033333333333333,-0.14391261576214395,0.0589877280165305,0.014097934410732038
1592176008.3705246,0.10317773579421596,9.440619386717046,2.833644528411568,-0.35555555555555557,-0.4777777777777778,-0.4033333333333333,-0.06153499937330865,0.0504827481752142,0.001648975967645929
1592176008.3805246,0.11861963054622592,9.225889605798125,2.932055197100937,-0.35555555555555557,-0.4777777777777778,-0.4033333333333333,-0.08978272980645005,0.040625082712127544,0.0039115982825674465
1592176008.3905246,0.0945246931201827,9.170893519840137,3.013688267199543,-0.35555555555555557,-0.4777777777777778,-0.4033333333333333,-0.10671270887586226,0.039269908169872414,0.005752785576888246
1592176008.4005246,0.0717066144272874,9.201466927863564,3.0168264577091493,-0.3491051445545569,-0.4777777777777778,-0.3913539986171929,-0.06730833198311417,0.03746057211510703,-0.002501695578848177
1592176008.4105246,0.07921443841069367,9.366645452981793,2.982356684767919,-0.3477777777777778,-0.4777777777777778,-0.3888888888888889,0.0034994662046822778,0.015980321175094528,-0.022455830641230086
1592176008.4205246,0.0751092105681493,9.389781578863701,2.940873684545194,-0.3477777777777778,-0.4777777777777778,-0.3888888888888889,0.009260148626268757,0.004577757579105958,-0.03040030561048734
1592176008.4305246,0.023805088528492786,9.33070763279274,3.00778812676685,-0.3477777777777778,-0.4777777777777778,-0.3888888888888889,-0.0346944240521051,-0.01469247300758238,-0.03876794098580679
1592176008.4405246,0.064725925135971,9.267435391560912,3.0825646084390885,-0.3477777777777778,-0.4777777777777778,-0.3888888888888889,-0.07983480709059804,-0.008830432424322425,-0.038606611239440036
1592176008.4505246,0.029290487700838905,9.197574292620503,3.1736385610692452,-0.353277406512157,-0.48249174526438854,-0.4093160813308688,-0.10421303762123578,0.005212040041946666,-0.039721719640000694
1592176008.4605246,-0.05591340000948003,9.187987628572783,3.1360989714177374,-0.35555555555555557,-0.48444444444444446,-0.4177777777777778,-0.08228507786103882,0.027024263625285184,-0.03687547850183295
1592176008.4705245,-0.04631269620223287,9.166312696202233,3.0173550168763428,-0.35555555555555557,-0.48444444444444446,-0.4177777777777778,-0.043628957267949096,0.035079271377323834,-0.03427482647991974
1592176008.4805245,-0.15471754285856054,9.233746991837647,3.0309705510209146,-0.35555555555555557,-0.48444444444444446,-0.4177777777777778,-0.020605164806460956,0.02974054447025933,-0.003425236261360657
1592176008.4905245,-0.09554488183495179,9.298260067522884,3.0460325084403603,-0.35555555555555557,-0.48444444444444446,-0.4177777777777778,-0.012188935798011283,0.023755288213217346,0.021697740874251404
1592176008.5005245,-0.025153160139588987,9.33,3.0425765800697944,-0.35555555555555557,-0.4753713756408599,-0.40705506010081427,-0.005487568271465305,0.018296476376052907,0.028957137274630618
1592176008.5105245,-0.07230883224659158,9.303845583876704,3.04,-0.35555555555555557,-0.4722222222222222,-0.4033333333333333,-0.010069331571088358,0.026012305181597098,0.025368766748710553
1592176008.5205245,-0.16101189292390916,9.276853744878883,2.9300552881746946,-0.35555555555555557,-0.4722222222222222,-0.4033333333333333,-0.01974533447993525,0.03737022859666362,0.021301810859573903
1592176008.5305245,-0.22,9.267579970502188,2.8651599410043764,-0.35555555555555557,-0.4722222222222222,-0.4033333333333333,-0.034448403934116904,0.05629991329823744,0.01192935117907818
1592176008.5405245,-0.22,9.258763942155449,2.8868540867668275,-0.35555555555555557,-0.4722222222222222,-0.4033333333333333,-0.04137806982464117,0.06122135681437984,0.010430308931005484
1592176008.5505245,-0.18498026478085683,9.334047364525944,2.9,-0.3454387431589142,-0.4722222222222222,-0.4033333333333333,-0.04778011049610802,0.049953160947284664,0.02924459830748454
1592176008.5605245,-0.06263940520446099,9.361741492708035,2.941292536459823,-0.3411111111111111,-0.4722222222222222,-0.4033333333333333,-0.0436822048294127,0.029409384330725867,0.04069170019349805
1592176008.5705245,-0.0012150055991041395,9.313458006718925,2.8801870100783873,-0.3411111111111111,-0.4722222222222222,-0.4033333333333333,-0.044234715149019777,0.014333736358308972,0.03975925510320733
1592176008.5805244,0.01,9.277415825709705,2.957864755257946,-0.3411111111111111,-0.4722222222222222,-0.4033333333333333,-0.053757083337165015,0.0018752865701542384,0.036806356918560504
1592176008.5905244,0.043843864304669015,9.29820322025389,3.018203220253891,-0.3411111111111111,-0.4722222222222222,-0.4033333333333333,-0.05241610897522968,0.0007550656666118426,0.023076140678624953
1592176008.6005244,0.09796747967479674,9.299024390243902,3.0120325203252034,-0.34577235772357723,-0.4761065943992773,-0.4033333333333333,-0.0467993011319821,0.033452143996557986,-0.0181805130416076
1592176008.6105244,-0.059029189898327325,9.298049009042778,2.9597549547861126,-0.3477777777777778,-0.4777777777777778,-0.4033333333333333,-0.04581489286485115,0.04690572364734761,-0.031634092692397225
1592176008.6205244,-0.1813492761913143,9.277813833766006,2.846464557574691,-0.3477777777777778,-0.4777777777777778,-0.4033333333333333,-0.04581489286485115,0.06949365318273094,-0.02437368677030972
1592176008.6305244,-0.23857522543901283,9.327150450878026,2.8314314190792595,-0.3477777777777778,-0.4777777777777778,-0.4033333333333333,-0.056724650298829,0.07978679072167219,0.01480899859271079
1592176008.6405244,-0.15531431385654484,9.313177788721989,2.8873428430717274,-0.3477777777777778,-0.4777777777777778,-0.4033333333333333,-0.06969369557872479,0.07211430614581449,0.04265009449108663
1592176008.6505244,-0.027810377396406898,9.267945822113258,2.9782167115469633,-0.35983195566451864,-0.48648357291820177,-0.4073513926289136,-0.08862569360931165,0.06238665592280915,0.0736076881548131
1592176008.6605244,0.0,9.30273355402013,3.031366777010064,-0.36777777777777776,-0.4922222222222222,-0.41,-0.08744701156173906,0.06574803143686465,0.07685261658309378
1592176008.6705244,0.013884099616858237,9.285289750957855,3.0538840996168584,-0.36777777777777776,-0.4922222222222222,-0.41,-0.07490684830263739,0.06763150851478027,0.049610597390822415
1592176008.6805243,0.0061706565536857085,9.228511969661058,3.1084027020621,-0.36777777777777776,-0.4922222222222222,-0.41,-0.07014972718562187,0.07441997160461013,0.027955803020155975
1592176008.6905243,-0.026241971186994232,9.236241971186995,3.1142548172878035,-0.36777777777777776,-0.4922222222222222,-0.41,-0.06981317007977318,0.08546413954721271,0.03435766641808892
1592176008.7005243,-0.020804610481061452,9.26,3.0766436883848494,-0.3645338456090068,-0.4805440664146468,-0.41454150503627935,-0.06408066875281132,0.09590533947162201,0.04026544993916213
1592176008.7105243,0.02217868489457976,9.27478578992972,3.06,-0.3622222222222222,-0.4722222222222222,-0.4177777777777778,-0.05193129563787282,0.10381984860428362,0.04353976452442531
1592176008.7205243,-0.0045186845375465995,9.293807473815018,2.9633476832948693,-0.3622222222222222,-0.4722222222222222,-0.4177777777777778,-0.03628501036629483,0.11032907114193705,0.026987871032431016
1592176008.7305243,-0.06144926820840635,9.306908211368068,2.933816422736135,-0.3622222222222222,-0.4722222222222222,-0.4177777777777778,-0.019239727491480424,0.10783415682976683,-0.01084506618545314
1592176008.7405243,-0.13612669337912614,9.284487866645852,2.9859218400374665,-0.3622222222222222,-0.4722222222222222,-0.4177777777777778,-0.014737388580251117,0.0863299916292546,-0.025111454030516407
1592176008.7505243,-0.2544324324324324,9.254630630630631,3.0944324324324324,-0.3479039039039039,-0.4722222222222222,-0.42135735735735735,-0.02932860709263444,0.05767448375058739,-0.012708669981301051
1592176008.7605243,-0.27135277890640036,9.2113527789064,3.2208532386715993,-0.33555555555555555,-0.4722222222222222,-0.42444444444444446,-0.04636995388466389,0.020279706620663213,-0.0017934570896105365
1592176008.7705243,-0.12493326742461691,9.183417540390769,3.187592944298462,-0.33555555555555555,-0.4722222222222222,-0.42444444444444446,-0.03975293077616556,-0.017895760525508304,0.003562618088037831
1592176008.7805243,-0.020787240800399294,9.206141839466401,3.1696063795998004,-0.33555555555555555,-0.4722222222222222,-0.42444444444444446,-0.009954802238985028,-0.04085896040781646,0.006544984694978735
1592176008.7905242,0.019159887218720254,9.22957994360936,3.17521002819532,-0.33555555555555555,-0.4722222222222222,-0.42444444444444446,0.015290104338710132,-0.05422079181591677,0.003932460349061178
1592176008.8005242,0.02966721265630618,9.25549918101554,3.1545008189844594,-0.35220282405372894,-0.4687779597743243,-0.4135376133594343,0.03568795997217701,-0.05992309010159978,-0.007362661095121801
1592176008.8105242,-0.06655066256190605,9.276657743273992,3.073422567260072,-0.36777777777777776,-0.46555555555555556,-0.4033333333333333,0.03818491773422375,-0.05563529008074315,-0.020355360868611422
1592176008.8205242,-0.08487032506116743,9.298847256204125,2.9960230688570433,-0.36777777777777776,-0.46555555555555556,-0.4033333333333333,0.025032526631419715,-0.055226844699258,-0.01811030741137912
1592176008.8305242,-0.07627087153749638,9.278645642312519,3.051521329987453,-0.36777777777777776,-0.46555555555555556,-0.4033333333333333,7.488209574853591e-05,-0.06110473767226479,-0.015271630954950384
1592176008.8405242,-0.047713310580204775,9.232325694783032,3.1276743052169675,-0.36777777777777776,-0.46555555555555556,-0.4033333333333333,-0.0159396384941096,-0.07291227830483746,-0.019296695490266413
1592176008.8505242,0.050416209092905784,9.191944505454279,3.1962497254557434,-0.36285497555539287,-0.4704783577779405,-0.41273141030334093,-0.017862384011512085,-0.0802669850441193,-0.021362122789310673
1592176008.8605242,0.22364859775540435,9.19930352255894,3.1985239398428282,-0.35555555555555557,-0.4777777777777778,-0.4266666666666667,0.001336883250546074,-0.067233508240326,-0.014645708970889171
1592176008.8705242,0.2629305336119464,9.245347331940268,3.0993053361194636,-0.35555555555555557,-0.4777777777777778,-0.4266666666666667,0.017209396967075862,-0.03827142079136793,-0.01617460601072264
1592176008.8805242,0.22282828688458758,9.270137739940566,3.0395867801782988,-0.35555555555555557,-0.4777777777777778,-0.4266666666666667,0.021463022120240285,-0.018777516058408793,-0.021139478783981393
1592176008.8905241,0.10985069134114925,9.276616897113716,2.984461034295428,-0.35555555555555557,-0.4777777777777778,-0.4266666666666667,0.023880693138670594,0.014112077240552788,-0.023495366813682757
1592176008.9005241,0.05560637619553666,9.281968119022316,2.9680318809776836,-0.3609255402054552,-0.4777777777777778,-0.4217848624394852,0.024609837988156705,0.0416987628868946,-0.01074351239027838
1592176008.9105241,0.04271416255192413,9.319107296810095,2.954571674896152,-0.36777777777777776,-0.4777777777777778,-0.41555555555555557,0.02221006366788105,0.05911141818948308,-0.002181661564992912
1592176008.9205241,-0.006241650395642789,9.295033398417429,3.014586116534786,-0.36777777777777776,-0.4777777777777778,-0.41555555555555557,0.007684606362079197,0.08730796707995687,-0.0004099723439816218
1592176008.930524,-0.02,9.228667387929818,3.0326652241403638,-0.36777777777777776,-0.4777777777777778,-0.41555555555555557,0.0003273672511560934,0.0962838397131443,0.0029451250963332745
1592176008.940524,-0.07049817479063776,9.198959093837235,3.079457268627872,-0.36777777777777776,-0.4777777777777778,-0.41555555555555557,0.0034995828442963926,0.09679764633664317,0.014921274471609375
1592176008.950524,-0.06758159528737463,9.227172424773125,3.116188505015125,-0.36566028056395833,-0.48031877443436116,-0.40793256558580554,0.012727864282250879,0.09157612123172564,0.04525167614336795
1592176008.960524,0.0437832681708983,9.32,3.060266145367186,-0.3622222222222222,-0.48444444444444446,-0.39555555555555555,0.014062591297088478,0.09295703426292964,0.07429470208512445
1592176008.970524,0.028462652965695563,9.331537347034304,2.9434698972427165,-0.3622222222222222,-0.48444444444444446,-0.39555555555555555,0.006335756625447451,0.09834246897152092,0.07069477279273835
1592176008.980524,0.014555758423635975,9.329111516847272,2.863667275270908,-0.3622222222222222,-0.48444444444444446,-0.39555555555555555,-0.004350959363736485,0.10164109972671546,0.07069780014147524
1592176008.990524,-0.0023117755389448595,9.32,2.8582078503592965,-0.3622222222222222,-0.48444444444444446,-0.39555555555555555,-0.013398827374486222,0.10094291158814973,0.07149048046074541
1592176009.000524,-0.0021842387968078573,9.330689456721915,2.8842526089625538,-0.36657718607189144,-0.48206900961735216,-0.4007023310142555,-0.021653560219887444,0.09008770657792727,0.06374471236797065
1592176009.010524,0.07305981276429323,9.36230280364694,2.9407570091173523,-0.37444444444444447,-0.4777777777777778,-0.41,-0.03465192187341245,0.06268668093524626,0.03994785452844969
1592176009.020524,0.3001136228009452,9.332478695724824,2.9287322464373524,-0.37444444444444447,-0.4777777777777778,-0.41,-0.05223088284241916,0.045946986163483486,0.008305577714301723
1592176009.030524,0.4332531087043722,9.30536141195347,2.9192771760930607,-0.37444444444444447,-0.4777777777777778,-0.41,-0.06064625348953762,0.04123471625078781,-0.006893280444223493
1592176009.040524,0.6312686401964138,9.232487573202391,3.0913183473868506,-0.37444444444444447,-0.4777777777777778,-0.41,-0.06981317007977318,0.0459641244693552,-0.056883276721007764
1592176009.050524,0.5124727730819246,9.211127275682705,3.1821818107932383,-0.3714868696720127,-0.48073535255020955,-0.406056566970091,-0.06642564579630453,0.07148709530769219,-0.08556079830969296
1592176009.060524,0.2636896680343156,9.221197314434912,3.1718448340171577,-0.36777777777777776,-0.48444444444444446,-0.4011111111111111,-0.06703311805158835,0.08911627724706518,-0.07451900024172675
1592176009.070524,-0.02,9.305477174056046,2.9752282594395476,-0.36777777777777776,-0.48444444444444446,-0.4011111111111111,-0.09703414115757383,0.10615004796411086,0.015977707451448546
1592176009.080524,-0.06153355704697987,9.280333173537871,2.9359333652924255,-0.36777777777777776,-0.48444444444444446,-0.4011111111111111,-0.12437661994754257,0.09835648840019279,0.03429569888451154
1592176009.090524,-0.09003996188251207,9.260119885647535,2.9401198856475363,-0.36777777777777776,-0.48444444444444446,-0.4011111111111111,-0.13648898193192605,0.08716184263594687,0.031712557665224426
1592176009.100524,-0.0671833084947839,9.286353700943865,3.024694485842027,-0.36777777777777776,-0.4747209802947508,-0.40961914224209306,-0.17732909352416307,0.05591577999139558,0.046496052474189475
1592176009.110524,-0.009628608430463299,9.27888582529139,3.1244566988344404,-0.36777777777777776,-0.4577777777777778,-0.42444444444444446,-0.19077685700976807,0.04666264843350142,0.03708523892506813
1592176009.120524,-0.025271506526856412,9.229782794778515,3.2501086026107426,-0.36777777777777776,-0.4577777777777778,-0.42444444444444446,-0.2248059148509559,0.046976803889862084,-0.0039541448702236845
1592176009.130524,-0.05,9.20800023877746,3.2618664438077043,-0.36777777777777776,-0.4577777777777778,-0.42444444444444446,-0.23339415943225778,0.05343616566833173,-0.016275205693479237
1592176009.140524,-0.053390735285395126,9.08712588228316,3.410172205856185,-0.36777777777777776,-0.4577777777777778,-0.42444444444444446,-0.23312426984643694,0.0516201338749087,-0.001680296508335108
1592176009.150524,-0.05685191347753744,9.133703826955076,3.4237038269550752,-0.36987650212608614,-0.46232501386577923,-0.41989720835644295,-0.24060895620905604,0.04914800708943766,0.01761482985711831
1592176009.160524,-0.05,9.12,3.41,-0.37444444444444447,-0.4722222222222222,-0.41,-0.24434609527920614,0.04690572364734761,0.025089107997418484
1592176009.170524,-0.05229611759146417,9.177703882408537,3.3790533986619247,-0.37444444444444447,-0.4722222222222222,-0.41,-0.215232034125172,-0.004776355881315842,0.02239115549326305
1592176009.1805239,0.035670746340292776,9.180952723782097,3.394588432925366,-0.37444444444444447,-0.4722222222222222,-0.41,-0.14458494747465264,-0.0320448230734236,-0.011451236320980315
1592176009.1905239,0.053288466987815246,9.123338941626523,3.453338941626523,-0.37444444444444447,-0.4722222222222222,-0.41,-0.07305079154382521,-0.06547554128495171,-0.04619930330176873
1592176009.2005239,-0.048039922373163305,9.131715711513328,3.447990019406709,-0.37234746370593336,-0.4710784145466707,-0.4124782499636949,-0.02826530101367951,-0.10347931259017194,-0.07502141291403573
1592176009.2105238,-0.2698554989988662,9.14,3.410289002002268,-0.3622222222222222,-0.46555555555555556,-0.42444444444444446,-0.01421232540048159,-0.15622524110720068,-0.08715612430161965
1592176009.2205238,-0.1875929374284881,9.125518587485697,3.4348271375047674,-0.3622222222222222,-0.46555555555555556,-0.42444444444444446,-0.010570312537749012,-0.18024964890675527,-0.0764712930133152
1592176009.2305238,-0.09677852192378597,9.127628637434952,3.44,-0.3622222222222222,-0.46555555555555556,-0.42444444444444446,0.009578325636462593,-0.18246402075244447,-0.08366208562939584
1592176009.2405238,-0.044728420827313105,9.130760956814898,3.459239043185102,-0.3622222222222222,-0.46555555555555556,-0.42444444444444446,0.030768526317759375,-0.17173471979515456,-0.09568483694004538
1592176009.2505238,0.028394506866416976,9.086789013732833,3.5,-0.36507643223748093,-0.46662588431127755,-0.42444444444444446,0.03677802032241671,-0.16352956120890255,-0.08974337024916036
1592176009.2605238,0.009887593478563798,9.075056203260718,3.4797751869571276,-0.38,-0.4722222222222222,-0.42444444444444446,0.03386480085488452,-0.14224919309611195,-0.06093938402731838
1592176009.2705238,0.03626484078390063,9.170662101959751,3.373871003138236,-0.38,-0.4722222222222222,-0.42444444444444446,0.050541203840317114,-0.12170819912786177,-0.03316200268631467
1592176009.2805238,0.07184993779309025,9.271849937793089,3.2659249688965453,-0.38,-0.4722222222222222,-0.42444444444444446,0.06900598244361061,-0.09554577323876773,-0.021050351132413186
1592176009.2905238,0.02810493678171589,9.263189506321828,3.263189506321828,-0.38,-0.4722222222222222,-0.42444444444444446,0.06582638518539705,-0.06875095636520467,-0.03536709097799402
1592176009.3005238,-0.04,9.249289847655788,3.2907101523442113,-0.38437214327266683,-0.47337278624134504,-0.42145297799472503,0.04144508564053958,-0.04475631078989533,-0.04890020529733433
1592176009.3105237,-0.04,9.17,3.37,-0.4011111111111111,-0.4777777777777778,-0.41,0.016362461737446838,-0.02399827721492203,-0.05235987755982988
1592176009.3205237,-0.37757768463650815,9.101639832345715,3.3048446307269836,-0.4011111111111111,-0.4777777777777778,-0.41,0.009936729015857368,-0.006928470284709098,-0.027910322120913367
1592176009.3305237,-0.42936140124544125,9.17452105093408,3.283563152802243,-0.4011111111111111,-0.4777777777777778,-0.41,0.024740806407850188,-0.01449981953048276,0.011650837017892718
1592176009.3405237,-0.45,9.19,3.33,-0.4011111111111111,-0.4777777777777778,-0.41,0.03599741582238304,-0.02181661564992912,0.022907446432425576
1592176009.3505237,-0.3590251394390106,9.15204874302805,3.4402437151402476,-0.4022493016822497,-0.47914360646314413,-0.4052195996012179,0.06642353532709858,-0.07279820722146363,0.0016283543820517377
1592176009.3605237,-0.2,9.16,3.48,-0.4066666666666667,-0.48444444444444446,-0.38666666666666666,0.08290313946973066,-0.09708393964218458,-0.017453292519943295
1592176009.3705237,-0.15875404048508748,9.141245959514913,3.3337702024254376,-0.4066666666666667,-0.48444444444444446,-0.38666666666666666,0.12980416179920135,-0.09122087110244978,-0.04444870989542481
1592176009.3805237,-0.1785599789777953,9.175423991591117,3.166736039942189,-0.4066666666666667,-0.48444444444444446,-0.38666666666666666,0.1587760888140446,-0.08675333786348027,-0.053778831846918035
1592176009.3905237,-0.24,9.2,3.05,-0.4066666666666667,-0.48444444444444446,-0.38666666666666666,0.17016960206944715,-0.08072147790473774,-0.04908738521234052
1592176009.4005237,-0.2243183890854704,9.254318389085471,3.0486367781709407,-0.4037877406096864,-0.48444444444444446,-0.3879461893586579,0.16359966750029828,-0.08508480103472357,-0.02801429172966585
1592176009.4105237,-0.25,9.28,3.1,-0.38666666666666666,-0.48444444444444446,-0.39555555555555555,0.14398966328953217,-0.08508480103472357,0.0
1592176009.4205236,-0.02812660506737974,9.295234174366577,3.11,-0.38666666666666666,-0.48444444444444446,-0.39555555555555555,0.08950819480164228,-0.0832697436357048,0.014129711250947051
1592176009.4305236,0.0862677888700085,9.26148125531011,3.132393266779949,-0.38666666666666666,-0.48444444444444446,-0.39555555555555555,0.047912593128907964,-0.06344528899128779,0.0019516440927492083
1592176009.4405236,0.08,9.18,3.17,-0.38666666666666666,-0.48444444444444446,-0.39555555555555555,0.02945243112740431,-0.04908738521234052,-0.01308996938995747
1592176009.4505236,0.04237061840376383,9.158265163395923,3.1898274912050186,-0.3858896000226056,-0.4849389413997561,-0.3936482101564965,0.05520335202783022,-0.048273966573063605,-0.03397327811938163
1592176009.4605236,-0.07,9.28,3.04,-0.37444444444444447,-0.4922222222222222,-0.3655555555555556,0.09708393964218458,-0.05235987755982988,-0.05235987755982988
1592176009.4705236,-0.10222418649247918,9.397460598070355,2.8696847845628333,-0.37444444444444447,-0.4922222222222222,-0.3655555555555556,0.08598651613113131,-0.06276575083129365,-0.049849633210141193
1592176009.4805236,0.011409492697924684,9.361342236740969,2.8140939661798616,-0.37444444444444447,-0.4922222222222222,-0.3655555555555556,0.03410124840146395,-0.0758164076269114,-0.04239598520191717
1592176009.4905236,0.1,9.32,2.82,-0.37444444444444447,-0.4922222222222222,-0.3655555555555556,0.01090830782496456,-0.08290313946973066,-0.04690572364734761
1592176009.5005236,0.12133350816232871,9.285334032649315,2.921333508162329,-0.3757779526067732,-0.4912591329938737,-0.36459246632720704,-0.0034180985543445955,-0.08101226122353605,-0.06225008618990691
1592176009.5105236,0.14,9.36,2.9432046341231324,-0.39444444444444443,-0.4777777777777778,-0.3511111111111111,-0.031212925511887243,-0.06456959975754589,-0.05942290048182777
1592176009.5205235,0.06192861644762951,9.319402880552767,3.0249485282102757,-0.39444444444444443,-0.4777777777777778,-0.3511111111111111,-0.0667360846144444,-0.04254988678571664,-0.05501620418741802
1592176009.5305235,-0.09233595924336054,9.171119864144535,3.18116797962168,-0.39444444444444443,-0.4777777777777778,-0.3511111111111111,-0.10819647914674385,0.0007243560981745681,-0.06680073994157375
1592176009.5405235,-0.052322801189694464,9.057873614276334,3.1716140059484723,-0.39444444444444443,-0.4777777777777778,-0.3511111111111111,-0.1409919748496268,0.04513207551981093,-0.06437205692310158
1592176009.5505235,-0.055626060061857725,9.154373939938143,3.21,-0.3938774522302408,-0.4777777777777778,-0.3511111111111111,-0.1500126134984913,0.04046271525120147,-0.02565790429389532
1592176009.5605235,-0.06823638368246969,9.206898346196251,3.185186769570011,-0.38666666666666666,-0.4777777777777778,-0.3511111111111111,-0.1091996419976495,0.0610457770205612,0.005004928869617809
1592176009.5705235,-0.24546709991876522,9.182173030056864,3.1198131600324936,-0.38666666666666666,-0.4777777777777778,-0.3511111111111111,-0.09712470179977584,0.0697520268433863,-0.0004944626942591569
1592176009.5805235,-0.3342188120121709,9.135687524804869,3.1184376240243417,-0.38666666666666666,-0.4777777777777778,-0.3511111111111111,-0.10642078154717648,0.0568936294706238,0.017872625247523425
1592176009.5905235,-0.37,9.15,3.19,-0.38666666666666666,-0.4777777777777778,-0.3511111111111111,-0.11344640137963141,0.04908738521234052,0.04363323129985824
1592176009.6005235,-0.38339567615545556,9.178302161922272,3.265534774614848,-0.38866533527758407,-0.4797764463886952,-0.3511111111111111,-0.0861274977764784,0.0054745555533138555,0.04140343569412371
1592176009.6105235,-0.28,9.23,3.3,-0.4011111111111111,-0.4922222222222222,-0.3511111111111111,-0.06544984694978735,-0.028361600344907853,0.020725784867432664
1592176009.6205235,-0.22222643108131682,9.244443392229671,3.2700047349664816,-0.4011111111111111,-0.4922222222222222,-0.3511111111111111,-0.058056380923453686,-0.045330193962568106,-0.005816386827396558
1592176009.6305234,-0.11517426833407304,9.26,3.2140080411456022,-0.4011111111111111,-0.4922222222222222,-0.3511111111111111,-0.05859925420512663,-0.0396603266539923,-0.03106966757482687
1592176009.6405234,0.0,9.26,3.25,-0.4011111111111111,-0.4922222222222222,-0.3511111111111111,-0.05781403147231216,-0.02945243112740431,-0.04363323129985824
1592176009.6505234,0.05,9.246488532369224,3.28,-0.400688434451851,-0.4917995455629621,-0.3515337877703712,-0.054669219690935814,-0.01155225662606545,-0.07077077432562082
1592176009.6605234,0.05,9.13,3.28,-0.38666666666666666,-0.4777777777777778,-0.3655555555555556,-0.05890486225480862,0.0032724923474893677,-0.10253809355466686
1592176009.6705234,-0.015592896976812445,9.13,3.2987408277076606,-0.38666666666666666,-0.4777777777777778,-0.3655555555555556,-0.0844587019460321,0.017582642574574515,-0.07187348592519868
1592176009.6805234,-0.016572789549930023,9.19342721045007,3.1756181403000467,-0.38666666666666666,-0.4777777777777778,-0.3655555555555556,-0.10706699519270368,0.02777947752155288,-0.011895002528635023
1592176009.6905234,-0.06472797588976185,9.173532567984251,3.1776628399212585,-0.38666666666666666,-0.4777777777777778,-0.3655555555555556,-0.09406639191044652,0.015265778022507673,-0.008213830562247672
1592176009.7005234,-0.1670226294792955,9.188146089925613,3.250730449628068,-0.38666666666666666,-0.4777777777777778,-0.3655555555555556,-0.08609595212328404,-0.011833717253844796,-0.01060496249839642
1592176009.7105234,-0.33,9.11,3.5,-0.4066666666666667,-0.4777777777777778,-0.3511111111111111,-0.10362892433716332,-0.032724923474893676,0.020725784867432664
1592176009.7205234,-0.34229465020576133,9.020229465020575,3.650229465020576,-0.4066666666666667,-0.4777777777777778,-0.3511111111111111,-0.1295084941075375,-0.03876929315397116,0.048522200196540376
1592176009.7305233,-0.4253201675643327,9.03,3.6805517654099345,-0.4066666666666667,-0.4777777777777778,-0.3511111111111111,-0.10006515210029637,-0.011048007278856985,0.070263472338161
1592176009.7405233,-0.3966312870019734,9.036631287001972,3.7145269969953953,-0.4066666666666667,-0.4777777777777778,-0.3511111111111111,-0.044563987460086385,0.009426851522510708,0.06582889450154822
1592176009.7505233,-0.41900208011093926,9.05900208011094,3.662328479741142,-0.4066666666666667,-0.4777777777777778,-0.3511111111111111,0.007495212011101884,0.02650877634899436,0.05606779460070041
1592176009.7605233,-0.32,9.08,3.61,-0.4011111111111111,-0.4922222222222222,-0.34444444444444444,0.06326818538479445,0.02399827721492203,0.04799655442984406
1592176009.7705233,-0.24843739146696592,9.133256658919077,3.433519542625097,-0.4011111111111111,-0.4922222222222222,-0.34444444444444444,0.1094311555883792,0.019457330895085126,0.04200236190683997
1592176009.7805233,-0.09,9.25,3.15,-0.4011111111111111,-0.4922222222222222,-0.34444444444444444,0.13308135546456762,0.01308996938995747,0.03381575425739013
1592176009.7905233,-0.04549661078865122,9.330993221577302,3.1618013556845397,-0.4011111111111111,-0.4922222222222222,-0.34444444444444444,0.13280679924090968,-0.00048114860224008553,0.00725291558678114
1592176009.8005233,-0.0029356252790518345,9.245871250558103,3.1788257498883796,-0.4011111111111111,-0.4922222222222222,-0.34444444444444444,0.10959338267728139,-0.015337735202962206,-0.006675134351395847
1592176009.8105233,0.0,9.15,3.15,-0.38666666666666666,-0.4633333333333333,-0.3511111111111111,0.08726646259971647,-0.02399827721492203,-0.03490658503988659
1592176009.8205233,0.008905174913663565,9.271094825086337,3.0734310494819814,-0.38666666666666666,-0.4633333333333333,-0.3511111111111111,0.0854750592412788,-0.012747677485703778,-0.015677877928939453
1592176009.8305233,-0.009421092722110658,9.285652655633266,3.0256526556332664,-0.38666666666666666,-0.4633333333333333,-0.3511111111111111,0.0637102283000475,0.0003479237299479727,0.009074569989919621
1592176009.8405232,-0.045221051889949626,9.304026314862437,3.0535842110825375,-0.38666666666666666,-0.4633333333333333,-0.3511111111111111,0.028815155695096517,0.00641465910231883,0.014359351806331046
1592176009.8505232,-0.015670201148413013,9.267087751435517,3.07574734913869,-0.38666666666666666,-0.4633333333333333,-0.3511111111111111,0.004638922466726744,0.005608784661373171,0.008718230719711433
1592176009.8605232,-0.021576924868414924,9.277884624342075,3.07,-0.4011111111111111,-0.47555555555555556,-0.3244444444444444,-0.011827122788645898,0.002928460709859133,-0.021124360584666508
1592176009.8705232,-0.0408788699234844,9.310480988816952,3.0659204237786932,-0.4011111111111111,-0.47555555555555556,-0.3244444444444444,-0.01387505937279247,0.0007941556277136646,-0.038911699629454274
1592176009.8805232,-0.11249553858233993,9.236274537797131,3.067450924405739,-0.4011111111111111,-0.47555555555555556,-0.3244444444444444,-0.037216570477358206,-0.0016352728434012472,-0.0636784635911599
1592176009.8905232,-0.13711023622047244,9.135937007874016,3.276251968503937,-0.4011111111111111,-0.47555555555555556,-0.3244444444444444,-0.07171396419132016,-0.0037921400824581517,-0.05591323736076519
1592176009.9005232,-0.19490570866141732,9.102911023622047,3.408355905511811,-0.4011111111111111,-0.47555555555555556,-0.3244444444444444,-0.0960313523562162,0.00971752000915076,-0.03159584919586915
1592176009.9105232,-0.16,9.13,3.52,-0.39444444444444443,-0.47555555555555556,-0.2966666666666667,-0.09926560120717749,0.025089107997418484,0.004363323129985824
1592176009.9205232,-0.14238964198818216,9.1,3.567451048545939,-0.39444444444444443,-0.47555555555555556,-0.2966666666666667,-0.08589758434630214,0.038265967222037796,0.014267690007115764
1592176009.9305232,-0.2979026180087267,9.1,3.4218539270130903,-0.39444444444444443,-0.47555555555555556,-0.2966666666666667,-0.06462764027881751,0.04471078367313698,0.02265210073011668
1592176009.9405231,-0.33,9.1,3.47,-0.39444444444444443,-0.47555555555555556,-0.2966666666666667,-0.04799655442984406,0.04908738521234052,0.03490658503988659
1592176009.9505231,-0.29826861347044287,9.1,3.501731386529557,-0.39444444444444443,-0.47555555555555556,-0.2966666666666667,-0.03155510716092026,0.03524195593324679,0.03490658503988659
1592176009.9605231,-0.33,9.17,3.51,-0.4011111111111111,-0.45666666666666667,-0.31777777777777777,-0.006544984694978735,0.019634954084936207,0.02945243112740431
1592176009.970523,-0.29,9.10993640699523,3.4389825119236885,-0.4011111111111111,-0.45666666666666667,-0.31777777777777777,0.015465864734981549,0.02281726646312539,0.0041552155085238605
1592176009.980523,-0.29244781241063766,9.102447812410638,3.2781641406920214,-0.4011111111111111,-0.45666666666666667,-0.31777777777777777,0.047884258438509,0.008459631347241602,-0.02869536898582041
1592176009.990523,-0.32446615125563544,9.145072694682336,3.2458496134417265,-0.4011111111111111,-0.45666666666666667,-0.31777777777777777,0.0800330799593101,0.004162106711451416,-0.033413321420321315
1592176010.000523,-0.23333689413553982,9.228607847042422,3.177502670601655,-0.4011111111111111,-0.45666666666666667,-0.31777777777777777,0.08666018654948573,0.0008485534163635957,-0.026786214830145677
1592176010.010523,-0.10760945370011624,9.215353545137544,3.202390546299884,-0.4211111111111111,-0.4711111111111111,-0.3111111111111111,0.062900912254229,-0.005792053645378799,-0.012076270191267913
1592176010.020523,-0.04,9.19,3.27,-0.4211111111111111,-0.4711111111111111,-0.3111111111111111,0.0370882466048795,-0.007635815477475192,-0.006544984694978735
1592176010.030523,0.02184253334779308,9.160921266673897,3.2523031666847415,-0.4211111111111111,-0.4711111111111111,-0.3111111111111111,0.016462956342124285,0.0018445403175773088,0.005705390424175897
1592176010.040523,0.06,9.18,3.3,-0.4211111111111111,-0.4711111111111111,-0.3111111111111111,0.01854412330243975,0.017453292519943295,0.01090830782496456
1592176010.050523,0.021551921889245068,9.18,3.292310384377849,-0.4211111111111111,-0.4711111111111111,-0.3111111111111111,0.02106054413030213,0.04261750079856709,0.01090830782496456
1592176010.060523,-0.10436151163886533,9.194103289039676,3.3017934219206486,-0.39444444444444443,-0.4711111111111111,-0.3022222222222222,0.02313124613212351,0.08360270628481768,0.007635815477475192
1592176010.070523,-0.2325506421289554,9.22319828765612,3.224898715742089,-0.39444444444444443,-0.4711111111111111,-0.3022222222222222,0.024439900242559223,0.09954383310211717,0.005873680142857203
1592176010.080523,-0.2603455588221119,9.15,3.170345558822112,-0.39444444444444443,-0.4711111111111111,-0.3022222222222222,0.017415597899911008,0.1024124448212259,-0.013165358630022049
1592176010.090523,-0.2896355092208664,9.151640208506102,3.201822453895668,-0.39444444444444443,-0.4711111111111111,-0.3022222222222222,0.01384284207491114,0.09149062651306704,-0.019018677554122895
1592176010.100523,-0.2730723058089484,9.226174623859732,3.284638470955258,-0.39444444444444443,-0.4711111111111111,-0.3022222222222222,-0.001514662242788782,0.08516694826460236,0.008986183260506386
1592176010.110523,-0.07634585510521114,9.196538624488065,3.4246151673492444,-0.4011111111111111,-0.4488888888888889,-0.2877777777777778,-0.0301236286587328,0.09072774369511566,0.03324938801366069
1592176010.120523,-0.18394242027687857,9.136933673117984,3.4956195330256903,-0.4011111111111111,-0.4488888888888889,-0.2877777777777778,-0.05852259439742574,0.09414593166990523,0.02299482408929198
1592176010.130523,-0.2697915928262565,9.070416814347487,3.3996526547104273,-0.4011111111111111,-0.4488888888888889,-0.2877777777777778,-0.04988267794630068,0.10150030806293334,0.0010226296943726967
1592176010.140523,-0.24005954490678386,9.129880910186433,3.3500992415113067,-0.4011111111111111,-0.4488888888888889,-0.2877777777777778,-0.007720254919914134,0.10906792245228476,-0.008707160234793431
1592176010.150523,-0.27233978444779233,9.202764515007534,3.3823397844477925,-0.4011111111111111,-0.4488888888888889,-0.2877777777777778,0.019704039613112626,0.12583976362774782,-0.0043169922131026444
1592176010.160523,-0.15065426371419005,9.139836434071453,3.3717992252140228,-0.4011111111111111,-0.4388888888888889,-0.2822222222222222,0.02467873567281582,0.14731568246196972,0.014377065197263898
1592176010.170523,-0.19310977953646127,9.131646353872245,3.475975579423403,-0.4011111111111111,-0.4388888888888889,-0.2822222222222222,3.99087440605826e-05,0.15073419170481386,0.026698752452702514
1592176010.180523,-0.35433781797625774,9.217002374222725,3.2673275296777837,-0.4011111111111111,-0.4388888888888889,-0.2822222222222222,0.002108997065609428,0.16107963331255806,0.05359690063283751
1592176010.190523,-0.2635027063115477,9.18140108252462,3.1635027063115477,-0.4011111111111111,-0.4388888888888889,-0.2822222222222222,0.0442865489181788,0.1593377114418162,0.038752206367378084
1592176010.200523,-0.2920891144057718,9.292311900420202,3.127910885594228,-0.4011111111111111,-0.4388888888888889,-0.2822222222222222,0.06769226397539263,0.1321333540674111,0.009300947521461201
1592176010.210523,-0.37973883701580846,9.30911204585375,3.150522325968383,-0.38666666666666666,-0.45666666666666667,-0.26666666666666666,0.04764899519051023,0.11234417521223876,0.0022386384894738675
1592176010.2205229,-0.33126999167976334,9.144317971711196,3.2474600166404732,-0.38666666666666666,-0.45666666666666667,-0.26666666666666666,-0.01685400116072347,0.11022932287285406,0.012812900186397424
1592176010.2305229,-0.3204688119851586,9.20671831610389,3.0879698037476957,-0.38666666666666666,-0.45666666666666667,-0.26666666666666666,-0.052853937127595826,0.10913421770410701,0.018288426030132632
1592176010.2405229,-0.47140135538600064,9.257312923558125,3.1746258471162507,-0.38666666666666666,-0.45666666666666667,-0.26666666666666666,-0.07312128075858049,0.09566437595859836,0.026801786250776508
1592176010.2505229,-0.3544660654959658,9.063853227337447,3.3133798054105363,-0.38666666666666666,-0.45666666666666667,-0.26666666666666666,-0.10498715621086024,0.07864109482661044,0.0272707695624114
1592176010.2605228,-0.31982283068250456,8.980314967675548,3.38988188712167,-0.4066666666666667,-0.4388888888888889,-0.2588888888888889,-0.11992696549286418,0.05015888982031318,0.028404547399405174
1592176010.2705228,-0.2353795047312261,9.130436436033376,3.333586336487484,-0.4066666666666667,-0.4388888888888889,-0.2588888888888889,-0.0892225057181854,0.04094755188790954,0.04887418724919103
1592176010.2805228,-0.11765537463942594,9.242982573247193,3.124034853505614,-0.4066666666666667,-0.4388888888888889,-0.2588888888888889,-0.07092659918753698,0.04036073895236887,0.073666769649845
1592176010.2905228,-0.17546058585377472,9.25,3.1567575613241248,-0.4066666666666667,-0.4388888888888889,-0.2588888888888889,-0.06369261961495466,0.04444110592891456,0.05690567259779987
1592176010.3005228,-0.12582338431179083,9.219041933892452,3.16,-0.4066666666666667,-0.4388888888888889,-0.2588888888888889,-0.06326818538479445,0.04303556150852101,0.030304861299813978
1592176010.3105228,-0.22285582084027394,9.22880930347338,3.197618606946758,-0.4014418601462836,-0.4482935406255784,-0.2808330762744977,-0.061216408662186514,0.04049062379475385,0.0034155675676502337
1592176010.3205228,-0.19363363704528413,9.075442957442458,3.363648633296221,-0.4011111111111111,-0.4488888888888889,-0.2822222222222222,-0.06307000122772367,0.044327693768213154,0.00912383249272041
1592176010.3305228,-0.227620522989218,9.06,3.3517846077580864,-0.4011111111111111,-0.4488888888888889,-0.2822222222222222,-0.05711254170525626,0.03343871533653468,0.019050942561775384
1592176010.3405228,-0.23,9.134741642055523,3.378028115770821,-0.4011111111111111,-0.4488888888888889,-0.2822222222222222,-0.03939797286351033,0.023552744037437894,0.03390278876542299
1592176010.3505228,-0.20247223393786026,9.215701356670884,3.373118058484465,-0.4011111111111111,-0.4488888888888889,-0.2822222222222222,-0.03142274710373872,0.017652522878485503,0.044665728782918156
1592176010.3605227,-0.22991423387761836,9.220064324591787,3.2402787398977404,-0.4011111111111111,-0.4311492293877252,-0.266700020158704,-0.06101635657500958,0.015271630954950384,0.044733417714993624
1592176010.3705227,-0.3632442765673223,9.166702289373072,3.337712469482703,-0.4011111111111111,-0.4311111111111111,-0.26666666666666666,-0.09306285468344494,0.0026748945541211627,0.00499589343358562
1592176010.3805227,-0.35318025518052665,9.106360510361053,3.2874205954212288,-0.4011111111111111,-0.4311111111111111,-0.26666666666666666,-0.10976145437422317,-0.010611490508616098,-0.025355029464077198
1592176010.3905227,-0.20793326978074356,9.15327502383222,3.413187559580553,-0.4011111111111111,-0.4311111111111111,-0.26666666666666666,-0.08608199090972354,-0.023621945794344845,-0.029330167610481506
1592176010.4005227,-0.11754440920676304,9.058562172889468,3.5314378271105316,-0.4011111111111111,-0.4311111111111111,-0.26666666666666666,-0.07658019636563228,-0.03536389054157835,-0.023129488023305937
1592176010.4105227,-0.13,8.96,3.71,-0.37777777777777777,-0.4444444444444444,-0.2588888888888889,-0.0818123086872342,-0.04581489286485115,-0.006544984694978735
1592176010.4205227,-0.11670938437829508,8.966645307810854,3.6435469218914753,-0.37777777777777777,-0.4444444444444444,-0.2588888888888889,-0.057890917833735595,-0.043640220969078554,0.007227937311581068
1592176010.4305227,-0.09122347692736651,9.223483061480552,3.2626343231562807,-0.37777777777777777,-0.4444444444444444,-0.2588888888888889,0.04430594830103645,-0.047662902856332665,0.002915695026717976
1592176010.4405227,-0.09,9.196576503747078,3.2747387970023376,-0.37777777777777777,-0.4444444444444444,-0.2588888888888889,0.10607208594247941,-0.033786248510951924,-0.01202864435389923
1592176010.4505227,-0.19805070362015254,9.166846277795681,3.2877179074014395,-0.37777777777777777,-0.4444444444444444,-0.2588888888888889,0.13895213197497536,-0.017321910043486637,-0.03186055520934347
1592176010.4605227,-0.44,9.38,3.28,-0.38555555555555554,-0.4388888888888889,-0.25222222222222224,0.10035643198967394,-0.01854412330243975,-0.02181661564992912
1592176010.4705226,-0.35930077691453943,9.306637069922308,3.3606992230854607,-0.38555555555555554,-0.4388888888888889,-0.25222222222222224,0.10035643198967394,-0.01854412330243975,-0.02181661564992912
1592176010.4805226,-0.2627307885124973,9.052966411229677,3.39,-0.38555555555555554,-0.4388888888888889,-0.25222222222222224,-0.0739194686968024,-0.04973033710949341,0.016707530817607754
1592176010.4905226,-0.224638500802799,8.959277001605598,3.48299216372307,-0.38555555555555554,-0.4388888888888889,-0.25222222222222224,-0.07093678146571689,-0.06854275178078338,0.0359864889545673
1592176010.5005226,-0.17587264653641208,9.10129378330373,3.405441385435169,-0.38555555555555554,-0.4388888888888889,-0.25222222222222224,-0.020349438559809023,-0.07434224911285416,0.03474082913679143
1592176010.5105226,-0.13455342786142377,9.182276713930712,3.2959369975149833,-0.39671141321119396,-0.4277330312332505,-0.24106636456658384,0.024831189741215006,-0.06372095749514362,0.021772685832566484
1592176010.5205226,-0.17240743819317453,9.24785190110908,3.26303702472273,-0.4,-0.42444444444444446,-0.23777777777777778,0.02221658089207325,-0.03871639710285697,0.016693749742922523
1592176010.5305226,-0.21371730728191024,9.192565385436179,3.276858653640955,-0.4,-0.42444444444444446,-0.23777777777777778,0.00601383419303283,-0.005482683691086922,0.008086989483096932
1592176010.5405226,-0.17802752293577984,9.171605504587156,3.4059174311926608,-0.4,-0.42444444444444446,-0.23777777777777778,-0.012294363452265105,0.0,0.002882195095036508
1592176010.5505226,-0.19440772018658853,9.249325090606414,3.436101930046647,-0.4,-0.42444444444444446,-0.23777777777777778,-0.03723700227577537,0.005324938502018179,0.008172217379763364
1592176010.5605226,-0.2487682747082022,9.28449269011672,3.43224634505836,-0.38880027619540825,-0.4192753411500175,-0.23777777777777778,-0.09694184440819807,0.011264023906130793,0.0018496280228244288
1592176010.5705225,-0.1785278276481149,9.076319569120287,3.3892639138240575,-0.38555555555555554,-0.4177777777777778,-0.23777777777777778,-0.10750773842659325,-0.001331714420282926,-0.024197642697252622
1592176010.5805225,-0.18455082110582063,9.062734428141095,3.2490622874356236,-0.38555555555555554,-0.4177777777777778,-0.23777777777777778,-0.05333983388906706,-0.0007925509436134486,-0.03927205463992835
1592176010.5905225,-0.1489093683683445,9.168617515915972,3.1542549893893512,-0.38555555555555554,-0.4177777777777778,-0.23777777777777778,-0.009179063118522006,0.006275209619844535,-0.036969277149262084
1592176010.6005225,-0.18781274382314694,9.22585955786736,3.14,-0.38555555555555554,-0.4177777777777778,-0.23777777777777778,-0.024347796987102946,0.0024202542016845954,-0.022306567473432726
1592176010.6105225,-0.26550082965720995,9.166581812295115,3.268919017362095,-0.4057781465143155,-0.4177777777777778,-0.24283342551746775,-0.07070458839537351,0.003872539779424769,0.016690253981569883
1592176010.6205225,-0.33472218936077924,9.178305532552546,3.331888875744312,-0.4122222222222222,-0.4177777777777778,-0.24444444444444444,-0.08788459574157831,0.00605108039888566,0.03155227715754536
1592176010.6305225,-0.3424836810601769,9.24001305515186,3.3049804172722124,-0.4122222222222222,-0.4177777777777778,-0.24444444444444444,-0.12573213262019603,-0.01391699307777821,0.024538708269639158
1592176010.6405225,-0.4971733002054566,9.067629127048592,3.411580581967605,-0.4122222222222222,-0.4177777777777778,-0.24444444444444444,-0.14464283789731303,-0.03315926999531674,0.01658128982480464
1592176010.6505225,-0.4494319951122411,9.041427501527425,3.431143499083545,-0.4122222222222222,-0.4177777777777778,-0.24444444444444444,-0.10063851856404743,-0.04874415587312303,0.0036157216867068517
1592176010.6605225,-0.3285335994677312,9.159882900864936,3.5045163007318694,-0.3857575219930509,-0.39728897760035486,-0.2231019442596289,-0.04458964966657403,-0.07323284837715628,0.01348986809997447
1592176010.6705225,-0.21327272727272728,9.206121212121213,3.5219393939393937,-0.37777777777777777,-0.39111111111111113,-0.21666666666666667,-0.05885858458524816,-0.08557402211293409,0.012389193250899141
1592176010.6805224,-0.06565399070319455,9.118812926515675,3.5034205320937595,-0.37777777777777777,-0.39111111111111113,-0.21666666666666667,-0.07882733132692246,-0.09540488987700922,-0.012602704309436727
1592176010.6905224,-0.0065575022676278225,9.058196877834535,3.558524371031651,-0.37777777777777777,-0.39111111111111113,-0.21666666666666667,-0.07178027954547334,-0.0952599343436826,-0.030221329609457115
1592176010.7005224,0.0,9.057070004636069,3.6477700509967548,-0.37777777777777777,-0.39111111111111113,-0.21666666666666667,-0.051303941225174066,-0.0802491385673007,-0.02424152691653575
1592176010.7105224,-0.009009237040202492,9.06,3.6349538147989873,-0.3847849621423797,-0.4151357432183178,-0.20965948230206474,-0.026926391046416,-0.0525558764111867,-0.016794763631328605
1592176010.7205224,-0.04015481171548117,9.078092887029289,3.5696903765690373,-0.38555555555555554,-0.4177777777777778,-0.2088888888888889,-0.006010705818832143,-0.04294158068571802,-0.02228334517218053
1592176010.7305224,-0.05245834979203941,9.150333201663685,3.3716253456328276,-0.38555555555555554,-0.4177777777777778,-0.2088888888888889,0.026288978769372844,-0.030775079609478166,-0.03934260149617768
1592176010.7405224,-0.08635109761468741,9.19908087809175,3.3272702195229376,-0.38555555555555554,-0.4177777777777778,-0.2088888888888889,0.01844988082286525,-0.01170738391754136,-0.04997769470075976
1592176010.7505224,-0.1,9.144554078573682,3.3894962922057434,-0.38555555555555554,-0.4177777777777778,-0.2088888888888889,-0.01287018540301396,0.008823931223652007,-0.054306889169302736
1592176010.7605224,-0.1664823902105721,9.073407043915772,3.4765376731474005,-0.38555555555555554,-0.41408431165496823,-0.21479843468538418,-0.037795365683464074,0.040300434623129676,-0.04547942462433062
1592176010.7705224,-0.21569754843911412,9.067848774219557,3.515697548439114,-0.38555555555555554,-0.4122222222222222,-0.21777777777777776,-0.032889885211307895,0.06068689975324661,-0.025805875262321233
1592176010.7805223,-0.44639783124364624,9.086171273660261,3.5119143631698697,-0.38555555555555554,-0.4122222222222222,-0.21777777777777776,-0.01378514496415385,0.07649827771038412,-0.007704517169300136
1592176010.7905223,-0.5216672027016162,9.07699967837903,3.514333440540323,-0.38555555555555554,-0.4122222222222222,-0.21777777777777776,-0.002254196505663859,0.07301277665253757,-0.012399308700340336
1592176010.8005223,-0.6075279454633093,9.085567975761471,3.5327839878807357,-0.38555555555555554,-0.4122222222222222,-0.21777777777777776,0.012516624103653931,0.04692755678808111,-0.03476083881028823
1592176010.8105223,-0.6229658980188373,9.1,3.5314829490094186,-0.36852145357439287,-0.4046515102305943,-0.20642170979033597,0.015271630954950384,0.0008546671580689988,-0.04052250359520352
1592176010.8205223,-0.5211393268343563,9.105203193324508,3.4779680667549244,-0.3655555555555556,-0.4033333333333333,-0.20444444444444446,0.013568889921254507,-0.020778823215745163,-0.03865799791867299
1592176010.8305223,-0.34528381400824015,9.1452984108299,3.4017612713360803,-0.3655555555555556,-0.4033333333333333,-0.20444444444444446,0.025090700263657797,-0.049538330420341815,-0.041708797777654835
1592176010.8405223,-0.2058118146444995,9.189768052958714,3.449536105917429,-0.3655555555555556,-0.4033333333333333,-0.20444444444444446,0.031355059622459526,-0.07024472873337695,-0.054998399275680884
1592176010.8505223,-0.17807489498614712,9.186541841689754,3.5022995799445886,-0.3655555555555556,-0.4033333333333333,-0.20444444444444446,0.02634908628260789,-0.07702899279551859,-0.06418986866459796
1592176010.8605223,-0.22019056822574412,9.04904715887128,3.704413219945883,-0.3790159343727183,-0.3936119486320491,-0.20444444444444446,0.011999138607461015,-0.0774074100198869,-0.08294471500709213
1592176010.8705223,-0.23414942846972275,8.991701143060554,3.7185057153027725,-0.38555555555555554,-0.3888888888888889,-0.20444444444444446,0.029651803395169853,-0.07300416183998511,-0.08282163888245321
1592176010.8805223,-0.2724539803968444,9.031926368634952,3.523693282333254,-0.38555555555555554,-0.3888888888888889,-0.20444444444444446,0.0828629797899543,-0.07052120609640147,-0.07396635898921498
1592176010.8905222,-0.3042066593715804,9.152343285915272,3.2369001094262937,-0.38555555555555554,-0.3888888888888889,-0.20444444444444446,0.10592330110416188,-0.08020223767764664,-0.06625488245458112
1592176010.9005222,-0.29883010526697223,9.212339789466055,3.094150526334861,-0.38555555555555554,-0.3888888888888889,-0.20444444444444446,0.09689861323761391,-0.09374154226185247,-0.05948523016247822
1592176010.9105222,-0.25908096126103936,9.254735230991168,3.0809190387389607,-0.38555555555555554,-0.39782105563569975,-0.20444444444444446,0.06298270636012224,-0.10482000669433626,-0.05158507720072021
1592176010.9205222,-0.23663076214435036,9.263261524288701,3.1235846649895476,-0.38555555555555554,-0.4033333333333333,-0.20444444444444446,0.03256042729056512,-0.10579883617470418,-0.046882224192443527
1592176010.9305222,-0.24982165713798107,9.190535028586057,3.2625010666439116,-0.38555555555555554,-0.4033333333333333,-0.20444444444444446,-0.027368505915480887,-0.10218745275274996,-0.040380193140741746
1592176010.9405222,-0.23858518835616438,9.110032106164384,3.445627140410959,-0.38555555555555554,-0.4033333333333333,-0.20444444444444446,-0.061230349111329324,-0.09288195299993529,-0.04160590174411836
1592176010.9505222,-0.24595568753667515,9.074044312463325,3.5691413126589255,-0.38555555555555554,-0.4033333333333333,-0.20444444444444446,-0.06292068759030996,-0.0766844904093825,-0.04486306120014849
1592176010.9605222,-0.37740862954763793,9.06,3.675658911490748,-0.3725101522724847,-0.3982601209454724,-0.20444444444444446,-0.0386030893861192,-0.05193103585209601,-0.04904027276803571
1592176010.9705222,-0.4671898723954127,9.040578662574706,3.6533887901792927,-0.3655555555555556,-0.39555555555555555,-0.20444444444444446,-0.015226656870435406,-0.04430035422833945,-0.054415294534989375
1592176010.9805222,-0.5439198015290365,9.023567920611614,3.485024555718698,-0.3655555555555556,-0.39555555555555555,-0.20444444444444446,0.03283471900907437,-0.05325342984730951,-0.06256655436556327
1592176010.9905221,-0.56,9.057923789513895,3.433019052621526,-0.3655555555555556,-0.39555555555555555,-0.20444444444444446,0.058760447760277466,-0.06771357345116757,-0.05413014663508175
1592176011.0005221,-0.5631057288678163,9.079317186603449,3.442422915471265,-0.3655555555555556,-0.39555555555555555,-0.20444444444444446,0.061479365213854324,-0.07419691766798228,-0.04712917380884531
1592176011.0105221,-0.5558895599654875,9.081779119930975,3.5341104400345125,-0.37144921867510305,-0.39930606844981303,-0.19640763109960693,0.034768720593795065,-0.09143571385105626,-0.023705155265913665
1592176011.020522,-0.5238315702706416,9.017663140541282,3.572336859458717,-0.37777777777777777,-0.4033333333333333,-0.18777777777777777,0.03636487248932649,-0.09573819703649449,-0.012325233920376565
1592176011.030522,-0.49021972829297106,9.093384760779681,3.4787470761961017,-0.37777777777777777,-0.4033333333333333,-0.18777777777777777,0.06486490907761867,-0.08775552591758187,-0.004619839108206431
1592176011.040522,-0.46422748727010626,9.155772512729895,3.4215450254597877,-0.37777777777777777,-0.4033333333333333,-0.18777777777777777,0.07665076596630861,-0.07849535526504614,0.0052060037956242885
1592176011.050522,-0.4471619990995047,9.151441332733004,3.4171619990995046,-0.37777777777777777,-0.4033333333333333,-0.18777777777777777,0.06686487205146899,-0.07433371822105697,0.012151491470464348
1592176011.060522,-0.43,9.132546406473107,3.4,-0.3732228039557883,-0.39587973980644137,-0.1906763974826802,0.05481930898138424,-0.07105301011242503,0.018930405121657914
1592176011.070522,-0.4178690528580509,9.180654735709746,3.302952422864408,-0.3655555555555556,-0.38333333333333336,-0.19555555555555557,0.0521274272859988,-0.06498494640212518,0.02641238905374603
1592176011.080522,-0.43361539339956606,9.237711545049676,3.204576909900651,-0.3655555555555556,-0.38333333333333336,-0.19555555555555557,0.04225290745597983,-0.06326818538479445,0.018898640192583055
1592176011.090522,-0.45,9.23277102669601,3.2144579466079803,-0.3655555555555556,-0.38333333333333336,-0.19555555555555557,0.017203521391581027,-0.05575062761247364,0.0036930221745564637
1592176011.100522,-0.4836520103128702,9.18634798968713,3.282065012891088,-0.3655555555555556,-0.38333333333333336,-0.19555555555555557,-0.00774010227516073,-0.0455896349020661,-0.006025641003151892
1592176011.110522,-0.5365619097982927,9.12359522550427,3.379371458789756,-0.3637328028338076,-0.38734338932117884,-0.19300370174510842,-0.02362323975241985,-0.03783832152988387,-0.012322753662448066
1592176011.120522,-0.5076461600120235,9.114202194278844,3.4539494514302893,-0.36,-0.39555555555555555,-0.18777777777777777,-0.016508945977338714,-0.03886665981838495,-0.016793280056860236
1592176011.130522,-0.48,9.13,3.3808031898488786,-0.36,-0.39555555555555555,-0.18777777777777777,-0.007134207296794242,-0.04396763675364554,-0.01699147849214189
1592176011.140522,-0.45260001446863923,9.162879982637634,3.3080800115749116,-0.36,-0.39555555555555555,-0.18777777777777777,-0.0067544229425910915,-0.045217117911699835,-0.01446441775418671
1592176011.150522,-0.43417030685433855,9.19,3.3025109205630154,-0.36,-0.39555555555555555,-0.18777777777777777,-0.01282083544022327,-0.041994602628853614,-0.010634408880710475
1592176011.160522,-0.45390586171612335,9.169141207425815,3.3304293962870926,-0.36,-0.39323791193620167,-0.18777777777777777,-0.021957135256284184,-0.037041406736094476,-0.00758897560869017
1592176011.170522,-0.46333156523142915,9.124443855077143,3.3888930144599985,-0.36,-0.3888888888888889,-0.18777777777777777,-0.03442241425877161,-0.037936991996818464,-0.0012115841727776532
1592176011.180522,-0.3224238659008323,9.130631344508265,3.382790294221076,-0.36,-0.3888888888888889,-0.18777777777777777,-0.036950508600084614,-0.04499953809194447,0.00624061081212156
1592176011.190522,-0.14518405237175358,9.14,3.3735694355011807,-0.36,-0.3888888888888889,-0.18777777777777777,-0.03169280181854253,-0.0478018719238029,0.011102990331005728
1592176011.200522,-0.10236157706093191,9.14590394265233,3.392361577060932,-0.36,-0.3888888888888889,-0.18777777777777777,-0.028808410889078803,-0.04497366293237109,0.010968706226140205
1592176011.210522,-0.1632509762981866,9.181349804740362,3.4186501952596373,-0.3676890624530109,-0.3951362521319603,-0.18153041453470636,-0.02918802181002155,-0.025353517314801247,0.0013853124947259053
1592176011.220522,-0.22,9.16738116126974,3.4273811612697402,-0.37777777777777777,-0.4033333333333333,-0.17333333333333334,-0.03714009978292766,-0.01844889963906103,-0.0011860544458751744
1592176011.230522,-0.22948744118891737,9.135256279405542,3.3715376764332476,-0.37777777777777777,-0.4033333333333333,-0.17333333333333334,-0.05115722379153968,-0.02004059074394226,-0.0026991212097927045
1592176011.240522,-0.24494151699921707,9.110233932003132,3.3745906189945196,-0.37777777777777777,-0.4033333333333333,-0.17333333333333334,-0.05614588776981408,-0.02721973351640597,-0.003811528232986917
1592176011.250522,-0.22789236706689536,9.09368460548885,3.417369210977702,-0.37777777777777777,-0.4033333333333333,-0.17333333333333334,-0.05528750927507418,-0.03525144567213167,-0.0027556106945482942
1592176011.260522,-0.17688364879910928,9.107869810720535,3.432623270240178,-0.3766118798932542,-0.39954416520863156,-0.17945429722708234,-0.045939686890668005,-0.04431311366365852,0.00028615439287931925
1592176011.2705219,-0.14,9.13,3.44,-0.37333333333333335,-0.3888888888888889,-0.19666666666666666,-0.0370882466048795,-0.05235987755982988,0.001090830782496456
1592176011.2805219,-0.12107959793534366,9.154131486009238,3.4004221678891606,-0.37333333333333335,-0.3888888888888889,-0.19666666666666666,-0.03761063630968384,-0.06168062801777732,0.00545415391248228
1592176011.2905219,-0.05190340255076201,9.15531723375846,3.3580965974492383,-0.37333333333333335,-0.3888888888888889,-0.19666666666666666,-0.0470704858547227,-0.07229801319173142,0.003921722243430269
1592176011.3005219,-0.01319171995231386,9.146595859976157,3.4002124200715294,-0.37333333333333335,-0.3888888888888889,-0.19666666666666666,-0.05493604463270083,-0.07672948884734554,0.00032499120202479225
1592176011.3105218,0.0,9.142145737782698,3.4328744266961886,-0.37166442616901263,-0.3907962113623983,-0.19165994517370447,-0.06062279566175148,-0.07346990295554268,-0.0046768744422090265
1592176011.3205218,-0.031388289931995356,9.129074473378669,3.4956941449659977,-0.3655555555555556,-0.3977777777777778,-0.17333333333333334,-0.07489858736350645,-0.049203723608947786,-0.013241408329242515
1592176011.3305218,-0.08927804616210414,9.100240651279298,3.4904813025585972,-0.3655555555555556,-0.3977777777777778,-0.17333333333333334,-0.07907210623982776,-0.03716699955187133,-0.020620780938110227
1592176011.3405218,-0.14680000937932328,9.081066663540225,3.4834000046896616,-0.3655555555555556,-0.3977777777777778,-0.17333333333333334,-0.07378379208180937,-0.03576470593753411,-0.026550821757526464
1592176011.3505218,-0.16019718259179966,9.063399060863933,3.516502347840167,-0.3655555555555556,-0.3977777777777778,-0.17333333333333334,-0.06150032241017876,-0.04393948346978172,-0.028721625725058215
1592176011.3605218,-0.11631182879987458,9.05,3.581349455201066,-0.3649408603555347,-0.39613859057772205,-0.17333333333333334,-0.04986093704065864,-0.05603468697494062,-0.02945243112740431
1592176011.3705218,-0.11014448231171699,9.034783276532425,3.7555056880910094,-0.3622222222222222,-0.3888888888888889,-0.17333333333333334,-0.041973344263141484,-0.05338766604106748,-0.02834583976959314
1592176011.3805218,-0.12,9.010390898483081,3.732345390898483,-0.3622222222222222,-0.3888888888888889,-0.17333333333333334,-0.029878835225579704,-0.04541871890796431,-0.02412619844437465
1592176011.3905218,-0.1289848419643284,9.013477262946493,3.67,-0.3622222222222222,-0.3888888888888889,-0.17333333333333334,-0.0018825215784956523,-0.03998142840628202,-0.01729545510073829
1592176011.4005218,-0.12701308513926574,9.03974018614555,3.6635065425696327,-0.3622222222222222,-0.3888888888888889,-0.17333333333333334,0.027752365527277008,-0.038533240549869695,-0.011319153577488767
1592176011.4105217,-0.1,9.061023474178404,3.644882629107981,-0.3634731351069379,-0.3888888888888889,-0.17333333333333334,0.04869202306957655,-0.038376758458757945,-0.007524171763585883
1592176011.4205217,-0.08636989741014421,9.079086735059905,3.5591096922304324,-0.37444444444444447,-0.3888888888888889,-0.17333333333333334,0.06733264326201077,-0.02905644836254083,-0.004562566631832153
1592176011.4305217,-0.050273336771531715,9.119589994842702,3.396571686436307,-0.37444444444444447,-0.3888888888888889,-0.17333333333333334,0.07413176858510276,-0.02565688570099484,-0.0016437002778540589
1592176011.4405217,-0.03,9.15,3.28,-0.37444444444444447,-0.3888888888888889,-0.17333333333333334,0.07744898555724837,-0.02399827721492203,-0.001090830782496456
1592176011.4505217,-0.07555062680810029,9.17311012536162,3.34622025072324,-0.37444444444444447,-0.3888888888888889,-0.17333333333333334,0.06588811477738554,-0.006424856560590023,-0.004024061081798016
1592176011.4605217,-0.11,9.167782405406466,3.381991670268359,-0.37444444444444447,-0.3888888888888889,-0.17523384804788286,0.04596275998989978,0.002956656740392736,-0.003539038912903122
1592176011.4705217,-0.11009660523763337,9.129935596508245,3.4499355965082446,-0.37444444444444447,-0.3888888888888889,-0.1811111111111111,0.02612724879643451,0.008723133594406286,-0.004352785133289738
