time,acc_x,acc_y,acc_z,mag_x,mag_y,mag_z,gyr_x,gyr_y,gyr_z
1592172686.851687,0.12708578507277796,9.08,3.578742644781666,-0.30666666666666664,-0.5466666666666666,-0.4622222222222222,-0.020557886787872195,-0.058462651819909936,0.111627561821576
1592172686.861687,0.11506387429339841,9.082468062853302,3.5555748686405857,-0.30666666666666664,-0.5466666666666666,-0.4622222222222222,0.04117286555306853,-0.03044571544627189,-0.007222784572580437
1592172686.871687,0.10277272080785095,9.095545441615702,3.428318162423553,-0.30666666666666664,-0.5466666666666666,-0.4622222222222222,0.10750633052634712,-0.021995188574214904,0.03428181252372769
1592172686.881687,0.11237408282551921,9.114748165651038,3.4405036686979233,-0.30666666666666664,-0.5466666666666666,-0.4622222222222222,0.1096010227749001,0.03513435582508887,0.08309916614311796
1592172686.891687,0.12,9.131644846085068,3.4017757695746584,-0.30666666666666664,-0.5466666666666666,-0.46094289748939127,0.08686295692260448,-0.0436475128371179,0.1256374350816375
1592172686.901687,0.12,9.14,3.36,-0.30666666666666664,-0.5466666666666666,-0.45444444444444443,-0.0370882466048795,-0.038179077387375956,-0.017453292519943295
1592172686.911687,0.12,9.15223241209161,3.365535175816782,-0.30666666666666664,-0.5466666666666666,-0.45444444444444443,-0.001654609275735271,-0.002298418815991548,0.017393269234680202
1592172686.921687,0.1352631454678535,9.154912284844048,3.3830701485136827,-0.30666666666666664,-0.5466666666666666,-0.45444444444444443,0.048302738084893715,-0.00390402189172031,-0.037241338432404326
1592172686.9316869,0.18203775068816358,9.125735745182855,3.4881510027526543,-0.30666666666666664,-0.5466666666666666,-0.45444444444444443,0.08968679433670348,-0.03499314801743586,-0.07482695950884577
1592172686.9416869,0.18683873786710778,9.072258044380638,3.5195483911238727,-0.30666666666666664,-0.54646595161061,-0.45414337186035947,0.0536617863627214,-0.09177764247850484,-0.1227993705978624
1592172686.9516869,0.11745069410126241,9.13019722359495,3.4998027764050494,-0.30666666666666664,-0.5422222222222223,-0.4477777777777778,0.16843654398991953,0.06598450546261526,-0.13405983935057847
1592172686.9616868,0.11,9.1621267209618,3.4317190226876093,-0.30666666666666664,-0.5422222222222223,-0.4477777777777778,0.14151170907017008,0.058791273709103635,0.010720791538619183
1592172686.9716868,0.09813905674096733,9.172372188651806,3.259161547526515,-0.30666666666666664,-0.5422222222222223,-0.4477777777777778,0.1283388139006798,-0.006587378389356538,0.0049611562730243995
1592172686.9816868,0.05298796940617963,9.191686717656367,3.1576626564687267,-0.30666666666666664,-0.5422222222222223,-0.4477777777777778,0.18211892509005864,-0.13396194720882756,-0.05408945880133905
1592172686.9916868,0.03755636034404708,9.236296966953374,3.1487406066093255,-0.3100250490417987,-0.5437614808108244,-0.4477777777777778,0.02871833015807012,-0.07221220770201142,-0.031141959619587822
1592172687.0016868,0.09,9.28,3.14,-0.3333333333333333,-0.5544444444444444,-0.4477777777777778,0.10690141668465267,-0.020725784867432664,-0.08072147790473774
1592172687.0116868,0.14999259167798495,9.28364242499074,3.17,-0.3333333333333333,-0.5544444444444444,-0.4477777777777778,0.02500169607275616,-0.017354566879300017,-0.0005939700889997985
1592172687.0216868,0.28851798993465033,9.198973184105762,3.1832321790730864,-0.3333333333333333,-0.5544444444444444,-0.4477777777777778,-0.07980001144488984,-0.018253901516846537,-0.016457918648857366
1592172687.0316868,0.4731867059660535,9.157802215672325,3.24978005894908,-0.3333333333333333,-0.5544444444444444,-0.4477777777777778,0.041595520816072096,-0.014468702334867467,-0.027882118185324493
1592172687.0416868,0.5083323898340435,9.147878616333463,3.3316676101659564,-0.33050482177794993,-0.5544444444444444,-0.44848490566662363,-0.005057544311469132,0.06634144665351543,-0.030345265868814794
1592172687.0516868,0.41,9.13,3.43,-0.30666666666666664,-0.5544444444444444,-0.45444444444444443,-0.01090830782496456,-0.0272707695624114,-0.06544984694978735
1592172687.0616868,0.31848368123630494,9.12,3.4393857686541347,-0.30666666666666664,-0.5544444444444444,-0.45444444444444443,0.06690708918852868,0.060782912816402045,-0.06417260248334404
1592172687.0716867,0.30484624600638976,9.118711561501597,3.3774231230031946,-0.30666666666666664,-0.5544444444444444,-0.45444444444444443,0.09035849302562071,0.012989337636460393,0.07145812895944835
1592172687.0816867,0.2578375110360447,9.11810832597597,3.364054162987985,-0.30666666666666664,-0.5544444444444444,-0.45444444444444443,0.09033201910109254,-0.014239882827020068,-0.04457650200107115
1592172687.0916867,0.18538597366703774,9.16640935088864,3.388204675444321,-0.30666666666666664,-0.5544444444444444,-0.45444444444444443,-0.03436349359429991,-0.04058400522745509,-0.011207280293853455
1592172687.1016867,0.15850405273002582,9.148504052730026,3.3929918945399486,-0.30666666666666664,-0.5544444444444444,-0.4533333333333333,0.027467715674117134,-0.013339965613647092,-0.07431475384959979
1592172687.1116867,0.15475653342120604,9.141902613368483,3.3928764796836584,-0.30666666666666664,-0.5544444444444444,-0.4533333333333333,0.06888168780047124,0.05863928141615108,-0.017240827849017266
1592172687.1216867,0.20141880225372594,9.164256406761178,3.231418802253726,-0.30666666666666664,-0.5544444444444444,-0.4533333333333333,0.044222462322319064,0.08663435768472297,-0.029329385534095174
1592172687.1316867,0.20332773579624963,9.195004198152812,3.2391659669745314,-0.30666666666666664,-0.5544444444444444,-0.4533333333333333,0.07863445880897905,-0.03380842709848168,0.13298762889019694
1592172687.1416867,0.13624845068170005,9.245313661988725,3.2307810563352124,-0.30666666666666664,-0.5544444444444444,-0.4533333333333333,0.12345240011484834,0.05399815178648673,0.09914550994494871
1592172687.1516867,0.10195260270183043,9.237988150675458,3.2018933560791187,-0.30666666666666664,-0.5544444444444444,-0.43,0.13865156323064437,0.00548000512840755,0.029161881566314267
1592172687.1616867,0.07653536779368601,9.226732316103158,3.116929264412628,-0.30666666666666664,-0.5544444444444444,-0.43,0.061258393642626814,0.0254025895599266,-0.01713981095743518
1592172687.1716866,0.11656323504953789,9.211093872508258,3.0521877450165125,-0.30666666666666664,-0.5544444444444444,-0.43,0.01602141675498418,0.03173563644505994,-0.0019768635217206317
1592172687.1816866,0.1805371388051764,9.227024759203452,3.07,-0.30666666666666664,-0.5544444444444444,-0.43,0.008577876098298078,-0.016128090720182932,0.020709992540911853
1592172687.1916866,0.27967558943449744,9.293117059622999,3.07,-0.30666666666666664,-0.5544444444444444,-0.43,0.04823040977930321,0.027129218750004486,0.05135058674896127
1592172687.2016866,0.41,9.3,3.09,-0.30666666666666664,-0.5544444444444444,-0.4388888888888889,0.1090830782496456,0.06872233929727672,0.061086523819801536
1592172687.2116866,0.6147969606034743,9.257383476034468,3.09389477741376,-0.30666666666666664,-0.5544444444444444,-0.4388888888888889,0.11285592386275657,0.0878685022081383,0.021632883504255213
1592172687.2216866,0.633665758059968,9.208464141366669,2.965078484820002,-0.30666666666666664,-0.5544444444444444,-0.4388888888888889,-0.059329239415138804,-0.022237301682505765,0.0540009939715827
1592172687.2316866,0.19667971118337652,9.25847654742876,2.9948437413878635,-0.30666666666666664,-0.5544444444444444,-0.4388888888888889,-0.1333157190422654,-0.030321704756535863,0.017500129161048116
1592172687.2416866,0.11191368571901009,9.312418563633358,3.0256677506476324,-0.30666666666666664,-0.5544444444444444,-0.4388888888888889,-0.11398204661147074,0.03356347371043786,0.1427487027344571
1592172687.2516866,0.11191255847427133,9.304043720762865,3.1059562792371356,-0.31444444444444447,-0.5811111111111111,-0.43,-0.09840724416737032,0.09221097008642551,0.061038831865834885
1592172687.2616866,0.2001459351890524,9.26194162592438,3.1520875611134316,-0.31444444444444447,-0.5811111111111111,-0.43,-0.09012331741174807,0.062381193605115175,0.08125339961495541
1592172687.2716866,0.3812260078978786,9.183869960510608,3.2820681421618145,-0.31444444444444447,-0.5811111111111111,-0.43,-0.12539084317312943,0.044724062082354694,-0.04895024246817323
1592172687.2816865,0.40721694943725856,9.137652234167646,3.435304468335293,-0.31444444444444447,-0.5811111111111111,-0.43,-0.18697809412411961,0.044553327733019725,0.10035643198967394
1592172687.2916865,0.6009734587602888,9.111230891987233,3.3824617839744664,-0.31444444444444447,-0.5811111111111111,-0.43,-0.09378950424309031,0.04263191350866861,0.10035643198967394
1592172687.3016865,0.43,9.15,3.32,-0.31444444444444447,-0.5611111111111111,-0.4622222222222222,-0.06981317007977318,-0.06654067773228381,0.01308996938995747
1592172687.3116865,0.47678085968403133,9.210536523385995,3.2635617193680626,-0.31444444444444447,-0.5611111111111111,-0.4622222222222222,-0.0047567889548711505,0.09598816634733245,-0.10429030571275649
1592172687.3216865,0.41142479905492113,9.221715040189016,3.1488566398739892,-0.31444444444444447,-0.5611111111111111,-0.4622222222222222,-0.05822273610984384,0.039301568566214126,0.12824792724764042
1592172687.3316865,0.2692705739328222,9.249270573932822,3.131945136179141,-0.31444444444444447,-0.5611111111111111,-0.4622222222222222,-0.1878452787076205,0.05738966858824131,0.03070239799142734
1592172687.3416865,0.24459773721053354,9.224597737210534,3.1977393674385772,-0.31444444444444447,-0.5611111111111111,-0.4622222222222222,-0.08467536785292494,0.04303559403454454,0.03608517594906362
1592172687.3516865,0.3205160365118026,9.208967926976396,3.273612255582618,-0.3211111111111111,-0.5544444444444444,-0.43333333333333335,-0.10442461923200064,0.12514278112134888,0.15162704309150027
1592172687.3616865,0.329523797912806,9.189591826782404,3.34,-0.3211111111111111,-0.5544444444444444,-0.43333333333333335,-0.05990667005308056,0.13905493867460608,-0.007984566409399837
1592172687.3716865,0.2614230606388484,9.128007715105612,3.3436999576610056,-0.3211111111111111,-0.5544444444444444,-0.43333333333333335,-0.20359016943047348,0.05718468825753413,0.09650668248114103
1592172687.3816864,0.308216195323069,9.059862784255621,3.471234941699414,-0.3211111111111111,-0.5544444444444444,-0.43333333333333335,-0.11428095052431529,0.11014397320057963,-0.035355622513322936
1592172687.3916864,0.1911299362236681,9.050856148940284,3.5522946595374605,-0.3211111111111111,-0.5544444444444444,-0.43333333333333335,-0.02585851508609681,0.10817903019084145,-0.06482976765939576
1592172687.4016864,0.24,9.05,3.61,-0.29444444444444445,-0.5544444444444444,-0.44,0.004363323129985824,0.044724062082354694,0.07635815477475191
1592172687.4116864,0.35,9.100230818399185,3.527922634407329,-0.29444444444444445,-0.5544444444444444,-0.44,0.059215860458298235,0.10009509330169629,0.012838185574959235
1592172687.4216864,0.35125623361863006,9.110157029202329,3.439371883190685,-0.29444444444444445,-0.5544444444444444,-0.44,0.16406453746389074,-0.1378168914222691,0.002215920022523128
1592172687.4316864,0.4290851947208498,9.119885649340105,3.400457402639575,-0.29444444444444445,-0.5544444444444444,-0.44,0.12373787985738095,0.10944919337554088,0.004338375686023643
1592172687.4416864,0.3307126175220073,9.169643691238996,3.3917260514601675,-0.29444444444444445,-0.5544444444444444,-0.44,0.07903903739789794,0.15116512496531187,-0.11928572218257778
1592172687.4516864,0.23796928521198646,9.19,3.357461606514983,-0.30666666666666664,-0.5611111111111111,-0.4688888888888889,-0.005725927486970371,0.08707194269904717,0.03246990221852709
1592172687.4616864,0.20004561215703615,9.19,3.3097035209792653,-0.30666666666666664,-0.5611111111111111,-0.4688888888888889,-0.07167639871707915,-0.018434661983547363,-0.013149675563898773
1592172687.4716864,0.2195671499383305,9.19,3.182813525400852,-0.30666666666666664,-0.5611111111111111,-0.4688888888888889,0.06460964501734295,0.02841366555016024,-0.03870330876410292
1592172687.4816864,0.5143939321433699,9.111494951428433,3.3762626214289133,-0.30666666666666664,-0.5611111111111111,-0.4688888888888889,0.014109181287753486,-0.07973311641573033,0.035661349947965076
1592172687.4916863,0.6112460375518166,9.128249207510365,3.407373811265545,-0.30666666666666664,-0.5611111111111111,-0.4688888888888889,0.00512725046656954,-0.04598007353198851,0.03907892633572648
1592172687.5016863,0.56,9.12,3.43,-0.29444444444444445,-0.5466666666666666,-0.44555555555555554,0.07635815477475191,0.001090830782496456,-0.02181661564992912
1592172687.5116863,0.4060211309406039,9.129623679316213,3.362634244786514,-0.29444444444444445,-0.5466666666666666,-0.44555555555555554,0.14039476917264443,-0.07239380869049498,0.039070657056263794
1592172687.5216863,0.4483043058141453,9.168643444651316,3.070174165115128,-0.29444444444444445,-0.5466666666666666,-0.44555555555555554,0.16397556199071261,0.18292261218278658,-0.053393712941680715
1592172687.5316863,0.40939291736930855,9.239797639123102,3.0789881956155143,-0.29444444444444445,-0.5466666666666666,-0.44555555555555554,0.08287738629779988,0.025442294355326273,-0.12960283774163206
1592172687.5416863,0.3841321368344977,9.231377378944833,3.0368868947241627,-0.29444444444444445,-0.5466666666666666,-0.44555555555555554,-0.008973403693063486,0.040138420753864416,0.06052829753945507
1592172687.5516863,0.25,9.29,3.02,-0.3211111111111111,-0.5544444444444444,-0.45444444444444443,0.056723200689815706,-0.04036073895236887,0.24870941840919195
1592172687.5616863,0.2583238544036399,9.29,2.9950284367890805,-0.3211111111111111,-0.5544444444444444,-0.45444444444444443,0.00042771769225933426,0.07767817701024933,0.06347911951400648
1592172687.5716863,0.2878018477222045,9.29,2.943663587129659,-0.3211111111111111,-0.5544444444444444,-0.45444444444444443,-0.01090830782496456,0.07718557372764268,0.04639801298368806
1592172687.5816863,0.534321097121239,9.298991744005045,3.1124486217020353,-0.3211111111111111,-0.5544444444444444,-0.45444444444444443,-0.10402842920907247,0.0369715568782106,0.13280524637840285
1592172687.5916862,0.7822551279777739,9.24114047013852,3.252944572520738,-0.3211111111111111,-0.5544444444444444,-0.45444444444444443,-0.06436183185235142,0.09286539860813571,0.054373565241249866
1592172687.6016862,0.79,9.03,3.37,-0.31444444444444447,-0.5466666666666666,-0.44555555555555554,0.06981317007977318,0.17453292519943295,0.05017821599483697
1592172687.6116862,0.7813573992820104,9.012714798564021,3.352714798564021,-0.31444444444444447,-0.5466666666666666,-0.44555555555555554,0.08489735392618768,0.1170244742849777,0.01812432532120617
1592172687.6216862,0.56,9.24,3.11,-0.31444444444444447,-0.5466666666666666,-0.44555555555555554,0.05235987755982988,-0.04908738521234052,-0.01308996938995747
1592172687.6316862,0.49508282610370596,9.329261114107403,3.11,-0.31444444444444447,-0.5466666666666666,-0.44555555555555554,0.07360397303945576,0.030577972836256503,0.036479586729169566
1592172687.6416862,0.39952167868624555,9.382191328525503,3.126095664262751,-0.31444444444444447,-0.5466666666666666,-0.44555555555555554,-0.10669334940901837,0.043820091399579486,-0.02047826513604943
1592172687.6516862,0.41,9.29,3.12,-0.3022222222222222,-0.5688888888888889,-0.48333333333333334,-0.08508480103472357,0.07308566242726255,0.04145156973486533
1592172687.6616862,0.35468860164512334,9.243907168037603,2.990940070505288,-0.3022222222222222,-0.5688888888888889,-0.48333333333333334,-0.07502890504331969,0.05699622884101635,0.0273733153468999
1592172687.6716862,0.27772175010707123,9.28517390618308,2.8354435002141423,-0.3022222222222222,-0.5688888888888889,-0.48333333333333334,-0.09191624468459904,0.045776952421297014,-0.16994286919192758
1592172687.6816862,0.24309736409743551,9.379675453008549,2.864837726504274,-0.3022222222222222,-0.5688888888888889,-0.48333333333333334,-0.10163710686077833,0.10146009393645722,-0.06666304132531047
1592172687.6916862,0.2546578839670259,9.36801317404946,2.9652762457856685,-0.3022222222222222,-0.5688888888888889,-0.48333333333333334,-0.09294453093217099,0.11998420074526897,-0.07794271121981887
1592172687.7016861,0.20651408006061373,9.146056320242455,3.249600959717136,-0.313117502209875,-0.5451173689158284,-0.47639997334119066,-0.21877751900976156,0.04364538760956342,-0.01336395125968666
1592172687.7116861,0.09341319173566198,9.071551450788938,3.299379419684425,-0.31444444444444447,-0.5422222222222223,-0.47555555555555556,-0.032644793242261466,0.08243698959637402,-0.04030075794575653
1592172687.7216861,0.12901574142846875,9.13827754749982,3.212214581785945,-0.31444444444444447,-0.5422222222222223,-0.47555555555555556,-0.15066668615479561,0.12761753129812545,0.14474655668055447
1592172687.731686,0.09582424122197977,9.194681214044833,3.237340607022416,-0.31444444444444447,-0.5422222222222223,-0.47555555555555556,-0.11429037246034808,0.05490369234791069,0.06966468206490528
1592172687.741686,0.0723709626701406,9.21237096267014,3.3186613359687342,-0.31444444444444447,-0.5422222222222223,-0.47555555555555556,-0.27075487282441724,-0.042521329710278846,0.05769088975556927
1592172687.751686,0.07,9.17350136635851,3.4129972672829814,-0.32762450659276054,-0.5594576881084817,-0.49583257424527266,-0.19666796145192753,-0.054214587983258206,-0.061954418954848975
1592172687.761686,0.02459719177123665,9.124597191771237,3.492644493166021,-0.3288888888888889,-0.5611111111111111,-0.49777777777777776,-0.24081093238550008,-0.10495856040315354,0.14671294928186532
1592172687.771686,0.12421940349674325,9.085260198834419,3.456575248543024,-0.3288888888888889,-0.5611111111111111,-0.49777777777777776,-0.23800132683412406,-0.10070009790983653,0.018445174442292822
1592172687.781686,0.29190303793483396,9.032530300645364,3.601903037934834,-0.3288888888888889,-0.5611111111111111,-0.49777777777777776,-0.11347052568703589,-0.022629115455182258,-0.1710994610498673
1592172687.791686,0.3456905026730293,9.024288687165871,3.678535754009544,-0.3288888888888889,-0.5611111111111111,-0.49777777777777776,-0.05581479473158877,0.00014610424136411726,-0.09089699448645014
1592172687.801686,0.44,8.97,3.77,-0.3333333333333333,-0.5466666666666666,-0.4888888888888889,-0.1538071403320003,-0.08617563181722002,0.11780972450961724
1592172687.811686,0.36343880597014927,9.031248955223882,3.655158208955224,-0.3333333333333333,-0.5466666666666666,-0.4888888888888889,-0.04941300634144394,-0.09285685639261562,0.01926166202253206
1592172687.821686,0.2570123144205317,9.124688917021523,3.478920934514904,-0.3333333333333333,-0.5466666666666666,-0.4888888888888889,-0.0681475848389472,-0.11300738247683592,-0.01452932870489341
1592172687.831686,0.223607552898757,9.123607552898756,3.466392447101243,-0.3333333333333333,-0.5466666666666666,-0.4888888888888889,-0.030260074413847038,-0.04340521154335006,-0.08500903595902495
1592172687.841686,0.15206386262018756,9.086031931310094,3.5311425236418312,-0.3333333333333333,-0.5466666666666666,-0.4888888888888889,0.033721963441485224,-0.09767225796532855,-0.12184741266003814
1592172687.851686,0.12804174608630442,9.061958253913696,3.600208730431522,-0.3297592239616425,-0.5466666666666666,-0.4826341974884299,0.05539598858442412,-0.07388049675582659,-0.08549794854947654
1592172687.861686,0.10535904224703581,9.101068262921606,3.634640957752964,-0.3288888888888889,-0.5466666666666666,-0.4811111111111111,-0.09508553563952335,-0.11464989399913211,-0.02937796783121225
1592172687.871686,0.17343852194877424,9.093680328455827,3.5502418065070533,-0.3288888888888889,-0.5466666666666666,-0.4811111111111111,-0.09647370141101023,-0.14611857085826468,0.026650246124661103
1592172687.881686,0.2795581240487062,9.114424942922374,3.513716704718417,-0.3288888888888889,-0.5466666666666666,-0.4811111111111111,-0.02550377312364145,-0.16652073574477794,-0.1431992986914648
1592172687.891686,0.3728050033937748,9.12,3.51,-0.3288888888888889,-0.5466666666666666,-0.4811111111111111,-0.034011708209455774,-0.1557299768291401,-0.05655971886518402
1592172687.901686,0.4355707429048414,9.11147641903172,3.5270471619365606,-0.3497243090335745,-0.5532961185308848,-0.4991053375997032,-0.03465755146808961,-0.1083725130811225,-0.054498288321677066
1592172687.911686,0.48644261151462925,9.092584020682013,3.4196987976527553,-0.35333333333333333,-0.5544444444444444,-0.5022222222222222,-0.00866093410154476,-0.1147457832153369,0.11692986198506759
1592172687.921686,0.47649054947466596,9.158317010945602,3.2268754286341315,-0.35333333333333333,-0.5544444444444444,-0.5022222222222222,-0.012156390843546352,0.024674237397782503,-0.036059269366053553
1592172687.931686,0.4974703881306611,9.21944669863519,3.1770355342432066,-0.35333333333333333,-0.5544444444444444,-0.5022222222222222,0.01589253582430203,0.07087815963138792,-0.061759111150916604
1592172687.941686,0.6111481389184659,9.288045581205683,3.178045581205682,-0.35333333333333333,-0.5544444444444444,-0.5022222222222222,-0.045738432647795715,0.06606456831347643,0.03001555296516846
1592172687.951686,0.5257212547857231,9.166844201556133,3.3497869581326416,-0.3474152978469392,-0.5672668546649651,-0.4963041867358281,0.01780383490552509,0.04594900698662159,-0.004515355060089238
1592172687.961686,0.5339345406600225,9.114098189009967,3.3879509054950168,-0.3466666666666667,-0.5688888888888889,-0.4955555555555556,0.04359752876833355,0.1145643897749701,0.011713137641064826
1592172687.971686,0.41058165767533106,9.09774546346248,3.4,-0.3466666666666667,-0.5688888888888889,-0.4955555555555556,-0.09211785091992866,0.15299396583989897,0.09764331809543533
1592172687.9816859,0.33164773392668934,9.123011359643987,3.4,-0.3466666666666667,-0.5688888888888889,-0.4955555555555556,-0.2186805677178129,0.11622926540727627,0.08099419198770688
1592172687.9916859,0.30742157402311504,9.10484314804623,3.4314460649422127,-0.3466666666666667,-0.5688888888888889,-0.4955555555555556,-0.09616000536906294,0.19019433154543222,0.0629527029543036
1592172688.0016859,0.25231590916922225,9.066157954584611,3.4976840908307776,-0.3572631312957284,-0.5415146885971461,-0.5008537878700864,0.008611778444551464,0.160226018508414,-0.07806869291092394
1592172688.0116858,0.14760323919261914,9.03946738648725,3.5510652270255023,-0.36,-0.5344444444444445,-0.5022222222222222,-0.04850344948827499,0.14298598118926814,0.038297385129468564
1592172688.0216858,0.01051698425849213,9.102471692902512,3.4497981220657277,-0.36,-0.5344444444444445,-0.5022222222222222,-0.02413576828620935,0.04451351758252406,0.09850346566543824
1592172688.0316858,0.014336753168376584,9.153452424059545,3.4343367531683766,-0.36,-0.5344444444444445,-0.5022222222222222,-0.06649437612393404,-0.012540889369043646,0.04527314210326852
1592172688.0416858,-0.041335243809609096,9.15757488917745,3.547275332467649,-0.36,-0.5344444444444445,-0.5022222222222222,-0.16311639661183572,-0.030046861370675786,0.012204234136754108
1592172688.0516858,-0.00200673645279531,9.053340818280883,3.747320608922498,-0.36,-0.5450361222101142,-0.5147396595816501,-0.14595609803005538,-0.012872293122129775,0.030396511435776978
1592172688.0616858,0.05798759556873148,9.077323685442346,3.7486721797472304,-0.36,-0.5466666666666666,-0.5166666666666667,-0.08313618987524371,0.020571921389920294,-0.017294918663941894
1592172688.0716858,0.17220870570664612,9.153325223423987,3.6289078120106955,-0.36,-0.5466666666666666,-0.5166666666666667,-0.08628680916023888,0.004977597000879748,-0.03903162971407115
1592172688.0816858,0.2158686916131726,9.106525233547309,3.59,-0.36,-0.5466666666666666,-0.5166666666666667,-0.11555644532944868,0.019158964513804597,-0.028812256180941565
1592172688.0916858,0.32086258003319895,8.962240731957948,3.637069204015493,-0.36,-0.5466666666666666,-0.5166666666666667,0.021554017819868793,0.024336796039685377,0.028850883348249576
1592172688.1016858,0.3378992660086054,8.996302201974183,3.595798532017211,-0.3707002446637982,-0.5439916055007171,-0.5166666666666667,0.10520553511505398,-0.0313680801743169,0.06197567100659725
1592172688.1116858,0.30572334765704934,9.06369797421731,3.5605786781256397,-0.37333333333333335,-0.5433333333333333,-0.5166666666666667,0.09001624008605377,-0.0034125793945723945,0.017719627549547305
1592172688.1216857,0.28704939279028463,9.152296356741708,3.335567609081745,-0.37333333333333335,-0.5433333333333333,-0.5166666666666667,0.026750880019887166,0.09111272366580594,-0.058226162662684634
1592172688.1316857,0.2339487676347567,9.141974383817379,3.334076848547865,-0.37333333333333335,-0.5433333333333333,-0.5166666666666667,0.07445473664540583,0.0726130043175701,-0.051470447181512474
1592172688.1416857,0.15869135946719634,9.107196159763198,3.4498134408288057,-0.37333333333333335,-0.5433333333333333,-0.5166666666666667,0.0017938134524572297,0.06060739608520614,-0.01253931768806514
1592172688.1516857,-0.08238580334949677,9.09,3.5990497534737784,-0.37333333333333335,-0.5334389162806913,-0.49417935518338924,-0.09537028497621391,-0.0045208070736875855,0.03210209959141947
1592172688.1616857,-0.08336082006279079,9.14596701592465,3.5873525740439534,-0.37333333333333335,-0.5311111111111111,-0.4888888888888889,-0.06169108759879075,-0.04005845706287425,0.013685538157765992
1592172688.1716857,-0.014938859430797535,9.149755437723192,3.519877718861595,-0.37333333333333335,-0.5311111111111111,-0.4888888888888889,-0.08316991552951226,-0.0358907053984704,0.0526266536196115
1592172688.1816857,0.0007999069875595857,9.104800217029029,3.527999844979266,-0.37333333333333335,-0.5311111111111111,-0.4888888888888889,-0.10314897232097596,0.019067322998760964,0.010559789863064745
1592172688.1916857,0.05204932151409486,9.027950678485904,3.6454648573709196,-0.37333333333333335,-0.5311111111111111,-0.4888888888888889,-0.011790119609899091,0.12067547532830573,-0.032617320623265667
1592172688.2016857,-0.06426420946993887,8.975955965088344,3.707977982544172,-0.38936268994110435,-0.5311111111111111,-0.4888888888888889,-0.02503666133905015,0.08302163375416569,0.06639216179963665
1592172688.2116857,-0.0704126800896841,9.004793659955158,3.6616054343241506,-0.4,-0.5311111111111111,-0.4888888888888889,-0.07950053781875041,0.039925394627381164,0.042767482589937206
1592172688.2216856,0.01205553201565265,9.087699957628175,3.5630667231624336,-0.4,-0.5311111111111111,-0.4888888888888889,-0.059573917460204115,-0.00316580457822848,0.05443485135556191
1592172688.2316856,-0.10044267198404785,9.010153539381855,3.6779042871385843,-0.4,-0.5311111111111111,-0.4888888888888889,0.011231533057823928,0.027333848510950578,-0.0120119719107845
1592172688.2416856,-0.16,8.954345322909846,3.7669640312704584,-0.4,-0.5311111111111111,-0.4888888888888889,0.020765020664823646,0.0019226800972033872,-0.0005461925456933456
1592172688.2516856,-0.06993385060964709,8.922287338649122,3.8077126613508776,-0.3861436693245611,-0.5349600918542885,-0.4835003158484404,0.027705861541484873,-0.042043380635670514,-0.012120792743071068
1592172688.2616856,-0.013856316191723984,8.920762455872184,3.787712632383448,-0.38,-0.5366666666666666,-0.4811111111111111,0.025935229352273347,-0.032397043013684734,-0.015535555074833795
1592172688.2716856,0.00014450393356643318,9.063450885052447,3.6522312062937066,-0.38,-0.5366666666666666,-0.4811111111111111,-0.0818734831735887,-0.0751166374956677,-0.05149479344495235
1592172688.2816856,-0.0073070550071180195,9.120960582510676,3.677118252467969,-0.38,-0.5366666666666666,-0.4811111111111111,-0.08640398608730784,0.0562289167981741,-0.1112647398146385
1592172688.2916856,-0.10341666830582821,9.063462499262377,3.7565375007376227,-0.38,-0.5366666666666666,-0.4811111111111111,-0.04875195458579855,-0.0010035668946856424,-0.026657175906221242
1592172688.3016856,-0.17124433715816276,8.945235276611223,3.828755662841837,-0.3915022651367349,-0.529637504638662,-0.47727702273219946,0.01719170378826563,-0.06049567668454503,-0.052407780184715154
1592172688.3116856,-0.1565556557007661,8.94244524560613,3.771332131590807,-0.4,-0.5244444444444445,-0.47444444444444445,0.07606752874563434,-0.09891573898640114,-0.07045464150297265
1592172688.3216856,-0.09136554080940008,9.051113451770709,3.5927310816188,-0.4,-0.5244444444444445,-0.47444444444444445,0.0728335787178885,-0.131076149942873,-0.06921734049991368
1592172688.3316855,-0.1169678861310434,9.13652793788966,3.51,-0.4,-0.5244444444444445,-0.47444444444444445,0.04552694741420746,-0.12668034349491072,-0.15035564446238617
1592172688.3416855,-0.12475145704453683,9.099573926362062,3.5553195552284524,-0.4,-0.5244444444444445,-0.47444444444444445,0.023936307316272457,-0.13967281758353353,-0.1299243623364451
1592172688.3516855,-0.09,9.05557732872734,3.5428831279997555,-0.4,-0.5267521968484947,-0.4594440538181176,0.019802892204243232,-0.19148393734745361,-0.025633372899167887
1592172688.3616855,-0.003546578730420427,9.113226710634791,3.49,-0.4,-0.5288888888888889,-0.44555555555555554,-0.0723286199546333,-0.1957153661850451,0.03413284158954863
1592172688.3716855,0.11650242250341032,9.133954325226963,3.483954325226963,-0.4,-0.5288888888888889,-0.44555555555555554,-0.11550350432359276,-0.1552047624616225,-0.04783138277130621
1592172688.3816855,0.10011533695548566,9.058138404346582,3.6117462586979316,-0.4,-0.5288888888888889,-0.44555555555555554,-0.03416979856340485,-0.15836095073617668,-0.10255067486480718
1592172688.3916855,0.05509129652799499,8.956004261807944,3.72945222083203,-0.4,-0.5288888888888889,-0.44555555555555554,0.04843009739606538,-0.17869707020327477,-0.11263209551808881
1592172688.4016855,0.04060783271309587,8.92348041821726,3.7365195817827397,-0.4062614448579361,-0.5288888888888889,-0.44920806505601824,0.03385847508016734,-0.1534338647266484,-0.08920745708616817
1592172688.4116855,0.0897141434488378,9.058571169906978,3.601428830093022,-0.41333333333333333,-0.5288888888888889,-0.4533333333333333,-0.06308109270956283,-0.096959309947731,0.0015582168256225576
1592172688.4216855,0.14,9.138924542236484,3.4823113555912086,-0.41333333333333333,-0.5288888888888889,-0.4533333333333333,-0.06699762823884872,-0.07795324512288557,0.00037463885534284175
1592172688.4316854,0.09986028928336621,9.084126044895276,3.4772027331642716,-0.41333333333333333,-0.5288888888888889,-0.4533333333333333,-0.04863730353416761,-0.09810602359880942,-0.020214742889120244
1592172688.4416854,0.05592358699084307,9.045307862330281,3.4806157246605625,-0.41333333333333333,-0.5288888888888889,-0.4533333333333333,-0.0989366642329798,-0.2313694455379513,-0.012955639107300819
1592172688.4516854,0.054738955823293176,9.079303882195447,3.47,-0.410058009817046,-0.5256135653726015,-0.4495121225643314,-0.10607197641094722,-0.24476957710909097,-0.00776870115512871
1592172688.4616854,0.026864802954513586,9.126162171006499,3.457675657987004,-0.4066666666666667,-0.5222222222222223,-0.44555555555555554,-0.09385866852346393,-0.09948373166728354,0.009410640149253354
1592172688.4716854,0.029044812125901816,9.112573112724458,3.4151462254489178,-0.4066666666666667,-0.5222222222222223,-0.44555555555555554,-0.14034078355285717,-0.10870669086045993,-0.0633021473891745
1592172688.4816854,0.00526251990587788,9.094407814988234,3.4179609250588263,-0.4066666666666667,-0.5222222222222223,-0.44555555555555554,-0.1715907440769336,-0.09054561821132064,-0.07851051871931794
1592172688.4916854,-0.03,9.103563009622444,3.4761680256598524,-0.4066666666666667,-0.5222222222222223,-0.44555555555555554,-0.20189533854285246,-0.11395967400040187,0.013364900732981855
1592172688.5016854,0.0275626527619358,9.12,3.5288557927326054,-0.4130625169735484,-0.5192702913113537,-0.44260362464468705,-0.20648162934449737,-0.13276080727601391,-0.009101869297587745
1592172688.5116854,0.11733694640863417,9.07954712504652,3.5342210178637887,-0.4211111111111111,-0.5155555555555555,-0.4388888888888889,-0.21936170115039955,-0.1385967341323105,-0.07530490122497031
1592172688.5216854,0.26129815409309787,9.061936195826645,3.53,-0.4211111111111111,-0.5155555555555555,-0.4388888888888889,-0.28298479237830815,-0.07714355731547996,-0.05141065342185093
1592172688.5316854,0.35315772527870565,9.07,3.5505252143115866,-0.4211111111111111,-0.5155555555555555,-0.4388888888888889,-0.2847080634850829,0.0035016603228840435,-0.03869698823138573
1592172688.5416853,0.4116869036338394,9.023681218184624,3.729478172723066,-0.4211111111111111,-0.5155555555555555,-0.4388888888888889,-0.17263897719436203,0.05126904677733343,0.013016700868724099
1592172688.5516853,0.2489955598223929,8.890873334933397,3.868026221048842,-0.41700824699654654,-0.5114526914409909,-0.4324415309945731,-0.17399274600538858,0.002933317673608618,-0.030924326161412483
1592172688.5616853,0.0553864685806063,8.841529813290505,3.889243123870709,-0.41333333333333333,-0.5077777777777778,-0.4266666666666667,-0.1731030849707802,-0.030631080248343066,0.006039098505947053
1592172688.5716853,0.07542336807990907,9.020564490773213,3.6796236728178586,-0.41333333333333333,-0.5077777777777778,-0.4266666666666667,-0.2258635483679519,0.01960416588934346,-0.02129023511996638
1592172688.5816853,0.11487243191591018,9.09538270425227,3.7117859531772575,-0.41333333333333333,-0.5077777777777778,-0.4266666666666667,-0.2010244256811044,0.03873569815933306,-0.09078943429458654
1592172688.5916853,-0.019276161721728705,9.005745030869573,3.8383827827130386,-0.41333333333333333,-0.5077777777777778,-0.4266666666666667,-0.19309554252663547,0.022694047343039793,-0.05850580511318118
1592172688.6016853,-0.19545782901056677,8.841831316042267,3.9654217098943323,-0.423427046643185,-0.5103012061052407,-0.428685409328637,-0.1998375587255199,-0.018552003271204758,0.04459265941172544
1592172688.6116853,-0.177227922759958,8.821596509655006,4.024789528965015,-0.43555555555555553,-0.5133333333333333,-0.4311111111111111,-0.17439517222916215,-0.015642056888442554,0.09852307479992754
1592172688.6216853,-0.0877195816449458,8.86098893877998,4.05901106122002,-0.43555555555555553,-0.5133333333333333,-0.4311111111111111,-0.16302242645705858,-0.11991651166951436,0.056747332528394645
1592172688.6316853,-0.14,8.897318774216274,4.086183397910062,-0.43555555555555553,-0.5133333333333333,-0.4311111111111111,-0.078429311608133,-0.060132888990599695,0.07068773024358659
1592172688.6416852,-0.13130346343146693,8.879562122010134,4.1330448048527995,-0.43555555555555553,-0.5133333333333333,-0.4311111111111111,-0.14286105233046392,-0.017499948165368897,0.12312280205221598
1592172688.6516852,-0.08958221445075876,8.829860738150254,4.163519015799663,-0.42879604765572416,-0.509202522950103,-0.42172290569467863,-0.22523990086039977,-0.06404293205870515,0.11383435374997536
1592172688.6616852,0.013835478113845577,8.824611826037948,4.19,-0.41555555555555557,-0.5011111111111111,-0.4033333333333333,-0.19077237901330407,-0.15540608964261998,0.08245147855584332
1592172688.6716852,0.08456251833023756,8.835087496333953,4.1998250073320955,-0.41555555555555557,-0.5011111111111111,-0.4033333333333333,-0.23889194136672384,-0.06399217112947804,-0.01592757974203962
1592172688.6816852,0.10022689950271771,8.820226899502718,4.195340349254076,-0.41555555555555557,-0.5011111111111111,-0.4033333333333333,-0.13281699268119773,-0.0008433218203988454,-0.04627009742083128
1592172688.6916852,0.07834058311779919,8.790567638529666,4.195545889176268,-0.41555555555555557,-0.5011111111111111,-0.4033333333333333,0.0019244925867227258,0.03717887131131781,0.026799136361404914
1592172688.7016852,0.09225922700381392,8.795485149704195,4.178063004895042,-0.4177061706891432,-0.4957345732771421,-0.40548394846692093,0.03082446228940014,0.06738349266282434,-0.04173434253027989
1592172688.7116852,0.12454483105482145,8.90102327282703,4.050112934936674,-0.4222222222222222,-0.48444444444444446,-0.41,-0.010115384420450424,-0.004561179913588013,-0.111760503976223
1592172688.7216852,0.06107805691538006,8.935269514228844,3.910120770348055,-0.4222222222222222,-0.48444444444444446,-0.41,0.008203559187231133,0.03254852682460671,-0.06665217262102141
1592172688.7316852,-0.14751215179254357,8.95757531644008,3.81,-0.4222222222222222,-0.48444444444444446,-0.41,-0.0026830846812284093,0.004714211652066466,-0.06633502158461041
1592172688.7416852,-0.3032647387869953,8.98,3.8113058955147983,-0.4222222222222222,-0.48444444444444446,-0.41,-0.05496889243270255,-0.020298431559552913,-0.10118480807971432
1592172688.7516851,-0.37833134029281534,8.98,3.8846698555314956,-0.42462985107857604,-0.48685207330079827,-0.4018140618883969,-0.10308677005083675,-0.04829118203881995,-0.03839515643672539
1592172688.7616851,-0.24804204566549098,8.963007007610916,3.946992992389085,-0.42777777777777776,-0.49,-0.39111111111111113,-0.17910218389760124,-0.0940326710982737,-0.042092308792506763
1592172688.7716851,-0.17,8.95,3.96,-0.42777777777777776,-0.49,-0.39111111111111113,-0.20180369476184434,-0.08835729338221293,-0.06763150851478027
1592172688.781685,-0.11443107476635514,8.924352803738318,3.938627336448598,-0.42777777777777776,-0.49,-0.39111111111111113,-0.12393507068044167,-0.029606115931573786,-0.058305924792456595
1592172688.791685,-0.04217310697354133,8.892173106973543,3.9121731069735413,-0.42777777777777776,-0.49,-0.39111111111111113,-0.024850036441808714,0.042450007667230054,-0.05300538520538749
1592172688.801685,-0.0653606381552487,8.926185815793001,3.936907092103499,-0.4281214342107223,-0.49,-0.3912829393275834,-0.10934244121958225,-0.041867632689175885,-0.1280426064103346
1592172688.811685,-0.01835784405912664,8.949178922029564,3.923091736562982,-0.43,-0.49,-0.39222222222222225,-0.1901473511740455,-0.03716730896309482,-0.03389481661560545
1592172688.821685,0.08719703091233676,8.886342008832097,3.9674349337592782,-0.43,-0.49,-0.39222222222222225,-0.11470835412721818,-0.017668219904223584,-0.004021079199805218
1592172688.831685,0.05961073005731467,8.878460208587803,4.026548435591469,-0.43,-0.49,-0.39222222222222225,-0.14093137062750175,0.012423766243642803,0.04842495380076192
1592172688.841685,0.03202442920229258,8.870578408343512,4.085661937423659,-0.43,-0.49,-0.39222222222222225,-0.1671543871277853,0.04251575239150919,0.10087098680132904
1592172688.851685,0.04846186732536874,8.768459729710472,4.3023114742417405,-0.43,-0.49,-0.39222222222222225,-0.13887061151563407,0.10715425894307565,-0.11579981121095144
1592172688.861685,-0.04178323998619701,8.76,4.31164335200276,-0.43,-0.4811111111111111,-0.3977777777777778,-0.0422009892743916,0.042166764179896565,0.011339277627387442
1592172688.871685,-0.11639197889873687,8.786227166237978,4.254102459083537,-0.43,-0.4811111111111111,-0.3977777777777778,0.024253868916150174,0.1004701454559664,-0.027934017696076615
1592172688.881685,-0.14488864889021302,8.840340756740652,4.159318486518695,-0.43,-0.4811111111111111,-0.3977777777777778,-0.09577008409446,-0.04668269888211949,0.007016789726556043
1592172688.891685,0.0,8.840888770824636,4.155185381958939,-0.43,-0.4811111111111111,-0.3977777777777778,-0.10634409989118185,-0.010544311199770399,-0.0248868876500884
1592172688.901685,0.007420974471395234,8.82,4.19,-0.43,-0.47760676205517444,-0.3950979814408851,-0.13718784236724832,0.03271944656480548,0.026042013213186728
1592172688.911685,0.08966759002770083,8.815484764542937,4.176454293628809,-0.43,-0.4622222222222222,-0.38333333333333336,-0.11682163125234207,0.018595492065050373,0.01690334459081766
1592172688.921685,0.14169147911375776,8.81,4.151691479113758,-0.43,-0.4622222222222222,-0.38333333333333336,-0.08930939406541169,0.09583813905174479,-0.040610209535475054
1592172688.931685,0.11906312038077926,8.777189361142339,4.161873759238441,-0.43,-0.4622222222222222,-0.38333333333333336,-0.030952052761156583,0.09166096425071651,0.015929275976443495
1592172688.941685,0.07952168039726784,8.71707452577104,4.23218021651858,-0.43,-0.4622222222222222,-0.38333333333333336,-0.025866879331995905,0.16288808504300786,0.0448635939484618
1592172688.951685,0.0038112080484162536,8.72122376797925,4.345541931934292,-0.4312470853310278,-0.4640928502187639,-0.37979992489542125,0.010217954177187976,0.12971540987861868,0.030089370676501706
1592172688.961685,-0.11,8.77,4.5,-0.43666666666666665,-0.4722222222222222,-0.36444444444444446,0.02617993877991494,0.17671458676442586,0.11344640137963141
1592172688.971685,-0.4158637801286945,8.694480314101865,4.4913834660268295,-0.43666666666666665,-0.4722222222222222,-0.36444444444444446,-0.05002652996062572,-0.03855751917155321,0.06356614434376077
1592172688.981685,-0.37,8.76,4.38,-0.43666666666666665,-0.4722222222222222,-0.36444444444444446,-0.08290313946973066,0.022907446432425576,0.14289883250703572
1592172688.991685,-0.19194945128034588,8.771468129919077,4.3,-0.43666666666666665,-0.4722222222222222,-0.36444444444444446,-0.012234088636325954,0.09266547641278423,0.29794904350127566
1592172689.001685,-0.1650614420235827,8.822592163035374,4.297530721011791,-0.43364865901441163,-0.4686554859059208,-0.3660906304365836,0.04363323129985824,0.06656748687254896,0.18434913709146158
1592172689.011685,-0.13341997016679474,8.786735976133436,4.286683994033359,-0.42444444444444446,-0.4577777777777778,-0.3711111111111111,0.06823020070666527,0.10304038949921739,0.09682995648616419
1592172689.021685,-0.13921495463857186,8.769049604916592,4.219669300556044,-0.42444444444444446,-0.4577777777777778,-0.3711111111111111,0.07898147990064147,0.18388160358691247,0.055857750806482996
1592172689.0316849,-0.2618046029204407,8.80590230146022,4.105443682336353,-0.42444444444444446,-0.4577777777777778,-0.3711111111111111,-0.015071520611847765,0.17363894605851649,0.09741458053347829
1592172689.0416849,-0.34561430068708515,8.845204766895694,4.180819067582781,-0.42444444444444446,-0.4577777777777778,-0.3711111111111111,-0.016049749291162287,0.16745186202510928,0.10419218783892054
1592172689.0516849,-0.39,8.850857834777269,4.246530118016236,-0.42444444444444446,-0.456907095375613,-0.366467471632899,-0.0005782690504659233,0.12572626576149504,-0.08134707408377094
1592172689.0616848,-0.4129499965130065,8.778525001743496,4.286175000581165,-0.42444444444444446,-0.45111111111111113,-0.33555555555555555,-0.03214133141528065,0.10664507132397535,0.04687846365499146
1592172689.0716848,-0.4120408804325877,8.773803316206331,4.228237564226256,-0.42444444444444446,-0.45111111111111113,-0.33555555555555555,0.010017805745260035,0.10874510157806909,-0.03375307352338278
1592172689.0816848,-0.297415692821369,8.815208681135227,4.13608347245409,-0.42444444444444446,-0.45111111111111113,-0.33555555555555555,0.011589394156606758,0.08163894125736164,0.05310579456902946
1592172689.0916848,-0.15989927967166429,8.83930647457911,4.144653237289555,-0.42444444444444446,-0.45111111111111113,-0.33555555555555555,-0.05147402867368411,0.051065321177427944,0.09363816975227084
1592172689.1016848,-0.059241503039968106,8.812310375759992,4.1369311272799765,-0.4229041939377831,-0.45059769427555735,-0.3404330154933165,-0.038096338204132676,0.12978983636666097,0.06226009378554127
1592172689.1116848,-0.09862135388002201,8.832932030820032,4.151378646119978,-0.4177777777777778,-0.4488888888888889,-0.3566666666666667,-0.006655148398109226,0.05739889141392125,0.13367014593783863
1592172689.1216848,-0.11,8.85,4.14,-0.4177777777777778,-0.4488888888888889,-0.3566666666666667,0.039269908169872414,0.03381575425739013,0.23234695667174513
1592172689.1316848,-0.2643759652509653,8.832187982625483,4.105208011583011,-0.4177777777777778,-0.4488888888888889,-0.3566666666666667,-0.008955236378581668,0.028928021599197405,0.04665528532532368
1592172689.1416848,-0.19273407636905002,8.816816480907738,4.117727839697421,-0.4177777777777778,-0.4488888888888889,-0.3566666666666667,0.016173158507860587,0.09312099306223026,0.07011005091560009
1592172689.1516848,-0.09060070984915705,8.841044365572316,4.116266193433896,-0.4190542245883861,-0.4488888888888889,-0.35515813861776596,-0.0941420842026817,0.05222582249028618,0.059172972393896045
1592172689.1616848,-0.0181329459616502,8.828312144102267,4.197109819872167,-0.43,-0.4488888888888889,-0.3422222222222222,-0.044759987874773,0.1184068481955988,-0.09566397079534485
1592172689.1716847,-0.047678502321981425,8.759761996904025,4.262321497678018,-0.43,-0.4488888888888889,-0.3422222222222222,-0.16400808618718132,0.08788316825737108,-0.06098267537843383
1592172689.1816847,-0.06728260341223935,8.738152189763282,4.250869586351043,-0.43,-0.4488888888888889,-0.3422222222222222,-0.05212276118111389,0.10155391742239116,-0.0070903205525578855
1592172689.1916847,-0.06456339530630906,8.76,4.284563395306309,-0.43,-0.4488888888888889,-0.3422222222222222,-0.07723695345376251,0.031369862956222565,0.06769284904491457
1592172689.2016847,-0.07609816202895575,8.758536810760859,4.304389567717425,-0.43070449852254966,-0.44785923720208554,-0.34086741737116516,-0.0607679774859459,0.060846942030730794,-0.049433373125589465
1592172689.2116847,0.0,8.73,4.39,-0.4444444444444444,-0.42777777777777776,-0.31444444444444447,0.030543261909900768,0.07744898555724837,-0.03490658503988659
1592172689.2216847,-0.29460855992770885,8.71307237328514,4.401565760289165,-0.4444444444444444,-0.42777777777777776,-0.31444444444444447,0.006854320755208568,-0.03786974132714612,0.07435374313071341
1592172689.2316847,-0.2833934453423067,8.75353278513709,4.281696722671153,-0.4444444444444444,-0.42777777777777776,-0.31444444444444447,0.07676766545643415,0.05942524222785149,0.02843134279025432
1592172689.2416847,-0.11570697352216748,8.81792603140394,4.225852062807882,-0.4444444444444444,-0.42777777777777776,-0.31444444444444447,0.010487491639475627,0.04831216656896076,0.0018905662507291174
1592172689.2516847,0.13083737999036216,8.809441746673093,4.209720873336546,-0.44397923333868766,-0.42777777777777776,-0.3146305288867472,0.05793052639333275,0.01425229028712397,0.01812314842470796
1592172689.2616847,0.16,8.79,4.2,-0.42777777777777776,-0.42777777777777776,-0.3211111111111111,0.02399827721492203,0.09272061651219875,0.04145156973486533
1592172689.2716846,0.11007523049946265,8.78561089428135,4.245037615249731,-0.42777777777777776,-0.42777777777777776,-0.3211111111111111,0.09237002538678754,0.056625865684476716,-0.2357179255127502
1592172689.2816846,-0.02,8.81,4.18,-0.42777777777777776,-0.42777777777777776,-0.3211111111111111,-0.008726646259971648,-0.1287180323345818,-0.06544984694978735
1592172689.2916846,-0.10508735177865612,8.806550197628459,4.164912648221344,-0.42777777777777776,-0.42777777777777776,-0.3211111111111111,-0.02582268091968705,0.010774907412275072,0.07135882987114534
1592172689.3016846,-0.08021996047430831,8.83970671936759,4.189780039525692,-0.42777777777777776,-0.42777777777777776,-0.3211111111111111,-0.02401427319200923,0.0487514696935093,0.20065998240010946
1592172689.3116846,0.0019668021680216835,8.856003161698283,4.242006323396567,-0.44222222222222224,-0.42777777777777776,-0.31555555555555553,-0.03185639750227184,0.04690917252516038,0.049311414461121514
1592172689.3216846,0.18432940917592694,8.843582352293982,4.193879414677082,-0.44222222222222224,-0.42777777777777776,-0.31555555555555553,-0.01208062987177118,0.0562204511961555,0.029404304474991386
1592172689.3316846,0.287,8.86,4.114307692307692,-0.44222222222222224,-0.42777777777777776,-0.31555555555555553,-0.04229067033678567,0.181379986111103,0.08535331322733807
1592172689.3416846,0.3659921044640146,8.848326753720011,4.139689037351959,-0.44222222222222224,-0.42777777777777776,-0.31555555555555553,-0.10115436493497533,0.1700506143934457,0.10325957228053302
1592172689.3516846,0.30953779088403105,8.798230014744535,4.283077761394961,-0.43873481918356594,-0.4258887677985056,-0.31279469481661926,-0.08859218668296334,0.10721994570665866,0.05954192029882059
1592172689.3616846,0.24,8.72,4.37,-0.41555555555555557,-0.41333333333333333,-0.29444444444444445,-0.08290313946973066,0.07308566242726255,-0.008726646259971648
1592172689.3716846,0.18030242087533624,8.697575605218834,4.371514618265919,-0.41555555555555557,-0.41333333333333333,-0.29444444444444445,-0.0287574683450114,0.035733503822314015,-0.1647129801519767
1592172689.3816845,0.11,8.691692888910143,4.303318349194203,-0.41555555555555557,-0.41333333333333333,-0.29444444444444445,0.05306421485719812,0.10200371114656138,0.10504985780205839
1592172689.3916845,0.11,8.75575069790023,4.265686976574827,-0.41555555555555557,-0.41333333333333333,-0.29444444444444445,0.0018680096504724477,0.11853824694931707,0.02928865425181891
1592172689.4016845,0.11,8.789689282679936,4.2402330379900475,-0.41555555555555557,-0.41333333333333333,-0.29444444444444445,1.6947000868982633e-05,0.0713361493844287,0.02188440365340505
1592172689.4116845,0.08891917599058848,8.79,4.2708107431603715,-0.41333333333333333,-0.4266666666666667,-0.31555555555555553,0.020637182682526126,0.047082600366553935,-0.013974571419726942
1592172689.4216845,-0.13869373134328358,8.810308059701491,4.284614925373134,-0.41333333333333333,-0.4266666666666667,-0.31555555555555553,0.04508367805733651,0.052309471409044676,0.03879945076254379
1592172689.4316845,-0.3463126429994834,8.867368071444385,4.246846999778581,-0.41333333333333333,-0.4266666666666667,-0.31555555555555553,-0.13595017037878243,0.027039061614073902,-0.03570814318222438
1592172689.4416845,-0.28,8.86,4.35,-0.41333333333333333,-0.4266666666666667,-0.31555555555555553,-0.09817477042468103,-0.016362461737446838,0.01090830782496456
1592172689.4516845,-0.16657983414891436,8.756746857327043,4.4459852902394,-0.41366584945774443,-0.4264291551492302,-0.3140354818439619,-0.0011921242671195185,0.042319420602962766,0.001305787767062596
1592172689.4616845,-0.07594544864162787,8.494132481870333,4.54988310423206,-0.4211111111111111,-0.4211111111111111,-0.28,0.06718497512162067,0.07653891697066079,-0.006032451257721769
1592172689.4716845,-0.016482246655928286,8.655796857856526,4.407720895487546,-0.4211111111111111,-0.4211111111111111,-0.28,0.0665722030143701,0.0330627125434516,-0.14714865952857356
1592172689.4816844,0.014938404497069728,8.84506159550293,4.238024638201172,-0.4211111111111111,-0.4211111111111111,-0.28,0.1309128971139257,0.008875169374765807,-0.09922481736521978
1592172689.4916844,0.06848917714467612,8.786417316568519,4.227640259430208,-0.4211111111111111,-0.4211111111111111,-0.28,0.047563338528200855,0.12564335398085447,0.036655030703236294
1592172689.5016844,0.15193458538914534,8.652904663377369,4.30274112685023,-0.4211111111111111,-0.4211111111111111,-0.28,0.10763971970909421,-0.011804124175431863,0.09673141188412966
1592172689.5116844,0.20204471431230225,8.807501628512934,4.252044714312302,-0.43333333333333335,-0.4066666666666667,-0.29444444444444445,0.11351885442923192,0.06877111504555418,0.008378110293872486
1592172689.5216844,0.13770857362552863,8.888854286812764,4.208606785851596,-0.43333333333333335,-0.4066666666666667,-0.29444444444444445,-0.006882907379714038,0.035369485645876775,-0.059890740940680795
1592172689.5316844,-0.036435741727599454,8.812409220473416,4.21366340314785,-0.43333333333333335,-0.4066666666666667,-0.29444444444444445,-0.05714796092263314,0.09645747913331251,0.02571191843427078
1592172689.5416844,-0.24310067248820635,8.773100672488205,4.29465100873231,-0.43333333333333335,-0.4066666666666667,-0.29444444444444445,0.05998691208490557,0.029451708505386396,0.0024525353335261083
1592172689.5516844,-0.2599401786610459,8.789940178661045,4.3199102679915695,-0.43333333333333335,-0.4066666666666667,-0.29444444444444445,0.11325716200148558,0.1479320919405385,-0.04347009390490494
1592172689.5616844,-0.27,8.78,4.31,-0.4122222222222222,-0.4011111111111111,-0.2644444444444444,0.1090830782496456,0.03599741582238304,-0.05017821599483697
1592172689.5716844,-0.11449918425866416,8.716999555050181,4.305499332575271,-0.4122222222222222,-0.4011111111111111,-0.2644444444444444,0.1621516156155463,0.0822477349856411,0.052905697421877965
1592172689.5816844,-0.009171131198225201,8.664973212810649,4.217513393594675,-0.4122222222222222,-0.4011111111111111,-0.2644444444444444,0.1248387619853304,-0.030922456325784043,0.1034539372745821
1592172689.5916843,-0.010333694688085149,8.720607864393417,4.193647186360501,-0.4122222222222222,-0.4011111111111111,-0.2644444444444444,0.24803984804891788,0.004140985865340198,0.0928298178435144
1592172689.6016843,-0.15087395289248054,8.72887493840544,4.24324963043264,-0.4122222222222222,-0.4011111111111111,-0.2644444444444444,0.2092625391509047,0.04562368840740085,0.13882150979232077
1592172689.6116843,-0.3259008439884773,8.881801687976953,4.2083140445747205,-0.4122222222222222,-0.4066666666666667,-0.24444444444444444,0.07938361559970798,0.047381704492148444,0.03359397166083768
1592172689.6216843,-0.39869598353784014,9.01579732235856,4.1755066941036,-0.4122222222222222,-0.4066666666666667,-0.24444444444444444,0.002275938076489825,-0.01854412330243975,-0.007841466856610578
1592172689.6316843,-0.45,9.05,4.09,-0.4122222222222222,-0.4066666666666667,-0.24444444444444444,-0.08726646259971647,-0.01854412330243975,-0.028361600344907853
1592172689.6416843,-0.3720773681954565,8.628920702957567,4.285539648521217,-0.4122222222222222,-0.4066666666666667,-0.24444444444444444,-0.035364448753456956,-0.06432357468708806,-0.005371862348950613
1592172689.6516843,-0.3990445777968281,8.485095585083585,4.357452207458208,-0.4122222222222222,-0.4066666666666667,-0.24444444444444444,0.18526051888061915,0.04942085307092453,-0.1034274035196511
1592172689.6616843,-0.47,8.59,4.36,-0.43,-0.39444444444444443,-0.23555555555555555,0.24870941840919195,0.00545415391248228,-0.032724923474893676
1592172689.6716843,-0.4997103992979377,8.788069328652917,4.241158402808249,-0.43,-0.39444444444444443,-0.23555555555555555,0.09746733387508483,-0.0896122992232422,-0.024082518644373267
1592172689.6816843,-0.5320681265206813,9.156835551738943,3.994219264348075,-0.43,-0.39444444444444443,-0.23555555555555555,-0.04114260249305046,-0.08631785978957644,-0.04428738629895086
1592172689.6916842,-0.36731865443425077,9.110072171253824,4.034529051987768,-0.43,-0.39444444444444443,-0.23555555555555555,-0.17200720159497004,-0.18953962104506875,0.0884915289500651
1592172689.7016842,-0.24760366972477063,8.921948623853211,4.077284403669725,-0.43,-0.39444444444444443,-0.23555555555555555,-0.03488897162541693,-0.104656907254393,-0.002920624362970317
1592172689.7116842,0.04123519020138971,8.75123519020139,4.1401184783888825,-0.41,-0.39444444444444443,-0.2288888888888889,-0.127403922327026,-0.04948610178477675,0.01794604844378541
1592172689.7216842,0.05,8.76,4.07,-0.41,-0.39444444444444443,-0.2288888888888889,-0.017453292519943295,0.025089107997418484,0.12980886311707826
1592172689.7316842,-0.007936229573535278,8.798624153049024,3.9830956556396973,-0.41,-0.39444444444444443,-0.2288888888888889,0.03310560559253174,-0.006510203322878407,0.05081058481633602
1592172689.7416842,-0.1423243830763657,8.797394629845819,3.999859506461093,-0.41,-0.39444444444444443,-0.2288888888888889,-0.13249762640407386,0.017468617987641506,0.05266173218721529
1592172689.7516842,-0.26895877782697963,8.873375266696188,4.101167022261584,-0.41,-0.39444444444444443,-0.2288888888888889,-0.1601249655874293,0.006417682314299325,-0.03390393058729846
1592172689.7616842,-0.43,8.83,4.17,-0.41,-0.37666666666666665,-0.20777777777777778,-0.20398535632683729,-0.007635815477475192,0.05235987755982988
1592172689.7716842,-0.34037010837986004,8.886669024581261,4.1437010837986,-0.41,-0.37666666666666665,-0.20777777777777778,-0.09150558154263433,0.022991278058132426,-0.0700134896350865
1592172689.7816842,-0.35805941845764855,8.789254108723135,4.255223345975558,-0.41,-0.37666666666666665,-0.20777777777777778,-0.18861650214790962,-0.08191022143762262,-0.12095235604966656
1592172689.7916842,-0.4406210599097084,8.67627364054175,4.416210599097084,-0.41,-0.37666666666666665,-0.20777777777777778,-0.053457585097167803,-0.016768944497817462,-0.01922745090287943
1592172689.8016841,-0.449150567373002,8.625096595761987,4.50150567373002,-0.41,-0.37666666666666665,-0.20777777777777778,-0.03857078621637751,-0.02235149407811382,-0.16344331506053533
1592172689.8116841,-0.44,8.7,4.47,-0.39111111111111113,-0.37666666666666665,-0.20777777777777778,-0.05890486225480862,0.001090830782496456,0.0916297857297023
1592172689.8216841,-0.22344206250251378,8.867340224429874,4.194380806821382,-0.39111111111111113,-0.37666666666666665,-0.20777777777777778,-0.09970789156306159,-0.08266275569233861,0.014318782829854548
1592172689.831684,-0.1317978349567227,8.820998797198179,4.082197353835994,-0.39111111111111113,-0.37666666666666665,-0.20777777777777778,-0.10890875525296637,0.012219666459812609,-0.021119323663212203
1592172689.841684,-0.17968085106382978,8.750446808510638,4.159489361702128,-0.39111111111111113,-0.37666666666666665,-0.20777777777777778,-0.0765670372650172,0.1323224157499371,-0.02181661564992912
1592172689.851684,-0.32568266112589084,8.790467405868304,4.1923739246946425,-0.39111111111111113,-0.37666666666666665,-0.20777777777777778,-0.0021977601997618806,0.003300664958335059,-0.050068194535639605
1592172689.861684,-0.37100465441005354,8.808325575983245,4.2810046544100535,-0.41,-0.3888888888888889,-0.2,-0.06878425543128903,0.05619654545561344,-0.029098272871723417
1592172689.871684,-0.3992468695731652,8.76,4.310188282606708,-0.41,-0.3888888888888889,-0.2,-0.22740855704478102,-0.053122093201195875,0.13884358607185973
1592172689.881684,-0.32257563294031627,8.76,4.329356091764921,-0.41,-0.3888888888888889,-0.2,-0.16886381550895393,-0.019667955180723277,0.17020684046605278
1592172689.891684,-0.24271141195538182,8.69237248546096,4.5038993231003905,-0.41,-0.3888888888888889,-0.2,-0.11525798749991906,-0.06069850878981828,-0.00473412655786179
1592172689.901684,-0.1924745391637508,8.67415817972125,4.517920910139375,-0.41,-0.3888888888888889,-0.2,-0.0806129854790415,-0.14080474531160542,0.002916288343704875
1592172689.911684,-0.08,8.73,4.49,-0.39555555555555555,-0.37666666666666665,-0.20777777777777778,0.05235987755982988,-0.03599741582238304,0.06326818538479445
1592172689.921684,-0.009002269411574004,8.745777273464094,4.411113632679527,-0.39555555555555555,-0.37666666666666665,-0.20777777777777778,-0.05262316934701374,-0.02222914737558388,0.07703645383159362
1592172689.931684,0.04,8.78,4.19,-0.39555555555555555,-0.37666666666666665,-0.20777777777777778,-0.06763150851478027,0.06654067773228381,0.08944812416470939
1592172689.941684,-0.034824067270797614,8.733234957955752,4.283530084088497,-0.39555555555555555,-0.37666666666666665,-0.20777777777777778,-0.06355048872225169,0.005325380844355097,-0.07175215764016955
1592172689.951684,-0.14866242283208644,8.70671519510741,4.390900821201223,-0.39555555555555555,-0.37666666666666665,-0.20777777777777778,-0.022628534278776515,0.04173048188851439,-0.07782318308147841
1592172689.961684,-0.170272399767577,8.73013619988379,4.3895914003486345,-0.39111111111111113,-0.36777777777777776,-0.20777777777777778,0.13083909923205198,-0.00046683247409894807,-0.014060777094607601
1592172689.971684,-0.2092664729808251,8.749633236490412,4.331100290528762,-0.39111111111111113,-0.36777777777777776,-0.20777777777777778,-0.033987650427182714,0.08885863185735728,0.1592731596438134
1592172689.981684,-0.16385184686806162,8.740770369373612,4.182325909977797,-0.39111111111111113,-0.36777777777777776,-0.20777777777777778,0.06157781233881057,0.12376324010171375,0.02661625641443971
1592172689.991684,-0.10527522501184274,8.812966366650876,4.151758408337281,-0.39111111111111113,-0.36777777777777776,-0.20777777777777778,-0.017740184632895464,0.01609975289338185,-0.14889090913130335
1592172690.001684,-0.06992526746381372,8.782406584329767,4.255261563876652,-0.39111111111111113,-0.36777777777777776,-0.20777777777777778,-0.04422348299411577,0.036620275737011,-0.06383563277756926
1592172690.011684,-0.08925967806305707,8.77,4.309506452042037,-0.38352526865031855,-0.36777777777777776,-0.20235931887721165,-0.06507298283615913,-0.07012458724875514,0.1301074375929312
1592172690.021684,-0.20437573738635573,8.789062622897726,4.3862504915909035,-0.38333333333333336,-0.36777777777777776,-0.20222222222222222,-0.05921161819419898,-0.04189451864932065,-0.07480847706514665
1592172690.031684,-0.17321268115107252,8.762409510863304,4.325622192014377,-0.38333333333333336,-0.36777777777777776,-0.20222222222222222,-0.10705935002191524,-0.12362787404965742,-0.0329174392870247
1592172690.041684,-0.07989667533562944,8.714948337667815,4.356041329865748,-0.38333333333333336,-0.36777777777777776,-0.20222222222222222,-0.08570999497585495,-0.017869091728032027,-0.0008411059031409387
1592172690.051684,-0.026189093443289395,8.702698182240548,4.36,-0.38333333333333336,-0.36777777777777776,-0.20222222222222222,-0.019182758828216323,-0.00545415391248228,0.04359990898197723
1592172690.061684,-0.01,8.728371943806565,4.36,-0.38333333333333336,-0.35411721224128356,-0.20222222222222222,0.04150211072613863,-0.07973172910478789,0.060968128232372666
1592172690.071684,-0.1403353567059801,8.748619336672283,4.36,-0.38333333333333336,-0.35333333333333333,-0.20222222222222222,0.04566428585903737,-0.1723448435765192,0.19615165200521356
1592172690.0816839,-0.19614400454900846,8.713084796360794,4.304627194541189,-0.38333333333333336,-0.35333333333333333,-0.20222222222222222,0.09615019345456605,-0.03091046459565691,-0.014301598691121159
1592172690.0916839,-0.19119286104534694,8.613121471498816,4.379264250591877,-0.38333333333333336,-0.35333333333333333,-0.20222222222222222,-0.013007327684344913,-0.02622980192440713,0.0037820499794513768
1592172690.1016839,-0.1030054515287983,8.614499091411867,4.455245911353401,-0.38333333333333336,-0.35333333333333333,-0.20222222222222222,0.004852115638710533,0.048646295543002066,0.07357247270417898
1592172690.1116838,-0.17687774175090598,8.74469069870939,4.497812956958485,-0.38333333333333336,-0.3592709856528281,-0.18341965654382208,0.11752253967457892,0.003611482802371613,-0.020353852418673768
1592172690.1216838,-0.13576151010729465,8.714801258422746,4.454801258422746,-0.38333333333333336,-0.36,-0.1811111111111111,0.03415875655048936,-0.1109650962075855,0.014397593602685013
1592172690.1316838,-0.01541680249615797,8.736442276347042,4.326602710380477,-0.38333333333333336,-0.36,-0.1811111111111111,0.11341482911067405,-0.13947947703878089,-0.020746714513145345
1592172690.1416838,0.11120267415678174,8.82554051858214,4.190243273985004,-0.38333333333333336,-0.36,-0.1811111111111111,-0.004255680852857935,-0.05129707782903434,0.08205992897141054
1592172690.1516838,0.13,8.860799829162703,4.176933276387567,-0.38333333333333336,-0.36,-0.1811111111111111,-0.05794467026979659,0.06837241621579955,0.02472611891852715
1592172690.1616838,0.08730289372264681,8.810224051211707,4.231236527532824,-0.3937704037566863,-0.3543070524963529,-0.1811111111111111,0.07145714733588124,0.030701660030580738,0.015492519022475304
1592172690.1716838,0.0257675607873408,8.77288378039367,4.267116219606329,-0.39555555555555555,-0.35333333333333333,-0.1811111111111111,0.050638324714026794,-0.0013850624934641197,-0.05924293138577914
1592172690.1816838,0.028558544339473742,8.812792721697368,4.090270568871051,-0.39555555555555555,-0.35333333333333333,-0.1811111111111111,-0.025138126638475415,0.019133724337771652,-0.02095189042048648
1592172690.1916838,0.005258090708734484,8.87773112167962,4.068247303097088,-0.39555555555555555,-0.35333333333333333,-0.1811111111111111,-0.0065004454958790085,0.028305293686955075,-0.06346987709889945
1592172690.2016838,-0.08912538128750574,8.842009410075958,4.111134791363464,-0.39555555555555555,-0.35333333333333333,-0.1811111111111111,-0.07777656752811589,-0.0199057751885154,-0.06221086743620271
1592172690.2116838,-0.07045051194539248,8.726422233057047,4.1385070697220865,-0.3851580258952273,-0.35333333333333333,-0.1688231215125413,-0.02064866616267305,-0.05367812874339678,-0.06600297421151155
1592172690.2216837,0.021920470247625737,8.824688658346675,4.099039764876187,-0.38333333333333336,-0.35333333333333333,-0.16666666666666666,0.0045728139362836975,-0.060994052147080965,0.05389995558648522
1592172690.2316837,0.07254545015572564,8.915090900311451,4.016772737149617,-0.38333333333333336,-0.35333333333333333,-0.16666666666666666,-0.03250675205109782,-0.01070006525519708,-0.1615767978152373
1592172690.2416837,0.1039128004471772,8.898116266070431,4.119564002235887,-0.38333333333333336,-0.35333333333333333,-0.16666666666666666,-0.13796539938172614,-0.0441228551781951,-0.13273441152088933
1592172690.2516837,0.04638511932615816,8.741565278427702,4.411527842770239,-0.38333333333333336,-0.35333333333333333,-0.16666666666666666,-0.06461245439073943,-0.1165440647411568,-0.023366851067075464
1592172690.2616837,-0.05041980557031665,8.618382670125973,4.564012378481448,-0.3774650162024736,-0.35333333333333333,-0.17253498379752638,-0.0777695413443838,0.003182371195973671,0.02077157855130915
1592172690.2716837,-0.07617001112530389,8.631560014833738,4.564609996291566,-0.37666666666666665,-0.35333333333333333,-0.17333333333333334,0.049557625916385906,-0.03471245680429377,0.010057451724068028
1592172690.2816837,-0.03871032297515148,8.795320751570404,4.243713658346768,-0.37666666666666665,-0.35333333333333333,-0.17333333333333334,-0.06747023971351007,0.011118239236883112,-0.0317040698297034
1592172690.2916837,0.014224978923280743,8.86422497892328,4.234224978923281,-0.37666666666666665,-0.35333333333333333,-0.17333333333333334,-0.1889127629047644,-0.06535380969795009,0.06325504759384544
1592172690.3016837,0.003174623683700497,8.819523871051102,4.265238064474449,-0.37666666666666665,-0.35333333333333333,-0.17333333333333334,-0.1661266430932974,-0.0040344319056230815,0.0414862417902299
1592172690.3116837,-0.02,8.71051610144403,4.355277457978356,-0.37666666666666665,-0.35333333333333333,-0.1908817326915416,0.047121191521723144,0.004052195413297988,-0.08407143821905089
1592172690.3216836,-0.04459174026333387,8.71639449350889,4.410986233772223,-0.37666666666666665,-0.35333333333333333,-0.19555555555555557,0.0022116948150286836,-0.018937423049139188,0.007947039432828998
1592172690.3316836,-0.15963603818615754,8.727831145584727,4.373013126491647,-0.37666666666666665,-0.35333333333333333,-0.19555555555555557,-0.07212500238253416,-0.03392054170129343,-0.03219773198693298
1592172690.3416836,-0.3581867591490243,8.704771986127646,4.435684041617061,-0.37666666666666665,-0.35333333333333333,-0.19555555555555557,0.0833544009021915,0.08290669671075228,-0.055682114817479166
1592172690.3516836,-0.4892804928782266,8.671634144891936,4.5209146377701614,-0.37666666666666665,-0.35333333333333333,-0.19555555555555557,0.06612030626668618,0.022266246508135565,-0.06755302246311468
1592172690.3616836,-0.4343168474792597,8.59041225271219,4.5152061263560945,-0.389231121038077,-0.34270187194213997,-0.17622562575338582,0.13026305108391922,0.03354593548821616,0.04945869927703968
1592172690.3716836,-0.35388245770258236,8.599835262689226,4.39760017809439,-0.39111111111111113,-0.3411111111111111,-0.17333333333333334,0.19338496778775996,-0.05195676556095542,0.04166721037040781
1592172690.3816836,-0.27782623988744287,8.778695040450229,4.112261695392192,-0.39111111111111113,-0.3411111111111111,-0.17333333333333334,0.05640128474661682,-0.04222010088412329,-0.008441948250610988
1592172690.3916836,-0.2250692868719611,8.949784440842787,4.040046191247974,-0.39111111111111113,-0.3411111111111111,-0.17333333333333334,0.007664368017406015,-0.04579305856960993,-0.053391923701292296
1592172690.4016836,-0.14045184145444822,8.931807365817793,4.102279036606288,-0.39111111111111113,-0.3411111111111111,-0.17333333333333334,-0.0698667844261,-0.05999569303730508,-0.0024730650157901574
1592172690.4116836,-0.11216306841578916,8.693261368315783,4.2440431790105295,-0.39459419181520483,-0.34633573216725166,-0.16810871227719276,0.05352135983309221,-0.049737173582454004,0.004308906722929114
1592172690.4216835,-0.10235720441036746,8.65,4.323499569127428,-0.39555555555555555,-0.3477777777777778,-0.16666666666666666,0.009288343247295106,-0.00021854216375136876,-0.13910323212161804
1592172690.4316835,-0.1688640700689925,8.810682830160982,4.209923423203014,-0.39555555555555555,-0.3477777777777778,-0.16666666666666666,-0.017453292519943295,-0.054260998605529305,-0.10904131208595702
1592172690.4416835,-0.19,8.86721046882315,4.206052344115745,-0.39555555555555555,-0.3477777777777778,-0.16666666666666666,-0.00014940955319477783,0.004959769762669472,-0.03535481369947093
1592172690.4516835,-0.19,8.821087566220005,4.250570271112496,-0.39555555555555555,-0.3477777777777778,-0.16666666666666666,0.03989197745375166,-0.0053528551984953834,-0.0973052331415318
1592172690.4616835,-0.05051202016867254,8.741179207059036,4.276974398991566,-0.3637832934828643,-0.3477777777777778,-0.16201706733895574,-0.018035522918092003,-0.03619882615804493,-0.04673731422494112
1592172690.4716835,0.03277809551043752,8.773148889524354,4.264814602993042,-0.35,-0.3477777777777778,-0.16,0.043715373737964434,0.021453837211255003,-0.08997456361297738
1592172690.4816835,0.04,8.811571031772916,4.21685793645417,-0.35,-0.3477777777777778,-0.16,-0.029357026849902573,-0.03179898714981952,-0.1452617942224063
1592172690.4916835,0.011406140202088733,8.784257675252611,4.2643361845453,-0.35,-0.3477777777777778,-0.16,-0.03394344825313126,-0.08182943675786973,-0.10686287852572274
1592172690.5016835,-0.046592422458551275,8.723407577541447,4.3948329505317405,-0.35,-0.3477777777777778,-0.16,-0.02979984381470959,-0.04733817359566895,-0.017382845707524436
1592172690.5116835,-0.12067365469355054,8.669663172653225,4.510673654693551,-0.36807717986380023,-0.3515438569160695,-0.15397427337873326,0.017632378705960045,0.033921356115757056,-0.05157441822018346
1592172690.5216835,-0.15434173420672812,8.69585433551682,4.508487398689908,-0.37666666666666665,-0.35333333333333333,-0.1511111111111111,0.053019874388107076,0.015574137575192375,0.008494407211618676
1592172690.5316834,-0.12542996495880293,8.744570035041198,4.3893758878681695,-0.37666666666666665,-0.35333333333333333,-0.1511111111111111,0.006945923634922739,0.07432928596734138,-0.015356343640019712
1592172690.5416834,-0.03322388275912021,8.753020352978101,4.270203529781019,-0.37666666666666665,-0.35333333333333333,-0.1511111111111111,0.0936030467060307,0.015106158833305114,0.01423023375073313
1592172690.5516834,0.0056960114566601515,8.77278404582664,4.25708803436998,-0.37666666666666665,-0.35333333333333333,-0.1511111111111111,0.1003301708185899,-0.03254516955867133,0.05045400051175168
1592172690.5616834,0.04593798449612403,8.79,4.252031007751938,-0.3806597760551249,-0.35732644272179154,-0.16042836635084695,0.06981317007977318,-0.07346111116170319,0.051064410304958126
1592172690.5716834,0.09663979615473708,8.809979847116052,4.180060458651842,-0.38333333333333336,-0.36,-0.16666666666666666,0.07271912104827497,-0.021529214461137952,-0.044269587158704445
1592172690.5816834,0.11,8.82,4.123304883371321,-0.38333333333333336,-0.36,-0.16666666666666666,-0.005903107932706694,-0.025861327955853258,0.01975133193865289
1592172690.5916834,0.08943583640955896,8.826854721196813,4.151128327180882,-0.38333333333333336,-0.36,-0.16666666666666666,-0.054787701929149515,-0.0708332144854766,0.10931999537826095
