time,acc_x,acc_y,acc_z,mag_x,mag_y,mag_z,gyr_x,gyr_y,gyr_z
1592172789.7015889,-0.04,9.116332868803504,3.4783356559824803,-0.31777777777777777,-0.30666666666666664,-0.18444444444444444,0.011339167524839724,0.018107182921316346,0.11057545116171322
1592172789.7115889,-0.04680400056213988,9.09958799831358,3.4872160022485597,-0.31777777777777777,-0.30666666666666664,-0.18444444444444444,-0.027100606705536275,-0.023109035762867724,0.05067388557792667
1592172789.7215889,-0.022537944955552967,9.09549241100889,3.510984822017779,-0.31777777777777777,-0.30666666666666664,-0.18444444444444444,-0.058260297751444576,-0.05071535308097367,-0.018370469444320192
1592172789.7315888,-0.01795932073299434,9.088027119511336,3.543945760977326,-0.31777777777777777,-0.302675706503779,-0.1804534842815568,0.05800038914413077,0.02142391098657044,-0.09329228314793285
1592172789.7415888,-0.023306690349319124,9.093386619301361,3.56,-0.31777777777777777,-0.3,-0.17777777777777778,-0.0060034443686771966,0.08914845247549781,-0.050638057035178874
1592172789.7515888,-0.033199836337818,9.067000409155455,3.520400490986546,-0.31777777777777777,-0.3,-0.17777777777777778,0.0021370821366389486,-0.023865877887955564,0.0027050104017467304
1592172789.7615888,-0.046522228474957794,9.063044456949916,3.539133370849747,-0.31777777777777777,-0.3,-0.17777777777777778,-0.04534713087483297,-0.040641887235083204,-0.022483268564836914
1592172789.7715888,-0.08785395141022061,9.064592292655684,3.5924462440659033,-0.31777777777777777,-0.3,-0.17777777777777778,-0.01966328339595888,-0.042317593726665784,-0.001339093024254244
1592172789.7815888,-0.12,9.06,3.654565495402229,-0.3216183883780254,-0.30832132296720327,-0.1854589989782731,0.026369527176068948,0.04310053706413332,0.07168686675178432
1592172789.7915888,-0.10161914549350592,9.066126951502165,3.6554921939913414,-0.3244444444444444,-0.31444444444444447,-0.19111111111111112,-0.05022634859900626,0.02392607830866811,0.09099957776768014
1592172789.8015888,-0.12077685194594046,9.051533888832436,3.572290925718931,-0.3244444444444444,-0.31444444444444447,-0.19111111111111112,-0.012399069251018302,-0.034150396888459826,0.09717084253147197
1592172789.8115888,-0.18524507558405864,9.046463582226295,3.536463582226294,-0.3244444444444444,-0.31444444444444447,-0.19111111111111112,0.0582402699777952,-0.02599355312628637,-0.07930284822470683
1592172789.8215888,-0.23634858379380966,9.07634858379381,3.54,-0.3244444444444444,-0.31444444444444447,-0.19111111111111112,0.0675138223775752,-0.013710055623633633,-0.09893507260943624
1592172789.8315887,-0.2428885041325014,9.1,3.5628153278233317,-0.31240302142657506,-0.31444444444444447,-0.1873085564738892,0.05176163290344654,0.025655423465565028,-0.02617993877991494
1592172789.8415887,-0.23207050048123196,9.104141000962464,3.586211501443696,-0.30333333333333334,-0.31444444444444447,-0.18444444444444444,0.04867897984719026,0.022888023555162642,-0.05079830447502173
1592172789.8515887,-0.27477828906086593,9.091018092449278,3.540443421878268,-0.30333333333333334,-0.31444444444444447,-0.18444444444444444,0.09279762035848457,-0.048363777216798264,-0.08374864170194907
1592172789.8615887,-0.3,9.08214632886426,3.5021463288642605,-0.30333333333333334,-0.31444444444444447,-0.18444444444444444,-0.08276193516571077,-0.12333029285350229,0.0243281210435395
1592172789.8715887,-0.2852471579275783,9.099835228048281,3.5198352280482808,-0.30333333333333334,-0.31444444444444447,-0.18444444444444444,-0.07792466460857081,-0.1430633834680441,0.03540985232756215
1592172789.8815887,-0.26490126192081687,9.11,3.53,-0.31409733594494216,-0.30707960055229105,-0.18444444444444444,-0.0010339827473042212,-0.07479341523307437,0.059981927616583844
1592172789.8915887,-0.19768190418350423,9.091304571255051,3.5113045712550512,-0.3244444444444444,-0.3,-0.18444444444444444,-0.034685468281798616,-0.07166259594429258,0.04410833421197029
1592172789.9015887,-0.17189940528329722,9.074050297358351,3.4881005947167028,-0.3244444444444444,-0.3,-0.18444444444444444,0.014942435514342683,-0.02039080612776141,-0.018586718557281598
1592172789.9115887,-0.1500479292122404,9.064009585842449,3.4979712424726555,-0.3244444444444444,-0.3,-0.18444444444444444,0.0009374951245120153,-0.06530868376753729,-0.048407791065998185
1592172789.9215887,-0.13484920725016084,9.069698414500323,3.5245476217504823,-0.3244444444444444,-0.3,-0.18444444444444444,-0.034643402042603605,-0.055060103741332536,-0.02716687501972613
1592172789.9315886,-0.14,9.08,3.57591423430018,-0.3214515915860961,-0.3029928528583483,-0.18743729730279277,-0.09211396727658586,-0.009858732118269362,0.057474242690733
1592172789.9415886,-0.16751590448091463,9.074496819103818,3.62,-0.31777777777777777,-0.30666666666666664,-0.19111111111111112,-0.04417107846167784,-0.10775597287598376,0.005933642733757585
1592172789.9515886,-0.16199111066719937,9.07,3.5583804434678385,-0.31777777777777777,-0.30666666666666664,-0.19111111111111112,0.061965006500511566,-0.09754431773561634,-0.06404621401222226
1592172789.9615886,-0.1342654095462581,9.075734590453742,3.515734590453742,-0.31777777777777777,-0.30666666666666664,-0.19111111111111112,0.01130128973845132,-0.050338478770730916,-0.017039741021872043
1592172789.9715886,-0.13469688017017253,9.084696880170172,3.562271921531553,-0.31777777777777777,-0.30666666666666664,-0.19111111111111112,0.0028750648714273783,-0.07586185383967613,0.004363323129985824
1592172789.9815886,-0.13515360784819933,9.080307215696399,3.6051536078481994,-0.3107774335585101,-0.3034357385654662,-0.18788018300991066,0.018391629467736814,-0.14856497115464753,-0.01995500808888799
1592172789.9915886,-0.1356690863763015,9.071619738964658,3.6008098694823287,-0.30333333333333334,-0.3,-0.18444444444444444,-0.0031955471053159105,-0.18371648382522152,-0.0514688484560749
1592172790.0015886,-0.16688011663115399,9.09,3.562685880901648,-0.30333333333333334,-0.3,-0.18444444444444444,0.08430946342123669,-0.09042408558477856,-0.05162955797123463
1592172790.0115886,-0.1191528838495057,9.10627067422574,3.520847116150494,-0.30333333333333334,-0.3,-0.18444444444444444,-0.03320279761706403,-0.10061670729117154,0.006619349066835192
1592172790.0215886,-0.09690024748134146,9.089433910789797,3.5430997525186583,-0.30333333333333334,-0.3,-0.18444444444444444,-0.07383536546656469,-0.04026661422362607,-0.05628225141857797
1592172790.0315886,-0.07206839895332562,9.046034199476663,3.5718974015700113,-0.30333333333333334,-0.29735613298444186,-0.18708831146000257,-0.01019232773490147,-0.005942714404125553,-0.07437988306660615
1592172790.0415885,-0.0812243526673226,9.066530440834153,3.616530440834153,-0.30333333333333334,-0.29333333333333333,-0.19111111111111112,-0.0045412758467291425,-0.04766229755427839,0.07003533611493067
1592172790.0515885,-0.1302923264311815,9.064756394640682,3.6097076735688187,-0.30333333333333334,-0.29333333333333333,-0.19111111111111112,-0.016288056714523817,-0.12190930840656343,0.11601935364553201
1592172790.0615885,-0.1886767553611131,9.030441081546295,3.6182356738148176,-0.30333333333333334,-0.29333333333333333,-0.19111111111111112,0.04653731497240133,-0.14949193173484351,0.11651853385951888
1592172790.0715885,-0.2356784154709919,9.063115642545228,3.66,-0.30333333333333334,-0.29333333333333333,-0.19111111111111112,0.042767048372677835,-0.11543067735270425,0.09098837825033437
1592172790.0815885,-0.2734127479106898,9.136706373955345,3.6566468130223275,-0.3122751652737932,-0.3004122836195307,-0.18179670283979876,-0.04501837005073936,-0.07825850255119407,0.03058224444940248
1592172790.0915885,-0.3,9.107252590375317,3.6452502878194797,-0.33,-0.31444444444444447,-0.16333333333333333,0.02170489528795481,-0.10995549170576423,-0.04185545089955662
1592172790.1015885,-0.29076206563706564,9.050762065637066,3.593810328185328,-0.33,-0.31444444444444447,-0.16333333333333333,0.053689933008140234,-0.08531386496979317,-0.10158811787634844
1592172790.1115885,-0.2939828216200826,9.049321881080054,3.5260171783799175,-0.33,-0.31444444444444447,-0.16333333333333333,0.00338394105791099,-0.09245185585055962,-0.061086523819801536
1592172790.1215885,-0.3288410993952551,9.044927120483797,3.5175364397581017,-0.33,-0.31444444444444447,-0.16333333333333333,0.016600959396513362,-0.15935669330810917,-0.0027175624219698616
1592172790.1315885,-0.4009150736446255,9.016590410529615,3.5402287684111564,-0.32583272398064,-0.31444444444444447,-0.16825829590166788,0.09296777121471989,-0.19942478801932073,0.09901844650465637
1592172790.1415884,-0.48,9.01,3.56,-0.31777777777777777,-0.31444444444444447,-0.17777777777777778,0.08290313946973066,-0.21380283336930533,0.1090830782496456
1592172790.1515884,-0.5577738872088706,9.133886943604436,3.4066783383733887,-0.31777777777777777,-0.31444444444444447,-0.17777777777777778,0.08541985142547444,-0.14386633789309206,-0.04024887222720755
1592172790.1615884,-0.578958945671755,9.14,3.3744794728358776,-0.31777777777777777,-0.31444444444444447,-0.17777777777777778,0.028705490773636468,-0.12659154837672476,-0.08371487602006947
1592172790.1715884,-0.5601802485911834,9.136272531073898,3.387454937852204,-0.31777777777777777,-0.31444444444444447,-0.17777777777777778,0.05606728969014907,-0.11456790237736651,-0.1112317153824519
1592172790.1815884,-0.46421967467079783,9.13,3.4,-0.3199577932696445,-0.3184411395128669,-0.17523442637059988,0.033737376671499834,-0.15469078931134558,-0.02438019473133442
1592172790.1915884,-0.34141160670106735,9.158588393298933,3.385705803350534,-0.3244444444444444,-0.32666666666666666,-0.17,0.050575881786566315,-0.15280601053277268,-0.07563957022167739
1592172790.2015884,-0.31903278988825795,9.180967210111742,3.356450815167613,-0.3244444444444444,-0.32666666666666666,-0.17,-0.01900371494921423,-0.11520513871836427,-0.11577023662144173
1592172790.2115884,-0.32574576231116575,9.144474573866994,3.3527627130665025,-0.3244444444444444,-0.32666666666666666,-0.17,-0.07069323086805362,-0.06060951261424497,-0.06386905909888146
1592172790.2215884,-0.3513192471590909,9.11347991635101,3.3943594144570706,-0.3244444444444444,-0.32666666666666666,-0.17,-0.029095879588491726,0.0021378458399068405,0.08035849173822164
1592172790.2315884,-0.40710594819731877,9.117105948197318,3.4486821554080436,-0.3205857087075361,-0.3208785630613042,-0.17610966491677152,0.034799532272738035,0.0037347785674305967,0.1315057346642612
1592172790.2415884,-0.4,9.11,3.47,-0.3111111111111111,-0.30666666666666664,-0.19111111111111112,-0.04581489286485115,-0.0272707695624114,0.09817477042468103
1592172790.2515883,-0.34263752419690774,9.061318762098454,3.5074724951606187,-0.3111111111111111,-0.30666666666666664,-0.19111111111111112,0.03267691847414968,0.06167394358670077,-0.018891838811726375
1592172790.2615883,-0.27221279326820225,9.057255223561292,3.5433616201953932,-0.3111111111111111,-0.30666666666666664,-0.19111111111111112,0.0477459192746559,0.06038090262404989,0.021217798323846418
1592172790.2715883,-0.2852793654496676,9.106319841362417,3.5894797620436254,-0.3111111111111111,-0.30666666666666664,-0.19111111111111112,0.025368654857227738,0.10662606875355245,0.029853874160038898
1592172790.2815883,-0.3468775226401655,9.12,3.6145850150934438,-0.317224464569036,-0.3112516817601103,-0.19289417253633923,0.005501623162353153,0.13591829987013967,0.034863518627688855
1592172790.2915883,-0.3994382932166302,9.077945295404813,3.608972647702407,-0.3377777777777778,-0.32666666666666666,-0.1988888888888889,0.020328311909224107,0.09777729746647248,0.05305323538411778
1592172790.3015883,-0.45169532550047903,9.039492209167465,3.533218697998084,-0.3377777777777778,-0.32666666666666666,-0.1988888888888889,-0.023001232246764557,0.08591655194300499,0.0781895909556414
1592172790.3115883,-0.49011723621850833,9.074023447243702,3.4640234472437017,-0.3377777777777778,-0.32666666666666666,-0.1988888888888889,-0.04691415860725217,0.07438954397121941,0.06619538856715834
1592172790.3215883,-0.5779759326113116,9.093641395908543,3.50410348977136,-0.3377777777777778,-0.32666666666666666,-0.1988888888888889,-0.029912129009510516,0.009099707762240589,0.01464049805456014
1592172790.3315883,-0.7054802814596629,9.158700703649156,3.566129929635084,-0.33691776214112984,-0.32408661975672287,-0.2014689357988327,-0.10626666062794225,-0.04868039876428097,0.03611433517478612
1592172790.3415883,-0.73,9.22,3.56,-0.33555555555555555,-0.32,-0.20555555555555555,-0.11562806294462433,0.05563236990731925,-0.04145156973486533
1592172790.3515882,-0.6893048359240069,9.13582901554404,3.599304835924007,-0.33555555555555555,-0.32,-0.20555555555555555,-0.15817046346198613,-0.007009702472208083,0.022652793650443814
1592172790.3615882,-0.6308395544356263,9.00219979747074,3.5728799189882956,-0.33555555555555555,-0.32,-0.20555555555555555,-0.1135113430987316,-0.05136987598914839,-0.020149658311159013
1592172790.3715882,-0.537485491738485,9.012214702990342,3.5318568646731063,-0.33555555555555555,-0.32,-0.20555555555555555,-0.026585043808785836,-0.14679797366774477,-0.01862852193606341
1592172790.3815882,-0.4707361395625454,9.121543976739575,3.4615439767395757,-0.332467602076404,-0.32102931782638383,-0.2033253669317239,-0.03297155517530415,-0.1921311764654015,-0.11422958227250289
1592172790.3915882,-0.39710084033613446,9.099467787114847,3.47,-0.31555555555555553,-0.32666666666666666,-0.19111111111111112,-0.12674643972280075,-0.14875326326127442,-0.21002770330831272
1592172790.4015882,-0.37429377485893994,9.07858754971788,3.44141245028212,-0.31555555555555553,-0.32666666666666666,-0.19111111111111112,-0.0805643260275998,-0.2327135771183459,-0.09272369396468845
1592172790.4115882,-0.4134145358894761,9.150121803834214,3.4168290717789525,-0.31555555555555553,-0.32666666666666666,-0.19111111111111112,-0.10379500855189683,-0.34285391302258394,-0.06961386902209296
1592172790.4215882,-0.42399600744764576,9.181998003723823,3.4860039925523543,-0.31555555555555553,-0.32666666666666666,-0.19111111111111112,-0.12820150154445176,-0.21904012768499095,-0.041315344135101
1592172790.4315882,-0.3605919154591721,9.144230931310577,3.544556063405621,-0.3197336848664282,-0.3258579964774655,-0.19569357551658437,-0.05110762687645832,-0.23542256270859424,-0.14766229311748216
1592172790.4415882,-0.2565992374971967,9.033327203408835,3.6333639829558195,-0.35,-0.32,-0.2288888888888889,-0.0720269278543789,-0.24653377488350142,-0.20031582016683572
1592172790.4515882,-0.3210008859575725,9.04,3.5760023625535267,-0.35,-0.32,-0.2288888888888889,-0.032507208318964004,-0.283175418844995,-0.23965523298553373
1592172790.4615881,-0.29684677739622023,9.04315322260378,3.532612890415119,-0.35,-0.32,-0.2288888888888889,-0.042454409331528616,-0.3726216489138728,-0.19699705200836023
1592172790.4715881,-0.23651143099068583,9.05,3.613488569009314,-0.35,-0.32,-0.2288888888888889,-0.07726412358479433,-0.3588108868825351,-0.10139536243253305
1592172790.4815881,-0.0854393381683006,9.053626225445534,3.7790655636138344,-0.3510072848459816,-0.32,-0.2300976307040668,-0.049578793765948106,-0.3620371120838584,-0.13299158922283588
1592172790.491588,-0.11,9.07,3.82,-0.35555555555555557,-0.32,-0.23555555555555555,-0.056723200689815706,-0.23343778745424157,-0.11780972450961724
1592172790.501588,-0.14306941960656805,8.999361892375223,3.875258494553731,-0.35555555555555557,-0.32,-0.23555555555555555,-0.025344657852332714,-0.3241530203721516,-0.04340765224680418
1592172790.511588,-0.27,8.95,3.84,-0.35555555555555557,-0.32,-0.23555555555555555,0.039269908169872414,-0.1810779098944117,-0.074176493209759
1592172790.521588,-0.32327756293899457,8.955574145687002,3.8333612185305026,-0.35555555555555557,-0.32,-0.23555555555555555,0.025123113060877257,-0.3165209385383831,-0.1215898823234772
1592172790.531588,-0.365789957134109,8.94421004286589,3.804105939987753,-0.3543393209498537,-0.32102912158944,-0.23555555555555555,0.09854216597298052,-0.2736829638068726,-0.1975559342315964
1592172790.541588,-0.35284572594553887,9.041093351470838,3.6779580732139823,-0.3411111111111111,-0.3322222222222222,-0.23555555555555555,0.06830137035026769,-0.3388344792950721,-0.11289744854554151
1592172790.551588,-0.41,9.13,3.57,-0.3411111111111111,-0.3322222222222222,-0.23555555555555555,0.008726646259971648,-0.33052172709642613,-0.08726646259971647
1592172790.561588,-0.3611568262823493,9.101156826282349,3.42,-0.3411111111111111,-0.3322222222222222,-0.23555555555555555,0.052636543665623446,-0.30783392312436375,-0.17925422384267875
1592172790.571588,-0.27351356688652795,9.085781428966389,3.4315628579327777,-0.3411111111111111,-0.3322222222222222,-0.23555555555555555,0.058410091501374856,-0.32445359042469757,-0.13884833856902853
1592172790.581588,-0.12620769067604012,9.109004272597799,3.46720341807824,-0.3421115858442,-0.3356238363147244,-0.2331544161961422,-0.0019737489071370053,-0.27673584636130827,0.012740814953561302
1592172790.591588,-0.2,9.15,3.5,-0.3466666666666667,-0.3511111111111111,-0.2222222222222222,-0.10035643198967394,-0.20071286397934787,-0.1974403716318585
1592172790.601588,-0.24,9.084535080634655,3.569070161269312,-0.3466666666666667,-0.3511111111111111,-0.2222222222222222,-0.0491556207517401,-0.14078955574789484,-0.10096086074933668
1592172790.611588,-0.24755206718038028,9.05244793281962,3.530069422907174,-0.3466666666666667,-0.3511111111111111,-0.2222222222222222,0.025645882685290035,-0.08294100379180838,-0.10541481915977947
1592172790.621588,-0.26373625722914157,9.040439571284763,3.5558241714860945,-0.3466666666666667,-0.3511111111111111,-0.2222222222222222,0.04420862876608478,-0.11133667526347338,-0.042338608531961607
1592172790.631588,-0.23452957341010205,9.07878434964669,3.5387843496466895,-0.34740956410480095,-0.35198908081072433,-0.2218845415685248,0.09068883355511231,-0.15920134280131998,-0.015833818476131002
1592172790.641588,-0.13792939888716593,9.047929398887167,3.52,-0.35888888888888887,-0.3655555555555556,-0.21666666666666667,0.02386867700565435,-0.13174726931807335,-0.17595997026762267
1592172790.651588,-0.1619258987527513,9.056348129126926,3.4706703961848864,-0.35888888888888887,-0.3655555555555556,-0.21666666666666667,0.01642308567858705,-0.036262020317953766,-0.1287071280283371
1592172790.661588,-0.2916438030479542,9.155410950761988,3.348356196952046,-0.35888888888888887,-0.3655555555555556,-0.21666666666666667,-0.07768802379509981,-0.16244413104371844,-0.08087086059433568
1592172790.671588,-0.2205066820689518,9.14189866358621,3.421391981517258,-0.35888888888888887,-0.3655555555555556,-0.21666666666666667,-0.014455935726429012,-0.14820175311319927,0.003645415735359105
1592172790.681588,-0.1736671769079379,9.147229389897223,3.473958014432539,-0.3578334183735452,-0.3660393128750881,-0.2169305342955026,-0.1339765857131373,-0.07736001116803536,-0.011662562566765084
1592172790.691588,-0.058749077320538856,9.085166543642739,3.5751665436427382,-0.3322222222222222,-0.37777777777777777,-0.22333333333333333,-0.1692063435343039,-0.17318775511195694,-0.08910254679880225
1592172790.701588,-0.15646637329216875,9.106766813353916,3.5674439554869477,-0.3322222222222222,-0.37777777777777777,-0.22333333333333333,-0.14183245575655018,-0.13257312377358677,-0.09509109939527786
1592172790.711588,-0.11193302856612443,9.120334857169379,3.5151293713596177,-0.3322222222222222,-0.37777777777777777,-0.22333333333333333,-0.17562375598192942,-0.07343432933831785,-0.030925140015039453
1592172790.721588,-0.1014060041036674,9.071418155740155,3.6528970696627425,-0.3322222222222222,-0.37777777777777777,-0.22333333333333333,-0.15206438392736643,-0.07962534497058628,0.06887968716667764
1592172790.731588,0.007213490308571907,9.021286081396044,3.845070021315166,-0.3322222222222222,-0.37777777777777777,-0.22333333333333333,-0.014438932383559228,-0.05410539369093992,0.07617110181800518
1592172790.7415879,0.04,9.17,3.79,-0.35,-0.37777777777777777,-0.27111111111111114,-0.12326387842209952,0.05999569303730508,0.04799655442984406
1592172790.7515879,0.12326479066575154,8.982043651338367,3.8502056280027452,-0.35,-0.37777777777777777,-0.27111111111111114,-0.04083178019815849,0.07415268509796533,0.031345250883277706
1592172790.7615879,0.11304871167951853,8.863048711679518,3.8323415459845775,-0.35,-0.37777777777777777,-0.27111111111111114,0.06947260602129206,0.13376248358152987,0.02484968736112483
1592172790.7715878,0.037829056415376934,8.779145282076884,3.933025661507738,-0.35,-0.37777777777777777,-0.27111111111111114,0.07732594986559505,0.17062832827249877,0.05909133277898575
1592172790.7815878,0.03266137651821862,8.756855384615385,3.9675802429149796,-0.3504928475033738,-0.3784677642825011,-0.2707168331084121,0.15530275324486312,0.21578229818714922,0.06859921232474231
1592172790.7915878,0.06,8.93,3.84,-0.35555555555555557,-0.38555555555555554,-0.26666666666666666,0.19307704850187268,0.2585268954516601,0.07853981633974483
1592172790.8015878,0.061789093146681025,8.99821090685332,3.6719490808399353,-0.35555555555555557,-0.38555555555555554,-0.26666666666666666,0.2678144373181996,0.2035077770010954,0.147882538900292
1592172790.8115878,0.07543535370269566,8.978478451234233,3.6082585851892173,-0.35555555555555557,-0.38555555555555554,-0.26666666666666666,0.35738859521770544,0.25167394397552023,0.12087018473591656
1592172790.8215878,0.028493351297522118,8.995091090152892,3.71,-0.35555555555555557,-0.38555555555555554,-0.26666666666666666,0.3797478597306553,0.26256456470795,0.06972258168780322
1592172790.8315878,-0.11892507761701128,9.167079257219847,3.71,-0.35555555555555557,-0.38555555555555554,-0.26666666666666666,0.298450198757218,0.4323069337733685,0.14387319554269662
1592172790.8415878,-0.2,9.15,3.74,-0.3411111111111111,-0.37777777777777777,-0.28888888888888886,0.18653206380689397,0.284706834231575,0.05017821599483697
1592172790.8515878,-0.29714030703320243,9.099553730810424,3.7459835772938237,-0.3411111111111111,-0.37777777777777777,-0.28888888888888886,0.1597987260473548,0.5197152466575439,0.2007903632030954
1592172790.8615878,-0.4337392783724392,9.083031119302474,3.6437392783724394,-0.3411111111111111,-0.37777777777777777,-0.28888888888888886,0.05403474781919568,0.34498051242965666,0.17892377620625782
1592172790.8715878,-0.41800353783066657,9.0657005306746,3.5880998231084664,-0.3411111111111111,-0.37777777777777777,-0.28888888888888886,0.04655611751250553,0.28291872076669156,0.052395246017901895
1592172790.8815877,-0.5841500881390078,9.090518761017377,3.5758499118609923,-0.34162987212848706,-0.37852709924732086,-0.28842776798455466,0.02843741734212997,0.3221346091283622,0.16976387125460268
1592172790.8915877,-0.66,9.1,3.5,-0.3511111111111111,-0.39222222222222225,-0.28,0.14944381720201447,0.32834006553143325,0.10253809355466686
1592172790.9015877,-0.6293474093198027,9.108411339178446,3.4314041052120343,-0.3511111111111111,-0.39222222222222225,-0.28,-0.04349085809939233,0.3316140078214264,0.18098659140018414
1592172790.9115877,-0.5122032655350172,9.090254081918772,3.2897459180812283,-0.3511111111111111,-0.39222222222222225,-0.28,-0.016658232799862192,0.2623545085092463,0.16183138031583258
1592172790.9215877,-0.48896400419368613,9.046414398322526,3.334482002096843,-0.3511111111111111,-0.39222222222222225,-0.28,-0.004754451598341832,0.36379886432938324,0.19000251358311
1592172790.9315877,-0.5703972352735603,9.013841105890576,3.37519861763678,-0.3511111111111111,-0.39222222222222225,-0.28,-0.008307646605544786,0.2003518939980473,0.06297579207560436
1592172790.9415877,-0.5988619415827272,9.082276116834546,3.504552233669091,-0.34444444444444444,-0.38555555555555554,-0.31777777777777777,0.024014545943752602,0.16069604595445727,0.15435867526817018
1592172790.9515877,-0.578421681944998,9.101654045436428,3.534210840972499,-0.34444444444444444,-0.38555555555555554,-0.31777777777777777,0.09446838046024011,0.2788505207041827,0.0552797737476522
1592172790.9615877,-0.43783536512915566,9.111484755590409,3.4675670730258314,-0.34444444444444444,-0.38555555555555554,-0.31777777777777777,-0.05807742662881858,0.30808054271301943,0.03873912584287454
1592172790.9715877,-0.3595066323122435,9.057605305849796,3.4585559690810195,-0.34444444444444444,-0.38555555555555554,-0.31777777777777777,-8.402696895038961e-05,0.1177519715829898,0.03594359775629366
1592172790.9815876,-0.43955816394694147,9.121646531157554,3.5306023475522474,-0.34444444444444444,-0.38555555555555554,-0.31777777777777777,-0.0926460623556548,0.1448220007998562,0.0446758652456054
1592172790.9915876,-0.42322899173775774,9.141285013770405,3.4609719889836774,-0.32666666666666666,-0.4033333333333333,-0.3244444444444444,-0.10684660769524533,0.12450836488746661,0.05098510983354531
1592172791.0015876,-0.35455336473217847,9.223203480482159,3.39432505787499,-0.32666666666666666,-0.4033333333333333,-0.3244444444444444,-0.13593186601498045,0.19473928757005143,0.09014701518892242
1592172791.0115876,-0.0898783235691753,9.094634377742462,3.4869509736486326,-0.32666666666666666,-0.4033333333333333,-0.3244444444444444,-0.059117745148439725,0.10549100283189233,0.06693976847538781
1592172791.0215876,0.09039828068930164,8.963824677629244,3.6172510745691864,-0.32666666666666666,-0.4033333333333333,-0.3244444444444444,-0.04807471364478928,0.2659846696574466,0.06465887741516278
1592172791.0315876,0.22271580109625774,8.988634212705549,3.5345526243148386,-0.32666666666666666,-0.4033333333333333,-0.3244444444444444,-0.11934062565452269,0.11623604442180421,0.07367987893538219
1592172791.0415876,0.0,9.1,3.59,-0.37444444444444447,-0.3977777777777778,-0.35333333333333333,-0.04799655442984406,0.17016960206944715,0.07635815477475191
1592172791.0515876,0.03813894736842105,9.087208421052631,3.578138947368421,-0.37444444444444447,-0.3977777777777778,-0.35333333333333333,-0.021205520763145313,0.20046048018356608,0.14076654538798739
1592172791.0615876,0.020175310768143783,9.031260956923008,3.538739043076991,-0.37444444444444447,-0.3977777777777778,-0.35333333333333333,0.1176052434130772,0.2811305586013224,0.049333798180385406
1592172791.0715876,0.1626663406928198,9.04488829127017,3.53,-0.37444444444444447,-0.3977777777777778,-0.35333333333333333,0.06065051153087876,0.2526126248727503,0.03185183215012877
1592172791.0815876,0.20999360589761915,9.131654944145636,3.53,-0.37444444444444447,-0.3977777777777778,-0.35333333333333333,0.01418707756778706,0.1863592097772307,0.09380307743425102
1592172791.0915875,0.1387183503612092,9.084873401444836,3.742563299277582,-0.37666666666666665,-0.39111111111111113,-0.36777777777777776,-0.090765037169328,0.18984513109125825,0.24206861973694158
1592172791.1015875,0.11910036719706242,9.006851285189718,3.775052019583843,-0.37666666666666665,-0.39111111111111113,-0.36777777777777776,0.017355157804504508,0.25352569667132213,0.1406153645195638
1592172791.1115875,0.0983536819842338,8.945926744856758,3.666378100365314,-0.37666666666666665,-0.39111111111111113,-0.36777777777777776,0.01897109095586547,0.23617556088614267,0.04538388781620085
1592172791.1215875,0.048341762303053884,9.120331647539388,3.5593367049212215,-0.37666666666666665,-0.39111111111111113,-0.36777777777777776,0.12433508231345011,0.12681475434994977,0.03710235674824383
1592172791.1315875,0.007549114958179337,9.128490177008365,3.543019645983272,-0.37666666666666665,-0.39111111111111113,-0.36777777777777776,0.043348949043023235,0.18733186492565337,0.1447872152726576
1592172791.1415875,0.0021185119180218313,9.057881488081978,3.5746607262196477,-0.3655555555555556,-0.37666666666666665,-0.39444444444444443,0.008698506762396889,0.08110896704837081,0.2697684546321862
1592172791.1515875,0.04883604366228559,9.011163956337715,3.6774392960570284,-0.3655555555555556,-0.37666666666666665,-0.39444444444444443,0.15240830598148997,0.35425950740806544,0.10873194203206765
1592172791.1615875,0.17927944221021822,9.020900697237227,3.6907205577897817,-0.3655555555555556,-0.37666666666666665,-0.39444444444444443,0.14555160484164356,0.298071905937714,0.0590822069447645
1592172791.1715875,0.1413031761308951,9.07,3.729478729547642,-0.3655555555555556,-0.37666666666666665,-0.39444444444444443,0.2889526752012515,0.3117748289553614,-0.05060467938641547
1592172791.1815875,0.22204042348411934,9.07,3.697183830606352,-0.3655555555555556,-0.37666666666666665,-0.39444444444444443,0.21409260170036312,0.23163051497205733,-0.07702588179849373
1592172791.1915874,0.24287295597484276,9.081425408805032,3.5114475471698112,-0.3622222222222222,-0.3977777777777778,-0.4066666666666667,0.17593956178431855,0.19930864231543988,0.12083691028189313
1592172791.2015874,0.15,9.1,3.4,-0.3622222222222222,-0.3977777777777778,-0.4066666666666667,0.15162547876700738,0.20943951023931953,0.18871372537188688
1592172791.2115874,0.012328095791441418,9.173201131713231,2.92,-0.3622222222222222,-0.3977777777777778,-0.4066666666666667,0.20206481517044683,0.2417200109672799,0.026710887284869766
1592172791.2215874,0.15237238560782115,9.383536541389535,2.929988981488901,-0.3622222222222222,-0.3977777777777778,-0.4066666666666667,0.06609801669513643,0.2006607874957617,-0.06771483525918405
1592172791.2315874,-0.09970911130699575,9.291106659187435,3.072835163073964,-0.3622222222222222,-0.3977777777777778,-0.4066666666666667,-0.018228648641486975,0.04392318127225511,0.18068218980847847
1592172791.2415874,-0.21,9.13,3.31,-0.3711111111111111,-0.4033333333333333,-0.4066666666666667,-0.02399827721492203,0.001090830782496456,0.08072147790473774
1592172791.2515874,-0.07762922626788038,9.01653933680104,3.4896460500650197,-0.3711111111111111,-0.4033333333333333,-0.4066666666666667,-0.021935504147923897,0.08979007266341621,0.008524420559803056
1592172791.2615874,-0.06022674754477181,9.205465049104564,3.1677094165222415,-0.3711111111111111,-0.4033333333333333,-0.4066666666666667,0.0634711013362467,-0.09273069929239515,-0.14808847098280348
1592172791.2715874,-0.03068844724049185,9.258852587932513,3.257705175865027,-0.3711111111111111,-0.4033333333333333,-0.4066666666666667,0.005765151421818555,-0.05871520680277607,-0.17294144145556764
1592172791.2815874,0.010223792697290929,9.26,3.2921790341578325,-0.3711111111111111,-0.4033333333333333,-0.4066666666666667,0.03068973388776248,0.0088795424473887,-0.09007512701731041
1592172791.2915874,0.08785095163050066,9.211535034549643,3.338771972360286,-0.37434210880780167,-0.3979483371721825,-0.4292836505435002,-0.03269629396047853,-0.03623670037819919,-0.1321963199791084
1592172791.3015873,0.14608257781634656,9.079140651761858,3.4895535408435907,-0.37444444444444447,-0.3977777777777778,-0.43,-0.026749704740710097,-0.09935567963119968,-0.07401519404063743
1592172791.3115873,0.3316615294290327,9.031755467488624,3.280093938059592,-0.37444444444444447,-0.3977777777777778,-0.43,0.06977218186895282,-0.14847611116217763,-0.14594909189898347
1592172791.3215873,0.21736154514908712,9.133771000258465,3.203963908926432,-0.37444444444444447,-0.3977777777777778,-0.43,0.06388589308136074,-0.15465088803587024,-0.016695075545676757
1592172791.3315873,0.029139316545331584,9.21077157178661,3.21572701595258,-0.37444444444444447,-0.3977777777777778,-0.43,-0.025940482828217606,-0.13259580406124374,-0.015588851507126422
1592172791.3415873,0.1121758691206544,9.268005453306067,3.2107252897068848,-0.37666666666666665,-0.4088888888888889,-0.43555555555555553,-0.059893822677930836,-0.20505045926674723,-0.003645322991213787
1592172791.3515873,0.2265398773006135,9.163171779141104,3.248846625766871,-0.37666666666666665,-0.4088888888888889,-0.43555555555555553,-0.11187373123308744,-0.31836665991698865,-0.08057558765284559
1592172791.3615873,0.3919738420926326,9.083383729301655,3.1719738420926324,-0.37666666666666665,-0.4088888888888889,-0.43555555555555553,-0.054233949451332676,-0.16300943802748816,-0.13631863861113408
1592172791.3715873,0.46,9.2,3.24,-0.37666666666666665,-0.4088888888888889,-0.43555555555555553,-0.04363323129985824,-0.14180800172453928,0.015271630954950384
1592172791.3815873,0.42522090147038616,9.213911639411846,3.302602377353305,-0.37666666666666665,-0.4088888888888889,-0.43555555555555553,-0.07246619586017905,-0.13877295282345287,-0.06212211602275285
1592172791.3915873,0.31,9.18,3.47,-0.37333333333333335,-0.4088888888888889,-0.43555555555555553,-0.11999138607461016,0.10362892433716332,-0.07635815477475191
1592172791.4015872,0.17037655572786195,9.128559783689212,3.5287888186409,-0.37333333333333335,-0.4088888888888889,-0.43555555555555553,-0.002956594276435992,0.08759676107713946,-0.06834207314473999
1592172791.4115872,-0.13664595925677192,9.070516006268189,3.4512900156704727,-0.37333333333333335,-0.4088888888888889,-0.43555555555555553,0.015581212491666274,0.058123613009028054,-0.08267798926121
1592172791.4215872,-0.06,9.09,3.52,-0.37333333333333335,-0.4088888888888889,-0.43555555555555553,-0.04363323129985824,-0.1265363707695889,0.12544553998709243
1592172791.4315872,-0.08047312799833135,9.076351248001112,3.560946255996663,-0.37333333333333335,-0.4088888888888889,-0.43555555555555553,0.014431836110023515,-0.09005959765312471,0.030903699460746517
1592172791.4415872,-0.11953635627044383,9.079845452090147,3.599690904180296,-0.3656757594854405,-0.4154525236156542,-0.4278979817076627,-0.03802237460083782,-0.08812127351780098,0.008389475025097433
1592172791.4515872,-0.12741466370430216,9.102243991112907,3.5629266814784892,-0.3655555555555556,-0.41555555555555557,-0.42777777777777776,0.04969966934575956,-0.06894574919698414,-0.017155412653666748
1592172791.4615872,-0.0946953066799106,9.101173826669978,3.4352597467097095,-0.3655555555555556,-0.41555555555555557,-0.42777777777777776,0.04221003166458722,-0.08913536697040333,-0.07046810195608803
1592172791.4715872,-0.0021663401855042397,9.1,3.4551334639257982,-0.3655555555555556,-0.41555555555555557,-0.42777777777777776,0.056250578577874286,-0.062060885355407096,0.013704805498323577
1592172791.4815872,-0.05494419489613777,9.085567956689747,3.546592259861517,-0.3655555555555556,-0.41555555555555557,-0.42777777777777776,0.205313991258265,-0.031051072407164225,-0.10055054385210914
1592172791.4915872,-0.006752012669922133,9.052532004751221,3.6257799920812985,-0.3848848855454372,-0.407416890296658,-0.4542284398691948,0.05006131555991719,-0.09463435725282504,0.08726336732958004
1592172791.5015872,0.11885257317950743,9.031714988741614,3.721425056291929,-0.38666666666666666,-0.4066666666666667,-0.45666666666666667,0.09835916258230167,-0.06355014180818166,-0.016575796525685485
1592172791.5115871,0.22651748027160945,9.047548632776657,3.6334825197283904,-0.38666666666666666,-0.4066666666666667,-0.45666666666666667,0.12099095561963724,-0.14900873106659362,0.02715190724325059
1592172791.5215871,0.20517270910648017,9.093534113616899,3.4806908364259206,-0.38666666666666666,-0.4066666666666667,-0.45666666666666667,0.16505362749747046,-0.031324873461161445,0.06339959577309404
1592172791.5315871,0.1786928269878018,9.128409564016264,3.4102832629715376,-0.38666666666666666,-0.4066666666666667,-0.45666666666666667,0.16971093150463135,0.015891885644159227,0.08777502602983933
1592172791.541587,0.02473147153598282,9.16563562267012,3.372909584886586,-0.37622252409735824,-0.4066666666666667,-0.45666666666666667,0.10662555580091337,-0.008150457131161994,-0.13238058955940354
1592172791.551587,0.026108055192988998,9.283134905836286,3.3351892597426813,-0.37444444444444447,-0.4066666666666667,-0.45666666666666667,0.02004785479134452,-0.10151784235104908,0.02145064934647828
1592172791.561587,-0.021779749478079334,9.222330375782882,3.286850208768267,-0.37444444444444447,-0.4066666666666667,-0.45666666666666667,0.13581327170142005,0.05114607211709374,0.003109095460967194
1592172791.571587,-0.047026244556902436,9.099329410380134,3.365131222784512,-0.37444444444444447,-0.4066666666666667,-0.45666666666666667,0.10119918446169657,0.10902266340131762,-0.008077873464582205
1592172791.581587,-0.036092286071205494,9.05913842910681,3.38,-0.37444444444444447,-0.4066666666666667,-0.45666666666666667,0.09618107447000743,0.07205853725261332,0.012512701194785631
1592172791.591587,-0.03828598395469561,9.124573855592262,3.297140160453044,-0.38641308793456036,-0.4066666666666667,-0.4502220124796812,0.20934962866564144,-0.006204093640628024,0.0001239603834002588
1592172791.601587,-0.07352394075094729,9.240571822252841,3.2380950740613157,-0.3888888888888889,-0.4066666666666667,-0.4488888888888889,0.11624055146528203,0.11218986051271164,0.017578044783046576
1592172791.611587,-0.08833723597438593,9.243325528051228,3.1382904042817548,-0.3888888888888889,-0.4066666666666667,-0.4488888888888889,0.09381144729469522,0.06196021536763828,0.030911129291726125
1592172791.621587,-0.023761242071381236,9.165481397330304,3.2359178263750827,-0.3888888888888889,-0.4066666666666667,-0.4488888888888889,-0.05069910499104184,-0.050638899145524906,0.05078874251061081
1592172791.631587,0.0036341295586356046,9.163634129558636,3.2804511943379535,-0.3888888888888889,-0.4066666666666667,-0.4488888888888889,0.07767094758612555,-0.051569714182633744,-0.04212989427335668
1592172791.641587,0.001601552308896425,9.203593790764415,3.357187581528829,-0.3832899237614865,-0.41226563179406905,-0.46755210598023017,0.04993521230728046,-0.1314068676037898,-0.0909309767063733
1592172791.651587,0.13002808988764045,9.131983146067416,3.3266573033707862,-0.38222222222222224,-0.41333333333333333,-0.4711111111111111,0.024869716188354592,-0.04339239057091379,-0.10675924098715876
1592172791.661587,-0.05283198317146312,9.209246072595445,3.2469804860582734,-0.38222222222222224,-0.41333333333333333,-0.4711111111111111,0.05585905062714788,-0.0821421015501337,-0.15421917391696555
1592172791.671587,-0.06808152963306903,9.222020382408267,3.2778777055503965,-0.38222222222222224,-0.41333333333333333,-0.4711111111111111,0.11810598414495202,-0.21676405309976404,-0.1386022106521279
1592172791.681587,-0.1967542217919759,9.205604818758738,3.2756048187587394,-0.38222222222222224,-0.41333333333333333,-0.4711111111111111,0.2426946077460287,-0.17617127160669455,-0.13356079536382945
1592172791.691587,-0.43107046338408805,9.171409926834091,3.2604699756113638,-0.3631621734449498,-0.4186277913270201,-0.4636988699199496,0.1412982139552492,-0.16914427434165072,0.002010749642905124
1592172791.701587,-0.42563677528907573,9.177181612355461,3.202547101156303,-0.3622222222222222,-0.41888888888888887,-0.4633333333333333,0.146706464367536,-0.2524258022350442,0.08549909974786223
1592172791.711587,-0.3679376736800317,9.23206232631997,3.0758753473600637,-0.3622222222222222,-0.41888888888888887,-0.4633333333333333,0.16298371639864673,-0.25820427975774984,-0.08314109560906441
1592172791.721587,-0.2664995796132442,9.234156223725828,3.0541562237258275,-0.3622222222222222,-0.41888888888888887,-0.4633333333333333,0.12073090794032712,-0.27583711387769866,-0.12683300057599942
1592172791.731587,-0.06303663050414807,9.221943331206127,3.094311678366305,-0.35640351698220235,-0.42112685244274267,-0.4606477770687088,0.07011350705029026,-0.33475470743399677,-0.07878941958503641
1592172791.741587,0.11897511167836633,9.211236758136568,3.1531978302488834,-0.3486709919875204,-0.4241009005176204,-0.4570789193788556,0.044419576195779104,-0.39256605185664684,-0.002291579995469112
1592172791.751587,0.19871054563249327,9.256968436505995,3.142386836310252,-0.3477777777777778,-0.42444444444444446,-0.45666666666666667,0.08115839740337896,-0.3563350752035349,-0.01010626561762376
1592172791.761587,0.32405452528134415,9.281594547471865,3.0627563797749247,-0.3477777777777778,-0.42444444444444446,-0.45666666666666667,0.13200539414589976,-0.25189010046257676,-0.13092683931609903
1592172791.771587,0.5033425910407738,9.22841812914502,3.101581870854981,-0.3477777777777778,-0.42444444444444446,-0.45666666666666667,0.13072713855731996,-0.1224535708621183,-0.14974990901542837
1592172791.781587,0.5256579891940908,9.215657989194092,3.101315978388181,-0.3477777777777778,-0.42444444444444446,-0.45666666666666667,0.16675277566821906,-0.10268164452815971,-0.17407309223610834
1592172791.7915869,0.44189477071600963,9.236035076427997,3.0552865647626706,-0.36031318494681325,-0.4456582104228122,-0.4692020738357021,0.08898760577257514,-0.16108697463601462,0.046591760959700024
1592172791.8015869,0.26998939554612933,9.301542540174566,3.0376914919650866,-0.3622222222222222,-0.4488888888888889,-0.4711111111111111,0.08995291925640549,-0.054030381817534195,0.003183154383085557
1592172791.8115869,0.16244966676729444,9.28714766737106,2.999798667069178,-0.3622222222222222,-0.4488888888888889,-0.4711111111111111,0.03500177910626892,0.08113875620583298,0.15873045686952036
1592172791.8215868,0.16,9.225649839894519,3.034350160105481,-0.3622222222222222,-0.4488888888888889,-0.4711111111111111,0.07436942786878409,0.0643570642191964,0.010517558636678137
1592172791.8315868,0.18448825769596955,9.203877935576008,3.080610322119962,-0.3622222222222222,-0.4488888888888889,-0.4711111111111111,0.11669533147065184,0.012535856085852934,0.03472219794197254
1592172791.8415868,0.15228493150684932,9.220449315068493,3.1,-0.3644943683409437,-0.4541905631659056,-0.48019969558599696,0.2011904386616573,0.06086955309429676,-0.020794522149617356
1592172791.8515868,0.1737717225079939,9.302952870846656,3.056228277492006,-0.3655555555555556,-0.45666666666666667,-0.48444444444444446,0.21065484707943166,0.1529951212266371,-0.017469519253396244
1592172791.8615868,0.13942597322003963,9.33,2.9677513903143424,-0.3655555555555556,-0.45666666666666667,-0.48444444444444446,0.1560933104479859,0.12015333006742893,0.06110724848512046
1592172791.8715868,0.1055672458938348,9.272268983575339,2.9544327541061652,-0.3655555555555556,-0.45666666666666667,-0.48444444444444446,0.118855893808041,0.1583044479142042,0.013630892666819314
1592172791.8815868,0.11167419242792637,9.244162903786037,2.954162903786037,-0.3655555555555556,-0.45666666666666667,-0.48444444444444446,0.12972986408333373,0.12822945078055986,-0.014363426236074383
1592172791.8915868,0.1337505062778453,9.267501012555691,2.9224989874443095,-0.3647916385401197,-0.44062440934251385,-0.47986094235182936,0.08215095663975891,0.08603911229037052,0.105474147003464
1592172791.9015868,0.18622401357658042,9.28,2.856071984160656,-0.36444444444444446,-0.43333333333333335,-0.4777777777777778,0.19656513072611764,0.11340714011048345,0.05194358469226283
1592172791.9115868,0.15645239812477463,9.316289668229354,2.7891944644789035,-0.36444444444444446,-0.43333333333333335,-0.4777777777777778,0.09242415875941878,0.157008628367827,0.07347176066491862
1592172791.9215868,0.11918808098222398,9.350811919017776,2.811623838035552,-0.36444444444444446,-0.43333333333333335,-0.4777777777777778,0.026493848381419875,0.18984491305587214,0.09532493275518944
1592172791.9315867,0.04197692958800024,9.36,2.858342946005,-0.36444444444444446,-0.43333333333333335,-0.4777777777777778,0.014396449737395796,0.1552469012579106,0.08238947135337703
1592172791.9415867,-0.12238304587983316,9.300062375530755,2.894984406117311,-0.34946003832713335,-0.45164760747671356,-0.4777777777777778,0.057763000610545054,0.192458488875425,0.06055301562963229
1592172791.9515867,-0.20544170732674838,9.275868935697568,2.8917378713951365,-0.34444444444444444,-0.4577777777777778,-0.4777777777777778,0.05615132478750014,0.1353218662446899,0.10764430148269699
1592172791.9615867,-0.32949105650971044,9.292309146191142,2.790763415235434,-0.34444444444444444,-0.4577777777777778,-0.4777777777777778,0.0938155707408284,0.028837619332936208,0.0007155374242869272
1592172791.9715867,-0.3589959124205755,9.331485693472015,2.7285143065279858,-0.34444444444444444,-0.4577777777777778,-0.4777777777777778,0.06460036838259334,0.04144711087740318,-0.03655397835728664
1592172791.9815867,-0.2017182243915309,9.401163291779346,2.7024653167117383,-0.34444444444444444,-0.4577777777777778,-0.4777777777777778,0.022577988339090617,0.030334871331682268,0.005692811369479889
1592172791.9915867,0.024087445199635155,9.347007385176685,2.7172992614823315,-0.33957827012289016,-0.44885645818826153,-0.4883211554744788,-0.025606584229689373,0.02273226902898115,-0.026721326182131973
1592172792.0015867,0.12095782922963938,9.32,2.7435189981059875,-0.3377777777777778,-0.44555555555555554,-0.4922222222222222,-0.023196482225940052,-0.02451103641038953,0.039362458653718416
1592172792.0115867,0.1428147582558425,9.312851844781981,2.78,-0.3377777777777778,-0.44555555555555554,-0.4922222222222222,-0.02371550779444232,-0.003199673123700786,0.21617847130616322
1592172792.0215867,0.13493560399421267,9.332403405991318,2.8621458219681695,-0.3377777777777778,-0.44555555555555554,-0.4922222222222222,0.001460633310288062,0.06369418402889217,0.07134428139227941
1592172792.0315866,0.029661026917874006,9.303220342305957,2.926779657694042,-0.3377777777777778,-0.44555555555555554,-0.4922222222222222,0.027307745789653472,-0.04460079373427875,-0.10977022871668723
1592172792.0415866,-0.0671223087494274,9.327464040311497,2.902535959688502,-0.3468185473609202,-0.4576099149997455,-0.4922222222222222,-0.06420601003554541,-0.06564602659486665,-0.05187917246923823
1592172792.0515866,-0.07735939778504711,9.326234580065423,2.8958436132897174,-0.3511111111111111,-0.4633333333333333,-0.4922222222222222,-0.10089511916520227,-0.06369238541360037,-0.012834082233633083
1592172792.0615866,-0.05151903425636682,9.278480965743633,2.9276793561709114,-0.3511111111111111,-0.4633333333333333,-0.4922222222222222,-0.04914727781155949,-0.09175875407498288,-0.020574060799787283
1592172792.0715866,-0.00024101622874807271,9.276747005409582,2.979638475656878,-0.3511111111111111,-0.4633333333333333,-0.4922222222222222,-0.03635226248583521,0.006452887892051576,0.026863341314679313
1592172792.0815866,0.08393082958787233,9.238034585206064,3.01,-0.3511111111111111,-0.4633333333333333,-0.4922222222222222,-0.016166931545383595,0.052860129049936436,-0.006650187084758619
1592172792.0915866,0.19474356152322253,9.215474356152322,3.031897424609289,-0.3553689436740284,-0.45664245359160616,-0.4922222222222222,0.053537388930589874,0.018194519600191278,0.0419438002222344
1592172792.1015866,0.27219477423576705,9.239316864541461,3.0306831354585397,-0.35888888888888887,-0.45111111111111113,-0.4922222222222222,0.0917788227670603,0.022970875127079477,-0.01875026656006494
1592172792.1115866,0.25234171562867214,9.281381903642774,2.988618096357227,-0.35888888888888887,-0.45111111111111113,-0.4922222222222222,0.18803728210450849,0.08169499630977936,-0.1407966439250214
1592172792.1215866,0.08178742132412095,9.306175524111495,2.9205958071080405,-0.35888888888888887,-0.45111111111111113,-0.4922222222222222,0.14952285094050302,0.13394295743206833,-0.01295381557855077
1592172792.1315866,3.298217022679878e-06,9.325004947325533,2.900003298217023,-0.35888888888888887,-0.45111111111111113,-0.4922222222222222,0.0774450279809271,0.09761118616032155,0.10036146890499192
1592172792.1415865,0.040137836830994665,9.34,2.8999540543896685,-0.3482848351890945,-0.4527854353794997,-0.4955708707589994,0.04243715085661426,0.0891157140392597,0.12603856832010737
1592172792.1515865,0.1938180949346926,9.369480498793974,2.842831201929641,-0.3377777777777778,-0.45444444444444443,-0.4988888888888889,0.0775197781070067,0.0818803459869844,0.06624889427421604
1592172792.1615865,0.2506592705316381,9.354791124637966,2.733714103382259,-0.3377777777777778,-0.45444444444444443,-0.4988888888888889,0.09732603114322363,0.047284523753153895,-0.20850744992808626
1592172792.1715865,0.28853050187650064,9.32414694981235,2.65073474906175,-0.3377777777777778,-0.45444444444444443,-0.4988888888888889,0.12312666956169833,0.026102510874073274,-0.19458494743268276
1592172792.1815865,0.34428439064779404,9.324761463549265,2.6395229270985294,-0.3377777777777778,-0.45444444444444443,-0.4988888888888889,0.1568194297762801,0.01812779865730449,-0.024210482359456886
1592172792.1915865,0.36510021237058665,9.335100212370588,2.66530063711176,-0.32757735303660446,-0.45161099312745184,-0.4988888888888889,0.11635699678779905,-0.0027719611535564938,-0.05119600136589603
1592172792.2015865,0.4024137684270789,9.391862029483326,2.6411034778875053,-0.31777777777777777,-0.4488888888888889,-0.4988888888888889,0.015422133441615138,0.06948960534573513,-0.01660328132840158
1592172792.2115865,0.3296291866028708,9.383851674641148,2.5838516746411484,-0.31777777777777777,-0.4488888888888889,-0.4988888888888889,-0.06653284880322283,0.12698348960707148,0.019974207677578647
1592172792.2215865,0.21248082454458295,9.377255752636625,2.6290230105465007,-0.31777777777777777,-0.4488888888888889,-0.4988888888888889,-0.1210618487559665,0.04275918091088235,-0.07532115957665528
1592172792.2315865,0.1559205146588641,9.408772647121515,2.717545294243029,-0.31777777777777777,-0.4488888888888889,-0.4988888888888889,-0.14556884941914816,-0.014582450462705204,-0.1341721862470641
1592172792.2415864,0.12500463582981355,9.395010816936232,2.8149830019573505,-0.32111008092670806,-0.4588857983356799,-0.4955565857399586,-0.18434163693840513,-0.0032738408557195066,-0.13526267990250299
1592172792.2515864,0.11927193685898789,9.346092094711517,2.876953952644241,-0.3244444444444444,-0.4688888888888889,-0.4922222222222222,-0.2086663569311499,0.00513647643815545,-0.11789558950811281
1592172792.2615864,0.09448047392626081,9.293831163769584,2.912337672460831,-0.3244444444444444,-0.4688888888888889,-0.4922222222222222,-0.20602536039057215,-0.0029891773449733303,-0.06614401972305893
1592172792.2715864,0.06575029668126202,9.294312722510945,2.940126038384417,-0.3244444444444444,-0.4688888888888889,-0.4922222222222222,-0.22729579904785707,-0.020439652145911924,-0.0572542201680077
1592172792.2815864,0.1287072909790353,9.272154515034941,3.107845484965059,-0.3244444444444444,-0.4688888888888889,-0.4922222222222222,-0.23013122759557364,0.03251910306661449,-0.029998678341993996
1592172792.2915864,0.061192010506062364,9.173502122591088,3.18906117338057,-0.3166947982096258,-0.45726441953666097,-0.5006176723099425,-0.15882403577640491,0.01274019593042626,0.009253621836966097
1592172792.3015864,-0.031926091131555305,9.133735402533842,3.2068677012669204,-0.3111111111111111,-0.4488888888888889,-0.5066666666666667,-0.15789561857195647,-0.06832760878272964,0.07585941976407609
1592172792.3115864,-0.0667092821946997,9.227385803702223,3.057714742309229,-0.3111111111111111,-0.4488888888888889,-0.5066666666666667,-0.03142069138470148,-0.07472488663150946,-0.02085144322764833
1592172792.3215864,0.00832089552238806,9.362695177956372,2.917304822043628,-0.3111111111111111,-0.4488888888888889,-0.5066666666666667,0.007210003231724565,-0.054451680217079836,-0.06550119489706906
1592172792.3315864,-0.10475862422209133,9.384758624222092,2.9214482546674523,-0.3111111111111111,-0.4488888888888889,-0.5066666666666667,-0.07151334859776308,-0.14805205602309698,-0.019529634033459482
1592172792.3415864,-0.03220118864186659,9.2833017829628,3.005871513474419,-0.3056064624103365,-0.4543935375896635,-0.5066666666666667,-0.1335518043240984,-0.24453677885267544,-0.034706674288640105
1592172792.3515863,0.14266802353878147,9.226926905889119,2.917628423521083,-0.29777777777777775,-0.4622222222222222,-0.5066666666666667,-0.12205554719537548,-0.27207279745463697,-0.11093815663293141
1592172792.3615863,0.2730863632693705,9.349243749495384,2.71612670560056,-0.29777777777777775,-0.4622222222222222,-0.5066666666666667,-0.080381461161651,-0.20758782520621186,-0.13206967207797532
1592172792.3715863,0.325922751961376,9.401990343995172,2.623268959967813,-0.29777777777777775,-0.4622222222222222,-0.5066666666666667,-0.06413663678387069,-0.18558597492424353,-0.11315691757993933
1592172792.3815863,0.5964990411731529,9.362365031020868,2.894543711223914,-0.29777777777777775,-0.4622222222222222,-0.5066666666666667,-0.01825773869294372,-0.17286723336226453,-0.03899368742079762
1592172792.3915863,0.5604341557193208,9.22807753925024,3.0519224607497595,-0.29777777777777775,-0.4552351454305956,-0.518311794652711,0.09481262793438155,-0.1550028250826957,-0.022161585205303702
1592172792.4015863,0.4693949525452977,9.188789905090594,3.085159620362381,-0.29777777777777775,-0.4488888888888889,-0.5288888888888889,0.13263958782131113,-0.15998365198871556,-0.09169943325162183
1592172792.4115863,0.4879971666371525,9.23999291659288,2.874680361253763,-0.29777777777777775,-0.4488888888888889,-0.5288888888888889,0.2255129897117381,-0.12821675627993717,-0.06195887937385749
1592172792.4215863,0.6176694986642277,9.406178969409613,2.6453115598450023,-0.29777777777777775,-0.4488888888888889,-0.5288888888888889,0.21902642394856944,0.03233775455266992,-0.14754900771840873
1592172792.4315863,0.6968405289901403,9.473908873708652,2.59,-0.29777777777777775,-0.4488888888888889,-0.5288888888888889,0.2332566369373112,0.08489645588733354,-0.2004604278891898
1592172792.4415863,0.6768300503893724,9.496138341731562,2.576138341731562,-0.29572419877504624,-0.4488888888888889,-0.5083530988615734,0.1922440595351198,0.0398200706488136,-0.08377710329867535
1592172792.4515862,0.58,9.467061955469507,2.548238141335915,-0.29333333333333333,-0.4488888888888889,-0.48444444444444446,0.10484964106956011,-0.001218604765731762,-0.045940026889755146
1592172792.4615862,0.5695252512070991,9.396186871982252,2.46,-0.29333333333333333,-0.4488888888888889,-0.48444444444444446,0.02130204758095245,0.08257755573415373,-0.13593955133425747
1592172792.4715862,0.5584218054672601,9.42078909726637,2.46473458359822,-0.29333333333333333,-0.4488888888888889,-0.48444444444444446,-0.010391844871840443,0.16974129668989252,-0.12581958121615094
1592172792.4815862,0.40726233213668395,9.372718610113903,2.786834640783584,-0.29333333333333333,-0.4488888888888889,-0.48444444444444446,-0.031737794860923346,-0.027025026847904043,-0.05047477035462216
1592172792.4915862,0.19486225355790573,9.217431126778953,3.0293053923488706,-0.2866127721924823,-0.4581942812377595,-0.47824084954519736,-0.010727998153905613,-0.059844153155783175,0.011634673798424797
1592172792.5015862,0.11104825022225814,9.190070718499959,3.0288103127778228,-0.2788888888888889,-0.4688888888888889,-0.4711111111111111,0.09495627741884519,-0.05949202244323716,0.06934035625236443
1592172792.5115862,-0.000525701527376056,9.300394276145532,2.843751458872482,-0.2788888888888889,-0.4688888888888889,-0.4711111111111111,0.11454503685793808,-0.050335915132165454,0.0784824711988981
1592172792.5215862,0.04609496471713909,9.356904676474107,2.6746669058725034,-0.2788888888888889,-0.4688888888888889,-0.4711111111111111,0.04248016797541096,-0.04574222299930271,0.04952379580526607
1592172792.5315862,0.12,9.38,2.61,-0.2788888888888889,-0.4688888888888889,-0.4711111111111111,0.015271630954950384,-0.031634092692397225,0.028361600344907853
1592172792.5415862,0.3573326655131591,9.37415869835777,2.6224760950733086,-0.28258550965135065,-0.46380603534050396,-0.4711111111111111,0.06188328095450177,-0.16619422701485603,-0.05331620466511114
1592172792.5515862,0.48,9.38,2.64,-0.2877777777777778,-0.45666666666666667,-0.4711111111111111,0.01090830782496456,-0.148352986419518,0.04799655442984406
1592172792.5615861,0.5979218112863213,9.44467535430152,2.5906492913969603,-0.2877777777777778,-0.45666666666666667,-0.4711111111111111,-0.056837170406290875,-0.06382033506742282,0.06250305790503033
1592172792.5715861,0.5391305579156047,9.447139620504107,2.586292834890966,-0.2877777777777778,-0.45666666666666667,-0.4711111111111111,-0.1620870742409411,0.0007812832197489487,0.037272986567477316
1592172792.5815861,0.2999884097787126,9.383996909274323,2.7300077268141916,-0.2877777777777778,-0.45666666666666667,-0.4711111111111111,-0.030983471400413923,0.022032927504138836,0.04538648347981712
1592172792.591586,0.13219702820425688,9.316776126780143,2.824579098575886,-0.2959422871637508,-0.45666666666666667,-0.4711111111111111,-0.05071353890147374,0.02932478394306967,0.05597949072195259
1592172792.601586,0.02791931550117948,9.263641197872936,2.8663588021270643,-0.30666666666666664,-0.45666666666666667,-0.4711111111111111,-0.047869201429768506,0.049643202552396286,-0.005007153605025313
1592172792.611586,-0.014490776089258885,9.379398536981848,2.714675254304081,-0.30666666666666664,-0.45666666666666667,-0.4711111111111111,-0.24091702152238229,-0.09926560120717749,-0.0262971061660007
1592172792.621586,0.017896570916922785,9.463685356823076,2.605262928635385,-0.30666666666666664,-0.45666666666666667,-0.4711111111111111,-0.26719760505581996,-0.006253422465889044,-0.1094239249225298
1592172792.631586,0.06,9.49,2.6,-0.30666666666666664,-0.45666666666666667,-0.4711111111111111,-0.3010692959690219,0.09708393964218458,-0.02617993877991494
1592172792.641586,0.15648594736215315,9.25891568417292,2.9751405263784685,-0.2972958596324084,-0.4590093684252312,-0.47892011697299297,-0.213303405127873,-0.032339423850377996,-0.09944737386079286
1592172792.651586,0.15,9.22,3.04,-0.28,-0.4633333333333333,-0.49333333333333335,-0.234528618236738,-0.00545415391248228,-0.15817046346198613
1592172792.661586,0.10545703839122486,9.244049360146253,3.039506398537477,-0.28,-0.4633333333333333,-0.49333333333333335,-0.17531664822963608,-0.0114766565873256,-0.008042633538954673
1592172792.671586,0.04,9.25,2.98,-0.28,-0.4633333333333333,-0.49333333333333335,-0.1908953869368798,-0.001090830782496456,0.02181661564992912
1592172792.681586,-0.10565843579719246,9.174341564202807,3.0669753073915773,-0.28,-0.4633333333333333,-0.49333333333333335,-0.06623767040916566,-0.11097183052598875,0.007130803272278271
1592172792.691586,-0.10936166753381893,9.174893665452654,3.1078723335067635,-0.28,-0.4607328520638224,-0.49333333333333335,-0.04883216514600135,-0.12319417620801246,-0.06930258805963616
1592172792.701586,-0.05771259642477713,9.246383204766964,3.0836167952330364,-0.28,-0.45111111111111113,-0.49333333333333335,-0.1710983878708124,-0.0770491637521253,-0.0657163948198694
1592172792.711586,-0.02062207183758459,9.25837324310255,3.0444976574700675,-0.28,-0.45111111111111113,-0.49333333333333335,-0.1819183209085162,-0.14069105005917198,-0.0055325165610947274
1592172792.721586,0.04355776374442794,9.221356797919762,3.046100482912333,-0.28,-0.45111111111111113,-0.49333333333333335,-0.07734049003644101,-0.08723252609227439,0.006139367453790415
1592172792.731586,0.12295620087252321,9.207217150654392,3.1072171506543924,-0.28,-0.45111111111111113,-0.49333333333333335,0.02593310616151675,0.05577419279363349,-0.02676815260758749
1592172792.741586,0.18,9.260917555333613,3.145321047714166,-0.27896023282537025,-0.45111111111111113,-0.49419980597885815,0.04863687585956427,0.12876797178307975,-0.01573208602477443
1592172792.751586,0.1726888161407908,9.334622367718419,3.12,-0.2733333333333333,-0.45111111111111113,-0.4988888888888889,-0.05207647581721571,0.0842048880102692,0.0035361901977216115
1592172792.761586,0.15308201997254958,9.342705049931373,3.0957870699039236,-0.2733333333333333,-0.45111111111111113,-0.4988888888888889,-0.10642740168964623,0.054398738332339235,0.06327043116732266
1592172792.771586,0.1331383884664284,9.24481469043107,3.080877251901072,-0.2733333333333333,-0.45111111111111113,-0.4988888888888889,-0.11870063811941543,-0.027032648322679164,-0.04718427316349592
1592172792.781586,0.10611646226325125,9.11722329245265,3.13722329245265,-0.2733333333333333,-0.45111111111111113,-0.4988888888888889,-0.051643864465000064,-0.02910072875758379,-0.0038929857085374803
1592172792.791586,0.06606646058732613,9.121800618238021,3.123444100978877,-0.27522725971721335,-0.45111111111111113,-0.4961208426355258,0.000684789957996871,0.049552716427130356,0.08522979554367982
1592172792.801586,0.043370434625870265,9.237074780884573,3.0597773922447784,-0.2877777777777778,-0.45111111111111113,-0.4777777777777778,-0.11005591163253488,0.04185565122766717,-0.012080711898295474
1592172792.811586,0.05,9.306930790164015,3.0169307901640146,-0.2877777777777778,-0.45111111111111113,-0.4777777777777778,-0.03337264520261596,0.04975698292574723,-0.054132313778926584
1592172792.821586,0.046762790917915575,9.267627909179156,3.0456092999029285,-0.2877777777777778,-0.45111111111111113,-0.4777777777777778,-0.046772795029370255,0.08834714359653874,0.0418432533214681
1592172792.831586,0.02931112309505263,9.205344438452473,3.1467221922623687,-0.2877777777777778,-0.45111111111111113,-0.4777777777777778,-0.030543261909900768,0.14802515110315745,0.06778179814143376
1592172792.8415859,-0.016184723838204094,9.218201697351311,3.2110084867565534,-0.2863790979399083,-0.44991224267865154,-0.48257325150761604,-0.012103809386809456,0.1049543684749397,0.06397594500549572
1592172792.8515859,-0.09,9.21,3.17,-0.28,-0.4444444444444444,-0.5044444444444445,0.07199483164476608,0.1308996938995747,0.017453292519943295
1592172792.8615859,-0.18529937629937632,9.254700623700623,3.0317962577962576,-0.28,-0.4444444444444444,-0.5044444444444445,-0.0021719098552949205,-0.02008239881131157,-0.002433164961622552
1592172792.8715858,-0.14935554612337296,9.275898415393321,2.931152376910017,-0.28,-0.4444444444444444,-0.5044444444444445,-0.005449986901853044,-0.012220761839445298,0.0076399824881044215
1592172792.8815858,-0.0952768135553333,9.306531152556333,2.9194463728893334,-0.28,-0.4444444444444444,-0.5044444444444445,0.0012162984638390759,0.014422365570189801,0.05887277333374913
1592172792.8915858,-0.08097081712062257,9.35320428015564,2.9587373540856032,-0.28,-0.44368936446173796,-0.5032578901859058,-0.1495509902652753,0.008503811177944161,0.026942671432111882
1592172792.9015858,-0.09,9.27184826556102,3.112606937755917,-0.28,-0.43666666666666665,-0.4922222222222222,-0.06010679591245053,0.014879498202951522,0.028303843704882804
1592172792.9115858,-0.09,9.24,3.24,-0.28,-0.43666666666666665,-0.4922222222222222,-0.2574360646691636,-0.09490227807719166,0.08944812416470939
1592172792.9215858,-0.13495993484486246,9.048346688385045,3.4533066232299086,-0.28,-0.43666666666666665,-0.4922222222222222,-0.024565544758435018,-0.03460546954631828,-0.012832558200918689
1592172792.9315858,-0.22583666387226328,9.031673327744526,3.49249000838321,-0.28,-0.43666666666666665,-0.4922222222222222,0.06670264461352479,-0.09362891555340172,0.004991285061351807
1592172792.9415858,-0.261217117684078,9.07414474512272,3.4358552548772816,-0.2813751835535977,-0.4392205789804909,-0.49241867701559333,0.13801429271776078,-0.13297014427088327,-0.019742595536601057
1592172792.9515858,-0.36,9.14,3.37,-0.2877777777777778,-0.45111111111111113,-0.49333333333333335,-0.0370882466048795,-0.33052172709642613,0.030543261909900768
1592172792.9615858,-0.26070975010241704,9.279704014748054,3.1565086030315443,-0.2877777777777778,-0.45111111111111113,-0.49333333333333335,0.055419208791690086,-0.1453127592499076,-0.16062952494841887
1592172792.9715858,-0.12302758867789323,9.209633106413472,3.066972411322107,-0.2877777777777778,-0.45111111111111113,-0.49333333333333335,-0.0035827400992434655,-0.13654387358290965,-0.13253082008648648
1592172792.9815857,-0.03400094056786785,9.156000235141967,3.1531991064605256,-0.2877777777777778,-0.45111111111111113,-0.49333333333333335,0.040360097702129324,-0.18046731141631334,-0.20586133390263728
1592172792.9915857,0.1425258478761936,9.142254527494238,3.293423773460652,-0.2877777777777778,-0.45111111111111113,-0.49314312369663044,0.1370416063837805,-0.1541918943439233,-0.2174558414003564
1592172793.0015857,0.3,9.25,3.31,-0.2877777777777778,-0.45111111111111113,-0.4922222222222222,0.12980886311707826,-0.2247111411942699,-0.08726646259971647
1592172793.0115857,0.3633010293748431,9.087475772031132,3.4279610846095907,-0.2877777777777778,-0.45111111111111113,-0.4922222222222222,0.08754189531825946,-0.11290635387272588,-0.01366181339544394
1592172793.0215857,0.4232752197172335,9.224981371799771,3.2779451662208636,-0.2877777777777778,-0.45111111111111113,-0.4922222222222222,0.13216574745249224,-0.14360248505373113,0.07238200988056717
1592172793.0315857,0.4028919216549988,9.4281324235035,3.1028919216549986,-0.2877777777777778,-0.45111111111111113,-0.4922222222222222,0.0834155201837775,-0.0592203219709927,0.08254265391754287
1592172793.0415857,0.32589734960033656,9.426751647735239,3.0395728509325477,-0.2877777777777778,-0.45019941102229705,-0.49024687202979167,0.10149349037874318,-0.05007563415179363,-0.08491647258246454
1592172793.0515857,0.2845502352615555,9.241375588153888,3.118024725528185,-0.2877777777777778,-0.4444444444444444,-0.4777777777777778,0.028265489689193846,-0.0195098592733629,0.061452046229804956
1592172793.0615857,0.24,9.132304057087499,3.105486401550058,-0.2877777777777778,-0.4444444444444444,-0.4777777777777778,0.19326652174404874,0.03986838173946636,0.014478529110064482
1592172793.0715857,0.2617560736576056,9.1810948057977,2.8682439263423944,-0.2877777777777778,-0.4444444444444444,-0.4777777777777778,0.29948954095459146,0.012670786982694944,-0.09424185478789719
1592172793.0815856,0.33,9.31,2.8,-0.2877777777777778,-0.4444444444444444,-0.4777777777777778,0.21925698728178766,0.001090830782496456,-0.12980886311707826
1592172793.0915856,0.496119642141808,9.441007477633862,2.634962611830685,-0.28632253230664234,-0.4451160962003531,-0.4777777777777778,-0.0010663602829024642,-0.08237381925827489,-0.08814565269227204
1592172793.1015856,0.64,9.45,2.59,-0.2733333333333333,-0.45111111111111113,-0.4777777777777778,0.028361600344907853,0.02945243112740431,-0.09599310885968812
1592172793.1115856,0.5742325792368317,9.421441855190793,2.5699070136644555,-0.2733333333333333,-0.45111111111111113,-0.4777777777777778,0.014267079525041245,0.05691091239956661,0.07774839655787576
1592172793.1215856,0.54,9.43,2.51,-0.2733333333333333,-0.45111111111111113,-0.4777777777777778,-0.030543261909900768,0.07744898555724837,-0.030543261909900768
1592172793.1315856,0.47922347257408826,9.41521043225515,2.606763487106974,-0.2733333333333333,-0.45111111111111113,-0.4777777777777778,0.047488318418061705,0.18062269546959447,0.09717252318242738
1592172793.1415856,0.40508867024097095,9.38226163121821,2.7220842907362672,-0.2733333333333333,-0.45111111111111113,-0.4777777777777778,-0.0010327962454909634,0.10244978851164853,-0.04479666416648598
1592172793.1515856,0.3907266496030541,9.258408312003818,2.798546700793892,-0.2733333333333333,-0.45111111111111113,-0.45444444444444443,0.05836888770088233,0.17071693402165547,-0.06893751467222842
1592172793.1615856,0.34579588580821385,9.23104764437139,2.8410611810776185,-0.2733333333333333,-0.45111111111111113,-0.45444444444444443,0.007877665653622978,0.03949108558783225,0.08697559372781437
1592172793.1715856,0.26499106765079217,9.298348220582012,2.748348220582013,-0.2733333333333333,-0.45111111111111113,-0.45444444444444443,-0.1285222612607169,0.15055413534746276,0.11796652085757846
1592172793.1815856,0.22710470487935444,9.342579059024128,2.8028952951206456,-0.2733333333333333,-0.45111111111111113,-0.45444444444444443,-0.10168605299897897,0.19607357279446874,0.06332913193484847
1592172793.1915855,0.14394551618851242,9.359210896762297,2.886054483811488,-0.2733333333333333,-0.45111111111111113,-0.45444444444444443,-0.1806060174970984,0.13801750695677167,0.16220586906467627
1592172793.2015855,0.14544873294346977,9.33179493177388,2.970341780376868,-0.2733333333333333,-0.43666666666666665,-0.4688888888888889,-0.09954293731411396,0.12990676145864966,-0.11181725730103984
1592172793.2115855,0.12904495747266098,9.22095504252734,3.144522478736331,-0.2733333333333333,-0.43666666666666665,-0.4688888888888889,-0.12564925893152706,0.13964781216279842,0.06480330107408654
1592172793.2215855,0.14790803496587235,9.170652855945395,3.191439109088732,-0.2733333333333333,-0.43666666666666665,-0.4688888888888889,-0.07220351458790061,0.16323139057676425,0.020589858809204206
1592172793.2315855,0.08375814428134076,9.097888374283695,3.3202790642907605,-0.2733333333333333,-0.43666666666666665,-0.4688888888888889,-0.16608838444326338,0.09972932631139365,-0.013489772272717183
1592172793.2415855,-0.02,9.054024094692846,3.436423026939693,-0.2727868513380086,-0.4376105901131365,-0.4688888888888889,0.0805357328436741,0.19829668394926206,0.0020841147569343266
1592172793.2515855,-0.02,9.14,3.36,-0.2611111111111111,-0.4577777777777778,-0.4688888888888889,-0.06326818538479445,0.053450708342326333,0.0
1592172793.2615855,0.0367617382263286,9.304057042935797,3.2583624376757485,-0.2611111111111111,-0.4577777777777778,-0.4688888888888889,0.02075287584671865,0.017542607689520793,-0.030900522588210765
1592172793.2715855,0.10808445821734335,9.31034087924786,3.1242126687326017,-0.2611111111111111,-0.4577777777777778,-0.4688888888888889,-0.014092280105278285,0.018349321860111477,-0.031217017074918207
1592172793.2815855,0.30934049965163735,9.191833781228226,3.1536675624564547,-0.2611111111111111,-0.4577777777777778,-0.4688888888888889,-0.10855784653934351,-0.010505307357315476,0.13782309818341712
1592172793.2915854,0.44170697012802274,9.201137980085347,3.1705689900426743,-0.26145882724830094,-0.4576513355460724,-0.46929982614193144,-0.141077160617063,0.04785845494244408,0.07418580328756125
1592172793.3015854,0.5,9.24,3.19,-0.2733333333333333,-0.4533333333333333,-0.48333333333333334,-0.004363323129985824,0.15489797111449674,0.0
1592172793.3115854,0.5147008547008547,9.201331533963112,3.14804318488529,-0.2733333333333333,-0.4533333333333333,-0.48333333333333334,-0.062094425946318726,0.08574283255938742,-0.0908883348469528
1592172793.3215854,0.33438235294117646,9.223882352941176,2.94,-0.2733333333333333,-0.4533333333333333,-0.48333333333333334,-0.09384994720466566,0.07799760927432747,0.168369731278328
1592172793.3315854,0.24921210349364128,9.299439409443064,2.94,-0.2733333333333333,-0.4533333333333333,-0.48333333333333334,-0.021499300453734417,0.1309988748302446,0.06755879709293867
1592172793.3415854,0.18790089168250257,9.35308671977781,2.94,-0.2733333333333333,-0.4533333333333333,-0.48333333333333334,-0.08169144189390978,0.18115899269705743,0.10434288352860138
1592172793.3515854,0.14851518585171855,9.315545557555156,2.9385151858517187,-0.2733333333333333,-0.4388888888888889,-0.4688888888888889,0.037439181523019185,0.20924809559957733,0.027541944341352338
1592172793.3615854,0.14086607762852288,9.289133922371477,2.93,-0.2733333333333333,-0.4388888888888889,-0.4688888888888889,-0.1060161467636424,0.135159792566461,0.011517128424758872
1592172793.3715854,0.1535476863422952,9.277339235243279,2.9370953726845905,-0.2733333333333333,-0.4388888888888889,-0.4688888888888889,-0.1717828014458087,0.14730807087072453,0.13867088542403322
1592172793.3815854,0.18883642864236766,9.248836428642369,3.016981428145794,-0.2733333333333333,-0.4388888888888889,-0.4688888888888889,0.0025624394013538756,0.04550953824735741,-0.03025816604266294
1592172793.3915854,0.1721741980335684,9.232174198033569,3.1169548117985895,-0.2733333333333333,-0.4388888888888889,-0.4688888888888889,0.008015141617293753,0.02551629678891119,0.09878911973458082
1592172793.4015853,0.14651661956668013,9.185213295653345,3.152180056519984,-0.2877777777777778,-0.4533333333333333,-0.45444444444444443,-0.0348083794425928,0.12092977064964833,0.051413786267515305
1592172793.4115853,0.19074732844235806,9.227473284423581,3.0917793871340615,-0.2877777777777778,-0.4533333333333333,-0.45444444444444443,-0.06114864232394031,0.2039970131960895,0.027119384657751763
1592172793.4215853,0.19611215665721707,9.317408104438146,2.994535817233247,-0.2877777777777778,-0.4533333333333333,-0.45444444444444443,-0.04105600487384236,0.1685724264362719,-0.009616992027174965
1592172793.4315853,0.13947905352986814,9.275832428238944,3.065209464701319,-0.2877777777777778,-0.4533333333333333,-0.45444444444444443,-0.12293286332468022,0.23543665658399845,0.07602950920890048
1592172793.4415853,0.1313442591155935,9.210754072924747,3.1465574088440653,-0.2877777777777778,-0.4533333333333333,-0.45444444444444443,-0.01556128503259116,0.1644471833330305,0.13903266671913456
1592172793.4515853,0.12774509142433035,9.153382362863505,3.2,-0.2611111111111111,-0.45111111111111113,-0.4777777777777778,-0.03484240553497215,0.04556362127106916,0.08473181375769415
1592172793.4615853,0.10824044230090578,9.182932596165157,3.1941348076696863,-0.2611111111111111,-0.45111111111111113,-0.4777777777777778,0.002559172935667488,0.1679366903204136,-0.10088736028583407
1592172793.4715853,0.08045623154164205,9.231368694624926,3.099543768458358,-0.2611111111111111,-0.45111111111111113,-0.4777777777777778,0.04766436971736688,0.09862672101184838,-0.007349351587399631
1592172793.4815853,0.08848134277142689,9.26,3.0912149257828583,-0.2611111111111111,-0.45111111111111113,-0.4777777777777778,0.12685507071780744,0.1333514590179974,-0.07156916401594078
1592172793.4915853,0.0473599482342791,9.26,3.1241120414125767,-0.2611111111111111,-0.45111111111111113,-0.4777777777777778,-0.01220002652113003,0.19973905382884496,-0.11911703597506135
1592172793.5015852,-0.009486601959782659,9.2,3.2105133980402174,-0.2611111111111111,-0.4444444444444444,-0.4922222222222222,0.004699341361551281,0.04852735482639809,0.07932385888006423
1592172793.5115852,-0.0005188364329995231,9.200518836432998,3.218962327134001,-0.2611111111111111,-0.4444444444444444,-0.4922222222222222,0.011078096650623521,0.03648118913078634,0.09313229199205937
1592172793.5215852,-0.0194839533618712,9.217935813447486,3.1833543031478375,-0.2611111111111111,-0.4444444444444444,-0.4922222222222222,0.019198343149974876,-0.027045601739181517,0.06678712917766821
1592172793.5315852,0.0010095636810569981,9.14,3.31,-0.2611111111111111,-0.4444444444444444,-0.4922222222222222,0.08458136645635218,-0.019173416525403983,0.034875120378738377
1592172793.5415852,0.057393224765709024,9.14,3.31,-0.2611111111111111,-0.4444444444444444,-0.4922222222222222,0.05646477987761575,-0.05431914974882451,0.03311783371756735
1592172793.5515852,0.11,9.13,3.28,-0.2733333333333333,-0.4444444444444444,-0.4922222222222222,0.11999138607461016,0.038179077387375956,0.06981317007977318
1592172793.5615852,0.0928406880506503,9.172898279873374,3.1856237842785764,-0.2733333333333333,-0.4444444444444444,-0.4922222222222222,0.2510167258402797,-0.07038477556132164,0.03612093985431531
1592172793.5715852,0.00016453811799733986,9.339707487790227,2.9104753323408814,-0.2733333333333333,-0.4444444444444444,-0.4922222222222222,0.03969667943895222,0.13485419408488128,-0.02607623735004508
1592172793.5815852,0.0,9.310438414835035,2.969123170329929,-0.2733333333333333,-0.4444444444444444,-0.4922222222222222,0.017772116784983204,0.11269033607542686,0.08345879728302003
1592172793.5915852,0.025212227216335495,9.276383697044885,3.0624448331265635,-0.2733333333333333,-0.4444444444444444,-0.4922222222222222,0.10362708295428087,-0.01232140279722578,-0.11751528073111264
1592172793.6015851,0.04,9.26,3.16,-0.2677777777777778,-0.43666666666666665,-0.49777777777777776,0.07199483164476608,0.01854412330243975,0.04363323129985824
1592172793.6115851,0.032295450490633364,9.2137727029438,3.16,-0.2677777777777778,-0.43666666666666665,-0.49777777777777776,0.033334776702374655,0.025267611118507824,-0.026963390768856545
1592172793.6215851,0.08781190644163456,9.180729364519454,3.034740869376458,-0.2677777777777778,-0.43666666666666665,-0.49777777777777776,-0.12217725065613083,0.06090437337112613,0.004555951521272708
1592172793.6315851,0.0706823210334737,9.199317678966526,3.0106823210334737,-0.2677777777777778,-0.43666666666666665,-0.49777777777777776,0.1094363856574658,-0.0347553121678296,-0.08195875452992037
1592172793.641585,0.06187463644569251,9.289378999097382,3.0425014542172297,-0.2677777777777778,-0.43666666666666665,-0.49777777777777776,0.10008293114159039,0.023864699400718024,0.06382026325670198
1592172793.651585,0.06,9.300187832997201,3.010751331988802,-0.2612363331092448,-0.4508397967818214,-0.47815344377217894,-0.10523107076172458,0.01035020148228697,0.033954287566783356
1592172793.661585,0.03107997760253838,9.242159955205077,3.048560029863282,-0.2611111111111111,-0.45111111111111113,-0.4777777777777778,0.0549605451908725,0.04346745108154874,-0.17022648244831137
1592172793.671585,0.08794884054506336,9.211025579727469,3.0210255797274685,-0.2611111111111111,-0.45111111111111113,-0.4777777777777778,-0.031624965492448046,0.011010793241536664,0.023420655846710298
1592172793.681585,0.08043737903035453,9.257813104848227,3.077375725817873,-0.2611111111111111,-0.45111111111111113,-0.4777777777777778,0.01516318127228327,0.003558756253446871,0.08478550874808477
1592172793.691585,0.04873647476263818,9.27563176261868,3.1268952878560428,-0.2611111111111111,-0.45111111111111113,-0.4777777777777778,0.054966829788039295,-0.01377911550164518,-0.02015866684983117
1592172793.701585,0.06,9.27,3.16,-0.2611111111111111,-0.45111111111111113,-0.4777777777777778,0.06763150851478027,0.031634092692397225,-0.006544984694978735
1592172793.711585,0.05235159728944821,9.247054791868345,3.083515972894482,-0.2611111111111111,-0.45111111111111113,-0.4777777777777778,-0.05084069769832873,0.07501828088311319,-0.006544984694978735
1592172793.721585,0.08741037206998148,9.268057779052485,2.957121476807551,-0.2611111111111111,-0.45111111111111113,-0.4777777777777778,-0.009730530266411686,-0.021825347301957038,0.16995128232688608
1592172793.731585,0.09,9.27,2.9966408207649757,-0.2611111111111111,-0.45111111111111113,-0.4777777777777778,0.05058409932225634,0.00514409412030372,0.12213359392353244
1592172793.741585,0.0664295617577913,9.285713625494806,3.0078568127474026,-0.2611111111111111,-0.45111111111111113,-0.4777777777777778,-0.04144753668356669,-0.057499628821074816,0.10581109003356856
1592172793.751585,0.0,9.26,3.07,-0.25333333333333335,-0.43666666666666665,-0.49777777777777776,-0.06326818538479445,0.1679879405044542,-0.030543261909900768
1592172793.761585,0.006744076686561766,9.26,3.0834881533731235,-0.25333333333333335,-0.43666666666666665,-0.49777777777777776,-0.07651014899338734,0.039246627643134385,0.023895921814314477
1592172793.771585,0.019082687694725525,9.269082687694725,3.0627519369158236,-0.25333333333333335,-0.43666666666666665,-0.49777777777777776,-0.011567877128230375,0.17029222240913772,-0.021157046346663315
1592172793.781585,0.056878999140483236,9.242340750644638,3.0784394995702415,-0.25333333333333335,-0.43666666666666665,-0.49777777777777776,-0.01442051000251069,-0.02039064948138633,-0.090716158954562
1592172793.791585,0.08230177799135031,9.24,3.0651321480057665,-0.25333333333333335,-0.43666666666666665,-0.49777777777777776,-0.01689346201744151,0.04615613786216265,-0.010036062547658403
1592172793.801585,0.10815198070086338,9.24,3.050924009649568,-0.26644309717284576,-0.4497764305061791,-0.48466801393826536,0.01818803824126677,-0.06135777725904981,-0.09718940785458566
1592172793.811585,0.11,9.24,3.0779846091341443,-0.2677777777777778,-0.45111111111111113,-0.48333333333333334,-0.09825417846338484,-0.06916202937632424,0.15446213933805203
1592172793.821585,0.06538479078782351,9.24,2.981846539733212,-0.2677777777777778,-0.45111111111111113,-0.48333333333333334,-0.11663494539988499,0.028612947855046422,0.08876039459441537
1592172793.831585,0.033549686130522324,9.25763354257965,3.066984484188085,-0.2677777777777778,-0.45111111111111113,-0.48333333333333334,-0.03125127478305967,0.13172799144151298,0.0015989721383603134
1592172793.841585,0.03,9.238343590645332,3.116094015591114,-0.2677777777777778,-0.45111111111111113,-0.48333333333333334,-0.0479831276398362,0.023509925681207244,-0.027625428629904976
