time,acc_x,acc_y,acc_z,mag_x,mag_y,mag_z,gyr_x,gyr_y,gyr_z
1592172867.251515,-0.20222594193194962,9.0644518838639,3.5866610871020757,-0.2780269645139692,-0.20481357491157234,-0.2160520691730747,0.07972831661405773,-0.1057886750032443,0.11415840599927356
1592172867.261515,-0.21699898725829625,9.1,3.5509969617748887,-0.28888888888888886,-0.1988888888888889,-0.2288888888888889,-0.03992683704498568,0.007420521618521371,0.00020424656070201774
1592172867.271515,-0.20161971348276098,9.10279342883908,3.502065711609203,-0.28888888888888886,-0.1988888888888889,-0.2288888888888889,-0.032955366992040436,0.01934815832981964,-0.06003664249638707
1592172867.281515,-0.17253087601723313,9.105020584011488,3.4598764959310677,-0.28888888888888886,-0.1988888888888889,-0.2288888888888889,0.0191277099383986,-0.03395261722919116,-0.005296978198967954
1592172867.2915149,-0.16444574665494677,9.087936321906437,3.564445746654947,-0.28888888888888886,-0.1988888888888889,-0.2288888888888889,-0.015480017028840713,-0.1107952319272997,-0.08442363335856642
1592172867.3015149,-0.2212258044438912,9.08,3.6216344059251884,-0.28838948707841466,-0.19916128987642026,-0.22770848460958626,-0.042877857970297306,-0.025713109100419972,0.04834844189767745
1592172867.3115149,-0.25,9.085254529563224,3.6731363239080626,-0.27666666666666667,-0.20555555555555555,-0.2,-0.0932669724303069,-0.05182434414257564,-0.0630103006501613
1592172867.3215148,-0.28498614506927467,9.070011875654908,3.707500989637909,-0.27666666666666667,-0.20555555555555555,-0.2,-0.1587087539717699,-0.07636117745173682,-0.0714651773549392
1592172867.3315148,-0.3923240260825949,8.977675973917405,3.7092961043303796,-0.27666666666666667,-0.20555555555555555,-0.2,-0.20206450198788847,-0.04533832693362505,0.032785839288529156
1592172867.3415148,-0.3905039510381159,8.968100790207624,3.7475968391695074,-0.27666666666666667,-0.20555555555555555,-0.2,-0.136028533813202,-0.01481503359534174,-0.02532581523492798
1592172867.3515148,-0.34971227444591313,8.960035965694262,3.78,-0.2766426895371594,-0.20557553649681157,-0.20002797331775846,-0.004410402113682145,0.0007455849020567674,-0.05876362530371966
1592172867.3615148,-0.2589911966542665,8.978807042676587,3.764587675315973,-0.27,-0.2111111111111111,-0.20777777777777778,-0.005444550951967225,-0.08865773246184411,-0.009067261505117264
1592172867.3715148,-0.216023684146667,9.02192894756,3.6781894731733358,-0.27,-0.2111111111111111,-0.20777777777777778,0.03231701009776076,-0.04875697802393214,0.015782885917049353
1592172867.3815148,-0.20209534316026664,9.07,3.547904656839733,-0.27,-0.2111111111111111,-0.20777777777777778,0.00029024640292883014,0.01833611679420106,0.0005212196563533986
1592172867.3915148,-0.22746159164234137,9.058888078045783,3.568573513596559,-0.27,-0.2111111111111111,-0.20777777777777778,-0.04522598836804787,0.02238955738255468,0.11010289358520968
1592172867.4015148,-0.31606448763250883,9.00250441696113,3.7135600706713783,-0.27,-0.2111111111111111,-0.20777777777777778,-0.03116769507867966,0.1304626870445728,-0.012028529366176682
1592172867.4115148,-0.42495671507639904,8.982492785846066,3.8324927858460667,-0.27666666666666667,-0.22555555555555556,-0.2222222222222222,-0.03496954040932912,0.03440996005995633,0.05612269935030526
1592172867.4215147,-0.47,8.994688368673758,3.8212465253049688,-0.27666666666666667,-0.22555555555555556,-0.2222222222222222,0.01775771973733324,-0.029148003910014368,0.1057750760760909
1592172867.4315147,-0.46195350248593636,9.012011624378516,3.7519535024859363,-0.27666666666666667,-0.22555555555555556,-0.2222222222222222,-0.027509224086770756,-0.06168776532366673,0.05043956113504247
1592172867.4415147,-0.41954880383700466,9.024479084069855,3.72,-0.27666666666666667,-0.22555555555555556,-0.2222222222222222,-0.032656908729447834,-0.025740564368190152,-0.06395006274282819
1592172867.4515147,-0.36276713017579826,9.048814087067516,3.72,-0.27666666666666667,-0.22555555555555556,-0.2222222222222222,0.015124757922135863,-0.02927994708312228,-0.03209561830843906
1592172867.4615147,-0.3204226519337017,9.042394337016574,3.7008453038674034,-0.28888888888888886,-0.20555555555555555,-0.2288888888888889,-0.03057414869310681,-0.004040593912291432,0.16214996181042363
1592172867.4715147,-0.3098860971524288,9.0360797319933,3.6360227805695144,-0.28888888888888886,-0.20555555555555555,-0.2288888888888889,0.03368529308842825,-0.017726128118674234,0.07861436557915162
1592172867.4815147,-0.3943236571645582,8.981441219054853,3.6243236571645583,-0.28888888888888886,-0.20555555555555555,-0.2288888888888889,0.08897221425008435,0.005633374217636218,0.039700223320357594
1592172867.4915147,-0.4326495592862587,8.993449879805343,3.655749799675572,-0.28888888888888886,-0.20555555555555555,-0.2288888888888889,-0.10341705582197873,-0.09892146943296641,0.11371932759530792
1592172867.5015147,-0.5228195907518518,9.018041706568686,3.6967361776144783,-0.28888888888888886,-0.20555555555555555,-0.2288888888888889,0.06916046667255935,-0.20532937190369194,0.06901012487651567
1592172867.5115147,-0.5877870772589778,9.004509540812846,3.77,-0.28888888888888886,-0.23222222222222222,-0.2288888888888889,0.054003975809870604,-0.0219236172457104,-0.08081277534792697
1592172867.5215147,-0.5573754715702441,8.95522104502225,3.7438947748887434,-0.28888888888888886,-0.23222222222222222,-0.2288888888888889,0.08640453206206629,-0.06779757146558434,0.003610064147914492
1592172867.5315146,-0.4296842179792783,9.000315782020722,3.6085723726133443,-0.28888888888888886,-0.23222222222222222,-0.2288888888888889,0.017523627175669625,-0.21827093762989375,0.03092505654548696
1592172867.5415146,-0.2748483259026138,9.138917737564473,3.5256709502578896,-0.28888888888888886,-0.23222222222222222,-0.2288888888888889,-0.06538366664005288,-0.1425729850742365,-0.04404881312957409
1592172867.5515146,-0.14551995401046866,9.12793228646637,3.4906892378445433,-0.2893866717766146,-0.23199247627404113,-0.2286591429407078,-0.014141227811308629,-0.13338077202862947,-0.06093879580605144
1592172867.5615146,-0.013012515383007872,9.065341676922005,3.5286332923119788,-0.30333333333333334,-0.22555555555555556,-0.2222222222222222,-0.12021815385494523,-0.190190920023615,0.022257588179319672
1592172867.5715146,-0.034661541032926624,9.052126740049188,3.587873259950813,-0.30333333333333334,-0.22555555555555556,-0.2222222222222222,-0.15850090853582705,-0.14371315939547563,-0.1230072736402377
1592172867.5815146,-0.2293392214589467,9.055808682648722,3.5946696107294733,-0.30333333333333334,-0.22555555555555556,-0.2222222222222222,-0.14418326931373526,-0.13247999415137027,-0.09599583606408384
1592172867.5915146,-0.35641694410212077,9.045969797855316,3.663432045174462,-0.30333333333333334,-0.22555555555555556,-0.2222222222222222,-0.2315513506420151,-0.15164195148156637,0.025530018962624575
1592172867.6015146,-0.4412796365442272,9.076828958743356,3.7328651571725495,-0.30333333333333334,-0.22555555555555556,-0.2222222222222222,-0.04136035784645456,-0.13481089017222475,-0.09060430407183274
1592172867.6115146,-0.2500816235393356,9.038428560795893,3.695040811769668,-0.27666666666666667,-0.24444444444444444,-0.25222222222222224,0.029082885035286585,-0.02537852036718099,0.12001585108136771
1592172867.6215146,-0.18204223828277147,8.97461267148483,3.6610211191413855,-0.27666666666666667,-0.24444444444444444,-0.25222222222222224,0.029982480377669173,-0.06267667157059613,-0.015555869157287818
1592172867.6315145,-0.09902453200300293,8.957803743975976,3.6287792119729736,-0.27666666666666667,-0.24444444444444444,-0.25222222222222224,0.016176407897785818,-0.03126071700451295,-0.061830739178445615
1592172867.6415145,-0.08729964788054877,9.026399530507398,3.7244018779704064,-0.27666666666666667,-0.24444444444444444,-0.25222222222222224,0.0039705728345888975,-0.07814578570189283,-0.12057102439000571
1592172867.6515145,-0.06308826076080891,8.994117681014412,3.8535292759423525,-0.27666666666666667,-0.24444444444444444,-0.25222222222222224,0.00044916932030217207,0.013410705669562012,-0.2235720771828924
1592172867.6615145,-0.11,8.97,3.97,-0.2966666666666667,-0.23222222222222222,-0.25,0.0370882466048795,-0.009817477042468103,-0.10471975511965977
1592172867.6715145,-0.2621833686412271,8.92,4.057452736585235,-0.2966666666666667,-0.23222222222222222,-0.25,0.09888617544547194,-0.12966915627582423,-0.09325261992967919
1592172867.6815145,-0.34555752463316086,8.9129006876019,3.98574041256114,-0.2966666666666667,-0.23222222222222222,-0.25,0.031144776949033108,-0.0871714295642243,0.02748550246685548
1592172867.6915145,-0.5034192895455926,8.87569881590932,3.9565807104544075,-0.2966666666666667,-0.23222222222222222,-0.25,0.1999505740741624,-0.04281187910658088,-0.02929997314636721
1592172867.7015145,-0.5288881692136423,8.918146948689404,3.931111830786358,-0.2966666666666667,-0.23222222222222222,-0.25,0.153646844178151,-0.15857120384660936,-0.02003922716716493
1592172867.7115145,-0.47,9.02,3.8,-0.3022222222222222,-0.24444444444444444,-0.2577777777777778,0.13853550937704992,-0.2454369260617026,0.06326818538479445
1592172867.7215145,-0.3108280100266839,9.14932724185332,3.6010350125333552,-0.3022222222222222,-0.24444444444444444,-0.2577777777777778,0.3241022580643804,-0.27148138201781913,-0.047420752428700946
1592172867.7315145,-0.03398500495119536,9.02260149950488,3.433496251237799,-0.3022222222222222,-0.24444444444444444,-0.2577777777777778,0.1729459045200462,-0.1934936906171281,-0.11860774847222587
1592172867.7415144,0.1277796165489405,9.044073461150353,3.3889816347124118,-0.3022222222222222,-0.24444444444444444,-0.2577777777777778,0.10770997436335156,-0.22183200837093084,-0.1497552378326743
1592172867.7515144,0.026202219979818364,9.07793259334006,3.380516851664985,-0.3022222222222222,-0.24444444444444444,-0.2577777777777778,0.07816230743443203,-0.25230303989137914,-0.24301506157707659
1592172867.7615144,-0.18,9.17,3.54,-0.31444444444444447,-0.2577777777777778,-0.25,0.2530727415391778,-0.2868884957965679,-0.2683443724941282
1592172867.7715144,-0.2952439398588524,9.096941035082336,3.6065040400940984,-0.31444444444444447,-0.2577777777777778,-0.25,0.13588826155294298,-0.25762118904022396,-0.09037929668293743
1592172867.7815144,-0.3992607298166005,9.039665343165058,3.5181868027982603,-0.31444444444444447,-0.2577777777777778,-0.25,0.1949971911725178,-0.240964086738579,-0.018083165314374035
1592172867.7915144,-0.3008250923983618,9.130843072620117,3.4066546798521626,-0.31444444444444447,-0.2577777777777778,-0.25,0.36915082257707055,-0.25733625436082613,-0.047820469868410216
1592172867.8015144,-0.20865188292877834,9.239775047447807,3.2725845569873138,-0.31444444444444447,-0.2577777777777778,-0.25,0.3188781354716128,-0.1577049290063735,-0.11180388982081096
1592172867.8115144,-0.01,9.3,3.17,-0.29444444444444445,-0.28444444444444444,-0.25333333333333335,0.21489366415180183,-0.20071286397934787,0.02181661564992912
1592172867.8215144,0.04189822456620637,9.213502959056322,3.17,-0.29444444444444445,-0.28444444444444444,-0.25333333333333335,0.18847464639206035,-0.29789710788125395,-0.11310908219446475
1592172867.8315144,-0.018197279678794576,9.221654298152618,3.121580087068324,-0.29444444444444445,-0.28444444444444444,-0.25333333333333335,0.15794835060083087,-0.1559968970705082,0.05173519590268915
1592172867.8415143,-0.22169167881001495,9.239033326394278,3.2514500104085844,-0.29444444444444445,-0.28444444444444444,-0.25333333333333335,0.08561841858353511,-0.1445696258186943,-0.09856382053590013
1592172867.8515143,-0.27725478321757724,9.207282981018526,3.2990755284722093,-0.29444444444444445,-0.28444444444444444,-0.25333333333333335,0.17480162286724724,-0.16361846556861337,-0.03968558858160475
1592172867.8615143,-0.29550495095424717,9.221123762261438,3.3271905943464044,-0.3022222222222222,-0.27,-0.24,0.12841238318343498,-0.20943951023931953,-0.08711903867743859
1592172867.8715143,-0.21685526346052117,9.240285885139953,3.2742822972009473,-0.3022222222222222,-0.27,-0.24,0.21339677305939242,-0.2064769132855926,-0.048869740900416216
1592172867.8815143,-0.11074127739828424,9.24993261114561,3.0813477770877897,-0.3022222222222222,-0.27,-0.24,0.16288663380844495,-0.10650892935142572,-0.07833398879680223
1592172867.8915143,0.11617698446427725,9.210664872267083,3.148836473532606,-0.3022222222222222,-0.27,-0.24,0.17755157544954578,-0.0929381954528072,-0.14182906938237755
1592172867.9015143,0.01472013615572812,9.280186575896181,3.1412266780129774,-0.3022222222222222,-0.27,-0.24,0.04477950288098004,-0.10994699395095386,0.12506703876248831
1592172867.9115143,0.14,9.26,3.1,-0.30666666666666664,-0.27555555555555555,-0.2677777777777778,0.08290313946973066,-0.03381575425739013,0.04145156973486533
1592172867.9215143,0.2092256401358352,9.22908484743326,3.1106335671615892,-0.30666666666666664,-0.27555555555555555,-0.2677777777777778,0.004639768955042061,-0.1590462808249944,-0.0374414829368958
1592172867.9315143,0.09218018175463125,9.099588430618665,3.21028923453338,-0.30666666666666664,-0.27555555555555555,-0.2677777777777778,0.04533925099097337,-0.1251713071872635,-0.09323753151861944
1592172867.9415143,-0.08191038972387277,9.090425768961902,3.4393557759524644,-0.30666666666666664,-0.27555555555555555,-0.2677777777777778,0.08331992185320372,-0.04621149144736357,-0.22616987953642564
1592172867.9515142,-0.05869292941153447,9.207401514706746,3.4578267676471164,-0.30666666666666664,-0.27555555555555555,-0.2677777777777778,-0.02590502696526123,-0.16121613968657633,-0.0470793207025397
1592172867.9615142,-0.08859936790061645,9.297899051850925,3.373151422223613,-0.31953312263353884,-0.27555555555555555,-0.2817164384085559,0.04011917029924977,-0.11522029423893534,-0.11563700613907356
1592172867.9715142,0.05477964819368261,9.135916398713826,3.312088140722527,-0.32,-0.27555555555555555,-0.2822222222222222,-0.04901909223163193,-0.18079194593289477,0.006352691468330979
1592172867.9815142,0.17389053046292385,9.073054734768538,3.196109469537076,-0.32,-0.27555555555555555,-0.2822222222222222,-0.03579517136465553,-0.08490662842555682,0.008837719550567764
1592172867.9915142,0.3101507884816547,9.162412615706476,3.1703015769633094,-0.32,-0.27555555555555555,-0.2822222222222222,-0.17149071145635242,-0.17426974965153713,0.05035316400712438
1592172868.0015142,0.31842895770422563,9.29486332326761,3.186857915408451,-0.32,-0.27555555555555555,-0.2822222222222222,-0.18413282599132555,-0.159821618754425,-0.0598138340833558
1592172868.0115142,0.25,9.17,3.33,-0.30333333333333334,-0.2733333333333333,-0.2611111111111111,-0.24870941840919195,-0.17671458676442586,0.08508480103472357
1592172868.0215142,0.29024852218799435,9.089502955624011,3.410497044375989,-0.30333333333333334,-0.2733333333333333,-0.2611111111111111,-0.18636527413642068,-0.0037315385709618676,0.17025919532287587
1592172868.0315142,0.2818528079489553,8.997411231795821,3.4390735960255223,-0.30333333333333334,-0.2733333333333333,-0.2611111111111111,-0.08119083639349003,0.08370876350923159,-0.08723160872054264
1592172868.0415142,0.1334102046699337,8.916705102334967,3.5316186220812913,-0.30333333333333334,-0.2733333333333333,-0.2611111111111111,0.06992055512221265,0.11034418428977301,0.12922594943502214
1592172868.0515141,0.11223951080704728,9.018646848701339,3.532239510807047,-0.30333333333333334,-0.2733333333333333,-0.2611111111111111,0.17348271080800237,0.16399439164044877,0.03226361373246238
1592172868.0615141,0.0,9.08,3.53,-0.3233333333333333,-0.29777777777777775,-0.2966666666666667,0.05890486225480862,0.1461713248545251,-0.07199483164476608
1592172868.0715141,-0.15348031124734732,9.088526683958186,3.538526683958186,-0.3233333333333333,-0.29777777777777775,-0.2966666666666667,0.2374873134716017,0.10803653058427243,0.007995224629422468
1592172868.0815141,-0.2696759887300428,9.080036001252218,3.370612021287697,-0.3233333333333333,-0.29777777777777775,-0.2966666666666667,0.232476551876365,0.10144726277217041,-0.1020904010296164
1592172868.091514,-0.2500520112611538,9.229609915541348,3.3101560337834615,-0.3233333333333333,-0.29777777777777775,-0.2966666666666667,0.16489132815954421,-0.024760042186140988,0.0780689118167098
1592172868.101514,-0.10326266149619034,9.319672817974551,3.236631330748095,-0.3233333333333333,-0.29777777777777775,-0.2966666666666667,0.17360798181149587,0.02293057373704892,0.053640722107058024
1592172868.111514,-0.00106816733913781,9.389237023329187,3.1609155720049755,-0.3069209922236042,-0.29777777777777775,-0.31417316385037775,0.07142779025114061,0.12941823827842314,0.12426370460392658
1592172868.121514,0.2016477966930032,9.277973446281665,3.062910320110776,-0.30666666666666664,-0.29777777777777775,-0.31444444444444447,-0.06705308476353387,0.10727397133733718,0.01872244841284705
1592172868.131514,0.3847210403789034,9.24,3.03,-0.30666666666666664,-0.29777777777777775,-0.31444444444444447,-0.15620299248011807,0.08675147698264482,0.1462731660843592
1592172868.141514,0.15207934821112293,9.27806730428622,3.163235565001771,-0.30666666666666664,-0.29777777777777775,-0.31444444444444447,-0.14156046853315873,0.040498145762944755,0.053109046075984365
1592172868.151514,0.020669378476999456,9.1845355027816,3.4484381168870013,-0.30666666666666664,-0.29777777777777775,-0.31444444444444447,-0.10513750343990516,-0.024302289933451134,0.0705592704068094
1592172868.161514,-0.06,9.07,3.58,-0.3055555555555556,-0.2966666666666667,-0.3211111111111111,-0.05890486225480862,0.11017390903214205,0.039269908169872414
1592172868.171514,0.057456649762800585,9.00735645345984,3.56433911336496,-0.3055555555555556,-0.2966666666666667,-0.3211111111111111,0.0008869580246030767,0.08284050547583957,0.006811491446763199
1592172868.181514,0.11822940209574687,9.055868604890076,3.418852989521266,-0.3055555555555556,-0.2966666666666667,-0.3211111111111111,-0.050292409190580145,0.1296691753658576,-0.02681646218700143
1592172868.191514,0.044503689597714835,9.031688883599143,3.5043703880028563,-0.3055555555555556,-0.2966666666666667,-0.3211111111111111,-0.013364689448962776,0.06616897474129507,0.03546251665267519
1592172868.201514,0.061917155831210546,9.022694281389596,3.5173057186104035,-0.3055555555555556,-0.2966666666666667,-0.3211111111111111,0.08870797653110275,0.14107345181230335,-0.06911260920952884
1592172868.211514,0.06185495160089352,9.093305435591958,3.52,-0.31098558782162655,-0.30209669893273766,-0.3274461487548606,0.15210014854309892,0.2057090801441224,-0.09131333921230794
1592172868.221514,-0.013534727306002928,9.183534727306002,3.430124222181552,-0.31222222222222223,-0.30333333333333334,-0.3288888888888889,0.07171765701305882,0.11130723809480395,0.03929331591314615
1592172868.231514,-0.07194592724396995,9.166443258204824,3.3764432582048243,-0.31222222222222223,-0.30333333333333334,-0.3288888888888889,0.12099374051694861,0.08652705703668977,0.16005844396370014
1592172868.241514,-0.021618599175985874,9.126639199529134,3.386680400235433,-0.31222222222222223,-0.30333333333333334,-0.3288888888888889,0.02045034848974521,0.14895008625926004,0.06590312919372056
1592172868.251514,0.06567786584644505,9.126879805986041,3.3624807760558384,-0.31222222222222223,-0.30333333333333334,-0.3288888888888889,0.09763090359245208,0.1479344883445581,0.03012476383494087
1592172868.261514,0.05647290180654623,9.277992133857744,3.2629458036130923,-0.31222222222222223,-0.30816967757705044,-0.3288888888888889,0.14859651633689555,0.09337768917073072,-0.08615694349570135
1592172868.271514,-0.001634595816845677,9.265576936122104,3.2930288298473713,-0.31222222222222223,-0.3088888888888889,-0.3288888888888889,-0.04299858854047703,0.08429814493192742,0.0026011720217187367
1592172868.281514,-0.09250962846797812,9.152737482991629,3.2834980743064044,-0.31222222222222223,-0.3088888888888889,-0.3288888888888889,0.06262965151977001,0.10739502132438337,-0.00916633954233306
1592172868.291514,-0.09364869366582591,9.04824346832913,3.3862834911721316,-0.31222222222222223,-0.3088888888888889,-0.3288888888888889,0.17100224759059365,0.08203350651544614,0.11404305409931081
1592172868.301514,-0.09,9.091561364997006,3.3757992416683296,-0.31222222222222223,-0.3088888888888889,-0.3288888888888889,0.166329381388142,0.12227444635811968,-0.014537720178636554
1592172868.311514,-0.11424309016063636,9.208891330589001,3.2953517595716364,-0.31850746781942424,-0.2918289365536263,-0.3459488412241515,0.18595992544172682,0.09726997070509447,0.05377411878726533
1592172868.321514,-0.13848951193647674,9.285468535809429,3.1320839045081863,-0.32,-0.2877777777777778,-0.35,0.18299258411505046,0.14164018594474234,-0.025679538532692614
1592172868.331514,0.0002479637282831182,9.318049592745657,2.9376776471532318,-0.32,-0.2877777777777778,-0.35,0.04830529416180768,0.1966569675402201,-0.013488433597470519
1592172868.3415139,0.06,9.270306281363558,2.911166044545522,-0.32,-0.2877777777777778,-0.35,0.13545821946286565,0.09816713922028465,0.08679872100445325
1592172868.3515139,0.08168849692635301,9.26,2.92,-0.32,-0.2877777777777778,-0.35,-0.047842499618462514,0.01909140137632915,0.13487134965490588
1592172868.3615139,0.0022170252572497606,9.321448082319925,2.9551131898971,-0.32,-0.29362997609396113,-0.3685319613345806,-0.17167513222519573,0.13174399080269686,0.0007549079634152356
1592172868.3715138,-0.14870003249918753,9.306883327916802,3.035129184270393,-0.32,-0.29444444444444445,-0.3711111111111111,-0.18789196854581383,0.14170891586048084,0.12094635046211416
1592172868.3815138,-0.14459747077069912,9.23729873538535,3.09,-0.32,-0.29444444444444445,-0.3711111111111111,-0.11231150530210357,0.15004568718565675,0.07825738721016076
1592172868.3915138,-0.10240465541287934,9.159237243303036,3.1507627566969654,-0.32,-0.29444444444444445,-0.3711111111111111,0.029251451339603426,0.1499268297069173,-0.0373956706603515
1592172868.4015138,-0.005883912787271642,9.127451188371635,3.213920840699273,-0.32,-0.29444444444444445,-0.3711111111111111,0.009326463917115738,0.11207811689840098,-0.013732383228511953
1592172868.4115138,0.011073461642721605,9.182282461371644,3.216644076985633,-0.31394476069997895,-0.3039598204873347,-0.3659209059968073,-0.08004846872583776,0.13554895722112303,0.011391478738111539
1592172868.4215138,0.01654300798953418,9.249629023968602,3.201728496005233,-0.31222222222222223,-0.30666666666666664,-0.36444444444444446,-0.11042960673974307,0.15918035982955922,-0.0017236278200835238
1592172868.4315138,-0.010696227840227484,9.26,3.07721508863909,-0.31222222222222223,-0.30666666666666664,-0.36444444444444446,-0.14609368185841012,0.07187221193180052,0.06930233538623283
1592172868.4415138,-0.04981244671781756,9.245093776641092,3.062359335038363,-0.31222222222222223,-0.30666666666666664,-0.36444444444444446,-0.15598880189699318,0.12033383998394889,0.10463791956223463
1592172868.4515138,-0.08449623971567145,9.246124059928919,3.1312405992891783,-0.31222222222222223,-0.30666666666666664,-0.36444444444444446,-0.19874280563661983,0.14483526223766174,0.007542319368032319
1592172868.4615138,-0.14365280644844194,9.257275467741406,3.1554490645171858,-0.3073719103946176,-0.31070859318967053,-0.37414506809965375,-0.17659688612656876,0.03843681783668891,0.0559723185154756
1592172868.4715137,-0.12142781766878484,9.221427817668786,3.211715491729944,-0.3055555555555556,-0.31222222222222223,-0.37777777777777777,-0.2002461872969415,-0.04148352566405364,0.20168105105867135
1592172868.4815137,-0.005541401273885346,9.172693357597817,3.222538671519563,-0.3055555555555556,-0.31222222222222223,-0.37777777777777777,-0.2591045692600431,-0.02252233056017023,0.021545644945996867
1592172868.4915137,0.10306986591390262,9.101544107268879,3.271148906139732,-0.3055555555555556,-0.31222222222222223,-0.37777777777777777,-0.21032680138957038,-0.013593275787696485,0.09727947317694402
1592172868.5015137,0.20884428931549348,9.066859285114084,3.316281429771831,-0.3055555555555556,-0.31222222222222223,-0.37777777777777777,-0.19369921195767703,0.023088370211617998,0.16882663432888673
1592172868.5115137,0.19366534726946624,9.0841434225988,3.4104780753293342,-0.32254537145841494,-0.3166932264071852,-0.39119079033266674,-0.24221223219336463,0.03376360432883118,0.059291669001759154
1592172868.5215137,0.1586796397555484,9.095330090061113,3.483300900611129,-0.32666666666666666,-0.31777777777777777,-0.39444444444444443,-0.21411742524783733,0.021168485330544565,0.004960666136483161
1592172868.5315137,0.08507360740989885,9.076460117461385,3.569233137564358,-0.32666666666666666,-0.31777777777777777,-0.39444444444444443,-0.18169894767788,0.11385531828236592,-0.027724503915732026
1592172868.5415137,0.013980004760771249,9.021982861223519,3.7160485598666986,-0.32666666666666666,-0.31777777777777777,-0.39444444444444443,-0.168201121192964,0.067605023216086,-0.028797309474407746
1592172868.5515137,0.03996149112707927,9.02332049704236,3.7699807455635397,-0.32666666666666666,-0.31777777777777777,-0.39444444444444443,-0.21411883607762552,0.08250732409984628,-0.06614066169600133
1592172868.5615137,0.027549899877268913,9.021887474969317,3.812450100122731,-0.3167513582958322,-0.3123694277573226,-0.42599315289709966,-0.06809867524095758,0.13731798692431713,0.06004522821204156
1592172868.5715137,0.015157327061876572,9.024842672938123,3.800629308247506,-0.31444444444444447,-0.3111111111111111,-0.43333333333333335,-0.065339357318181,0.07485707926321263,0.03359052879536467
1592172868.5815136,-0.012973638698181437,8.984052722603638,3.7417106021696975,-0.31444444444444447,-0.3111111111111111,-0.43333333333333335,-0.11474389603083102,0.07910229650687353,-0.020519120998729518
1592172868.5915136,0.016250906135360146,8.97,3.8242523559519364,-0.31444444444444447,-0.3111111111111111,-0.43333333333333335,-0.07510263185930952,0.12340072649008355,0.05688868357503683
1592172868.6015136,0.018740936310241253,8.96437046815512,3.888147659224397,-0.31444444444444447,-0.3111111111111111,-0.43333333333333335,0.03443631048225633,0.07256146093890911,0.010166228179974063
1592172868.6115136,0.0038230918499353173,8.97235381630013,3.91,-0.323366645105649,-0.30424787983326146,-0.4388239183556131,0.0664736473801899,0.05287502345523782,0.04768249959071781
1592172868.6215136,0.07671196721691015,8.986973815201537,3.8263142175815528,-0.3288888888888889,-0.3,-0.44222222222222224,0.03384431744158673,0.15924864158729202,0.15634855659096356
1592172868.6315136,0.1708628847144798,8.962949829015786,3.6885618588092006,-0.3288888888888889,-0.3,-0.44222222222222224,0.04824755741872412,0.13730384711300755,0.022155152865183686
1592172868.6415136,0.153866507300382,9.002723991656705,3.6531809979141765,-0.3288888888888889,-0.3,-0.44222222222222224,0.012150662056519032,0.08498706623706054,0.019531313784197
1592172868.6515136,0.06003379108465452,9.040764032140823,3.7084381446337007,-0.3288888888888889,-0.3,-0.44222222222222224,0.018446036182511144,0.11946552595907416,0.005059555236658478
1592172868.6615136,0.01805660746931314,9.001849046748498,3.7439811308435624,-0.3288888888888889,-0.31270650155247964,-0.43820964278459706,0.07252172940716548,0.0968884006037056,0.0513349268030457
1592172868.6715136,0.016591242027450364,8.92977372608235,3.74,-0.3288888888888889,-0.3211111111111111,-0.43555555555555553,0.127465166310882,0.04246835255096752,0.06738468196013277
1592172868.6815135,0.016660003412886083,8.903339996587114,3.6667399624582533,-0.3288888888888889,-0.3211111111111111,-0.43555555555555553,0.10221736733961384,0.047621314597275186,0.06034476633346633
1592172868.6915135,0.006826503719943092,9.07125545164074,3.5904795111598293,-0.3288888888888889,-0.3211111111111111,-0.43555555555555553,0.05772938949611594,0.05057669729124861,0.06044648088708595
1592172868.7015135,0.015842051321717943,9.149438632452188,3.5964034188695297,-0.3288888888888889,-0.3211111111111111,-0.43555555555555553,0.022773563212026355,-0.0039076729891565215,0.04865873531132703
1592172868.7115135,-0.011046507740145116,9.093089705439835,3.6786378682002074,-0.322373570199977,-0.31524732429109037,-0.4394647467689027,0.17104659952826923,0.019091344040698358,0.05680292773152681
1592172868.7215135,-0.05401815553080041,8.982900144580597,3.6989727667037995,-0.31777777777777777,-0.3111111111111111,-0.44222222222222224,0.17088779072286103,-0.06278400657737551,0.06610236495809826
1592172868.7315135,0.005709099872274637,8.956570909987228,3.6177199901404977,-0.31777777777777777,-0.3111111111111111,-0.44222222222222224,0.21747279808451328,-0.017118492752361922,0.006674289708522248
1592172868.7415135,-0.010368689733408966,9.010368689733408,3.5611117413499715,-0.31777777777777777,-0.3111111111111111,-0.44222222222222224,0.23057056689491737,-0.09105993028405328,-0.11808939298022891
1592172868.7515135,0.011713548945886894,9.096884903840476,3.5034578059487016,-0.31777777777777777,-0.3111111111111111,-0.44222222222222224,0.17224581157694432,-0.20078093219809387,-0.03749223255676801
1592172868.7615135,0.07198994698065138,9.155994973490326,3.4120402120773945,-0.31777777777777777,-0.31377554377347805,-0.4355611405663048,0.15815401424754236,-0.2308219868048426,0.048903214099025
1592172868.7715135,0.09965709099518585,9.170920606108437,3.3603429090048142,-0.31777777777777777,-0.31555555555555553,-0.4311111111111111,0.15768014488241794,-0.21192041636274966,0.030870140962946227
1592172868.7815135,0.11269903359410953,9.184532903819605,3.194498389323516,-0.31777777777777777,-0.31555555555555553,-0.4311111111111111,0.21325917495354663,-0.09427955576440435,-0.015905648110170367
1592172868.7915134,0.11544256348246676,9.162911487303507,3.0691148730350664,-0.31777777777777777,-0.31555555555555553,-0.4311111111111111,0.12888565358710857,-0.15264605846428525,-0.01623879028138049
1592172868.8015134,0.11989548412541905,9.185261289686453,3.0450522579372907,-0.31777777777777777,-0.31555555555555553,-0.4311111111111111,0.05217746294662598,-0.15701316320368774,-0.018209624807708536
1592172868.8115134,0.10241907841552142,9.309676313662086,3.06,-0.3191576753795024,-0.32038519716159164,-0.44560003592921943,0.07789589989885645,-0.046448580011416996,-0.07718510503715602
1592172868.8215134,0.10619059087989724,9.343809409120103,3.0809517501605654,-0.32,-0.3233333333333333,-0.45444444444444443,0.1127715067565334,-0.06705925147012523,-0.08653893556651245
1592172868.8315134,0.07878335222004738,9.191750283300712,3.226083238899763,-0.32,-0.3233333333333333,-0.45444444444444443,0.07725805926699789,-0.18858100968690406,-0.11696162520854576
1592172868.8415134,0.08178969804618118,9.071789698046182,3.2464206039076378,-0.32,-0.3233333333333333,-0.45444444444444443,0.054334145648875336,-0.23070578916551812,-0.13455163260664507
1592172868.8515134,0.1284327964860908,9.161669692532943,3.239608199121523,-0.32,-0.3233333333333333,-0.45444444444444443,0.046179163267298866,-0.19415471904183948,-0.12603270401180253
1592172868.8615134,0.08896103896103898,9.31077922077922,3.26012987012987,-0.31606060606060604,-0.33683982683982683,-0.4499422799422799,0.11904222162750286,-0.17631792102533625,-0.09599310885968812
1592172868.8715134,0.09147133211128385,9.244659489059563,3.2261308211708473,-0.31222222222222223,-0.35,-0.44555555555555554,0.16989317997566697,-0.23591072870563887,-0.0946258559834115
1592172868.8815134,0.18654155978578824,9.140911525133882,3.1476407452409885,-0.31222222222222223,-0.35,-0.44555555555555554,0.09482915839533539,-0.19048303022147678,-0.04685015367093854
1592172868.8915133,0.22,9.114405346491964,3.121189307016073,-0.31222222222222223,-0.35,-0.44555555555555554,0.11285456682329098,-0.0847155380788647,-0.04482463476259109
1592172868.9015133,0.27065441392120443,9.183679147521751,3.0977653729592336,-0.31222222222222223,-0.35,-0.44555555555555554,0.1550137619116064,-0.006345630010767291,-0.10045479764748748
1592172868.9115133,0.2448030872748862,9.27473316181806,3.0883989709083712,-0.309066781010181,-0.34000776949520267,-0.4497628105049439,0.13543766221124265,0.008334396204203577,-0.15700616225077213
1592172868.9215133,0.19908584116785563,9.28,3.1506786507299096,-0.3055555555555556,-0.3288888888888889,-0.45444444444444443,0.10187182975859253,-0.1025032819992468,-0.16392377515272663
1592172868.9315133,0.19632650375115168,9.263163251875575,3.1307142543763438,-0.3055555555555556,-0.3288888888888889,-0.45444444444444443,0.09392276534848747,-0.05404056002460901,-0.09564800374967267
1592172868.9415133,0.20152183728757903,9.2094719234874,3.167546794187669,-0.3055555555555556,-0.3288888888888889,-0.45444444444444443,0.11383601898302576,-0.06906480786471471,-0.08701927717426816
1592172868.9515133,0.24353586005830904,9.156464139941692,3.25,-0.3055555555555556,-0.3288888888888889,-0.45444444444444443,0.12415587905730245,-0.12294547032313874,-0.06294977728583367
1592172868.9615133,0.2407894481307655,9.20065803528079,3.25,-0.31425441009872146,-0.34014623006239775,-0.45444444444444443,0.14543939664215572,0.03743281425680968,0.0351361555771189
1592172868.9715133,0.268979533387676,9.254431495230332,3.13862990460664,-0.3244444444444444,-0.35333333333333333,-0.45444444444444443,0.14743393547076136,0.025210036386251564,-0.0014629162841464007
1592172868.9815133,0.3294480514005295,9.246318993574933,3.0205519485994703,-0.3244444444444444,-0.35333333333333333,-0.45444444444444443,0.1433406540172467,0.004517384881506218,-0.046123016367891935
1592172868.9915133,0.3641714056490243,9.24,2.973165718870195,-0.3244444444444444,-0.35333333333333333,-0.45444444444444443,0.16687008283784954,0.05175650880708679,-0.09916210111098792
1592172869.0015132,0.22681318102858347,9.242124545980944,3.001593409485708,-0.3244444444444444,-0.35333333333333333,-0.45444444444444443,0.07910122353880088,0.1480053583962915,0.053342813883184854
1592172869.0115132,0.1936950571142812,9.264203295257145,3.018152471442859,-0.3244444444444444,-0.35333333333333333,-0.45444444444444443,0.13028010465649253,0.14439273149386622,-0.00445921655561983
1592172869.0215132,0.1294269819193324,9.243115438108484,3.085326842837274,-0.3219854736516767,-0.34800556328233656,-0.45772307216813474,0.1294787312975077,0.15951132054901027,-0.020064610938347886
1592172869.0315132,0.05487839703012708,9.185121602969872,3.1082975584217793,-0.31777777777777777,-0.3388888888888889,-0.4633333333333333,0.07550609086526014,0.17527887049870045,0.05863645070155049
1592172869.0415132,0.09770199323723083,9.256782790532123,3.0209192027051075,-0.31777777777777777,-0.3388888888888889,-0.4633333333333333,0.10745976615685551,0.08182970781677348,0.07914143310339611
1592172869.0515132,0.1905483122700368,9.337372420412734,2.9373344264917614,-0.31777777777777777,-0.3388888888888889,-0.4633333333333333,0.07931501119553509,0.02671409859837945,0.08394659214353285
1592172869.0615132,0.25685635459616785,9.343712709192335,2.83,-0.31149048697011344,-0.3413339464252028,-0.46298403939957417,-0.026682559633431226,0.11438956785689361,0.0703628186246765
1592172869.0715132,0.2300793609894357,9.33,2.834980159752641,-0.29777777777777775,-0.3466666666666667,-0.4622222222222222,-0.08933558393144178,0.1680571960326189,0.008579478262621697
1592172869.0815132,0.14953970390309557,9.340992781108527,2.752057751131775,-0.29777777777777775,-0.3466666666666667,-0.4622222222222222,-0.12080754051422422,0.11995692473751966,0.06979742090170704
1592172869.0915132,0.07685959350192927,9.367355304873554,2.703140406498071,-0.29777777777777775,-0.3466666666666667,-0.4622222222222222,-0.06836194611462049,0.08985382453167635,0.023818228073010317
1592172869.1015131,0.01122543145846374,9.38,2.7732086202271304,-0.29777777777777775,-0.3466666666666667,-0.4622222222222222,-0.1081688014970444,0.07456731164963652,-0.013357317061303825
1592172869.1115131,-0.06429552810621574,9.383573882026555,2.875738820265539,-0.29976326779252993,-0.341504392628311,-0.4669873982576275,-0.1471422211738823,0.10170964868236664,-0.009356401266182032
1592172869.1215131,-0.07842717447246526,9.343708697889861,3.0152233659289758,-0.30333333333333334,-0.3322222222222222,-0.47555555555555556,-0.1122010128439588,0.023333055704793326,0.15939277781075153
1592172869.131513,-0.06395401099562584,9.303282234439585,3.0720153296681247,-0.30333333333333334,-0.3322222222222222,-0.47555555555555556,-0.16909549336082658,-0.09121519211274239,0.27591132979828714
1592172869.141513,0.089356436955197,9.185229843944573,3.1445862808997695,-0.30333333333333334,-0.3322222222222222,-0.47555555555555556,-0.27906097641160527,-0.1557581387150759,0.10986185911669777
1592172869.151513,0.16,9.16,3.19,-0.30333333333333334,-0.3322222222222222,-0.47555555555555556,-0.35997415822383044,-0.1810779098944117,0.20398535632683729
1592172869.161513,0.21924727838258165,9.126236391912908,3.1861290824261275,-0.3130943494038362,-0.34044202522896144,-0.48223414549853116,-0.08818086040961633,-0.155742304676625,-0.11731723901014801
1592172869.171513,0.22239943741209564,9.182714486638536,3.171085794655415,-0.3244444444444444,-0.35,-0.49,-0.2439812576419661,-0.21084178778531354,-0.06957628643305384
1592172869.181513,0.08117878192534381,9.238821218074657,3.145893909626719,-0.3244444444444444,-0.35,-0.49,-0.21694245438375978,-0.20496796126549072,-0.03562023268344518
1592172869.191513,0.123070398441398,9.205774667965501,3.1474929316448477,-0.3244444444444444,-0.35,-0.49,-0.19933321145625077,-0.23925146534246075,-0.026763750564621526
1592172869.201513,0.17544652179908982,9.139084891349317,3.2636604346027305,-0.3244444444444444,-0.35,-0.49,-0.15341266270550047,-0.2288868532064009,-0.04659903427015328
1592172869.211513,0.1373669055331959,9.129474820850103,3.3684244625503093,-0.3202334129555097,-0.34754356496478805,-0.49456195077967924,-0.15828503977859268,-0.2425638803058469,0.031812239233264344
1592172869.221513,0.10521018354055654,9.159579632918888,3.4635287152161043,-0.3111111111111111,-0.3422222222222222,-0.5044444444444445,-0.16634685049952616,-0.20480105749811792,-0.0056711575494975686
1592172869.231513,0.07135178459611773,9.112703569192236,3.5238735128365684,-0.3111111111111111,-0.3422222222222222,-0.5044444444444445,-0.16748693702145767,-0.19703767269877862,-0.20993015868495687
1592172869.241513,0.06506003185849124,9.029951974513207,3.580072038230189,-0.3111111111111111,-0.3422222222222222,-0.5044444444444445,-0.046102298935358874,-0.1865451607267285,-0.17541682464854363
1592172869.251513,0.11077642767943865,9.047397569822989,3.5975341433923367,-0.3111111111111111,-0.3422222222222222,-0.5044444444444445,0.010320134046585036,-0.29895825331293957,-0.07947615474497043
1592172869.261513,0.2083837508306608,9.143189737366733,3.5548059865360724,-0.3083117762817858,-0.3450215570515475,-0.5068438742981518,-0.0815020249897485,-0.37482718195988746,-0.025404056193352932
1592172869.271513,0.34352385074490865,9.170412547268668,3.473936398013577,-0.30333333333333334,-0.35,-0.5111111111111111,-0.06371820464469263,-0.21462693269206978,0.005492123510998259
1592172869.281513,0.364164098253479,9.072523115718688,3.3800308209582517,-0.30333333333333334,-0.35,-0.5111111111111111,0.015808641233696887,-0.16835939553695464,-0.0454501619223521
1592172869.291513,0.3138708456534595,9.02,3.301981549379066,-0.30333333333333334,-0.35,-0.5111111111111111,0.07120569201564511,-0.1400385206662193,-0.04974590898289266
1592172869.301513,0.18744518645470126,9.078922049524259,3.2867265528042076,-0.30333333333333334,-0.35,-0.5111111111111111,0.09866471274174109,-0.18255837375115957,-0.055216499132667365
1592172869.311513,0.11196850151966353,9.219149602431461,3.2895748012157306,-0.3051951002363921,-0.35,-0.5095153109084893,0.021177582309690354,-0.28414338511987197,-0.06474209458564281
1592172869.321513,0.19040815365784766,9.259795923171076,3.3078775539026455,-0.3111111111111111,-0.35,-0.5044444444444445,-0.01756015716820499,-0.18986689814524815,-0.105890721550216
1592172869.331513,0.2656690149141201,9.18691020898617,3.2782482388144096,-0.3111111111111111,-0.35,-0.5044444444444445,0.02285175220002754,-0.19209472766362382,-0.0934667187579371
1592172869.341513,0.27141180810106735,9.112564723240427,3.2934587454180786,-0.3111111111111111,-0.35,-0.5044444444444445,0.06322186336387649,-0.21951379535866833,-0.021144116473279736
1592172869.351513,0.2428741343558042,9.125867209202237,3.335629328220979,-0.3111111111111111,-0.35,-0.5044444444444445,0.14786324569299716,-0.13835173390267963,-0.046441931710519524
1592172869.361513,0.22352178921098098,9.198826070263006,3.2982347859473986,-0.3107188413216442,-0.35,-0.5056212538128453,0.13295141488085885,-0.18312868851852146,-0.04645611456882583
1592172869.371513,0.0777512355848435,9.228875617792422,3.278875617792422,-0.3088888888888889,-0.35,-0.5111111111111111,0.12024971708776314,-0.2045045642239975,-0.02389913800871491
1592172869.3815129,0.06083864297564377,9.182215142699143,3.2461075713495706,-0.3088888888888889,-0.35,-0.5111111111111111,0.08947996443231418,-0.2980056275182947,-0.06790692420680487
1592172869.3915129,0.11760415923097056,9.126479168153805,3.237604159230971,-0.3088888888888889,-0.35,-0.5111111111111111,0.008294850964147274,-0.21004403922675918,-0.17581011629835278
1592172869.4015129,0.1415063405622799,9.14548097831316,3.26150634056228,-0.3088888888888889,-0.35,-0.5111111111111111,0.10169480770295303,-0.09333829285691252,-0.13199052468207118
1592172869.4115129,0.12330153142052455,9.219904594261575,3.2383492342897378,-0.3088888888888889,-0.34908290793874314,-0.5096437638131002,0.2512304068812132,-0.0997641844160897,-0.10443972209498228
1592172869.4215128,0.14,9.27,3.23,-0.3088888888888889,-0.34444444444444444,-0.5022222222222222,0.26398104936414235,-0.12435470920459597,0.03490658503988659
1592172869.4315128,0.11641949375065645,9.282736582291776,3.078951265623359,-0.3088888888888889,-0.34444444444444444,-0.5022222222222222,0.083271370762131,-0.2147680943022465,-0.0128164883398767
1592172869.4415128,0.16974213793573914,9.293247379311913,2.960257862064261,-0.3088888888888889,-0.34444444444444444,-0.5022222222222222,0.09615570284698294,-0.16264104157306467,0.050774170707078826
1592172869.4515128,0.16805765134473355,9.3,2.9595043099157925,-0.3088888888888889,-0.34444444444444444,-0.5022222222222222,0.13530327742154885,-0.10745594169533947,0.023853695936681414
1592172869.4615128,0.09332106808898491,9.291985281706783,3.0373652229686394,-0.30606889541534915,-0.3480065414636525,-0.5044485328592273,0.03841169319445256,-0.1437062674922769,-0.08492704796878782
1592172869.4715128,0.03118309403250792,9.202366188065016,3.176343668354489,-0.2877777777777778,-0.3711111111111111,-0.5188888888888888,0.0984795906794093,-0.10161256079877054,-0.11000861100554193
1592172869.4815128,-0.04082640120005455,9.143402200100006,3.2097933996999863,-0.2877777777777778,-0.3711111111111111,-0.5188888888888888,0.15018752489287646,-0.07150341483173227,-0.18094122754285247
1592172869.4915128,-0.0984479305740988,9.165394335304216,3.183842265878314,-0.2877777777777778,-0.3711111111111111,-0.5188888888888888,0.20397432942783433,-0.1921279549825034,-0.10992960080281791
1592172869.5015128,-0.04747368626990649,9.20757894119028,3.1624210588097195,-0.2877777777777778,-0.3711111111111111,-0.5188888888888888,0.15865273043430006,-0.13316170483843973,-0.13001555201108925
1592172869.5115128,-0.038799332606045046,9.236003336969775,3.1327959956362705,-0.2884448152188639,-0.3711111111111111,-0.5168877765656306,0.13718091356930498,-0.21863789548685736,-0.09738165531426038
1592172869.5215127,0.003760405524810495,9.263119797237595,3.052991675580152,-0.29333333333333333,-0.3711111111111111,-0.5022222222222222,0.12857337791537105,-0.12895562271591568,-0.05271835571285557
1592172869.5315127,0.0856822525756375,9.248818703090764,2.9592261433033427,-0.29333333333333333,-0.3711111111111111,-0.5022222222222222,0.11429293813951294,-0.2085729885604356,-0.1007364505639873
1592172869.5415127,0.11704408912436728,9.307735465253796,2.8670440891243674,-0.29333333333333333,-0.3711111111111111,-0.5022222222222222,0.04645210956940942,-0.29119717160176717,-0.006516551573205916
1592172869.5515127,0.11244452484322238,9.342666425470332,2.891778822961891,-0.29333333333333333,-0.3711111111111111,-0.5022222222222222,0.12595425231655621,-0.24613928321893228,-0.08576255793190418
1592172869.5615127,0.13538343738956296,9.311026328189422,3.0028195311579693,-0.2904845486315624,-0.3726779426970851,-0.5020797829871336,0.10961329859553746,-0.17769429775434797,0.001510766581436074
1592172869.5715127,0.24287638982774293,9.2298652712058,3.078494440689028,-0.27111111111111114,-0.38333333333333336,-0.5011111111111111,0.20138705288398634,-0.11739051453523391,-0.04025529443464171
1592172869.5815127,0.22307819669804627,9.204229622971758,3.0042329343866787,-0.27111111111111114,-0.38333333333333336,-0.5011111111111111,0.16018441605100506,-0.11265032557275442,-0.05890486225480862
1592172869.5915127,0.14737669492531644,9.285739830448101,2.8878699152240506,-0.27111111111111114,-0.38333333333333336,-0.5011111111111111,0.14693934370637468,-0.047835148464520624,-0.07092350634965344
1592172869.6015127,0.14642802276800662,9.33,2.9035719772319935,-0.27111111111111114,-0.38333333333333336,-0.5011111111111111,0.11383716084375695,-0.04565842150036763,-0.10004516504903997
1592172869.6115127,0.1675255117444599,9.33,2.881855866191655,-0.2719359405296245,-0.38333333333333336,-0.4996676596287127,0.07102852326999318,-0.07281573763125564,-0.08101366589768227
1592172869.6215127,0.11494564088359532,9.33,2.899963760589064,-0.28444444444444444,-0.38333333333333336,-0.4777777777777778,0.17612371064844026,-0.05120579707335099,-0.08766665797993019
1592172869.6315126,0.07924073127388691,9.332310182818471,2.8653796343630566,-0.28444444444444444,-0.38333333333333336,-0.4777777777777778,0.12921144081019142,-0.006469224812253685,-0.15754478720654702
1592172869.6415126,0.1025892878444471,9.335059525229632,2.857410712155553,-0.28444444444444444,-0.38333333333333336,-0.4777777777777778,0.10922267544199465,0.00339585004542646,-0.050048352089202774
1592172869.6515126,0.07389509584852405,9.32,2.8881398722019678,-0.28444444444444444,-0.38333333333333336,-0.4777777777777778,0.13335366760627987,0.0759888998526908,-0.056709431137423855
1592172869.6615126,0.0525678640426995,9.32,2.92,-0.28444444444444444,-0.3828102499172279,-0.4783959672695388,0.10070830251714284,-0.05165160015761887,0.04338726840754773
1592172869.6715126,0.10702269692923899,9.305113484646196,2.922977303070761,-0.28444444444444444,-0.3711111111111111,-0.4922222222222222,0.18408242779066028,0.03226325009965819,-0.031044257623090057
1592172869.6815126,0.10269786850118418,9.27,2.911114920491711,-0.28444444444444444,-0.3711111111111111,-0.4922222222222222,0.14905944912974292,-0.04369550473417646,-0.05676222307892227
1592172869.6915126,0.1009949417715563,9.267748735442888,2.9005227620279967,-0.28444444444444444,-0.3711111111111111,-0.4922222222222222,0.17954191852485057,0.08262353468499241,0.010531207071688404
1592172869.7015126,0.06466736397544948,9.256444909316967,3.048887726707584,-0.28444444444444444,-0.3711111111111111,-0.4922222222222222,0.13281374445516947,0.045014341774312266,0.037718707229224616
1592172869.7115126,0.040358738628692666,9.239641261371307,3.0899103153428267,-0.2845042342158932,-0.3712207256921005,-0.4920328879459678,0.16796346527586498,0.06681460392961777,0.02983888025961343
1592172869.7215126,0.07736989089532105,9.213150545523394,3.064219345371926,-0.2911111111111111,-0.38333333333333336,-0.4711111111111111,0.27001814316417744,0.11114205910845379,-0.04742275363530246
1592172869.7315125,0.057698982031837126,9.26968162874906,2.9707959281273486,-0.2911111111111111,-0.38333333333333336,-0.4711111111111111,0.22633870513899493,0.11645209218299718,-0.03669042910696558
1592172869.7415125,0.01791504424778761,9.332084955752212,2.8179150442477874,-0.2911111111111111,-0.38333333333333336,-0.4711111111111111,0.19955445960855522,0.02564514209539898,0.0008255561815849275
1592172869.7515125,0.019143037451308943,9.334514177529215,2.7953711400779055,-0.2911111111111111,-0.38333333333333336,-0.4711111111111111,0.10459534443632976,0.06308713591298411,0.023125337228511463
1592172869.7615125,0.055874213442694796,9.321002097486147,2.724498951256926,-0.2901942696539322,-0.38333333333333336,-0.47202795256829005,0.16883453556217795,0.0034097041962221353,-0.03746969417838498
1592172869.7715125,0.03,9.39,2.69,-0.28444444444444444,-0.38333333333333336,-0.4777777777777778,0.2083486794568231,0.031634092692397225,-0.02617993877991494
1592172869.7815125,-0.017899024464988,9.444201951070024,2.584788293579856,-0.28444444444444444,-0.38333333333333336,-0.4777777777777778,0.0787601107834851,0.008900753527722882,-0.011825031339709781
1592172869.7915125,-0.01,9.46,2.49,-0.28444444444444444,-0.38333333333333336,-0.4777777777777778,0.09599310885968812,0.00545415391248228,-0.015271630954950384
1592172869.8015125,0.03523091255933632,9.47569273767801,2.5214608934829865,-0.28444444444444444,-0.38333333333333336,-0.4777777777777778,-0.017495442984055552,0.01628740390755234,-0.008382231962512473
1592172869.8115125,0.003120987102897661,9.36875160515884,2.6837451845234774,-0.2839589575617715,-0.384234951829726,-0.47763906723987126,0.03163269192705763,-0.09381564959071398,-0.09409501092170117
1592172869.8215125,0.04189073795546068,9.34594536897773,2.7318907379554607,-0.27666666666666667,-0.3977777777777778,-0.47555555555555556,0.0444582213652386,-0.047820103513884465,0.041570756136407316
1592172869.8315125,0.008004835164835165,9.343966153846154,2.6740628571428573,-0.27666666666666667,-0.3977777777777778,-0.47555555555555556,0.02009660326180987,-0.026914607318350575,0.03435388146055311
1592172869.8415124,0.01473838761345435,9.391960879483571,2.5740195602582148,-0.27666666666666667,-0.3977777777777778,-0.47555555555555556,-0.0244474116869852,0.09148736303373979,-0.14206457435823233
1592172869.8515124,0.11246610970996217,9.342466109709962,2.607398329129887,-0.27666666666666667,-0.3977777777777778,-0.47555555555555556,-0.035264320450193,0.004289385986783826,-0.17115266516705555
1592172869.8615124,0.12899471941992435,9.358994719419924,2.6569841582597733,-0.27666666666666667,-0.3977777777777778,-0.47555555555555556,0.006204486955849062,0.04034921851377694,-0.024208847619558632
1592172869.8715124,0.11799011454941553,9.358039541802338,2.697940687296493,-0.27666666666666667,-0.4033333333333333,-0.4622222222222222,-0.02405219398390391,0.04204999476462204,-0.12431696746630867
1592172869.8815124,0.10644893703821223,9.388224468519107,2.648224468519106,-0.27666666666666667,-0.4033333333333333,-0.4622222222222222,-0.07073039554622118,-0.01101970992609164,-0.0790917338953509
1592172869.8915124,0.09135371283573514,9.378646287164266,2.6440611385072055,-0.27666666666666667,-0.4033333333333333,-0.4622222222222222,-0.06618340414665361,-0.03243434165491904,-0.03202471216085522
1592172869.9015124,0.09415237559741356,9.367660950238964,2.677017149283104,-0.27666666666666667,-0.4033333333333333,-0.4622222222222222,0.0535209361323718,0.05387207508259908,-0.15273624320170015
1592172869.9115124,0.05203923852363549,9.350815695409453,2.727552913771637,-0.27666666666666667,-0.4033333333333333,-0.4622222222222222,0.04617080712956063,0.009771301065732034,-0.05075320328769513
1592172869.9215124,0.007943060318741174,9.348628706879161,2.8813712931208393,-0.27,-0.3977777777777778,-0.48444444444444446,-0.04150229325622208,-0.08829518182515027,0.027339867981960295
1592172869.9315124,-0.01761533881148029,9.33119233059426,2.8856920328688815,-0.27,-0.3977777777777778,-0.48444444444444446,0.06907462165001864,-0.06015516711954786,-0.035669971726829806
1592172869.9415123,0.01436273327868062,9.34119689443989,2.7811968944398897,-0.27,-0.3977777777777778,-0.48444444444444446,0.004565634707816823,-0.07300991394258323,0.04135888304736189
1592172869.9515123,0.1274529669985106,9.346805871286353,2.795323547856079,-0.27,-0.3977777777777778,-0.48444444444444446,-0.058845775943708434,-0.041986724116949994,0.056723200689815706
1592172869.9615123,0.18499020145802306,9.32214705651799,2.8364215724700164,-0.27,-0.3977777777777778,-0.48444444444444446,0.05950803857680673,-0.054539401414580385,0.056723200689815706
1592172869.9715123,0.26,9.32,2.84,-0.2644444444444444,-0.39111111111111113,-0.49777777777777776,0.05235987755982988,0.05563236990731925,0.19307704850187268
1592172869.9815123,0.35876056484539565,9.345042259381582,2.843887342990144,-0.2644444444444444,-0.39111111111111113,-0.49777777777777776,0.024305558286255906,0.06845193649336659,0.04031464111808918
1592172869.9915123,0.3738440433212996,9.313974007220217,2.73,-0.2644444444444444,-0.39111111111111113,-0.49777777777777776,-0.01520074664417444,0.057003745039797826,0.09609644243273038
1592172870.0015123,0.4475332693921592,9.333456420093514,2.740369260280542,-0.2644444444444444,-0.39111111111111113,-0.49777777777777776,-0.052118197271368856,0.01326560609309771,0.14634859629987623
1592172870.0115123,0.3376286001248677,9.349407150031217,2.790592849968783,-0.2641315514053645,-0.3912922597126837,-0.4974484166840094,-0.017193665377487503,-0.008846481005126597,0.04793188453030899
1592172870.0215123,0.17354595508441661,9.307418382033767,2.820964337118183,-0.24333333333333335,-0.4033333333333333,-0.47555555555555556,0.14282760739505804,0.1950806472869214,0.036592960434325146
1592172870.0315123,0.13089627840442747,9.292688835213282,2.7492446591468704,-0.24333333333333335,-0.4033333333333333,-0.47555555555555556,0.1299736529278524,0.14955143451557032,-0.0044555665416051325
1592172870.0415123,0.13342644581695678,9.322921579636908,2.642921579636908,-0.24333333333333335,-0.4033333333333333,-0.47555555555555556,0.14273249255194703,0.07667098005389851,0.056146752867547556
1592172870.0515122,0.05,9.363697994463363,2.6818489972316826,-0.24333333333333335,-0.4033333333333333,-0.47555555555555556,0.0032909802683812935,0.12071076389422748,-0.003922958668788015
1592172870.0615122,0.05,9.430524785405588,2.7152623927027943,-0.24333333333333335,-0.4033333333333333,-0.47555555555555556,0.023337578448570387,0.09428570265670548,0.04345990975711348
1592172870.0715122,0.15409486539369815,9.36718102692126,2.7671810269212602,-0.25,-0.39111111111111113,-0.47555555555555556,0.03143662295422584,0.22020110803393686,0.04562495489579626
1592172870.0815122,0.2884070328825691,9.340796483558716,2.7392035164412847,-0.25,-0.39111111111111113,-0.47555555555555556,0.06195535260340066,0.17871289296670387,0.10763992115071193
1592172870.0915122,0.25516325995182104,9.357183676389916,2.723285710878432,-0.25,-0.39111111111111113,-0.47555555555555556,0.07860215398743872,0.2235134570231763,0.12667439298203298
1592172870.1015122,0.3564760213143872,9.29921689362542,2.791174659561871,-0.25,-0.39111111111111113,-0.47555555555555556,-0.004028345293482077,0.15660644419322023,0.14919090462982643
1592172870.1115122,0.28197690941385434,9.2826615354253,2.8160076968620484,-0.25,-0.39111111111111113,-0.47555555555555556,0.0952966735762115,0.19272463287310881,0.0977224857609852
1592172870.1215122,0.2127772199110601,9.323827284464208,2.755215894419739,-0.2577777777777778,-0.3977777777777778,-0.4688888888888889,0.10084778310960492,0.21898079787838692,0.006710385374522382
1592172870.1315122,0.05557878103837472,9.366508577878104,2.695123250564334,-0.2577777777777778,-0.3977777777777778,-0.4688888888888889,0.03592492359160043,0.18564408322724638,0.13361332630486228
1592172870.1415122,0.10626281431904414,9.43,2.552491457120637,-0.2577777777777778,-0.3977777777777778,-0.4688888888888889,-0.032837880618114504,0.19192601161345382,0.13721390565993957
1592172870.1515121,0.02353256233758505,9.43,2.610504651762512,-0.2577777777777778,-0.3977777777777778,-0.4688888888888889,0.11056355791632236,0.2883066991546608,-0.13894253417359745
1592172870.1615121,0.14001547281347326,9.43,2.627145067544782,-0.2577777777777778,-0.3977777777777778,-0.4688888888888889,-0.056433717557002716,0.19119415309136845,0.06345090294896497
1592172870.1715121,0.19,9.35,2.76,-0.23777777777777778,-0.4033333333333333,-0.49777777777777776,-0.07853981633974483,0.23561944901923448,0.07635815477475191
1592172870.181512,0.24247703647703647,9.341253827253826,2.7425076545076545,-0.23777777777777778,-0.4033333333333333,-0.49777777777777776,-0.01938813068429271,0.0324047870093748,0.051552609177304254
1592172870.191512,0.249125017832517,9.360524989300488,2.640874982167483,-0.23777777777777778,-0.4033333333333333,-0.49777777777777776,0.030810510004980026,0.08278585531930864,0.07193206569075873
1592172870.201512,0.2,9.390245313950503,2.6903679709257537,-0.23777777777777778,-0.4033333333333333,-0.49777777777777776,0.04568109486055909,0.13705666438210645,0.18975810390039724
1592172870.211512,0.2,9.406814078887594,2.7152211183313915,-0.23777777777777778,-0.4033333333333333,-0.49777777777777776,0.036644235449895465,0.11084977209118195,0.11294479890975645
1592172870.221512,0.20185944431473268,9.361859444314732,2.6481405556852673,-0.21777777777777776,-0.38333333333333336,-0.49,0.09082084416272465,0.2691321494479782,0.10624340351405781
1592172870.231512,0.23561925213575463,9.40128845525419,2.609226926847486,-0.21777777777777776,-0.38333333333333336,-0.49,-0.017857726396727145,0.2165920114477749,0.04737814030246266
1592172870.241512,0.07009627125011741,9.449807457499764,2.580481356250587,-0.21777777777777776,-0.38333333333333336,-0.49,-0.11582234188435467,0.1566648208892546,0.023441694306505386
1592172870.251512,0.08979336902413826,9.410413261951724,2.6789668451206916,-0.21777777777777776,-0.38333333333333336,-0.49,-0.15557181295318173,0.07179432860716436,-0.09043516875553975
1592172870.261512,0.1312054963165942,9.327589007366813,2.729446595579913,-0.21777777777777776,-0.38333333333333336,-0.49,-0.12452504524386351,0.040339208684943645,0.07737553572139434
1592172870.271512,0.33957467633580996,9.271063309160475,2.72957467633581,-0.2311111111111111,-0.4033333333333333,-0.48444444444444446,-0.017082127603605134,0.04678866692948573,0.10084358594236778
1592172870.281512,0.3209142679183165,9.31771433020421,2.7109142679183167,-0.2311111111111111,-0.4033333333333333,-0.48444444444444446,-0.0007978492709988759,0.13736996515460803,0.12221670125391348
1592172870.291512,0.48718755393377544,9.388841933972731,2.62148894203506,-0.2311111111111111,-0.4033333333333333,-0.48444444444444446,0.06865819492941129,0.2340674511609357,-0.05803666756337719
1592172870.301512,0.3185374016202368,9.399525699909987,2.629525699909987,-0.2311111111111111,-0.4033333333333333,-0.48444444444444446,-0.01331424341332578,0.10573286543626736,0.09893374715441391
1592172870.311512,0.19969462331608265,9.37636313356773,2.6693947773871134,-0.2311111111111111,-0.4033333333333333,-0.48444444444444446,-0.050112799760971785,0.09582775833970081,-0.013423083677031225
1592172870.321512,0.13740608733557272,9.42942357496346,2.650864637554809,-0.24333333333333335,-0.39111111111111113,-0.5066666666666667,0.05445287188770098,0.15142730609350324,0.06687696990638968
1592172870.331512,0.05,9.41,2.68,-0.24333333333333335,-0.39111111111111113,-0.5066666666666667,-0.16907877128695067,0.10799224746714915,0.04145156973486533
1592172870.341512,0.02330402312695736,9.365506705211596,2.617709387296234,-0.24333333333333335,-0.39111111111111113,-0.5066666666666667,0.06291688233707884,0.171087299707994,0.08804483908195077
1592172870.351512,0.054543995330512185,9.351262220925141,2.7017671092951994,-0.24333333333333335,-0.39111111111111113,-0.5066666666666667,-0.11043861815096469,0.09888007776412971,-0.11353522139665068
1592172870.361512,0.1922526630672698,9.389514628629797,2.755320480081716,-0.24333333333333335,-0.39111111111111113,-0.5066666666666667,-0.0854024758536594,0.0871965446920539,-0.050110327576810595
1592172870.371512,0.26,9.32,2.75,-0.22555555555555556,-0.39111111111111113,-0.48444444444444446,0.02181661564992912,0.03599741582238304,-0.22580197197676635
1592172870.381512,0.2889826411777631,9.32,2.6992803779389147,-0.22555555555555556,-0.39111111111111113,-0.48444444444444446,-0.0018947522161359004,0.020189837245006365,-0.07483959656281908
1592172870.391512,0.1697440332999973,9.301392004757144,2.5869600237857124,-0.22555555555555556,-0.39111111111111113,-0.48444444444444446,0.01547931838992903,0.09740331361942603,-0.0479005535371282
1592172870.401512,0.10370102011631233,9.44074744970922,2.551850510058156,-0.22555555555555556,-0.39111111111111113,-0.48444444444444446,-0.04395936776033196,0.07496968287303488,0.08083545926975025
1592172870.411512,0.0385965596598666,9.511403440340132,2.6114034403401334,-0.22555555555555556,-0.39111111111111113,-0.48444444444444446,-0.13088524848666921,0.10155248664879847,0.014094765931231948
1592172870.421512,0.13526265276089322,9.35710602085866,2.8124992002047473,-0.22555555555555556,-0.38364038361734953,-0.49191517193820605,-0.10674374909634507,0.10598284070868264,0.07719025437094634
1592172870.4315119,0.10096552870234082,9.249172403969423,2.93,-0.22555555555555556,-0.38333333333333336,-0.4922222222222222,0.030272405845275855,-0.17483382171103795,0.022087445817616975
1592172870.4415119,0.17,9.19,2.93,-0.22555555555555556,-0.38333333333333336,-0.4922222222222222,-0.14508049407202864,-0.04036073895236887,0.04145156973486533
1592172870.4515119,0.3027363696260913,9.236848130456268,2.9768481304562675,-0.22555555555555556,-0.38333333333333336,-0.4922222222222222,0.0022675930131446087,0.08654599501116185,-0.03520350447129417
1592172870.4615119,0.3234332375760592,9.307983668483793,2.9817166187880297,-0.22555555555555556,-0.38333333333333336,-0.4922222222222222,0.11140148536863417,0.005611650641308405,0.09778841858699347
1592172870.4715118,0.3826767097581318,9.239415658882402,2.9531385529608007,-0.20665305578723012,-0.39029741219534797,-0.4852581433602076,0.07563334138940567,0.051778980600176855,0.05655562988518596
1592172870.4815118,0.3541976590522937,9.328456437606192,2.869444732867661,-0.20444444444444446,-0.39111111111111113,-0.48444444444444446,0.1147256100096432,0.026799541784792463,-0.05354461410725335
1592172870.4915118,0.1978864097363083,9.59054003102255,2.6452514019806705,-0.20444444444444446,-0.39111111111111113,-0.48444444444444446,-0.11523905506457116,-0.023943429811062827,0.10340851951111875
1592172870.5015118,0.11733291990650194,9.557332919906502,2.682667080093498,-0.20444444444444446,-0.39111111111111113,-0.48444444444444446,-0.2825468716808597,-0.0411711477014315,0.0363500638313979
1592172870.5115118,0.053539608213764064,9.36448728413094,2.819052324082825,-0.20444444444444446,-0.39111111111111113,-0.48444444444444446,-0.18010936293900195,0.05248021665465981,0.006823479726354987
1592172870.5215118,0.02,8.91,3.08,-0.21777777777777776,-0.38222222222222224,-0.48,-0.01090830782496456,0.05781403147231216,0.11344640137963141
1592172870.5315118,0.09435030937648739,9.091745200698082,3.013910836109789,-0.21777777777777776,-0.38222222222222224,-0.48,0.07920681012615469,0.01095417013773016,0.02152898106948979
1592172870.5415118,0.11944476576055522,9.366119144013881,2.820549450549451,-0.21777777777777776,-0.38222222222222224,-0.48,0.21665514451312634,-0.015393395177635065,0.16393312879878344
