time,acc_x,acc_y,acc_z,mag_x,mag_y,mag_z,gyr_x,gyr_y,gyr_z
1592172615.501755,0.1058449484316286,9.311689896863257,2.931689896863257,-0.36444444444444446,-0.6177777777777778,-0.36,0.052559420839713045,0.04532269192200416,0.0009368998869572209
1592172615.511755,0.11580427743882293,9.308391445122355,2.8819572256117705,-0.36444444444444446,-0.6177777777777778,-0.36,0.03104633045297054,-0.035678438939309484,0.012174604725048109
1592172615.521755,0.1363365206222349,9.278217972503686,2.9380191237334095,-0.36444444444444446,-0.6177777777777778,-0.36,-0.004536021138841167,-0.02601850142848798,-0.03443104280636785
1592172615.531755,0.14589885214637832,9.268202295707242,3.0487080349753515,-0.36444444444444446,-0.6177777777777778,-0.36,0.049204216482323634,0.08951581290150962,-0.017808398348781597
1592172615.541755,0.13129781875207908,9.245191275008315,3.1204576343677233,-0.36734517152708474,-0.6124597781262705,-0.36,0.1303669529428805,0.023233871440142162,0.03953666743455553
1592172615.551755,0.12215633423180593,9.193530997304581,3.1750943396226416,-0.3711111111111111,-0.6055555555555555,-0.36,0.14231372381238128,-0.115957370350661,-0.0011525759211283293
1592172615.561755,0.2963929327513656,9.199713023705602,3.105205300436476,-0.3711111111111111,-0.6055555555555555,-0.36,0.19107887892392006,-0.03685563145225964,0.03681084184510609
1592172615.571755,0.4682063971031985,9.2272757996379,3.0018105009052505,-0.3711111111111111,-0.6055555555555555,-0.36,0.1643259879934616,-0.05562684004698554,0.05909129754605967
1592172615.581755,0.7426100488241358,9.281016748040226,2.861153105487366,-0.3711111111111111,-0.6055555555555555,-0.36,0.25161943215843224,0.04545580925435129,-0.07680179479888069
1592172615.591755,0.7058888187455903,9.368620446358944,2.662759107282112,-0.3711111111111111,-0.6055555555555555,-0.36350720619241544,0.23812529338909647,0.04066770600163762,-0.11846931074124076
1592172615.601755,0.6418353957965036,9.443670791593007,2.5016460420349635,-0.3711111111111111,-0.6055555555555555,-0.36777777777777776,0.19677777388843054,0.00024070699293980008,-0.11076185632484885
1592172615.611755,0.7227647867950482,9.487986456459634,2.375221669664586,-0.3711111111111111,-0.6055555555555555,-0.36777777777777776,0.20012849446799677,0.1895291649527077,0.02210678056234009
1592172615.621755,0.8404342840762505,9.473739429554248,2.3883474272610004,-0.3711111111111111,-0.6055555555555555,-0.36777777777777776,0.2147989180640574,0.0791147812534084,-0.009495090189449946
1592172615.6317549,0.8806554683220741,9.446722658389628,2.425899214898667,-0.3711111111111111,-0.6055555555555555,-0.36777777777777776,0.20445100583742276,-0.002881032076721287,0.0013585095430725445
1592172615.6417549,0.874568669527897,9.3536330472103,2.6036330472103004,-0.3658633762517883,-0.6055555555555555,-0.3649520743919885,0.13993650127259524,0.11168492034137265,0.029562450541089576
1592172615.6517549,0.7628717413972887,9.38797010775113,2.5764358706986443,-0.3566666666666667,-0.6055555555555555,-0.36,0.1760391589034807,0.24533311324687895,0.006285793897997652
1592172615.6617548,0.5618798449612403,9.438484645199763,2.4132737030411446,-0.3566666666666667,-0.6055555555555555,-0.36,0.1739052259119499,0.2829952966666115,-0.045351761369837755
1592172615.6717548,0.4473162122687439,9.460298198636806,2.31,-0.3566666666666667,-0.6055555555555555,-0.36,0.13248296520936903,0.20673513679619998,-0.07551918694191415
1592172615.6817548,0.3529017145331785,9.47,2.295803429066357,-0.3566666666666667,-0.6055555555555555,-0.36,0.03674279502658768,0.20031293635343508,0.10393267607923914
1592172615.6917548,0.3838746711313083,9.491937335565654,2.233437774057243,-0.35422918493714955,-0.6055555555555555,-0.3551250365409657,0.03818629567286964,0.16791236592500836,0.07282258635957127
1592172615.7017548,0.45965779772399423,9.533422022760057,2.165551370411925,-0.35,-0.6055555555555555,-0.3466666666666667,-0.05364565566120494,0.29794200877698424,0.20646153695788488
1592172615.7117548,0.41134651320243737,9.644495057549086,1.9916831415030467,-0.35,-0.6055555555555555,-0.3466666666666667,-0.1153257026722113,0.21737127541968032,0.07054757910490146
1592172615.7217548,0.36918469615017496,9.65902163538021,1.94130448615972,-0.35,-0.6055555555555555,-0.3466666666666667,-0.20655217521313957,0.25902493623208717,0.04749851364941695
1592172615.7317548,0.27873059013969104,9.56216970762805,2.099099702232259,-0.35,-0.6055555555555555,-0.3466666666666667,-0.12105889127231732,0.26918723269066375,-0.003555080717230999
1592172615.7417548,0.21329297644227263,9.47338377944716,2.309818393990227,-0.3522154960737121,-0.609617298357361,-0.34888216274037875,-0.15674023481513769,0.25626929500679746,-0.0030321451960108603
1592172615.7517548,0.24,9.438867460908414,2.432265078183172,-0.3566666666666667,-0.6177777777777778,-0.35333333333333333,-0.139852384989605,0.2961460184522504,0.0727745766568261
1592172615.7617548,0.22651541382776721,9.396515413827768,2.485505137942589,-0.3566666666666667,-0.6177777777777778,-0.35333333333333333,-0.15850573584060051,0.08115574503491903,-0.048680196954203225
1592172615.7717547,0.2417187908768759,9.385286465146146,2.5011458605845838,-0.3566666666666667,-0.6177777777777778,-0.35333333333333333,-0.14433898753350477,0.20120438251824907,-0.041673175950388074
1592172615.7817547,0.2818236394406342,9.39,2.52,-0.3566666666666667,-0.6177777777777778,-0.35333333333333333,-0.14917489394203462,0.19999369489714586,-0.006518789987669478
1592172615.7917547,0.2833826815642458,9.39,2.5061522346368714,-0.35328165735567973,-0.6199318746120422,-0.3591801675977654,-0.26186855500239714,0.10765555249098752,0.06984546842137783
1592172615.8017547,0.24,9.42932589471735,2.489662947358674,-0.34444444444444444,-0.6255555555555555,-0.37444444444444447,-0.2384414225466276,0.11348627410071946,0.01785772665607143
1592172615.8117547,0.22645301270171314,9.47,2.5009686751344753,-0.34444444444444444,-0.6255555555555555,-0.37444444444444447,-0.2491583635917906,0.1277344454589664,0.040742921721212605
1592172615.8217547,0.22271238853197814,9.436100297248059,2.5408495541279126,-0.34444444444444444,-0.6255555555555555,-0.37444444444444447,-0.2903619430429806,0.07101340818785132,0.019594736956173142
1592172615.8317547,0.23683288814986467,9.370997328899188,2.6543395659018945,-0.34444444444444444,-0.6255555555555555,-0.37444444444444447,-0.22538590834208472,0.03385396063883293,-0.061010111056915936
1592172615.8417547,0.23887659498527705,9.325561702507361,2.758876594985277,-0.34444444444444444,-0.6216104022287657,-0.37444444444444447,-0.2574360646691636,0.06895535873988372,0.01048373355234481
1592172615.8517547,0.29,9.3,2.81,-0.34444444444444444,-0.5988888888888889,-0.37444444444444447,-0.2574360646691636,0.10799224746714915,0.09599310885968812
1592172615.8617547,0.4523432233991334,9.315331006259028,2.804329260953298,-0.34444444444444444,-0.5988888888888889,-0.37444444444444447,-0.1689305348939032,-9.5191660725788e-06,0.14057274221542437
1592172615.8717546,0.56,9.29,2.76,-0.34444444444444444,-0.5988888888888889,-0.37444444444444447,-0.13853550937704992,-0.10362892433716332,0.15162547876700738
1592172615.8817546,0.6307457312115229,9.325105122546171,2.7582982924846093,-0.34444444444444444,-0.5988888888888889,-0.37444444444444447,-0.12354751469885852,0.07683780861691017,-0.13763657814387287
1592172615.8917546,0.5434139599170699,9.412073255010366,2.738293020041465,-0.34697842279044766,-0.6018835905705291,-0.3804338478077248,-0.1812912513674224,0.19911619528734548,-0.10048911078560993
1592172615.9017546,0.48,9.42,2.77,-0.3566666666666667,-0.6133333333333333,-0.4033333333333333,-0.22798363354175932,0.1679879405044542,-0.06763150851478027
1592172615.9117546,0.34678866930171276,9.311830039525692,2.859267984189723,-0.3566666666666667,-0.6133333333333333,-0.4033333333333333,-0.1678372650113884,0.19634954084936207,-0.05960026328566335
1592172615.9217546,0.34,9.217653193955018,2.938265969775087,-0.3566666666666667,-0.6133333333333333,-0.4033333333333333,-0.13470053604309384,0.18967086920892307,-0.07779814015390205
1592172615.9317546,0.33170651680686936,9.235528988795421,2.9944710112045794,-0.3566666666666667,-0.6133333333333333,-0.4033333333333333,-0.08829404964142872,0.16502450862893678,0.09358421150601362
1592172615.9417546,0.3107879452499898,9.251181917874984,2.980393972624995,-0.35653534245833507,-0.6134208828055544,-0.4030487975486148,-0.05526202530267736,0.12962052301487312,0.18336196006824865
1592172615.9517546,0.3755676270699722,9.318522542356657,2.927558389968412,-0.35,-0.6177777777777778,-0.3888888888888889,-0.05924408274917403,0.16523627365166116,0.06398246706138702
1592172615.9617546,0.45371089774788725,9.345894871908323,2.786289102252113,-0.35,-0.6177777777777778,-0.3888888888888889,-0.15646527114546915,0.21383492940356755,-0.053950392917840075
1592172615.9717546,0.5165254277341904,9.383898289063238,2.7443220058606674,-0.35,-0.6177777777777778,-0.3888888888888889,-0.18175270612735928,0.3087975521116363,-0.09702846493181658
1592172615.9817545,0.43887581096890843,9.369357606267947,2.8509635905980786,-0.35,-0.6177777777777778,-0.3888888888888889,-0.26038212376834396,0.3058641637759275,-0.08411018064331449
1592172615.9917545,0.23069982628425567,9.25039990073386,3.0294001488992093,-0.35,-0.6177777777777778,-0.3888888888888889,-0.3009329759595101,0.2847777206365211,-0.004630510348629005
1592172616.0017545,0.04343673598149268,9.155500407476536,3.095562449065433,-0.33,-0.6177777777777778,-0.41888888888888887,-0.06084110911813733,0.22814605804166888,0.020202006002523018
1592172616.0117545,-0.04,9.2,3.09,-0.33,-0.6177777777777778,-0.41888888888888887,-0.06326818538479445,0.09708393964218458,0.14944381720201447
1592172616.0217545,-0.07086664196092964,9.23086664196093,2.995355497908836,-0.33,-0.6177777777777778,-0.41888888888888887,-0.08461945536023807,0.17867552964390332,0.007335229198535382
1592172616.0317545,-0.09,9.25,3.04,-0.33,-0.6177777777777778,-0.41888888888888887,-0.02617993877991494,0.2781618495365963,0.008726646259971648
1592172616.0417545,-0.10144027411287464,9.24,3.0385786302233075,-0.3358693150241337,-0.6163501065556912,-0.41888888888888887,-0.013094093676323495,0.13120978868071997,-0.05859476747366336
1592172616.0517545,0.01,9.24,2.97,-0.3711111111111111,-0.6077777777777778,-0.41888888888888887,0.02617993877991494,0.1461713248545251,-0.04363323129985824
1592172616.0617545,0.10730575148456885,9.256217625247428,2.9637823747525722,-0.3711111111111111,-0.6077777777777778,-0.41888888888888887,-0.09266973804056261,0.028254278093620397,0.1072857574644121
1592172616.0717545,0.24648329905495822,9.30110020567025,2.9681336075603344,-0.3711111111111111,-0.6077777777777778,-0.41888888888888887,-0.04025143152267871,0.17733606865357618,0.09820904791692214
1592172616.0817544,0.25239362862753656,9.346196814313767,3.0385904429413046,-0.3711111111111111,-0.6077777777777778,-0.41888888888888887,0.013673110436677155,0.10561184191276402,0.07266937112493083
1592172616.0917544,0.2899373330959587,9.338705714794374,3.095615809150792,-0.36527489961030996,-0.6087241904535834,-0.4155764445235693,0.014028313020875465,0.06748348800162043,0.11849067324662019
1592172616.1017544,0.35,9.21,3.19,-0.33,-0.6144444444444445,-0.39555555555555555,-0.13853550937704992,0.05999569303730508,0.06326818538479445
1592172616.1117544,0.4054880860876249,9.13,3.1197252113758647,-0.33,-0.6144444444444445,-0.39555555555555555,0.021417510767171,0.08620875081484386,0.010267098877298042
1592172616.1217544,0.4870187993009305,9.162793207689765,2.976150394407444,-0.33,-0.6144444444444445,-0.39555555555555555,0.012670042561874428,0.08017070393801459,0.16161481666040445
1592172616.1317544,0.5145746987724624,9.288404578281447,2.8854253012275377,-0.33,-0.6144444444444445,-0.39555555555555555,-0.0035123874960997824,0.1711676465177773,0.06778631010000208
1592172616.1417544,0.6137942122186495,9.447749196141478,2.772700964630225,-0.3306502322257949,-0.614044301536263,-0.39750625223294034,-0.0458780277654458,0.19526923255029804,0.10314839759374847
1592172616.1517544,0.27,9.4,2.83,-0.34444444444444444,-0.6055555555555555,-0.4388888888888889,-0.23234695667174513,0.17235126363444003,0.06981317007977318
1592172616.1617544,0.13821966957779386,9.395057573566223,2.7425863603493355,-0.34444444444444444,-0.6055555555555555,-0.4388888888888889,-0.05895510466944438,0.17291551993117668,0.051921227299682654
1592172616.1717544,-0.07497613164775589,9.38,2.7628162256818674,-0.34444444444444444,-0.6055555555555555,-0.4388888888888889,-0.1147051468868929,0.10766031692583009,0.0543566942415845
1592172616.1817544,-0.12,9.38,2.84,-0.34444444444444444,-0.6055555555555555,-0.4388888888888889,-0.23889194136672384,-0.001090830782496456,0.1090830782496456
1592172616.1917543,-0.37840115824072623,9.306535842854908,2.991332368132728,-0.3445924853480809,-0.6056147719170101,-0.43945144432270744,-0.2639826286699395,0.09149977044704913,0.06661097818222793
1592172616.2017543,-0.32,9.18,3.04,-0.35,-0.6077777777777778,-0.46,-0.18435040224190105,0.04690572364734761,0.18871372537188688
1592172616.2117543,0.295329151952775,9.15399778632794,3.136667896484478,-0.35,-0.6077777777777778,-0.46,-0.1798426545651577,0.07003262409847286,5.231940189066864e-06
1592172616.2217543,0.42,9.22,3.1,-0.35,-0.6077777777777778,-0.46,-0.14944381720201447,0.031634092692397225,-0.15598880189699318
1592172616.2317543,0.49439181958701595,9.262804090206492,3.15798977448377,-0.35,-0.6077777777777778,-0.46,-0.14847451649480625,0.18155067096637076,0.0346531055552139
1592172616.2417543,0.5578905660377359,9.227257735849056,3.241898490566038,-0.35,-0.6076137106918239,-0.45955467505241093,-0.2235282689917862,0.0643590161672909,0.14200142866216006
1592172616.2517543,0.46,9.1,3.33,-0.35,-0.6,-0.4388888888888889,-0.21925698728178766,0.0643590161672909,0.10035643198967394
1592172616.2617543,0.2987831975452333,9.18146386625754,3.31047561104645,-0.35,-0.6,-0.4388888888888889,-0.18211483971664724,0.04818318794749265,0.11307515418759885
1592172616.2717543,0.3317218981033139,9.203708576422514,3.0845695254741714,-0.35,-0.6,-0.4388888888888889,-0.15686655261781202,0.06310923848026127,0.1418368847655478
1592172616.2817543,0.27357565364829195,9.25893913412073,3.0767582512861025,-0.35,-0.6,-0.4388888888888889,-0.12713434049257702,0.09147763983589502,0.14104498134482113
1592172616.2917542,0.28973834800870885,9.299345870021773,2.9717007379433924,-0.35,-0.6,-0.4388888888888889,-0.1791450958750298,0.10558225146503475,0.05377269688951898
1592172616.3017542,0.22,9.35,2.92,-0.36444444444444446,-0.6077777777777778,-0.4388888888888889,-0.3621558197888234,0.06654067773228381,0.07199483164476608
1592172616.3117542,0.13317959731543624,9.379026040268457,3.007281610738255,-0.36444444444444446,-0.6077777777777778,-0.4388888888888889,-0.3216941680075556,0.16764110024169213,0.04604986806481763
1592172616.3217542,0.013337936617538515,9.135088930688825,3.2808754970356437,-0.36444444444444446,-0.6077777777777778,-0.4388888888888889,-0.40701719995844343,0.1527372176373133,0.04290500649737161
1592172616.3317542,-0.097484651498736,9.088742325749369,3.357018418201517,-0.36444444444444446,-0.6077777777777778,-0.4388888888888889,-0.28449869394846483,0.0985000105453127,0.08034537962086291
1592172616.3417542,-0.02174792343806428,9.050873961719033,3.447902491874323,-0.36444444444444446,-0.6077777777777778,-0.4388888888888889,-0.1994042609842967,0.08858609602521544,0.10843480409447182
1592172616.3517542,0.16,9.03,3.73,-0.3711111111111111,-0.5877777777777777,-0.4577777777777778,-0.09817477042468103,0.05999569303730508,-0.20180369476184434
1592172616.3617542,0.005041996783225117,9.024112706260796,3.674859117174004,-0.3711111111111111,-0.5877777777777777,-0.4577777777777778,-0.12204847966378574,0.062217252743743914,-0.0250367985448713
1592172616.3717542,-0.3165328671328671,9.054489044289044,3.6217335664335666,-0.3711111111111111,-0.5877777777777777,-0.4577777777777778,0.028429287793462762,-0.030915542876952765,0.04184965940224912
1592172616.3817542,-0.24287634311999137,9.045856182844,3.5707190857799977,-0.3711111111111111,-0.5877777777777777,-0.4577777777777778,0.05603586008751245,-0.10247451043290709,0.0036236891340774204
1592172616.3917542,0.20930678837100658,9.06846533941855,3.4576733029072484,-0.3711111111111111,-0.5877777777777777,-0.4577777777777778,0.0954962824199943,-0.009578099525189412,0.05130503278582633
1592172616.4017541,0.1373825170196672,9.216093986384266,3.466953006807867,-0.3566666666666667,-0.5877777777777777,-0.46555555555555556,0.07226565699718099,-0.052504843772462145,-0.07745339488175212
1592172616.4117541,-0.06596516049164383,9.261156158811566,3.4414912901229107,-0.3566666666666667,-0.5877777777777777,-0.46555555555555556,-0.06650923279152035,-0.07514376273729234,-0.11227112260437913
1592172616.4217541,-0.4125944227789946,9.014085421229767,3.550735616218815,-0.3566666666666667,-0.5877777777777777,-0.46555555555555556,0.13477401085875446,-0.04156762238208696,-0.007273642641681854
1592172616.431754,-0.43711851557705494,8.75725605573806,3.68451211147612,-0.3566666666666667,-0.5877777777777777,-0.46555555555555556,0.2519369008442452,-0.15788114777811182,0.007579385727238111
1592172616.441754,-0.7172331323778924,8.787538717013826,3.7450774340276523,-0.3566666666666667,-0.5877777777777777,-0.46555555555555556,0.3336942171056552,-0.1430161811851282,-0.07004877314723199
1592172616.451754,-0.73,9.1,3.54,-0.38333333333333336,-0.5811111111111111,-0.4722222222222222,0.1538071403320003,-0.3021601267515183,-0.08508480103472357
1592172616.461754,-0.6335165206613899,9.378937776400665,3.2790842511478546,-0.38333333333333336,-0.5811111111111111,-0.4722222222222222,0.22315682793175384,-0.1814894334196638,-0.08401391192085166
1592172616.471754,-0.4609139482564679,9.113212176602925,3.29271512935883,-0.38333333333333336,-0.5811111111111111,-0.4722222222222222,0.17931719673810292,-0.31501396931503406,-0.21852820740790802
1592172616.481754,-0.41684014460572916,8.913420072302864,3.3782249096214194,-0.38333333333333336,-0.5811111111111111,-0.4722222222222222,0.3385448072192352,-0.2654632084083793,-0.12828818979714496
1592172616.491754,-0.3552645293890958,8.882632264694548,3.416709669131815,-0.38333333333333336,-0.5811111111111111,-0.4722222222222222,0.33014873515305254,-0.3846874317481722,-0.15179719158245625
1592172616.501754,-0.03777814990957198,9.310369750150713,3.2877781499095717,-0.3711111111111111,-0.5877777777777777,-0.46555555555555556,0.3800355366135861,-0.27052566871958644,-0.14142483362061994
1592172616.511754,-0.002728562740725724,9.386817859314819,3.224089296574093,-0.3711111111111111,-0.5877777777777777,-0.46555555555555556,0.09217481414469482,-0.2978196075794577,-0.07712854157636753
1592172616.521754,-0.08025671054480724,9.32692181571181,3.166667447416499,-0.3711111111111111,-0.5877777777777777,-0.46555555555555556,0.09862307034761358,-0.20647504843274406,-0.15755465787994344
1592172616.531754,-0.11561684579311352,9.14685053737934,3.272922102804591,-0.3711111111111111,-0.5877777777777777,-0.46555555555555556,0.2037162065751646,-0.24858541286615687,-0.11958075455730449
1592172616.541754,-0.09265660639016113,9.077969819170484,3.288228929073226,-0.3711111111111111,-0.5877777777777777,-0.46555555555555556,0.21373450094085603,-0.21936538763289026,-0.24313971840083184
1592172616.551754,-0.1977646007816862,9.051304745951981,3.29,-0.3888888888888889,-0.5755555555555556,-0.4444444444444444,0.29369722887906885,-0.2719960671002341,-0.11602120055126074
1592172616.561754,-0.2941503915463723,9.12348877252571,3.2796240211340693,-0.3888888888888889,-0.5755555555555556,-0.4444444444444444,0.20864881487237694,-0.24869796875124756,-0.13154923685419598
1592172616.571754,-0.3055683090038816,9.241879360845855,3.191879360845855,-0.3888888888888889,-0.5755555555555556,-0.4444444444444444,0.10094235771848566,-0.32838438142491405,-0.06148266530607474
1592172616.581754,-0.06251824350275254,9.2570072974011,3.207506081167584,-0.38922141139987765,-0.5767748047625144,-0.44333603607448185,0.1290418321364377,-0.3641357663388069,-0.1500967236255617
1592172616.591754,0.018027781334016127,9.224788887466394,3.1806574062219948,-0.3928012347259563,-0.5899008236248027,-0.4314032916542198,0.1442712599083807,-0.29150311081107866,-0.1571256902895354
1592172616.601754,0.08,9.2,3.16,-0.39555555555555555,-0.6,-0.4222222222222222,0.15598880189699318,-0.23561944901923448,-0.16253378659197193
1592172616.611754,0.04038648678535884,9.200386486785359,3.1085828817870174,-0.39555555555555555,-0.6,-0.4222222222222222,0.18627910879739545,-0.31278737345481783,-0.11087125424430748
1592172616.621754,0.07,9.242494824707848,3.0,-0.39555555555555555,-0.6,-0.4222222222222222,0.1558418766423491,-0.2848912738670529,-0.06678885539345013
1592172616.631754,0.06592039533759468,9.317668797335768,3.001165601332116,-0.39555555555555555,-0.6,-0.4222222222222222,0.08701216783707831,-0.24772557892544603,0.01594768002668289
1592172616.641754,0.013351775259171729,9.287629585862383,3.016185207068808,-0.39555555555555555,-0.6,-0.4222222222222222,0.08373539818136946,-0.2772165058268257,-0.03156547998109555
1592172616.651754,0.019323774326347305,9.284143899700599,2.936892075224551,-0.4033333333333333,-0.5877777777777777,-0.4222222222222222,0.027441900785703965,-0.06470747883562347,-0.2228386997418583
1592172616.661754,0.09917394975241312,9.320826050247588,2.899261346781371,-0.4033333333333333,-0.5877777777777777,-0.4222222222222222,0.13711807405590626,-0.12705795231846576,-0.24982023726001654
1592172616.671754,0.09083019228016603,9.33,2.781660384560332,-0.4033333333333333,-0.5877777777777777,-0.4222222222222222,-0.02227763855518956,-0.155404273984487,0.00327660397647058
1592172616.6817539,0.11127750434279096,9.33,2.818722495657209,-0.4033333333333333,-0.5877777777777777,-0.4222222222222222,0.016059751458054005,-0.11560406087760935,-0.02474305187989663
1592172616.6917539,0.14163578459756804,9.33,2.788364215402432,-0.4033333333333333,-0.5877777777777777,-0.4222222222222222,-0.01705599514751117,-0.08911146359315722,-0.0942861197515835
1592172616.7017539,0.13720623023773276,9.341396884881133,2.845110902916032,-0.41555555555555557,-0.5933333333333334,-0.4011111111111111,-0.06955680760005495,-0.16255798185490727,-0.0619451873855151
1592172616.7117538,0.10052449608391938,9.360524496083919,2.7752795352447253,-0.41555555555555557,-0.5933333333333334,-0.4011111111111111,-0.04017778356252522,-0.14577837228814655,-0.018590022502051346
1592172616.7217538,0.11,9.369212403690668,2.6903937981546657,-0.41555555555555557,-0.5933333333333334,-0.4011111111111111,-0.09685224315808731,-0.09634454459262026,-0.07914121034862426
1592172616.7317538,0.11027979743172364,9.351119189726894,2.7005595948634475,-0.41555555555555557,-0.5933333333333334,-0.4011111111111111,-0.11967151558308158,-0.026309954602968866,-0.09463551875344173
1592172616.7417538,0.11786579851691083,9.381463194067644,2.715731597033822,-0.41555555555555557,-0.5933333333333334,-0.4011111111111111,-0.17014928093170123,-0.05941012860206371,-0.11697813620283073
1592172616.7517538,0.22850101136582548,9.368501011365824,2.74179878636101,-0.41,-0.6077777777777778,-0.38666666666666666,-0.14019392519971643,-0.10422198871317961,-0.04363323129985824
1592172616.7617538,0.1792222274281966,9.319611113714098,2.798444454856393,-0.41,-0.6077777777777778,-0.38666666666666666,-0.12623334234296557,0.08114573814582396,-0.039136614505403934
1592172616.7717538,0.16432720666304887,9.309783639666849,2.765625368661963,-0.41,-0.6077777777777778,-0.38666666666666666,-0.20167534204702212,-0.0946294095224403,0.0702955415618662
1592172616.7817538,0.3602751870156343,9.299816541989578,3.0206421030364803,-0.41,-0.6077777777777778,-0.38666666666666666,-0.2938739159275824,0.015541962992681038,-0.005804534608238867
1592172616.7917538,0.38447260629603275,9.283684929135978,3.0771027480240765,-0.41,-0.6077777777777778,-0.38666666666666666,-0.23668412134351335,-0.056605162482606095,0.05930384691823975
1592172616.8017538,0.3407533347155989,9.219246665284402,3.146026677724791,-0.43,-0.6,-0.41,-0.1399695948801702,0.05049236983205189,0.13377728876702286
1592172616.8117537,0.3495526824193788,9.208658047258137,3.2155268241937884,-0.43,-0.6,-0.41,-0.18810760019790052,0.01691330777681717,0.022890100780214678
1592172616.8217537,0.34221485759285997,9.183691429321433,3.12221485759286,-0.43,-0.6,-0.41,-0.2661699411371043,0.07397877207698206,0.05266032491474114
1592172616.8317537,0.3697401233757711,9.229566872292953,3.149740123375771,-0.43,-0.6,-0.41,-0.23914707464594798,0.05796522156370425,0.13773231201652947
1592172616.8417537,0.42151153934713687,9.23,3.1647175826706104,-0.43,-0.6,-0.41,-0.2019668392583356,0.11159624541279067,0.1072294445460251
1592172616.8517537,0.3544970044031664,9.18865089867905,3.300899400880633,-0.4222222222222222,-0.6077777777777778,-0.39555555555555555,-0.1333200936276914,0.15528786287056578,0.05491326830295848
1592172616.8617537,0.4459799084719277,9.158994977117983,3.3194974885589907,-0.4222222222222222,-0.6077777777777778,-0.39555555555555555,-0.3341669940307769,0.0767692588102493,0.19506138889640978
1592172616.8717537,0.371073334077464,9.140268333519366,3.310134166759683,-0.4222222222222222,-0.6077777777777778,-0.39555555555555555,-0.09720684226433568,0.18605691501287522,0.06943165326161554
1592172616.8817537,0.24470660916190698,9.111086140575825,3.3774656719897425,-0.4222222222222222,-0.6077777777777778,-0.39555555555555555,-0.032833866686741556,0.11508060041785935,0.000345902326693473
1592172616.8917537,0.15402724563644105,9.141262819768567,3.38,-0.4222222222222222,-0.6077777777777778,-0.39555555555555555,-0.08851742036692631,0.11406069290469455,-0.03628410771618441
1592172616.9017537,-0.01,9.17,3.34,-0.42444444444444446,-0.6,-0.3888888888888889,-0.02399827721492203,0.13962634015954636,0.12762720155208535
1592172616.9117537,-0.09082329970712659,9.15203926673175,3.34,-0.42444444444444446,-0.6,-0.3888888888888889,-0.0024469444171848036,0.11709540132554835,0.2236285931056421
1592172616.9217536,0.02,9.13,3.24,-0.42444444444444446,-0.6,-0.3888888888888889,0.01308996938995747,0.17671458676442586,0.030543261909900768
1592172616.9317536,0.15851935849667906,9.190602219342297,3.335232058966467,-0.42444444444444446,-0.6,-0.3888888888888889,-0.08890332725843422,0.10966343804187206,0.015433143887916811
1592172616.9417536,0.15165645522251164,9.221257658583117,3.3641717723887443,-0.42444444444444446,-0.6,-0.3888888888888889,-0.13486481596980196,0.12013525871881438,0.08110959387232958
1592172616.9517536,0.11244977796574329,9.23,3.4342838514132654,-0.4377093661646421,-0.6,-0.39501116045205703,-0.014028828152886419,0.16077417127813312,-0.027155512260447476
1592172616.9617536,0.06205217559653453,9.047798267266831,3.4687686946420793,-0.4388888888888889,-0.6,-0.39555555555555555,0.004094693972571277,0.0537883954670951,-0.11667829313316407
1592172616.9717536,-0.03367174044593399,8.993164129777034,3.395062607643253,-0.4388888888888889,-0.6,-0.39555555555555555,0.10858694141699779,0.018433379833807582,0.04758384332803656
1592172616.9817536,-0.18829139198034076,9.0548774839914,3.4178046359963137,-0.4388888888888889,-0.6,-0.39555555555555555,0.12270509860749824,0.020406482116231934,-0.07656982043449204
1592172616.9917536,-0.13098093562887553,9.101411438622675,3.3854904678144377,-0.4388888888888889,-0.6,-0.39555555555555555,0.14585031442063762,0.05385255766528854,0.013619618193753708
1592172617.0017536,-0.009277358211165404,9.228867170146602,3.3155664149266992,-0.44392903565493524,-0.5828635009954424,-0.3895073794362999,0.19359476102340403,-0.08170149720836667,-0.038078927071198296
1592172617.0117536,-0.05585186234244441,9.212074068828779,3.2634567813812962,-0.4444444444444444,-0.5811111111111111,-0.3888888888888889,0.019742657081754017,-0.08896061554846552,0.11345451193282231
1592172617.0217535,-0.013919021071529813,9.182351412642918,3.1954866295001416,-0.4444444444444444,-0.5811111111111111,-0.3888888888888889,0.04474756292506557,-0.05417603917634577,-0.06657268216939666
1592172617.0317535,0.1816058394160584,9.161751824817518,3.2447445255474454,-0.4444444444444444,-0.5811111111111111,-0.3888888888888889,0.146529626936367,0.03631590656179806,-0.005271021737318651
1592172617.0417535,0.20674136502283266,9.200448190136996,3.2230345399086695,-0.4444444444444444,-0.5811111111111111,-0.3888888888888889,0.17069617886289476,0.016780045847141694,-0.03311604315317088
1592172617.0517535,0.13753359073359073,9.256233204633205,3.173766795366795,-0.4323667095667096,-0.5790981552981553,-0.3888888888888889,0.08195900226311971,-0.036251802614903454,-0.05017821599483697
1592172617.0617535,0.06567769998371752,9.250811099997675,3.160811099997674,-0.4311111111111111,-0.5788888888888889,-0.3888888888888889,0.005839500777960485,0.031808712902328146,0.06409008277509995
1592172617.0717535,0.05104800037245682,9.267903999255086,2.954104008566507,-0.4311111111111111,-0.5788888888888889,-0.3888888888888889,0.18456070673793523,0.05770931090461778,-0.0996425850936932
1592172617.0817535,-0.020974835315861806,9.225640727927587,3.0009748353158616,-0.4311111111111111,-0.5788888888888889,-0.3888888888888889,0.07551817733437499,0.0870932303381106,0.1093699117929223
1592172617.0917535,-0.00853811521145188,9.22,3.0457698079809137,-0.4311111111111111,-0.5788888888888889,-0.3888888888888889,0.10260592679992465,0.057763156538368825,0.17911506931180052
1592172617.1017535,0.14178530630895264,9.308615816443096,3.0688615816443092,-0.43800345239001853,-0.5788888888888889,-0.35541180267705286,0.056192578215768674,-0.011341556945112075,0.18752552123549088
1592172617.1117535,0.12471289945172168,9.34646532541121,2.9906040237663736,-0.4388888888888889,-0.5788888888888889,-0.3511111111111111,-0.003967990499353834,0.0199481322006698,0.052771475933588274
1592172617.1217535,0.1113645215024752,9.324093564507425,2.96272904300495,-0.4388888888888889,-0.5788888888888889,-0.3511111111111111,-0.033515937665011694,0.042044830377453844,0.07823787556664362
1592172617.1317534,0.10148711060841699,9.277435553042084,3.028103115132664,-0.4388888888888889,-0.5788888888888889,-0.3511111111111111,0.0037706892989561314,0.022437369771171622,0.0627981087235405
1592172617.1417534,-0.03156907037358819,9.2545212858384,3.0709574283231973,-0.4388888888888889,-0.5788888888888889,-0.3511111111111111,0.03623529464636794,0.07764042588571429,-0.13780140205809097
1592172617.1517534,-0.4,9.21,3.12,-0.4388888888888889,-0.5733333333333334,-0.3655555555555556,-0.1341721862470641,0.02945243112740431,-0.11344640137963141
1592172617.1617534,-0.36014650225857653,9.216642249623572,3.106715500752859,-0.4388888888888889,-0.5733333333333334,-0.3655555555555556,-0.1443159847432469,0.017859518560338242,-0.052583610402534564
1592172617.1717534,-0.2568486576905147,9.25695615213755,3.0445657717936765,-0.4388888888888889,-0.5733333333333334,-0.3655555555555556,-0.08796663196176696,0.12185181387282133,-0.0802703327636071
1592172617.1817534,-0.09690257754477938,9.211287183764247,3.0817538424877875,-0.4388888888888889,-0.5733333333333334,-0.3655555555555556,-0.05709352602159139,-0.0034621172863267824,0.0363722034271083
1592172617.1917534,0.023967142154451546,9.196745892769306,3.113491785538613,-0.4388888888888889,-0.5733333333333334,-0.3655555555555556,-0.05758869684593873,-0.0018366091992241887,0.13875092833551358
1592172617.2017534,0.11719619105199515,9.219198911729142,3.148798367593712,-0.4388888888888889,-0.5903990326481258,-0.3602225245196829,-0.040231145089756684,-0.022991863808580076,0.13111964073510227
1592172617.2117534,0.21243691778963553,9.349411684905489,2.9928572397576194,-0.4388888888888889,-0.5911111111111111,-0.36,0.047446502243192246,0.07977724878117136,-0.12630704670755458
1592172617.2217534,0.16441265421727233,9.285883538956362,2.9614708847390907,-0.4388888888888889,-0.5911111111111111,-0.36,-0.12231459224164268,0.00952998911601688,-0.06338181904606933
1592172617.2317533,0.1408043075223857,9.273601435840794,2.9983913849552284,-0.4388888888888889,-0.5911111111111111,-0.36,-0.08121381689780799,0.07167404968415267,-0.024616347246075795
1592172617.2417533,0.11665297240130977,9.25665297240131,3.080061624194106,-0.4388888888888889,-0.5911111111111111,-0.36,-0.0822087828256953,0.11599764845593447,0.04586867011915306
1592172617.2517533,-0.026101063829787233,9.189510638297872,3.2158563829787234,-0.4481303191489362,-0.5776690307328606,-0.35075856973995273,-0.12209384636204415,0.16921309433277404,0.11900818779751429
1592172617.2617533,-0.10142870469704744,9.177857176174262,3.2814287046970474,-0.45111111111111113,-0.5733333333333334,-0.3477777777777778,-0.05352830137107335,0.09201897200962744,-0.026102701915890064
1592172617.2717533,-0.004976754128146216,9.206255811467964,3.281248062844012,-0.45111111111111113,-0.5733333333333334,-0.3477777777777778,-0.06327494733481687,0.056993795276057815,-0.05262878165856638
1592172617.2817533,-0.07033720512513472,9.040399233624715,3.4496007663752843,-0.45111111111111113,-0.5733333333333334,-0.3477777777777778,0.0355822182741561,0.1228186637604948,-0.0443359295728217
1592172617.2917533,-0.08961094937426746,9.044027373435668,3.402723354380128,-0.45111111111111113,-0.5733333333333334,-0.3477777777777778,0.02493193169161887,0.1613030602363261,0.0003992302912989368
1592172617.3017533,-0.19233177584000477,9.128756584625458,3.2628496175709056,-0.44924582271030294,-0.5621416029284844,-0.3403166241745451,-0.014649940842013055,0.15021805675833,0.07546519350861855
1592172617.3117533,-0.03783363618009286,9.230182381048524,3.290991991385692,-0.4488888888888889,-0.56,-0.3388888888888889,0.07555458564188926,0.11408449958014688,0.025274473615952954
1592172617.3217533,-0.03947478698142198,9.265789914792569,3.1184159798854587,-0.4488888888888889,-0.56,-0.3388888888888889,0.03570867097913248,0.17774995415750638,-0.08853236875155059
1592172617.3317533,-0.17428955942768096,9.32437668224961,3.08553619492846,-0.4488888888888889,-0.56,-0.3388888888888889,0.05861388132784435,0.1675390294089517,-0.16562277397357172
1592172617.3417532,-0.19111119724041703,9.289629859307778,3.102592535173055,-0.4488888888888889,-0.56,-0.3388888888888889,0.0038788100968704664,0.10637644300819601,-0.06254150039236976
1592172617.3517532,-0.2781394041596402,9.131663856098932,3.3062788083192807,-0.43462931734432575,-0.5742595715445631,-0.3229517206920242,-0.028318678391689892,0.04562174407537033,0.06583614452874902
1592172617.3617532,-0.2452867316341829,9.065732524362819,3.321465048725637,-0.43,-0.5788888888888889,-0.31777777777777777,0.10176665683959975,0.004231364496158713,0.07449611725931544
1592172617.3717532,-0.2223877974044701,9.11328541816871,3.2338779740447006,-0.43,-0.5788888888888889,-0.31777777777777777,0.07469551277682732,0.05651360703189553,0.07697700659304817
1592172617.3817532,-0.22,9.181907972557369,3.180338301395789,-0.43,-0.5788888888888889,-0.31777777777777777,0.07613673702897904,0.06879614521253435,0.04294833305127873
1592172617.3917532,-0.23834046159607386,9.303929282377752,3.0966381536157046,-0.43,-0.5788888888888889,-0.31777777777777777,0.08690440748456894,0.06253940971744552,-0.09149541254266715
1592172617.4017532,-0.23512798206578112,9.332819955164453,3.0276919730986718,-0.4390884554042449,-0.5648430941732377,-0.3020795366249912,0.0342904172990593,0.06324026402940214,0.0036946340422179813
1592172617.4117532,-0.22238154502622456,9.312381545026225,2.9971446350786737,-0.44222222222222224,-0.56,-0.2966666666666667,0.045189233676597336,-0.0686081070400289,-0.026484622780146405
1592172617.4217532,-0.16091250975661678,9.228754700915347,2.9604562548783084,-0.44222222222222224,-0.56,-0.2966666666666667,0.02231431251585208,0.023569081395086455,0.026026527397604006
1592172617.4317532,-0.14,9.222073408917684,3.0677248475609757,-0.44222222222222224,-0.56,-0.2966666666666667,0.02535532017818875,-0.07597395806217627,0.017621396444360983
1592172617.4417531,-0.2189173340679667,9.193576615045554,3.1524939491135204,-0.44222222222222224,-0.56,-0.2966666666666667,0.09080308200162682,-0.0009142380741078704,-0.0035830267722198076
1592172617.4517531,-0.32344683956097414,9.136595725274391,3.2468085494512176,-0.4600378354092136,-0.56,-0.2966666666666667,0.06932110062855856,0.0716095535686887,-0.010184182705478146
1592172617.4617531,-0.4069781001790551,9.184100362701438,3.151799274597126,-0.4688888888888889,-0.56,-0.2966666666666667,0.05480827457074246,0.051002311331413766,0.03726062801773257
1592172617.4717531,-0.4086073862120808,9.288439583889037,2.928859089696646,-0.4688888888888889,-0.56,-0.2966666666666667,0.057975094268078814,-0.05484168357277224,-0.010172534672222691
1592172617.481753,-0.42341264287380453,9.327804214291268,2.7819578570873182,-0.4688888888888889,-0.56,-0.2966666666666667,0.06353366243550697,0.0464148031459022,0.15275337455626467
1592172617.491753,-0.36927857286837334,9.33,2.780240475710542,-0.4688888888888889,-0.56,-0.2966666666666667,-0.09572637093946103,0.02141075887542157,0.08473288112595809
1592172617.501753,-0.11222194199243382,9.321865069356873,2.968968474148802,-0.45261902760263417,-0.56,-0.2966666666666667,-0.1698925613133377,-0.0967810380806389,0.05812573671230421
1592172617.511753,-0.07424815899912898,9.301002454667827,3.038496317998258,-0.4488888888888889,-0.56,-0.2966666666666667,-0.14731950868473537,-0.027609532594239025,0.04783520579561305
1592172617.521753,-0.14310593836794075,9.242067186880043,3.07,-0.4488888888888889,-0.56,-0.2966666666666667,-0.13981519050927363,-0.07723024231793862,-0.01963720470789706
1592172617.531753,-0.20790861758551896,9.198060921609654,3.2536497007444893,-0.4488888888888889,-0.56,-0.2966666666666667,-0.058851172636955704,0.01065079405233639,-0.12984593894314872
1592172617.541753,-0.2164365286289913,9.200690414113026,3.3035634713710085,-0.4488888888888889,-0.56,-0.2966666666666667,-0.02387195610713962,0.021401196498107844,-0.09433383309217083
1592172617.551753,-0.2470944262931453,9.197743344224113,3.324837770517258,-0.43322679778733864,-0.5649459235057527,-0.3073828342624642,-0.004855649047153052,0.037542003698403964,-0.04194071981111047
1592172617.561753,-0.24677774791722656,9.207629669443698,3.277110991668906,-0.42777777777777776,-0.5666666666666667,-0.3111111111111111,-0.013275829835026742,-0.0027635747881198866,-0.05339412937403239
1592172617.571753,-0.2700790571700461,9.243359685723348,3.109802357074885,-0.42777777777777776,-0.5666666666666667,-0.3111111111111111,-0.056792191085546395,-0.12407877423833824,-0.053834440801913276
1592172617.581753,-0.32919135105230396,9.25,3.0730637836841015,-0.42777777777777776,-0.5666666666666667,-0.3111111111111111,-0.09127694606395023,-0.08560722099593115,-0.07600531510899985
1592172617.591753,-0.3767296034979628,9.212578555102851,3.106729603497963,-0.42777777777777776,-0.5666666666666667,-0.3111111111111111,-0.10268902993363416,-0.06744629600608769,-0.0209383575758174
1592172617.601753,-0.3877578801295183,9.18,3.160605299676204,-0.4488614286658296,-0.5578251356490965,-0.28934734245247695,-0.1240831728563726,-0.07963064712224129,0.10234469508843821
1592172617.611753,-0.2313213783403657,9.172920065635255,3.2720391467416783,-0.4622222222222222,-0.5522222222222222,-0.27555555555555555,-0.05526223920932029,-0.059550820230135054,0.025373833753703015
1592172617.621753,-0.06829407706711343,9.140941164876319,3.2882058736572386,-0.4622222222222222,-0.5522222222222222,-0.27555555555555555,-0.05509980109915058,-0.03858973803477287,-0.00022457332262098423
1592172617.631753,0.006860284450818696,9.115255886219673,3.3684646826819646,-0.4622222222222222,-0.5522222222222222,-0.27555555555555555,-0.17458567410998604,-0.10538658687373087,0.10924747858629288
1592172617.641753,0.025805565594506686,9.124513913986267,3.4,-0.4622222222222222,-0.5522222222222222,-0.27555555555555555,-0.16173224082147253,-0.11791727009597973,0.12196544681196929
1592172617.651753,0.025597597985407117,9.174402402014593,3.349591592948925,-0.446219553317119,-0.5482215549959464,-0.2803563562270865,0.04303572903809563,-0.012335889558007643,0.008891746495922552
1592172617.661753,0.02,9.18,3.33,-0.44,-0.5466666666666666,-0.2822222222222222,0.074176493209759,0.016362461737446838,-0.01308996938995747
1592172617.671753,-0.022673885000105743,9.169331528749973,3.2659891724998413,-0.44,-0.5466666666666666,-0.2822222222222222,0.03577275363212498,0.014034962369105383,0.07710063113327392
1592172617.681753,-0.06,9.186317879742647,3.188945696205883,-0.44,-0.5466666666666666,-0.2822222222222222,0.017110005308718406,-0.02130255128238816,0.1278546156107413
1592172617.691753,-0.05246688171369515,9.217533118286305,3.151167204284238,-0.44,-0.5466666666666666,-0.2822222222222222,-0.013008731859007097,-0.040586482267978674,0.038442706498538315
1592172617.701753,-0.04698473282442748,9.231746183206107,3.117671755725191,-0.4389005513146734,-0.5458905852417303,-0.2822222222222222,-0.08457685692989698,-0.02735195734965827,-0.052075720304465827
1592172617.711753,-0.1788510273575946,9.265141189279344,3.0868549190391255,-0.4211111111111111,-0.5333333333333333,-0.2822222222222222,-0.08439652822660573,-0.10263050172190699,0.17588079067625992
1592172617.721753,-0.2631744539673763,9.27293613491844,3.12853193254078,-0.4211111111111111,-0.5333333333333333,-0.2822222222222222,-0.1200995342412132,-0.13546682776851854,0.05252418074210914
1592172617.7317529,-0.20811558505007738,9.177841991694487,3.1870212116277177,-0.4211111111111111,-0.5333333333333333,-0.2822222222222222,-0.0691767114874779,-0.17168831369120596,-0.015616351602036836
1592172617.7417529,-0.1299305513617972,9.14,3.245753970650402,-0.4211111111111111,-0.5333333333333333,-0.2822222222222222,0.03140899644360259,-0.03475724550344601,-0.1000577529167928
1592172617.7517529,-0.03746212451023074,9.151831954723553,3.2711260339573354,-0.42308310356503653,-0.5310326754704203,-0.2759775794514584,-0.03287893149525223,-0.02487274643690243,-0.11384607190054957
1592172617.7617528,0.07858265988956742,9.204552601747906,3.232462427322924,-0.42777777777777776,-0.5255555555555556,-0.2611111111111111,-0.03368535875411808,-0.0017748387635638206,-0.054947604044770657
1592172617.7717528,0.12628511201529485,9.279643609980882,3.111069170057356,-0.42777777777777776,-0.5255555555555556,-0.2611111111111111,-0.0747701695344453,-0.02985766254412857,0.029233345205746976
1592172617.7817528,0.021544728694802034,9.264617891477922,3.108970180870132,-0.42777777777777776,-0.5255555555555556,-0.2611111111111111,-0.059020753027203554,-0.01104961635878967,0.03009391854699527
1592172617.7917528,-0.07282215923333527,9.221244480438093,3.178133279342859,-0.42777777777777776,-0.5255555555555556,-0.2611111111111111,-0.05441542082066652,-0.02843910967626474,-0.0404890447654698
1592172617.8017528,-0.11,9.19071451602502,3.219285483974979,-0.42777777777777776,-0.5353568997513668,-0.257500089565286,-0.12875612383317742,-0.05726879194209161,-0.0510764789520233
1592172617.8117528,-0.10415354785097641,9.127381930658787,3.2533858085960943,-0.42777777777777776,-0.5466666666666666,-0.25333333333333335,-0.04471771682227463,-0.017199935349603068,-0.016517014143683
1592172617.8217528,-0.04750840192879061,9.13665919828552,3.2350056012858603,-0.42777777777777776,-0.5466666666666666,-0.25333333333333335,-0.026350542142761176,-0.04162583913073442,-0.10171416591550833
1592172617.8317528,-0.07808957952468008,9.198370658135284,3.2837637111517366,-0.42777777777777776,-0.5466666666666666,-0.25333333333333335,-0.03550733965273314,-0.041843929801512816,-0.044068716075228734
1592172617.8417528,-0.13901622002820874,9.206475669957687,3.3940973201692524,-0.42777777777777776,-0.5466666666666666,-0.25333333333333335,-0.04960510673322917,-0.008494325458621907,0.03930529478199854
1592172617.8517528,-0.10757025185586928,9.161713501237246,3.5071441646045898,-0.4372066106986957,-0.5403807780527213,-0.2501903890263607,-0.0738639715402,-0.0061088520527108215,-0.054498055276810314
1592172617.8617527,-0.11501937220147088,9.087207154954411,3.5477734728441175,-0.4477777777777778,-0.5333333333333333,-0.24666666666666667,0.03541769606425377,-0.06086055281878279,-0.1071764843081349
1592172617.8717527,-0.16219559428709757,9.066097797143549,3.4424352457032197,-0.4477777777777778,-0.5333333333333333,-0.24666666666666667,0.08822447133341223,0.0252000130878684,-0.06470519848533807
1592172617.8817527,-0.17,9.115622667343919,3.38,-0.4477777777777778,-0.5333333333333333,-0.24666666666666667,0.08914145523378517,0.06069647852046185,-0.016314064417554723
1592172617.8917527,-0.14392186805327356,9.119575512728819,3.4669271064890883,-0.4477777777777778,-0.5333333333333333,-0.24666666666666667,0.050285584798974985,0.02120358869731629,0.04865219574874968
1592172617.9017527,-0.13155787257166146,9.06275370194267,3.610181021600326,-0.45161028845718426,-0.5247101843046688,-0.24043883681263115,0.030400850772558136,0.037736283965544765,0.06096804545944208
1592172617.9117527,-0.10815338180820415,9.022717793936067,3.644239264645356,-0.45666666666666667,-0.5133333333333333,-0.23222222222222222,0.014846013895625391,0.04979944075673867,0.0688401172950576
1592172617.9217527,-0.07,8.988587799354972,3.6078816990324576,-0.45666666666666667,-0.5133333333333333,-0.23222222222222222,-0.0204947140772339,0.0399631205404687,0.12826315148196182
1592172617.9317527,-0.1215186164510827,9.042126063031516,3.595455584935325,-0.45666666666666667,-0.5133333333333333,-0.23222222222222222,0.09438091194603063,0.03897172852697604,0.06881549607459993
1592172617.9417527,-0.15324753166644037,9.10581188291661,3.60581188291661,-0.45666666666666667,-0.5133333333333333,-0.23222222222222222,0.19231238994043384,0.02488390409214332,0.003916182593145773
1592172617.9517527,-0.2027174022996257,9.071721010216812,3.5757608659001248,-0.44858695530004156,-0.5214130446999584,-0.23222222222222222,0.25311820354973735,0.11637505968609245,0.07945873010172713
1592172617.9617527,-0.2544818119423473,9.128699000991382,3.4104575611988106,-0.43666666666666665,-0.5333333333333333,-0.23222222222222222,0.285792257860799,0.13151186683699492,0.06212985484047344
1592172617.9717526,-0.20552482183838627,9.191809397270202,3.3028590409469745,-0.43666666666666665,-0.5333333333333333,-0.23222222222222222,0.2663375548050107,0.07080913455433421,0.028453567960100817
1592172617.9817526,-0.19484878494705568,9.227424392473527,3.141605850537061,-0.43666666666666665,-0.5333333333333333,-0.23222222222222222,0.26223507194576545,0.10840516269212247,0.08514737402011396
1592172617.9917526,-0.18556547740957685,9.245051407037234,3.0803084422234055,-0.43666666666666665,-0.5333333333333333,-0.23222222222222222,0.19386506683964796,0.11890202981043682,0.03290436788658031
1592172618.0017526,-0.03219531087079572,9.27088569130396,3.060295230434653,-0.43666666666666665,-0.5333333333333333,-0.2167793765702426,0.20003656644264417,0.12349922255552936,-0.04088014040011937
1592172618.0117526,0.05880747995002619,9.302385040099947,3.067614959900052,-0.43666666666666665,-0.5333333333333333,-0.20222222222222222,0.17182156468234638,0.07302613778777921,-0.08028273647043659
1592172618.0217526,0.03562401602976957,9.32,2.9829120748055913,-0.43666666666666665,-0.5333333333333333,-0.20222222222222222,0.11246816123679582,0.08374695778578374,0.017544051972482478
1592172618.0317526,-0.012891723912332353,9.305903546894715,2.914698817701762,-0.43666666666666665,-0.5333333333333333,-0.20222222222222222,-0.01728298242861563,0.12218614841585904,0.05115093588789727
1592172618.0417526,-0.061327581135405436,9.293775860378469,2.927551720756937,-0.43666666666666665,-0.5333333333333333,-0.20222222222222222,-0.10430412923273152,0.13006651694147614,0.08092084142847275
1592172618.0517526,-0.13364000788591707,9.3,2.94,-0.44337166765240626,-0.5307258329499901,-0.20035972194840565,-0.041476659488027826,0.15414147921414284,0.02011545870050261
1592172618.0617526,-0.25530019731278775,9.3,2.965500328854646,-0.45666666666666667,-0.5255555555555556,-0.19666666666666666,0.001004224373475547,0.12563074446176792,0.022450431074053714
1592172618.0717525,-0.3064361544538811,9.31561549476595,2.9067173612482717,-0.45666666666666667,-0.5255555555555556,-0.19666666666666666,-0.02590636927841882,0.10685665664217518,0.07283369193543365
1592172618.0817525,-0.34230539280162625,9.328559129498984,2.8305763482004065,-0.45666666666666667,-0.5255555555555556,-0.19666666666666666,-0.09467284230696432,0.10166117673645286,0.04380918857901497
1592172618.0917525,-0.4046371681415929,9.28,2.8730442477876106,-0.45666666666666667,-0.5255555555555556,-0.19666666666666666,-0.08411367203720901,0.016285234779393996,0.15007707825804778
1592172618.1017525,-0.3564247150569886,9.276070785842832,2.91,-0.45099113510631206,-0.5207531826967939,-0.1988495634206492,-0.07381528229677878,0.16706331909133637,0.07778074992840957
1592172618.1117525,-0.23543572044866265,9.354564279551337,2.8254357204486626,-0.44222222222222224,-0.5133333333333333,-0.20222222222222222,-0.05222858256918429,0.23586086238913123,-0.00913606074693106
1592172618.1217525,-0.1702217681071918,9.49749134988273,2.6609216728978473,-0.44222222222222224,-0.5133333333333333,-0.20222222222222222,-0.17556782503499696,0.22408749087113727,0.016574862548148203
1592172618.1317525,-0.22673603295098063,9.530711942335785,2.6202080988529417,-0.44222222222222224,-0.5133333333333333,-0.20222222222222222,-0.23467437928863893,0.23509494433086203,-0.018449744327436526
1592172618.1417525,-0.3173364832510541,9.407699853804267,2.8583412081276354,-0.44222222222222224,-0.5133333333333333,-0.20222222222222222,-0.32122053240282356,0.16550919355525873,0.07172806958591543
1592172618.1517525,-0.4142873432155074,9.183580387685291,3.2342759407069557,-0.43654820727226656,-0.5133333333333333,-0.18563664006081337,-0.36968155713146283,0.10935360925898766,0.07705842584720973
1592172618.1617525,-0.39294354190123854,9.046075277465016,3.383188837059675,-0.42777777777777776,-0.5133333333333333,-0.16,-0.2656953749488909,0.1409785176447175,0.08681342655654359
1592172618.1717525,-0.5282667975003874,8.931100294375872,3.4643330062490314,-0.42777777777777776,-0.5133333333333333,-0.16,-0.14441133701813755,0.06315878119228255,-0.0070824285655058244
1592172618.1817524,-0.55,8.98,3.41,-0.42777777777777776,-0.5133333333333333,-0.16,-0.12544553998709243,0.009817477042468103,0.1090830782496456
1592172618.1917524,-0.4963858180153071,9.033403545496173,3.402982272519134,-0.42777777777777776,-0.5133333333333333,-0.16,0.04837874123373304,-0.030057108307418368,0.08137210883787065
1592172618.2017524,-0.4809125700062228,9.076375233354076,3.3154371499688864,-0.43505282444859295,-0.5109083177763949,-0.1648500311138768,-0.001570470503039073,0.010818502652267439,0.03211651549085411
1592172618.2117524,-0.5,9.14,3.22,-0.4477777777777778,-0.5066666666666667,-0.17333333333333334,0.08726646259971647,0.062177354602297986,-0.04145156973486533
1592172618.2217524,-0.4280286798616449,9.314213105303612,3.13,-0.4477777777777778,-0.5066666666666667,-0.17333333333333334,-0.10880903426535155,0.005710773740589755,0.05993846844014491
1592172618.2317524,-0.3753611229667568,9.232319438516623,3.1722430881585812,-0.4477777777777778,-0.5066666666666667,-0.17333333333333334,-0.13092467949581627,-0.001339341764576077,0.06710882846421147
1592172618.2417524,-0.3784950064463987,9.22307214193623,3.2492164258086866,-0.4477777777777778,-0.5066666666666667,-0.17333333333333334,-0.12985365756143424,-0.09003966691840948,0.0845855130059272
1592172618.2517524,-0.3754355922058922,9.202343552570326,3.2976564474296737,-0.43855896196788663,-0.5066666666666667,-0.1779427412382789,-0.14451164725544646,-0.08183907709574262,0.07466100865807275
1592172618.2617524,-0.5807764634516227,9.060912951167728,3.4141552926903245,-0.4011111111111111,-0.5066666666666667,-0.19666666666666666,0.038871558075202796,-0.06492676430886321,0.06525067190245254
1592172618.2717524,-0.5945562387145437,9.02,3.3775296564649953,-0.4011111111111111,-0.5066666666666667,-0.19666666666666666,0.060092506731356264,-0.10104215617908675,0.0939711662038098
1592172618.2817523,-0.5142430403141965,9.051363289823264,3.299545570058912,-0.4011111111111111,-0.5066666666666667,-0.19666666666666666,0.08141546654025553,-0.1291978617927944,0.08857256140910642
1592172618.2917523,-0.3408722278115568,9.128033331875246,3.2709833340623766,-0.4011111111111111,-0.5066666666666667,-0.19666666666666666,0.10405192485712442,-0.012820900023678763,-0.003314911688972213
1592172618.3017523,-0.15064717821133952,9.173261424643185,3.2597842739295535,-0.4050972967861144,-0.5023181004757541,-0.18978143686438828,0.06805508566359436,0.01925008521712991,-0.12147265628933838
1592172618.3117523,-0.09,9.18,3.28,-0.41333333333333333,-0.49333333333333335,-0.17555555555555555,0.028361600344907853,-0.04690572364734761,-0.2552544031041707
1592172618.3217523,-0.017659194654833853,9.335318389309668,3.2040448320709967,-0.41333333333333333,-0.49333333333333335,-0.17555555555555555,-0.08916540891103046,-0.009721615902629724,-0.015040740803859656
1592172618.3317523,-0.03854618125782529,9.274538187421747,3.1812770875469516,-0.41333333333333333,-0.49333333333333335,-0.17555555555555555,-0.20808934055798917,-0.09400859108390398,-0.08647260821271474
1592172618.3417523,-0.05,9.16,3.25,-0.41333333333333333,-0.49333333333333335,-0.17555555555555555,-0.18435040224190105,-0.07526732399225547,-0.234528618236738
1592172618.3517523,-0.2032226853230128,9.066222089907711,3.35,-0.41469757864443785,-0.49333333333333335,-0.17356165856240283,-0.1674846612531372,-0.08596957878611135,-0.15348555796154267
1592172618.3617523,-0.33,9.03,3.35,-0.42777777777777776,-0.49333333333333335,-0.15444444444444444,-0.08944812416470939,-0.0839939702522271,-0.04581489286485115
1592172618.3717523,-0.2713436593926446,9.063325957576684,3.3366740424233177,-0.42777777777777776,-0.49333333333333335,-0.15444444444444444,-0.13318481209989824,-0.1370025533758276,0.130885544560873
1592172618.3817523,-0.17016661516887316,9.096885413448055,3.3467187982791815,-0.42777777777777776,-0.49333333333333335,-0.15444444444444444,-0.00754494099995635,-0.09140131614456792,-0.12875549699079142
1592172618.3917522,-0.037214611872146114,9.133039066463724,3.49050735667174,-0.42777777777777776,-0.49333333333333335,-0.15444444444444444,-0.10325701247220258,0.06590532829630921,-0.05448619509729888
1592172618.4017522,0.038182324752033876,9.25727255841599,3.6195460455440394,-0.4258079588559918,-0.4896967445546516,-0.1573234105609008,-0.2026958427059523,0.0462116507010049,-0.05126965461795669
1592172618.4117522,0.09,9.24,3.68,-0.41333333333333333,-0.4666666666666667,-0.17555555555555555,-0.16689710972195776,0.05563236990731925,-0.11344640137963141
1592172618.4217522,-2.4776751148505166e-05,8.969958705414752,3.7466473958602178,-0.41333333333333333,-0.4666666666666667,-0.17555555555555555,-0.14610555856360702,0.04688950730164178,0.033458150050523106
1592172618.4317522,-0.09857915390505359,8.97802163093415,3.6189837767993875,-0.41333333333333333,-0.4666666666666667,-0.17555555555555555,-0.014685027513961073,0.031202479517163654,-0.02649093726702839
1592172618.4417522,-0.16,9.15,3.49,-0.41333333333333333,-0.4666666666666667,-0.17555555555555555,-0.05890486225480862,0.06872233929727672,-0.14508049407202864
1592172618.4517522,-0.0835263645956576,9.177061362836952,3.4852895468934864,-0.41418227295821386,-0.4675156062915472,-0.1734658580173881,-0.07635627120546674,0.1571475109355808,-0.0764882605790787
1592172618.4617522,-0.1251783386657187,9.127035667733145,3.6085363194691316,-0.42777777777777776,-0.4811111111111111,-0.14,-0.09509681538346695,0.1048485763020079,-0.04880696711783313
1592172618.4717522,-0.0776326942482341,9.07980625630676,3.7340100908173564,-0.42777777777777776,-0.4811111111111111,-0.14,-0.07426102984355892,0.10183142013149557,-0.005774908796457527
1592172618.4817522,-0.05,8.99,3.81,-0.42777777777777776,-0.4811111111111111,-0.14,-0.11344640137963141,0.007635815477475192,0.11780972450961724
1592172618.4917521,-0.05823236421005184,8.897626549470363,3.9317676357899485,-0.42777777777777776,-0.4811111111111111,-0.14,-0.014599923074865455,0.013403205247514087,0.11766125646599551
1592172618.5017521,-0.03851951670048148,8.836719861914423,3.912118826272598,-0.4266843984159189,-0.4796532719619659,-0.14109337936185892,0.0889558745108087,0.1528507516439459,0.07003171280626673
1592172618.5117521,0.051386286014537166,8.794890971188371,3.7448909711883704,-0.4211111111111111,-0.4722222222222222,-0.14666666666666667,0.2563758027500001,0.08529123638991884,0.12829579990979553
1592172618.521752,0.12273534040192967,8.791971467636664,3.624351830353688,-0.4211111111111111,-0.4722222222222222,-0.14666666666666667,0.41741616526705816,0.15310769500787808,0.09362751751644283
1592172618.531752,0.14320368818105617,9.058735959765297,3.3839815590947193,-0.4211111111111111,-0.4722222222222222,-0.14666666666666667,0.32186036609870955,0.15987537802782256,0.016223479106315705
1592172618.541752,0.17,9.32,3.25,-0.4211111111111111,-0.4722222222222222,-0.14666666666666667,0.08290313946973066,0.1832595714594046,0.19525871006686563
1592172618.551752,0.12068808037753082,9.458073374942915,3.200688080377531,-0.4211111111111111,-0.4722222222222222,-0.14666666666666667,0.07429658589082178,0.23705053132758497,0.06938786397532351
1592172618.561752,0.05,9.14,3.36,-0.41333333333333333,-0.46555555555555556,-0.14888888888888888,0.074176493209759,0.1810779098944117,0.10253809355466686
1592172618.571752,-0.1839884888234507,9.083179226341855,3.346820773658145,-0.41333333333333333,-0.46555555555555556,-0.14888888888888888,0.2148684338534194,0.16753394114224104,0.11821954164792683
1592172618.581752,-0.43,9.26,3.17,-0.41333333333333333,-0.46555555555555556,-0.14888888888888888,0.1948578621433069,0.13774552787799854,-0.01490592607558986
1592172618.591752,-0.4021027660907707,9.241401844060514,3.17,-0.41333333333333333,-0.46555555555555556,-0.14888888888888888,0.21837893246160966,0.1605444924642289,0.005646521349732127
1592172618.601752,-0.3119915853549369,9.181327723569957,3.17,-0.41333333333333333,-0.46555555555555556,-0.14888888888888888,0.12745508640239167,0.02374915650126122,-0.13114881461323552
1592172618.611752,-0.16417553071108495,9.227280586611144,3.114175530711085,-0.4122222222222222,-0.4533333333333333,-0.13444444444444445,0.07859765856405546,0.00663020507838474,0.1148180989935329
1592172618.621752,-0.06667558972247009,9.36761777289679,2.99047109158716,-0.4122222222222222,-0.4533333333333333,-0.13444444444444445,0.0842246302859021,-0.02964046323016424,0.035608498347295715
1592172618.631752,-0.13361124227093873,9.342499831365936,2.977500168634064,-0.4122222222222222,-0.4533333333333333,-0.13444444444444445,-0.0627225124618269,0.06502541014953775,-0.07660018553724039
1592172618.641752,-0.228562421185372,9.245898486759142,3.084947194199243,-0.4122222222222222,-0.4533333333333333,-0.13444444444444445,0.06179915751747753,-0.01612259588915199,0.07798631944679779
1592172618.651752,-0.4930201765447667,9.080612389659521,3.3246120349936947,-0.4122222222222222,-0.4533333333333333,-0.13444444444444445,0.15645621790083442,0.09025391006547766,0.02930554553535708
1592172618.661752,-0.59,9.05,3.37,-0.4122222222222222,-0.46,-0.12777777777777777,0.16689710972195776,-0.001090830782496456,0.008726646259971648
1592172618.671752,-0.5876480139170773,9.141759930414613,3.3388321252536968,-0.4122222222222222,-0.46,-0.12777777777777777,0.14880329806582665,-0.0035193129745291554,0.005900923284287003
1592172618.681752,-0.5509183353904537,9.232120184956617,3.1651587053036865,-0.4122222222222222,-0.46,-0.12777777777777777,0.11814487318950737,-0.16670785260076784,0.030751006666628437
1592172618.691752,-0.48137777941528653,9.239846913398301,3.1110716062118895,-0.4122222222222222,-0.46,-0.12777777777777777,0.08358780493756472,-0.09843657142010066,-0.040048840483693095
1592172618.701752,-0.4023220991473985,9.288548688032876,3.0517415743605487,-0.4122222222222222,-0.46,-0.12777777777777777,0.14751239156414628,-0.18923156148176096,0.04540021176910322
1592172618.711752,-0.3904168530069436,9.414580910909732,3.0212505590208307,-0.40689825167052424,-0.46,-0.10541710146064624,-0.029312601435949076,-0.1731697525995906,-0.02726930604929849
1592172618.721752,-0.47,9.178138721414635,3.1064416164243904,-0.4066666666666667,-0.46,-0.10444444444444445,-0.032577628435763804,-0.21260656449514329,-0.03897129154146722
1592172618.731752,-0.47,9.104413527622999,3.0843240582868994,-0.4066666666666667,-0.46,-0.10444444444444445,-0.01810172048574571,-0.08312761005331479,-0.10491709442488298
1592172618.741752,-0.4982644143515287,9.113553678626275,3.122396621527293,-0.4066666666666667,-0.46,-0.10444444444444445,-0.004994399880323018,-0.12615761811858417,-0.10342160100513893
1592172618.751752,-0.5155654693815298,9.15443453061847,3.1761862274079156,-0.40597930806578714,-0.46,-0.10444444444444445,-0.00773855138965266,-0.19997033705457376,-0.0899657135133476
1592172618.761752,-0.3669539540463228,9.270781581618529,3.2315364030635787,-0.4,-0.46,-0.10444444444444445,-0.10299649010200367,-0.16296883048252742,-0.12266415803803438
1592172618.7717519,-0.23631322934449614,9.215084305792661,3.231397535137158,-0.4,-0.46,-0.10444444444444445,0.03902797184609148,-0.10422562747397898,-0.1478376344991234
1592172618.7817519,-0.21,9.17359185441941,3.1732040727902944,-0.4,-0.46,-0.10444444444444445,-0.056626075158705214,-0.13508270856182986,0.03374155129688236
1592172618.7917519,-0.20737744034707156,9.1016420824295,3.213986984815618,-0.4,-0.46,-0.10444444444444445,0.18732072736395702,-0.08106363437143836,0.024379713054701702
1592172618.8017519,-0.1846317787418655,8.942422451193059,3.335297180043384,-0.4,-0.46,-0.10444444444444445,0.08063055562096891,0.05788170557291823,0.02768793543432924
1592172618.8117518,-0.20639917803888508,8.927599452025923,3.3380006849675956,-0.4,-0.4575556316630662,-0.09808908676841656,0.17409300640448971,0.052579089773563036,-0.011954250107480524
1592172618.8217518,-0.2395487117340218,8.949699141156014,3.310376073554982,-0.4,-0.45448623039499797,-0.0901086434714392,0.3187351335247242,0.010391802696827976,-0.0625789945995626
1592172618.8317518,-0.5008692039222203,9.423912011206344,2.946087988793656,-0.4,-0.45444444444444443,-0.09,0.06070674408631954,-0.032108299383617575,0.03111189555885948
1592172618.8417518,-0.43531238981736126,9.24156230167125,3.1265626542556944,-0.4,-0.45444444444444443,-0.09,-0.0006136067380279408,-0.02031671370874737,-0.04438298996546665
1592172618.8517518,-0.3983412664833228,9.17501427966998,3.178322226923348,-0.4,-0.45444444444444443,-0.09,-0.005453115465577005,-0.017090374557047993,0.01853062349267117
1592172618.8617518,-0.401655897542787,9.191655897542786,3.235032307371639,-0.4,-0.4622222222222222,-0.07555555555555556,0.028793344898345043,-0.011954221005587917,-0.018940625980391576
1592172618.8717518,-0.41267868466346586,9.204018026995199,3.1939278920192047,-0.4,-0.4622222222222222,-0.07555555555555556,-0.0064663270898634925,-0.15942567480492129,0.002454196332465077
1592172618.8817518,-0.42911721209808223,9.232648363705753,3.0873516362942466,-0.4,-0.4622222222222222,-0.07555555555555556,0.10112358337768856,0.015588857576937714,-0.02919832719118972
1592172618.8917518,-0.4134268650386967,9.26197194048839,3.0560561190232183,-0.4,-0.4622222222222222,-0.07555555555555556,0.045323465829643715,-0.05339912932027523,-0.07788401490242534
1592172618.9017518,-0.33931476835000174,9.284205569494999,3.0115888610100012,-0.4,-0.4622222222222222,-0.07555555555555556,0.08897909429827003,0.020977126589236283,-0.02129338540605788
1592172618.9117517,-0.28,9.32,2.9716366164651538,-0.39222222222222225,-0.45444444444444443,-0.07555555555555556,-0.13352615650555305,-0.11787780341583826,-0.027897131493023978
1592172618.9217517,-0.28573941039379164,9.317847721102329,2.9878477211023284,-0.39222222222222225,-0.45444444444444443,-0.07555555555555556,-0.03477884401410903,-0.01884756720815427,-0.13811543691887126
1592172618.9317517,-0.35922543785707595,9.279930692141987,2.978589491430177,-0.39222222222222225,-0.45444444444444443,-0.07555555555555556,-0.109191578979346,-0.002657041880714182,-0.04681367171000291
1592172618.9417517,-0.3467651014029221,9.158613614886967,3.203697026968089,-0.39222222222222225,-0.45444444444444443,-0.07555555555555556,-0.004427748514210463,-0.09261143035333436,-0.03151507422874038
1592172618.9517517,-0.2934102638656684,9.13574725594243,3.2646739841535215,-0.39222222222222225,-0.45444444444444443,-0.07555555555555556,0.030492910994229818,0.017139213816049395,-0.011560411652488788
1592172618.9617517,-0.21448589850863808,9.147757050745682,3.3319392626864204,-0.4,-0.4666666666666667,-0.09888888888888889,-0.06115277795110048,-0.06936973987685748,-0.044721216483522556
1592172618.9717517,-0.15,9.18,3.34,-0.4,-0.4666666666666667,-0.09888888888888889,-0.05235987755982988,-0.09926560120717749,0.18653206380689397
1592172618.9817517,-0.15,9.198761528988967,3.2209288532582745,-0.4,-0.4666666666666667,-0.09888888888888889,0.08116701035873822,-0.14097730246161028,0.005086230514430335
1592172618.9917517,-0.15,9.16,3.2517490782536784,-0.4,-0.4666666666666667,-0.09888888888888889,-0.0368724935746073,-0.1739106242988778,0.09319478453953044
1592172619.0017517,-0.15,9.16,3.2734280348713,-0.4,-0.4666666666666667,-0.09888888888888889,0.01988288213156956,-0.058035065565433364,0.058510943830200134
1592172619.0117517,-0.13,9.15,3.3,-0.4122222222222222,-0.45444444444444443,-0.08444444444444445,-0.004363323129985824,-0.014180800172453926,0.14726215563702155
1592172619.0217516,-0.09420018281535648,9.194749771480804,3.2552502285191958,-0.4122222222222222,-0.45444444444444443,-0.08444444444444445,0.019067602425667025,0.05415939936486689,0.046704433460678055
1592172619.0317516,-0.02909159620199348,9.210908403798008,3.118183192403987,-0.4122222222222222,-0.45444444444444443,-0.08444444444444445,0.13123247226385087,-0.05913854913650456,-0.07959679215393385
1592172619.0417516,0.0,9.24031630560756,3.0612652224302397,-0.4122222222222222,-0.45444444444444443,-0.08444444444444445,0.036777714300817124,0.03828258815539675,-0.11103115012581292
