time,acc_x,acc_y,acc_z,mag_x,mag_y,mag_z,gyr_x,gyr_y,gyr_z
1592290626.7417629,-0.3848319702314043,9.689663940462808,0.5758401488429784,-0.47444444444444445,-0.5969795125564729,-0.2565173068723594,0.023764458298405677,-0.016055326003346516,0.0005270861868522354
1592290626.7517629,-0.3753741423670669,9.68,0.5953741423670669,-0.47444444444444445,-0.59,-0.25222222222222224,0.03625714300590841,-0.025935063173295348,-0.000672803720193283
1592290626.7617629,-0.3251495865970409,9.684970082680591,0.5103590078328981,-0.47444444444444445,-0.59,-0.25222222222222224,0.06593325634844915,-0.04850607161485805,-0.009242690391573676
1592290626.7717628,-0.3490416656984175,9.722694443798945,0.41185648223456417,-0.47444444444444445,-0.59,-0.25222222222222224,0.08408537767912466,-0.05513594088669762,-0.018936014267452537
1592290626.7817628,-0.34254972700789077,9.7543136611811,0.3713726776377983,-0.47444444444444445,-0.59,-0.25222222222222224,0.09242114470784778,-0.061278939189245034,-0.02431908875290702
1592290626.7917628,-0.3047950154111292,9.764132502568522,0.36413250256852153,-0.47444444444444445,-0.5978058381849851,-0.2618647282154391,0.09670542248138725,-0.07232862810566788,-0.026630724880963838
1592290626.8017628,-0.29447861401943753,9.735858960514578,0.4325919057232734,-0.47444444444444445,-0.6088888888888889,-0.27555555555555555,0.09740349636632123,-0.08365600169343589,-0.02975357601688641
1592290626.8117628,-0.08016498370959171,9.639155902673476,0.4309540864662523,-0.47444444444444445,-0.6088888888888889,-0.27555555555555555,0.103126547824791,-0.09608518559440771,-0.032822999186581034
1592290626.8217628,-0.004037981603403601,9.876151926413614,0.2419240367931928,-0.47444444444444445,-0.6088888888888889,-0.27555555555555555,0.12062063673634545,-0.11696004166304168,-0.017086294451675352
1592290626.8317628,-0.25449422946367956,9.994120841819417,0.1614867617107943,-0.47444444444444445,-0.6088888888888889,-0.27555555555555555,0.12949561028544485,-0.1138959154902732,-0.02417897151969401
1592290626.8417628,-0.44936544884121044,9.833756367439193,0.19624363256080693,-0.4772574750643772,-0.6070135351422671,-0.25961504870926994,0.10921595919811891,-0.07661077945247813,-0.04884789775383473
1592290626.8517628,-0.290862789130923,9.785291713451606,0.26142151358634624,-0.4811111111111111,-0.6044444444444445,-0.23777777777777778,0.04935449544931202,-0.024156034911739392,-0.02188025765246507
1592290626.8617628,-0.1476744240113454,9.771993350847419,0.3138372120056727,-0.4811111111111111,-0.6044444444444445,-0.23777777777777778,0.017308331955631348,0.01352485108289331,-0.001509405679971731
1592290626.8717628,-0.07500661032154493,9.78006610321545,0.3249405071060957,-0.4811111111111111,-0.6044444444444445,-0.23777777777777778,0.008187720536724483,0.04905710009500221,-0.0016311986541883003
1592290626.8817627,-0.06185945627637649,9.7991946216508,0.32522700952007066,-0.4811111111111111,-0.6044444444444445,-0.23777777777777778,0.000164507859493969,0.09108673635673781,-0.010782127320474389
1592290626.8917627,-0.029404640713307825,9.908238143714676,0.21880928142661565,-0.4811111111111111,-0.5952909514281368,-0.2501349933497931,-0.015596349073234865,0.1409172861408818,-0.020341407453359595
1592290626.9017627,0.005755477871455663,9.902733566385633,0.12546713277126603,-0.4811111111111111,-0.5822222222222222,-0.2677777777777778,-0.05046884998288027,0.1918138461679392,-0.024163096918457777
1592290626.9117627,-0.010895615819714282,9.863880480225358,0.03731315254085717,-0.4811111111111111,-0.5822222222222222,-0.2677777777777778,-0.08601291807488694,0.2175638083695123,-0.02451926847353438
1592290626.9217627,-0.01539666020152325,9.820528880268698,0.018942239462604666,-0.4811111111111111,-0.5822222222222222,-0.2677777777777778,-0.12386432815884812,0.22320470176792911,-0.025060262053550966
1592290626.9317627,0.01935653504159098,9.796128692991681,0.07548522803327277,-0.4811111111111111,-0.5822222222222222,-0.2677777777777778,-0.1568345373224893,0.21014256887827246,-0.021534703841430417
1592290626.9417627,0.04325331605687592,9.803493367886247,0.12361339380093431,-0.48485926885729114,-0.5912178008130543,-0.2655288831300698,-0.18699168790684653,0.19155277921191105,-0.00755725870001304
1592290626.9517627,0.071808177195793,9.777739778505259,0.2849724872884307,-0.4922222222222222,-0.6088888888888889,-0.2611111111111111,-0.2199966430363048,0.17086594978286776,0.010584789160071481
1592290626.9617627,0.13170825189735258,9.784270629743382,0.4008541259486763,-0.4922222222222222,-0.6088888888888889,-0.2611111111111111,-0.24805146445623963,0.15187777336025324,0.014087629484759417
1592290626.9717627,0.20085441020191286,9.813048529932695,0.52866029047113,-0.4922222222222222,-0.6088888888888889,-0.2611111111111111,-0.2591432682969262,0.13242049413751214,0.0038443767109660795
1592290626.9817626,0.26198968050700117,9.821989680507002,0.6683772971154026,-0.4922222222222222,-0.6088888888888889,-0.2611111111111111,-0.25050265848432285,0.11955730512573615,-0.015266002544638948
1592290626.9917626,0.29411170997974523,9.882893679837961,0.7546702598784716,-0.47897337895415415,-0.6011223255938145,-0.25517197447370127,-0.226781955867293,0.11882861715715624,-0.04848398116831685
1592290627.0017626,0.3,9.93,0.79,-0.46,-0.59,-0.24666666666666667,-0.20943951023931953,0.1265363707695889,-0.074176493209759
1592290627.0117626,0.3264315457768274,9.938091272297564,0.6185892746609645,-0.46,-0.59,-0.24666666666666667,-0.1658606025702367,0.14868792075999923,-0.1734873334179325
1592290627.0217626,0.32949814569823677,9.940501854301763,0.5053763907263225,-0.46,-0.59,-0.24666666666666667,-0.15271630954950383,0.16841018231854685,-0.23818027180982482
1592290627.0317626,0.3848821702768094,9.892094263778553,0.49697643405536185,-0.46,-0.59,-0.24666666666666667,-0.1549993422553974,0.17306158896595422,-0.2813322433979756
1592290627.0417626,0.4258301906376501,9.853427671867973,0.5314842749887555,-0.46179035624906295,-0.5879112510427599,-0.2505457718729697,-0.16014013331313331,0.17352304905930768,-0.31288731507590506
1592290627.0517626,0.3500421254188607,9.860126376256583,0.6497472474868358,-0.4666666666666667,-0.5822222222222222,-0.2611111111111111,-0.16199066878590465,0.17399899773408942,-0.34137029770668625
1592290627.0617626,0.2889055057051069,9.876449540268085,0.6356807355710645,-0.4666666666666667,-0.5822222222222222,-0.2611111111111111,-0.16042958404233076,0.1621400869476412,-0.3657445527652917
1592290627.0717626,0.2467602612160219,9.896479477567956,0.6589416979041423,-0.4666666666666667,-0.5822222222222222,-0.2611111111111111,-0.15057705503735147,0.14979721788129557,-0.39068234216518444
1592290627.0817626,0.2600080864090568,9.859991913590942,0.7933468106817614,-0.4666666666666667,-0.5822222222222222,-0.2611111111111111,-0.13381239837793016,0.14726215563702155,-0.42359419266423176
1592290627.0917625,0.21717891739870143,9.86225026908788,0.7853567584458873,-0.45990486441443007,-0.5841944145457912,-0.26646420456079845,-0.12048231863260185,0.1489217515964476,-0.46126935385973045
1592290627.1017625,0.055101188265874484,9.838469643520238,0.8315303564797624,-0.44,-0.59,-0.2822222222222222,-0.1039071509965496,0.1538071403320003,-0.5025559034780169
1592290627.1117625,-0.01921218750712153,9.826017410724459,0.7692121875071215,-0.44,-0.59,-0.2822222222222222,-0.09673544355641128,0.14613073036789498,-0.5313611225742109
1592290627.1217625,0.02,9.832821255039802,0.7658978600227437,-0.44,-0.59,-0.2822222222222222,-0.08315473085562433,0.12313785718779373,-0.5703789290940585
1592290627.1317625,-0.05100328142279591,9.947370148117262,0.8212110444351783,-0.44,-0.59,-0.2822222222222222,-0.058123567239959054,0.0950797093899522,-0.6157229840041409
1592290627.1417625,-0.08471137394926727,9.98523878598527,0.8207412779885442,-0.4366373659979998,-0.5973366560043641,-0.28038805822113116,-0.03435845129475801,0.07376675207785276,-0.646620071365911
1592290627.1517625,0.14,9.92,0.77,-0.42777777777777776,-0.6166666666666667,-0.27555555555555555,-0.01854412330243975,0.06981317007977318,-0.6632251157578453
1592290627.1617625,-0.03399322146905212,9.688976275141684,0.8078847649738861,-0.42777777777777776,-0.6166666666666667,-0.27555555555555555,-0.018540426187330723,0.06906104958886364,-0.7244380990969088
1592290627.1717625,-0.12265962961217662,9.94797888883653,0.751628575467697,-0.42777777777777776,-0.6166666666666667,-0.27555555555555555,-0.013061851749977,0.10994896791229827,-0.788735835210194
1592290627.1817625,-0.27706881321098276,10.317408462384394,1.0358623735780346,-0.42777777777777776,-0.6166666666666667,-0.27555555555555555,-0.019879633394024543,0.152340991705592,-0.8770678899466939
1592290627.1917624,-0.2238417124901807,9.99700549882168,1.0618079340141398,-0.4249152483198045,-0.6166666666666667,-0.27555555555555555,-0.028361600344907853,0.19429114401968897,-0.9987203199973574
1592290627.2017624,-0.17956845238095234,9.474892113095239,0.874047619047619,-0.4011111111111111,-0.6166666666666667,-0.27555555555555555,-0.006916711256275888,0.259083267848536,-1.1521254894231847
1592290627.2117624,-0.7335647182908582,9.53102626996002,0.5778780445927053,-0.4011111111111111,-0.6166666666666667,-0.27555555555555555,0.019634954084936207,0.3193970939537819,-1.230143992762025
1592290627.2217624,-1.0771393987825228,9.660765506381178,0.49102874468235125,-0.4011111111111111,-0.6166666666666667,-0.27555555555555555,0.021616791100165858,0.3500485646652793,-1.2867683678844895
1592290627.2317624,-1.23998040647655,9.70992946331558,0.41004310575158975,-0.4011111111111111,-0.6166666666666667,-0.27555555555555555,0.010903178252520549,0.36615624509859424,-1.3089960840670065
1592290627.2417624,-1.2268776819649352,9.327818464179165,0.6207576934079856,-0.39269034288283133,-0.6242658965312119,-0.27555555555555555,-0.01990925551959642,0.3699932711169353,-1.2985845403466578
1592290627.2517624,-1.61,9.23,0.58,-0.35555555555555557,-0.6577777777777778,-0.27555555555555555,-0.04036073895236887,0.370882466048795,-1.2719086923908676
1592290627.2617624,-1.7635710881206719,9.403214455939663,0.44616143774357253,-0.35555555555555557,-0.6577777777777778,-0.27555555555555555,-0.10402333243908034,0.3319534749936922,-1.1929063885110183
1592290627.2717624,-1.973447475620294,9.403972595975805,0.3549314899395137,-0.35555555555555557,-0.6577777777777778,-0.27555555555555555,-0.12860346884492027,0.30756696330355504,-1.1285291995257032
1592290627.2817624,-2.1,9.47,0.52,-0.35555555555555557,-0.6577777777777778,-0.27555555555555555,-0.14180800172453928,0.2901609881440573,-1.1039207518864134
1592290627.2917624,-2.5096714384814276,9.249625086712493,0.4348820710096487,-0.34178414019745923,-0.6589253957242859,-0.2718257972294045,-0.1610229821746681,0.28189015602073325,-1.0520525289650713
1592290627.3017623,-2.48,8.99,0.65,-0.3022222222222222,-0.6622222222222223,-0.2611111111111111,-0.17235126363444003,0.27379852640661045,-1.0471975511965976
1592290627.3117623,-2.733438540972685,8.901886242504997,0.6151082611592271,-0.3022222222222222,-0.6622222222222223,-0.2611111111111111,-0.17815688525990356,0.24066208865417602,-1.0578272465956864
1592290627.3217623,-2.9962530419373894,8.927887773183699,0.6768734790313053,-0.3022222222222222,-0.6622222222222223,-0.2611111111111111,-0.17437931973071047,0.2011124701525932,-1.0327772192747635
1592290627.3317623,-3.0729548618015508,8.969543050308213,0.664090276396898,-0.3022222222222222,-0.6622222222222223,-0.2611111111111111,-0.1676160732756787,0.14817989376403337,-0.9819712497239311
1592290627.3417623,-2.933856513940975,9.133937714006196,0.7070500570683189,-0.2945722412449952,-0.6685972063699114,-0.26557360001449354,-0.17659798010194344,0.07922914028897739,-0.9227808391205231
1592290627.3517623,-2.67,8.92,0.65,-0.27555555555555555,-0.6844444444444444,-0.27666666666666667,-0.20071286397934787,0.02399827721492203,-0.8846637646046258
1592290627.3617623,-2.8339843709026065,9.11175224209367,0.7594419677977657,-0.27555555555555555,-0.6844444444444444,-0.27666666666666667,-0.21036963699559097,-0.0015948544460929193,-0.7895569593313664
1592290627.3717623,-2.6961634103019536,9.031971580817052,0.6720426287744227,-0.27555555555555555,-0.6844444444444444,-0.27666666666666667,-0.22078763793573472,0.002846235203352209,-0.7589915333181514
1592290627.3817623,-2.652014302265191,9.152918780711918,0.702749191003156,-0.27555555555555555,-0.6844444444444444,-0.27666666666666667,-0.22320942398962623,0.003535383829867615,-0.7697834770344115
1592290627.3917623,-3.0477336825754575,9.227733682575458,0.9848472573325617,-0.26351116931813184,-0.6855915288480086,-0.2803946909782502,-0.2397012352792762,0.04264835060920173,-0.7613645694852462
1592290627.4017622,-2.84,9.02,1.2,-0.2288888888888889,-0.6888888888888889,-0.2911111111111111,-0.23889194136672384,0.05235987755982988,-0.7581273938350369
1592290627.4117622,-3.33324606918239,9.16921462264151,1.0562303459119498,-0.2288888888888889,-0.6888888888888889,-0.2911111111111111,-0.23782966771084463,0.0738224019911326,-0.7337236568764322
1592290627.4217622,-3.28220045753503,9.160640549042036,1.055320274521018,-0.2288888888888889,-0.6888888888888889,-0.2911111111111111,-0.24318539143543452,0.06762137068222919,-0.6466316674048884
1592290627.4317622,-3.257037439709022,8.97338578318969,1.009576777101289,-0.2288888888888889,-0.6888888888888889,-0.2911111111111111,-0.2583883960819286,0.04706533322772317,-0.5724724927031088
1592290627.4417622,-3.3815030041596055,8.821560622400247,1.0438727468802957,-0.21193330936852736,-0.6922286242489601,-0.2944508464711823,-0.2633063845575778,0.025095393172470924,-0.5119843770915076
1592290627.4517622,-3.32,8.86,1.09,-0.15555555555555556,-0.7033333333333334,-0.3055555555555556,-0.2574360646691636,0.03599741582238304,-0.4516039439535327
1592290627.4617622,-3.421570058558941,8.64476449121616,1.0812832046168208,-0.15555555555555556,-0.7033333333333334,-0.3055555555555556,-0.16875336432773186,0.07574983354316538,-0.4345304008921145
1592290627.4717622,-3.7236739894759197,8.8241133580311,1.088809315934779,-0.15555555555555556,-0.7033333333333334,-0.3055555555555556,-0.07083210935054182,0.12805193547081806,-0.4781211010274491
1592290627.4817622,-3.605796869370271,9.013092597782137,1.3455034228752152,-0.15555555555555556,-0.7033333333333334,-0.3055555555555556,0.016387571938012734,0.14713066552588433,-0.5455719915599311
1592290627.4917622,-3.2912489482718,8.5264571063171,0.9971877629320499,-0.15555555555555556,-0.70253469300755,-0.3111460378360389,0.08332389845058724,0.13501278640278117,-0.6243648427601565
1592290627.5017622,-3.2,8.42,1.02,-0.15555555555555556,-0.7,-0.3288888888888889,0.11235557059713495,0.11344640137963141,-0.6741334235828097
1592290627.5117621,-3.9758284090059095,8.92300920038896,1.1789438252674096,-0.15555555555555556,-0.7,-0.3288888888888889,0.17291573123510656,0.014488328126618722,-0.728320191801634
1592290627.5217621,-3.373194731221075,8.72737700249199,0.9365973656105375,-0.15555555555555556,-0.7,-0.3288888888888889,0.2265443116434877,-0.03612214876910354,-0.7289951054264258
1592290627.5317621,-3.451491865194654,8.962069654270772,0.9175860691458454,-0.15555555555555556,-0.7,-0.3288888888888889,0.24310460973691037,-0.09254492525274306,-0.6976931262918843
1592290627.541762,-3.83732829261025,8.85771826579261,0.9349534415971394,-0.15489587471858032,-0.7004287925440339,-0.3281962240100649,0.2753750872995339,-0.11703255633293398,-0.6533650992402105
1592290627.551762,-3.75,9.11,0.77,-0.13333333333333333,-0.7144444444444444,-0.3055555555555556,0.2912518189265538,-0.0916297857297023,-0.6163193921104976
1592290627.561762,-4.031599955151923,9.282571476622941,0.966257147662294,-0.13333333333333333,-0.7144444444444444,-0.3055555555555556,0.24932650403685042,-0.07854605385178737,-0.6160513625489054
1592290627.571762,-3.81,9.52,0.99,-0.13333333333333333,-0.7144444444444444,-0.3055555555555556,0.1854412330243975,-0.09926560120717749,-0.631591023065448
1592290627.581762,-4.055747137979514,9.282490459931713,0.9236653946575618,-0.13333333333333333,-0.7144444444444444,-0.3055555555555556,0.11657122954808832,-0.12964586289571306,-0.6233728761519665
1592290627.591762,-3.9793399976842023,9.029633332046778,0.8901026670269019,-0.13327303682547034,-0.7144265184556203,-0.305544148108122,0.057772434312518016,-0.14622892092193238,-0.6086771770699771
1592290627.601762,-3.53,8.78,0.96,-0.09222222222222222,-0.7022222222222222,-0.29777777777777775,0.02945243112740431,-0.1854412330243975,-0.6043202535030366
1592290627.611762,-3.812982476800603,9.14380423006265,0.9198706957463847,-0.09222222222222222,-0.7022222222222222,-0.29777777777777775,-0.012767663295312927,-0.18431111917942902,-0.6036836829086158
1592290627.621762,-3.9106118858503014,8.97296370080981,0.6259082559312825,-0.09222222222222222,-0.7022222222222222,-0.29777777777777775,-0.0884115089505857,-0.18081927820853558,-0.5982883552385716
1592290627.631762,-3.7834522072729238,8.799928675636247,0.5057536787882062,-0.09222222222222222,-0.7022222222222222,-0.29777777777777775,-0.1844515458968837,-0.19757367771170647,-0.6028761861679113
1592290627.641762,-3.8967687901874966,8.731938725887503,0.6946146503124944,-0.09222222222222222,-0.7022222222222222,-0.29777777777777775,-0.2808667350090956,-0.20911053794735576,-0.6127649235127536
1592290627.651762,-4.45,8.26,0.97,-0.09222222222222222,-0.7355555555555555,-0.29777777777777775,-0.39924406639370286,-0.24107360293171679,-0.6228643768054763
1592290627.661762,-4.288274266427132,8.269471936414613,1.2021313081822635,-0.09222222222222222,-0.7355555555555555,-0.29777777777777775,-0.5459583421897254,-0.2810051713214474,-0.6042591470260814
1592290627.671762,-4.761471302113078,8.74501213592233,1.818428992956406,-0.09222222222222222,-0.7355555555555555,-0.29777777777777775,-0.6253126460938421,-0.31896056649660515,-0.5671150172175766
1592290627.681762,-4.648275118197997,8.367201179283443,1.9070650942887446,-0.09222222222222222,-0.7355555555555555,-0.29777777777777775,-0.648418863056804,-0.33728455634823434,-0.5450374724167204
1592290627.691762,-4.324053247523684,8.32196091825912,1.967385442321175,-0.09222222222222222,-0.7355555555555555,-0.29777777777777775,-0.6500638453679208,-0.3496219236816109,-0.5359900697055776
1592290627.701762,-4.6,7.84,1.64,-0.03888888888888889,-0.73,-0.28444444444444444,-0.6065019150680295,-0.34797501961636945,-0.5203262832508094
1592290627.711762,-4.7541026136928775,7.784392440736034,1.825027905177654,-0.03888888888888889,-0.73,-0.28444444444444444,-0.5364990536320914,-0.30015480521272825,-0.492922964818933
1592290627.721762,-4.663291996565868,7.719027473051607,1.7226185252313269,-0.03888888888888889,-0.73,-0.28444444444444444,-0.4320777295583522,-0.2576808590425131,-0.4676916428672476
1592290627.731762,-4.944046820963022,7.899498270816706,1.864632083000798,-0.03888888888888889,-0.73,-0.28444444444444444,-0.32527918100692776,-0.21240190368439452,-0.45074660145185474
1592290627.741762,-4.958924181963288,8.375573822825219,2.0654764565043897,-0.03888888888888889,-0.73,-0.28444444444444444,-0.25387297430475697,-0.18319027366987012,-0.45561520645427556
1592290627.751762,-4.87,7.72,1.72,-0.03888888888888889,-0.7244444444444444,-0.3422222222222222,-0.15162547876700738,-0.17562375598192942,-0.5017821599483697
1592290627.761762,-4.9557937879886245,7.683777393631852,1.7746350303908995,-0.03888888888888889,-0.7244444444444444,-0.3422222222222222,-0.04778158783276926,-0.150347540669117,-0.5131821415153138
1592290627.771762,-5.152471264367816,7.540638569604087,1.875344827586207,-0.03888888888888889,-0.7244444444444444,-0.3422222222222222,0.05926429308735534,-0.11246005630427064,-0.47955665689784965
1592290627.781762,-5.545426861844214,7.5081910460519286,2.030665669409125,-0.03888888888888889,-0.7244444444444444,-0.3422222222222222,0.14101869666426936,-0.09888633383179087,-0.42724178451797246
1592290627.7917619,-5.186901378352388,7.627699540549203,1.821525804038893,-0.03888888888888889,-0.7244444444444444,-0.3422222222222222,0.19316411449124388,-0.0834056629144078,-0.37020773376971905
1592290627.8017619,-5.03,7.51,2.06,-0.02666666666666667,-0.7377777777777778,-0.31444444444444447,0.29779680362153244,-0.09053895494720585,-0.394880743263717
1592290627.8117619,-5.5861320904613105,7.575256342354748,1.3994544780467135,-0.02666666666666667,-0.7377777777777778,-0.31444444444444447,0.3848180733903123,-0.03733164844199923,-0.42136180010085206
1592290627.8217618,-5.293261951835355,7.948572449441414,1.201020699840404,-0.02666666666666667,-0.7377777777777778,-0.31444444444444447,0.4479526580768937,-0.019033868153407883,-0.4634247809286008
1592290627.8317618,-5.65,7.84,1.17,-0.02666666666666667,-0.7377777777777778,-0.31444444444444447,0.48432886742842646,-0.020725784867432664,-0.4854196982109229
1592290627.8417618,-5.564885972657796,8.001716651950186,1.4764104984319337,-0.02666666666666667,-0.7377777777777778,-0.31444444444444447,0.4694736672608871,0.01826911557235813,-0.4167143974360534
1592290627.8517618,-4.98,7.82,1.41,0.0033333333333333335,-0.7322222222222222,-0.31222222222222223,0.4254240051736178,-0.019634954084936207,-0.3763366199612773
1592290627.8617618,-5.054405804568092,7.908162459213464,1.3237566546453718,0.0033333333333333335,-0.7322222222222222,-0.31222222222222223,0.42406191851390085,-0.019634954084936207,-0.3755936636014317
1592290627.8717618,-5.382283657778505,8.165890724685099,1.150685424505153,0.0033333333333333335,-0.7322222222222222,-0.31222222222222223,0.38309591641313123,0.0016734518367825559,-0.34170912200528153
1592290627.8817618,-5.135337597470265,8.024862553451436,0.936800100614467,0.0033333333333333335,-0.7322222222222222,-0.31222222222222223,0.30426813597397967,0.08516252993054053,-0.2586346105327014
1592290627.8917618,-5.368948758489346,8.152971899816738,1.1779471055373891,0.0033333333333333335,-0.7322222222222222,-0.31222222222222223,0.2533020868591097,0.1024252239855771,-0.24794818087958354
1592290627.9017618,-5.560820220903342,7.673710076491421,0.6597663211345958,-0.008888888888888889,-0.7533333333333333,-0.2822222222222222,0.1459325617411611,0.09815344315434064,-0.31197760379398637
1592290627.9117618,-5.526906059478953,7.354916959102155,0.9175139479599592,-0.008888888888888889,-0.7533333333333333,-0.2822222222222222,0.09266032154940022,0.09001462868059941,-0.31197760379398637
1592290627.9217618,-6.438710362434683,7.9297420724869365,0.8679365798954929,-0.008888888888888889,-0.7533333333333333,-0.2822222222222222,0.015312311647681216,0.03355948931776903,-0.2795903066441755
1592290627.9317617,-6.498383027729293,7.905092221042592,1.2327801270401093,-0.008888888888888889,-0.7533333333333333,-0.2822222222222222,-0.02943386229145445,-0.006775524841100428,-0.22061704655676642
1592290627.9417617,-5.773835495654364,7.573007935508251,1.451653860687744,-0.008888888888888889,-0.7533333333333333,-0.2822222222222222,-0.05166270217371236,-0.0693455926578264,-0.1885087222823939
1592290627.9517617,-6.2,7.78,1.42,0.03666666666666667,-0.7655555555555555,-0.27555555555555555,-0.039269908169872414,-0.07853981633974483,-0.13853550937704992
1592290627.9617617,-5.778525963149079,7.795306532663316,1.330247906197655,0.03666666666666667,-0.7655555555555555,-0.27555555555555555,-0.04520388145167391,-0.10866501780905063,-0.12174987107473509
1592290627.9717617,-5.8355384834258075,7.878079385403328,0.678297766396358,0.03666666666666667,-0.7655555555555555,-0.27555555555555555,-0.035116091592222655,-0.08803193746593696,-0.013158175411995765
1592290627.9817617,-6.277896153237296,7.467885072027861,0.6981082792464778,0.03666666666666667,-0.7655555555555555,-0.27555555555555555,-0.0833274185947257,-0.06334002100384123,0.10044104606018578
1592290627.9917617,-5.842626774312701,7.696585932140784,0.8677895625560657,0.03666666666666667,-0.7655555555555555,-0.27555555555555555,-0.07930364539803875,-0.11645382720010924,0.11412187492892148
1592290628.0017617,-5.72,7.69,1.66,0.015555555555555555,-0.76,-0.24666666666666667,-0.07853981633974483,-0.15707963267948966,0.09381144729469522
1592290628.0117617,-6.314365855587483,7.359513879735323,1.108815806817283,0.015555555555555555,-0.76,-0.24666666666666667,-0.03099298912914159,-0.1707841918852675,0.14796206680711568
1592290628.0217617,-6.029970658526774,7.051579470433733,1.865936442582996,0.015555555555555555,-0.76,-0.24666666666666667,0.027608955239803522,-0.20430753871313007,0.20618942249936922
1592290628.0317616,-5.975178732623217,7.39003664921466,2.2371402780285248,0.015555555555555555,-0.76,-0.24666666666666667,0.09299756818748758,-0.22568898955757188,0.2546934888173488
1592290628.0417616,-6.013040259974725,7.609633507853403,1.631355840404405,0.015555555555555555,-0.76,-0.24666666666666667,0.1747725968120522,-0.22486297916742476,0.27451773818087966
1592290628.0517616,-5.6,7.29,1.92,0.0011111111111111111,-0.7655555555555555,-0.27555555555555555,0.2530727415391778,-0.24870941840919195,0.27379852640661045
1592290628.0617616,-5.862262036831595,7.989365431550921,1.3274820649360255,0.0011111111111111111,-0.7655555555555555,-0.27555555555555555,0.30817030505220894,-0.24447114429280495,0.25578586141196563
1592290628.0717616,-5.74,8.2,1.24,0.0011111111111111111,-0.7655555555555555,-0.27555555555555555,0.32506757318394386,-0.20616701789183017,0.27707101875409984
1592290628.0817616,-5.073035280508965,7.504853672643146,1.2212122614227878,0.0011111111111111111,-0.7655555555555555,-0.27555555555555555,0.3045733296104246,-0.20001874481977439,0.2821945796474797
1592290628.0917616,-5.628210291281843,7.910706383842484,1.138053384755912,0.0011111111111111111,-0.7655555555555555,-0.27555555555555555,0.2925241706824574,-0.16922947045077225,0.2691166891021354
1592290628.1017616,-5.26,7.75,1.43,0.0011111111111111111,-0.7655555555555555,-0.2611111111111111,0.25416357232167425,-0.17671458676442586,0.25634523388666713
1592290628.1117616,-5.3900484339683565,7.670435905715208,0.7407386180174362,0.0011111111111111111,-0.7655555555555555,-0.2611111111111111,0.26830342671483687,-0.1505174771738404,0.27929626776156413
1592290628.1217616,-5.43,8.03,1.35,0.0011111111111111111,-0.7655555555555555,-0.2611111111111111,0.234528618236738,-0.13635384781205698,0.31525009614147576
1592290628.1317616,-5.43,8.320127113656872,1.2283337910471184,0.0011111111111111111,-0.7655555555555555,-0.2611111111111111,0.2212568936451931,-0.16187639510348953,0.30606197911656
1592290628.1417615,-5.085663428491964,7.779452092893894,1.003788664401931,0.0011111111111111111,-0.7655555555555555,-0.2611111111111111,0.21161263360520832,-0.14702776690222444,0.2818476210595031
1592290628.1517615,-5.79,8.38,1.44,-0.01,-0.78,-0.25222222222222224,0.19198621771937624,-0.11780972450961724,0.26398104936414235
1592290628.1617615,-4.539046799595975,7.822020874639931,1.3140047136283717,-0.01,-0.78,-0.25222222222222224,0.17431542012776685,-0.12664512330542194,0.25514565056833766
1592290628.1717615,-5.677635562118613,8.251370496644878,1.0203012008946992,-0.01,-0.78,-0.25222222222222224,0.1527721669836528,-0.0737132176204241,0.24889177232271145
1592290628.1817615,-5.122026754109752,7.841495146474408,1.1296012942734912,-0.01,-0.78,-0.25222222222222224,0.10706813620184544,-0.10352019421725499,0.21610409806619746
1592290628.1917615,-5.269191108772852,8.271868999079311,1.13,-0.01,-0.78,-0.25222222222222224,0.10347526397045889,-0.09763315708732419,0.20142334589897468
1592290628.2017615,-4.86,7.61,0.78,-0.01,-0.7866666666666666,-0.2088888888888889,0.07744898555724837,-0.16035212502697901,0.1265363707695889
1592290628.2117615,-4.924371002906977,7.80311300872093,0.9915047238372093,-0.01,-0.7866666666666666,-0.2088888888888889,0.07945521045642263,-0.15433345032945625,0.12553325832000176
1592290628.2217615,-5.191714571714572,8.051840411840411,1.0738138138138138,-0.01,-0.7866666666666666,-0.2088888888888889,0.060196450826104295,-0.1618734853332407,0.10329916368019242
1592290628.2317615,-4.808998225377107,8.202950310559007,1.2519760425909494,-0.01,-0.7866666666666666,-0.2088888888888889,0.07838040211625133,-0.16618124597152795,0.06694071354630847
1592290628.2417614,-5.099286956521739,7.942434782608696,0.9765739130434783,-0.01,-0.7866666666666666,-0.2088888888888889,0.07594458762590979,-0.13857534841432367,0.05638551742149506
1592290628.2517614,-5.37365586928021,8.10238704313625,0.561102228759633,-0.021834525344901712,-0.7866666666666666,-0.19597849760354158,0.09850436016867134,-0.07808824804408407,0.08408134693851092
1592290628.2617614,-5.14600459132431,7.931683246448897,1.360318283992539,-0.022222222222222223,-0.7866666666666666,-0.19555555555555557,0.07872259531752838,-0.12362776692503666,0.09192089653205202
1592290628.2717614,-5.3210821072615095,8.56,0.8058709065021358,-0.022222222222222223,-0.7866666666666666,-0.19555555555555557,0.11499851845885513,-0.13582474052220822,0.10114336259688543
1592290628.2817614,-5.338593803322856,8.553821643466547,1.2335644364616076,-0.022222222222222223,-0.7866666666666666,-0.19555555555555557,0.09848582618584698,-0.17993523648505422,0.12318397886339238
1592290628.2917614,-4.976983744948361,8.357949528513696,1.3465675797036372,-0.022222222222222223,-0.7866666666666666,-0.19555555555555557,0.10834721075922796,-0.17829167238949073,0.15523347872688056
1592290628.3017614,-5.29,8.14,1.03,-0.01888888888888889,-0.7866666666666666,-0.2088888888888889,0.09053895494720585,-0.16253378659197193,0.24434609527920614
1592290628.3117614,-5.146027233635929,8.155996974040452,1.03,-0.01888888888888889,-0.7866666666666666,-0.2088888888888889,0.0783239607501204,-0.17387628120355128,0.27750107952843805
1592290628.3217614,-5.03,8.33,0.92,-0.01888888888888889,-0.7866666666666666,-0.2088888888888889,0.0818123086872342,-0.1810779098944117,0.3141592653589793
1592290628.3317614,-5.229120603015075,8.242386934673368,0.7447738693467336,-0.01888888888888889,-0.7866666666666666,-0.2088888888888889,0.06269810296580132,-0.17934025482882687,0.3289293334164502
1592290628.3417614,-4.594756421612046,7.771328609388839,0.814207263064659,-0.01888888888888889,-0.7866666666666666,-0.2088888888888889,0.056034305784660725,-0.23673733317809045,0.3015581891275189
1592290628.3517613,-5.31,8.51,1.02,-0.08444444444444445,-0.7866666666666666,-0.17333333333333334,0.07744898555724837,-0.23889194136672384,0.2792526803190927
1592290628.3617613,-5.431114599686028,8.453479853479854,1.133040293040293,-0.08444444444444445,-0.7866666666666666,-0.17333333333333334,0.07832975578089674,-0.22656115823564668,0.2968680847920601
1592290628.3717613,-4.839010253489034,7.915357448020507,1.5834249501566506,-0.08444444444444445,-0.7866666666666666,-0.17333333333333334,0.08646783527803971,-0.22668029115139396,0.29981908148062375
1592290628.3817613,-5.566712296060485,8.351160366096298,1.0514182252288102,-0.08444444444444445,-0.7866666666666666,-0.17333333333333334,0.11031454937178743,-0.2094043501544082,0.2869025598305324
1592290628.3917613,-5.141106844409072,8.501374054914445,1.2350127337843215,-0.08444444444444445,-0.7866666666666666,-0.17333333333333334,0.1285209622290293,-0.20485274694009775,0.28872320111625666
1592290628.4017613,-4.76,8.43,1.42,-0.051111111111111114,-0.7655555555555555,-0.16,0.1538071403320003,-0.21380283336930533,0.2650718801466388
1592290628.4117613,-4.4862111701915,8.075685043777236,0.8724223403830008,-0.051111111111111114,-0.7655555555555555,-0.16,0.1757672347039705,-0.20941081449491133,0.22905732537660767
1592290628.4217613,-4.8767596089460294,8.367323155216285,0.9981684746216687,-0.051111111111111114,-0.7655555555555555,-0.16,0.19515881585378525,-0.16069022851740486,0.21276579177846755
1592290628.4317613,-4.810765762559027,8.597483923020336,0.9307657625590281,-0.051111111111111114,-0.7655555555555555,-0.16,0.18123304026339918,-0.15387873896384066,0.19113404904301437
1592290628.4417613,-4.2014906358009805,8.208219998392412,0.94667148943011,-0.051111111111111114,-0.7655555555555555,-0.16,0.1683478681921118,-0.14289567601574324,0.18271178869968702
1592290628.4517612,-4.86,8.29,0.56,-0.07111111111111111,-0.7733333333333333,-0.16,0.14289883250703572,-0.0818123086872342,0.22143864884678055
1592290628.4617612,-4.605843238034051,8.501797301638291,1.0683135239318986,-0.07111111111111111,-0.7733333333333333,-0.16,0.11209416367013773,-0.09798475982660564,0.19833514721910706
1592290628.4717612,-4.684186912573152,8.493521141033112,0.9203969802143237,-0.07111111111111111,-0.7733333333333333,-0.16,0.09926560120717749,-0.1075899944620566,0.11887123470689777
1592290628.4817612,-4.560666208791209,8.269175824175825,1.1686675824175823,-0.07111111111111111,-0.7733333333333333,-0.16,0.08968337201203348,-0.10320113286957715,0.08129461358372797
1592290628.4917612,-4.409670921930014,8.377569582407206,1.0072658785578001,-0.07111111111111111,-0.7733333333333333,-0.16,0.12784811844141408,-0.05041020447652135,0.1643288006874909
1592290628.5017612,-4.66,8.35,1.24,-0.08444444444444445,-0.7677777777777778,-0.11,0.1712604328519436,0.05781403147231216,0.3108867730114899
1592290628.5117612,-4.7326265696232905,8.369807246260898,1.4380724626089738,-0.08444444444444445,-0.7677777777777778,-0.11,0.2043901755566848,0.033326830342720846,0.27415597131710295
1592290628.5217612,-4.589416043874855,8.142389531414283,0.9222127816771334,-0.08444444444444445,-0.7677777777777778,-0.11,0.2826081528036837,0.012431614839377998,0.1899378141332402
1592290628.5317612,-4.768074295873491,7.913714559745485,0.7019257041265088,-0.08444444444444445,-0.7677777777777778,-0.11,0.3401643313178863,-0.0013360814293237547,0.18345470533686672
1592290628.5417612,-4.907244170788331,7.971574846068437,0.6104723932572927,-0.08444444444444445,-0.7677777777777778,-0.11,0.3705045565492811,-0.03427959131748346,0.18152454822954026
1592290628.5517612,-5.14,8.45,0.9,-0.07777777777777778,-0.7744444444444445,-0.11666666666666667,0.3665191429188092,-0.1112647398146385,0.12544553998709243
1592290628.5617611,-4.90537167354202,8.45,0.9966116638356386,-0.07777777777777778,-0.7744444444444445,-0.11666666666666667,0.331139229258628,-0.17524969005113644,0.021564091367837004
1592290628.5717611,-4.773025573770491,8.441008524590163,0.7342898360655736,-0.07777777777777778,-0.7744444444444445,-0.11666666666666667,0.25542020938311016,-0.21281271666823545,-0.0760916344143859
1592290628.5817611,-5.017145911919464,8.641378150452896,0.8281497321063885,-0.07777777777777778,-0.7744444444444445,-0.11666666666666667,0.18081157745617787,-0.13192602516125898,-0.05385437417716958
1592290628.591761,-4.63863996530926,8.05417353254228,0.7339803681948989,-0.07777777777777778,-0.7744444444444445,-0.11666666666666667,0.13818594642396465,-0.12270257380571106,-0.08265961935614696
1592290628.601761,-5.245351279114166,7.982558546519027,0.756565483008782,-0.11653560872823951,-0.7629218460537667,-0.09047894305148983,0.109053749243307,-0.06766840405766539,-0.1019761220261127
1592290628.611761,-4.725037690457097,7.936194065757819,1.2106246992782679,-0.11888888888888889,-0.7622222222222222,-0.08888888888888889,0.08818330281073054,-0.07242932695323921,-0.13261834284774696
1592290628.621761,-5.460990138699591,8.388414976348914,1.0418520003206928,-0.11888888888888889,-0.7622222222222222,-0.08888888888888889,0.08641709608327251,-0.032048456217408705,-0.13249225611790713
1592290628.631761,-4.690696384159174,8.000348192079587,1.4946082839104649,-0.11888888888888889,-0.7622222222222222,-0.08888888888888889,0.10325265345504334,-0.012283715635542463,-0.07994371054822033
1592290628.641761,-4.885674368619022,8.344795472864051,1.4883110558839334,-0.11888888888888889,-0.7622222222222222,-0.08888888888888889,0.13917657761532587,0.004127396536780653,-0.04582240295050442
1592290628.651761,-4.565849169236892,8.445576559546314,0.5570022883295195,-0.10702539271935353,-0.7622222222222222,-0.07486839341580162,0.2060092158862835,0.04068318032683878,-0.0017631715145196916
1592290628.661761,-4.648368501899911,7.868233082706767,0.4931118117875333,-0.10666666666666667,-0.7622222222222222,-0.07444444444444444,0.21463495672998492,0.004566029456573917,0.002933046338771698
1592290628.671761,-5.169109307329829,8.490021790646365,0.6995546536649143,-0.10666666666666667,-0.7622222222222222,-0.07444444444444444,0.25970707137519555,0.008422599426498867,0.04590423800589021
1592290628.681761,-5.247730259284554,7.937385017544686,0.4285855921625886,-0.10666666666666667,-0.7622222222222222,-0.07444444444444444,0.25443448821155973,0.0013617466723819475,0.10445600645272876
1592290628.691761,-5.398072512613925,8.545940809285444,0.774988532796203,-0.10666666666666667,-0.7622222222222222,-0.07444444444444444,0.27568582921129864,0.005653271918030214,0.1564909151588802
1592290628.701761,-4.422151581210619,8.53951593155553,1.177758831785469,-0.11242492111366599,-0.7497460042537236,-0.09843717130694167,0.2346220100560535,-0.010265835954591653,0.19025291506650688
1592290628.711761,-4.588426206299894,8.215690746785167,0.9602001651657557,-0.11333333333333333,-0.7477777777777778,-0.10222222222222223,0.2151291264257852,0.0013472697465832795,0.19682003642616103
1592290628.721761,-5.098845772883529,8.443421895938938,0.6224616908465885,-0.11333333333333333,-0.7477777777777778,-0.10222222222222223,0.1485607864103921,-0.006660309082022947,0.20808015064157823
1592290628.731761,-5.077806988352745,8.783567387687189,0.7665790349417637,-0.11333333333333333,-0.7477777777777778,-0.10222222222222223,0.11576201188264136,-0.040324075421908925,0.21797957179972277
1592290628.741761,-4.691829327802854,8.412168882924647,0.5230559960961327,-0.11333333333333333,-0.7477777777777778,-0.10222222222222223,0.09051626534754553,-0.08274063047978816,0.2394785662165927
1592290628.751761,-4.489158714290043,8.695047714259747,0.6425238571298737,-0.09463910515987223,-0.7497455912697211,-0.05105907143169708,0.07807339852447763,-0.10855043531734598,0.2938592181076787
1592290628.761761,-4.580485359643539,8.870582431572247,0.6800485359643539,-0.09222222222222222,-0.75,-0.044444444444444446,0.05936291918149744,-0.11620259782405903,0.30929552968312435
1592290628.771761,-4.360550964187328,8.96542699724518,0.5671349862258953,-0.09222222222222222,-0.75,-0.044444444444444446,0.003031087188093917,-0.13646904114537847,0.2756346079716389
1592290628.781761,-4.408204731162303,8.107237296614812,0.0925106605998523,-0.09222222222222222,-0.75,-0.044444444444444446,-0.060714736507578734,-0.1276532139306088,0.20537607007452915
1592290628.791761,-4.374139304659922,8.4527462580607,0.3451641720404662,-0.09222222222222222,-0.75,-0.044444444444444446,-0.11279651499319113,-0.10335675980897019,0.1598921859045243
1592290628.801761,-4.837105245661858,8.501727278771359,0.44571770493983115,-0.1286321092716944,-0.7322870819759324,-0.04247634244177027,-0.20142425013356025,-0.09864189635181751,0.14604658388345312
1592290628.811761,-4.724531615925059,8.540506339336186,0.40369619639828797,-0.13333333333333333,-0.73,-0.042222222222222223,-0.25211171283679185,-0.09002529635940508,0.1811524789210921
1592290628.821761,-4.804244300166087,8.774244300166089,0.6551794252352912,-0.13333333333333333,-0.73,-0.042222222222222223,-0.29426138970690957,-0.10341700593057837,0.241065697167326
1592290628.831761,-4.56845260469375,8.414240518529228,0.2479940725748157,-0.13333333333333333,-0.73,-0.042222222222222223,-0.27431111331616287,-0.13509112089642172,0.2669628690302277
1592290628.8417609,-4.695182514146233,8.354691001886165,0.45863752357705534,-0.13333333333333333,-0.73,-0.042222222222222223,-0.27033299344022815,-0.1586729742141136,0.29701084388542554
1592290628.8517609,-4.6465671503550485,8.631102192034579,0.7794489039827107,-0.11725985386436143,-0.7246421735103428,-0.03686439573256492,-0.23917998939644575,-0.20013050380982247,0.3839786995488341
1592290628.8617609,-4.5647816989255965,8.742183010744034,0.9065490322321034,-0.11333333333333333,-0.7233333333333334,-0.035555555555555556,-0.22556384244495506,-0.2079699547378428,0.40906382596808877
1592290628.8717608,-4.273608214682687,8.384278304133806,1.2568385116180596,-0.11333333333333333,-0.7233333333333334,-0.035555555555555556,-0.20733094409435737,-0.19513313144240524,0.4349453476115539
1592290628.8817608,-4.216369812223418,8.386403779452218,1.1217471594306903,-0.11333333333333333,-0.7233333333333334,-0.035555555555555556,-0.1798788179728989,-0.15875333579829531,0.4367283050558762
1592290628.8917608,-4.183296067435797,8.501759831410508,1.4140057863342501,-0.11333333333333333,-0.7233333333333334,-0.035555555555555556,-0.17613443637862122,-0.14521943405025425,0.4239206013598732
1592290628.9017608,-4.462106564033755,8.651447335899157,1.5623667949578053,-0.14089191765827477,-0.7062280051316456,-0.02320170740989215,-0.15463952421818125,-0.14816645015739344,0.34560655217251957
1592290628.9117608,-4.699518189956865,8.396198421095466,1.4033360462277205,-0.14555555555555555,-0.7033333333333334,-0.021111111111111112,-0.13905531195143883,-0.14040582207297675,0.31436771906430216
1592290628.9217608,-4.992065404893219,8.82577565052601,1.4212429845234336,-0.14555555555555555,-0.7033333333333334,-0.021111111111111112,-0.10953980185504811,-0.1402166116235703,0.27516461578399526
1592290628.9317608,-4.841526399695434,8.384579199086302,1.2494653437076164,-0.14555555555555555,-0.7033333333333334,-0.021111111111111112,-0.08544283086825336,-0.16259210854615067,0.25535430573062107
1592290628.9417608,-4.6981088650034515,8.420345922492851,0.884944680011833,-0.14555555555555555,-0.7033333333333334,-0.021111111111111112,-0.040626406427628686,-0.14149655399279287,0.2748933801721722
1592290628.9517608,-4.613188001080983,8.512637600216197,1.4341527790289161,-0.14637359997597815,-0.6943348447086849,-0.010476533645617514,-0.04533457750003333,-0.15573616466234783,0.30616321335789076
1592290628.9617608,-4.683028585212881,8.37282233747437,1.6105813532746351,-0.14666666666666667,-0.6911111111111111,-0.006666666666666667,-0.03445859579680367,-0.17013789416707328,0.31188708496895234
1592290628.9717607,-4.616875158696573,8.33577570884469,0.8894185357596276,-0.14666666666666667,-0.6911111111111111,-0.006666666666666667,0.03636413438929594,-0.17700375155585868,0.31460593817537524
1592290628.9817607,-4.902367542078721,8.431315737769337,1.1844724605409653,-0.14666666666666667,-0.6911111111111111,-0.006666666666666667,0.09636617313018367,-0.21391756742108933,0.3295169825732072
1592290628.9917607,-4.81035486566114,8.648112879820587,1.226032276504991,-0.14666666666666667,-0.6911111111111111,-0.006666666666666667,0.13626587526665007,-0.24627264125927723,0.3135593108269854
1592290629.0017607,-4.343141229997833,8.443141229997833,0.8342706366647064,-0.13715490351845547,-0.6798699364814069,-0.0014784322221878324,0.16278467530857507,-0.28011507440982,0.2637166894326388
1592290629.0117607,-4.473655172413793,8.397586206896552,0.6928965517241379,-0.13444444444444445,-0.6766666666666666,0.0,0.16533985474280766,-0.2874075807896179,0.22400398192837567
1592290629.0217607,-4.097330321310483,8.728369974002373,0.8131381407910346,-0.13444444444444445,-0.6766666666666666,0.0,0.1260673457467507,-0.2696002362080535,0.14084440103482446
1592290629.0317607,-3.4365892883132,8.715944549556106,0.8647926066074807,-0.13444444444444445,-0.6766666666666666,0.0,0.09079026991281373,-0.19653544724527292,0.14788552153244758
1592290629.0417607,-3.519693847512511,8.756892846629379,0.9368928466293789,-0.13444444444444445,-0.6766666666666666,0.0,0.08099836010733048,-0.1324869698954181,0.19373348972269058
1592290629.0517607,-3.989830508474576,8.702937853107345,0.7874576271186441,-0.1409730069052103,-0.6676898932831136,0.004896421845574389,0.061869210313457185,0.0335322615116566,0.32307696107803224
1592290629.0617607,-4.117962688064193,8.762117151454362,0.8564846539618857,-0.14333333333333334,-0.6644444444444444,0.006666666666666667,0.05608555156239451,0.05339696550578048,0.31581802838077194
1592290629.0717607,-4.624410498426892,8.739288789534692,0.55107081746426,-0.14333333333333334,-0.6644444444444444,0.006666666666666667,0.05386013867411284,0.07663602550728055,0.23581383811131873
1592290629.0817606,-4.583472882968602,8.46755470980019,0.2673453853472883,-0.14333333333333334,-0.6644444444444444,0.006666666666666667,0.034851576446668406,0.08101105144262215,0.1938347140311043
1592290629.0917606,-4.491399332591769,8.393679199110123,0.7565984427141268,-0.14333333333333334,-0.6644444444444444,0.006666666666666667,-0.044276687989466545,0.07752530731055096,0.1356011867059585
1592290629.1017606,-4.562165166415735,8.838122817695487,0.8290111157382196,-0.15539285930386934,-0.6644444444444444,0.017218751890885665,-0.07865450085869775,0.09692421297060207,0.15972003232029425
1592290629.1117606,-4.022684255113155,8.144299891080722,0.8394529831780225,-0.16111111111111112,-0.6644444444444444,0.022222222222222223,-0.09249856914729992,0.10559131082897136,0.22196604434188805
1592290629.1217606,-4.652399280004235,8.667792101222933,0.15706998782360093,-0.16111111111111112,-0.6644444444444444,0.022222222222222223,0.013675924947933002,0.19255132569873562,0.49612189798026085
1592290629.1317606,-4.130662421297072,7.52341050010773,1.7332481865409015,-0.16111111111111112,-0.6644444444444444,0.022222222222222223,0.11663880040855248,0.24113048041715587,0.7753456293088656
1592290629.1417606,-3.7742882301144705,7.018934546521867,2.274504329321984,-0.16111111111111112,-0.6644444444444444,0.022222222222222223,0.170793620031022,0.2301017006646702,0.8723095136720587
1592290629.1517606,-4.486704390652835,8.362554752174368,1.563832128261553,-0.1539833735023927,-0.6501889692270076,0.022222222222222223,0.2814920668704799,0.10703995665199897,0.971570731992045
1592290629.1617606,-4.290289971484799,8.919748584280493,1.2919711635005422,-0.1511111111111111,-0.6444444444444445,0.022222222222222223,0.3148696043407616,0.045734807774269054,0.9798432299729076
1592290629.1717606,-3.7594836304203483,8.926218908013688,1.1337867102507788,-0.1511111111111111,-0.6444444444444445,0.022222222222222223,0.30360953493409376,-0.0248256349512759,0.967473025435585
1592290629.1817605,-3.3899363558352404,8.277097397025171,0.9335955377574371,-0.1511111111111111,-0.6444444444444445,0.022222222222222223,0.23908804752999588,-0.04568415542266979,0.9530282140542127
1592290629.1917605,-3.459336850037679,8.912370877050606,1.0818172859544375,-0.1511111111111111,-0.6444444444444445,0.022222222222222223,0.1530022487297513,-0.05051942073093058,0.9342991261407222
1592290629.2017605,-3.5130508150180226,9.176083766627325,1.2415164758046509,-0.1750480787974807,-0.6403409642696383,0.03111309593430235,0.07635425758352923,-0.03028733475416178,0.8959856270517464
1592290629.2117605,-3.390774234744782,9.012817176836812,1.307986989663567,-0.19,-0.6377777777777778,0.03666666666666667,0.05757428987837801,-0.014606344766735078,0.8724079932213809
1592290629.2217605,-3.4458960031043846,8.924103996895616,1.1217989910748933,-0.19,-0.6377777777777778,0.03666666666666667,0.05137151234637352,0.009752063881070437,0.8606095278128911
1592290629.2317605,-3.0265674037517067,9.044094295776336,1.0160628638508902,-0.19,-0.6377777777777778,0.03666666666666667,0.05746530849103158,0.012607260892712746,0.8662089649794955
1592290629.2417605,-2.8598751418842223,9.195641316685585,1.014006810442679,-0.19,-0.6377777777777778,0.03666666666666667,0.0540029336873813,0.009394021733031341,0.8684424546369912
1592290629.2517605,-2.8537309670263182,9.417349668918693,0.6005300662162616,-0.21578094480484317,-0.6289579808708577,0.0454864635735867,-0.01493247648155143,-0.010772646035604978,0.8673939454884543
1592290629.2617605,-2.623063491429256,9.374797618571943,0.7661269828585129,-0.23222222222222222,-0.6233333333333333,0.051111111111111114,-0.05051239107013167,-0.01816370331324292,0.8651233924830899
1592290629.2717605,-2.6258651743213686,9.474748488357134,0.8474848835713367,-0.23222222222222222,-0.6233333333333333,0.051111111111111114,-0.09626746550188298,0.006709598680295647,0.8676675460405028
1592290629.2817605,-2.5250781526831765,9.402578447970393,0.7771089412969014,-0.23222222222222222,-0.6233333333333333,0.051111111111111114,-0.1184403268317321,0.017615205668099192,0.8735253425494705
1592290629.2917604,-2.3761001927636096,9.059522300755544,1.1332889460040325,-0.23222222222222222,-0.6233333333333333,0.051111111111111114,-0.1344267367932554,0.042018773705432916,0.9045447374903293
1592290629.3017604,-2.3973447946513846,9.382502387774595,1.0003510028653295,-0.23687068874031625,-0.6200130001061233,0.059743977501857164,-0.12389029867804602,0.08608629204682931,0.9313181387521862
1592290629.3117604,-2.4455264031883095,9.539707738292927,0.9543274659581534,-0.24,-0.6177777777777778,0.06555555555555556,-0.12272697665535764,0.10952216390503773,0.9385865262546881
1592290629.3217604,-2.203993593980375,9.382028827088313,1.0480085413594997,-0.24,-0.6177777777777778,0.06555555555555556,-0.11475737821892384,0.1424637813059938,0.945532471662098
1592290629.3317604,-2.1630668187359894,9.484789790380304,1.1008408384787824,-0.24,-0.6177777777777778,0.06555555555555556,-0.12146261551005018,0.1502459705811437,0.9468411192069237
1592290629.3417604,-1.987480687371906,9.396412017747348,1.28465665187721,-0.24,-0.6177777777777778,0.06555555555555556,-0.10502780960450747,0.17845078665629824,0.9448926051864882
1592290629.3517604,-1.937527733755943,9.379549920760697,1.2243835182250395,-0.24672900158478606,-0.6177777777777778,0.05760309913717204,-0.07192153334812924,0.19351822126842277,0.9436789200510719
1592290629.3617604,-2.0263720135095693,9.44133386148522,1.056516699328691,-0.25222222222222224,-0.6177777777777778,0.051111111111111114,-0.056723200689815706,0.197957519027805,0.9389708362865195
1592290629.3717604,-1.8736765036607612,9.309112921362352,0.82,-0.25222222222222224,-0.6177777777777778,0.051111111111111114,-0.050278088655000074,0.17577511866803358,0.9109935123747853
1592290629.3817604,-1.7941621905651566,9.27947337692667,0.8598085007006072,-0.25222222222222224,-0.6177777777777778,0.051111111111111114,-0.031159178800227907,0.1408059506075496,0.8977850679941738
1592290629.3917603,-1.7883220413694023,9.384733972213606,0.9,-0.25222222222222224,-0.6177777777777778,0.051111111111111114,-0.002001598710245852,0.11183322626001836,0.8897726629968844
1592290629.4017603,-1.3158444484351786,9.37103896951986,0.9,-0.25222222222222224,-0.6177777777777778,0.051111111111111114,0.035345727551528136,0.08494315135154108,0.886037930370707
1592290629.4117603,-1.3479305296397301,9.812530788000574,0.628099612458734,-0.28555555555555556,-0.6044444444444445,0.051111111111111114,0.0919068539301768,0.044048833600569964,0.8846288805658229
1592290629.4217603,-1.051316318746099,9.58391566682849,0.756703654899785,-0.28555555555555556,-0.6044444444444445,0.051111111111111114,0.09759194496186444,0.04021715085158669,0.8632851758796328
1592290629.4317603,-1.1823975343852062,10.269590137540826,0.4769557017342104,-0.28555555555555556,-0.6044444444444445,0.051111111111111114,0.09440505915158529,0.022072977693619003,0.8316156886832365
1592290629.4417603,-1.0681705050695147,9.812682020278059,0.72936060598932,-0.28555555555555556,-0.6044444444444445,0.051111111111111114,0.04928695215099997,0.016891415486525847,0.7745266793550447
1592290629.4517603,-1.0971877490212383,9.899222360807954,0.6606205176177112,-0.2883678065343173,-0.6019446657966563,0.05017369411819053,0.041826895948390334,-0.007311907178913508,0.7337717989596806
1592290629.4617603,-1.0826559955652566,9.688511935696221,0.922192079825382,-0.30289955999029905,-0.5890275516135614,0.045329776299529966,0.021219706756926,-0.011274828177272034,0.6981055099744539
1592290629.4717603,-0.9648573748005487,9.95704700053187,0.7013338745346136,-0.3055555555555556,-0.5866666666666667,0.044444444444444446,0.03524678451215356,-0.021419222603337038,0.6455329721229147
1592290629.4817603,-0.6384451191032228,9.932170014012144,0.5765100420364315,-0.3055555555555556,-0.5866666666666667,0.044444444444444446,0.016396012044325586,-0.022848268480353196,0.5961341314734014
1592290629.4917603,-0.4902320679597181,9.829767932040282,0.6662798867338031,-0.3055555555555556,-0.5866666666666667,0.044444444444444446,0.014738489703423022,0.003120604223034369,0.5369672065497572
1592290629.5017602,-0.47,9.830084959459985,0.7238980486480195,-0.3219301444440134,-0.587994336036001,0.044444444444444446,-0.005223013060792958,0.02374860108438981,0.5000905830050199
1592290629.5117602,-0.47066450950990446,9.799833872622525,0.758670980980191,-0.3466666666666667,-0.59,0.044444444444444446,-0.010034937271067744,0.03501531515418641,0.4806395763094545
1592290629.5217602,-0.5336410099719453,9.804184605983167,0.6658153940168329,-0.3466666666666667,-0.59,0.044444444444444446,-0.027033581057498143,0.03784120193792683,0.4492622983177757
1592290629.5317602,-0.6031198216171811,9.809220044595705,0.6607799554042953,-0.3466666666666667,-0.59,0.044444444444444446,-0.03574978020852773,0.02793620066291798,0.4306153150815676
1592290629.5417602,0.8313704932063765,9.891463571199315,0.6222798758960094,-0.3466666666666667,-0.59,0.044444444444444446,-0.028858992106435603,0.0016518261362420926,0.41281870682674454
1592290629.5517602,2.0819071392910633,9.866984523215176,0.7663089980413995,-0.3403968406364812,-0.5837301739698145,0.04653438645450628,-0.023006982280162108,-0.026439670369126436,0.3466462411844018
1592290629.5617602,-0.06,9.51,1.24,-0.32666666666666666,-0.57,0.051111111111111114,-0.044724062082354694,-0.017453292519943295,0.22907446432425577
1592290629.5717602,-0.07573894854274163,9.724468832798772,1.076172081996932,-0.32666666666666666,-0.57,0.051111111111111114,-0.025948173366414508,0.1815653839322848,0.06296714590375128
1592290629.5817602,-0.32469929033953787,9.654298344125587,1.0002004731069747,-0.32666666666666666,-0.57,0.051111111111111114,0.021916312855325616,0.1794744660560896,0.02440154915267227
1592290629.5917602,-0.2906821663512661,9.64318140037848,0.9675007659727854,-0.32666666666666666,-0.57,0.051111111111111114,0.06187970338040025,0.17517761336775997,0.014081694504713735
1592290629.6017601,-0.23227987360043695,9.683080014044396,0.8876799438224164,-0.33282669475545845,-0.5679466573037361,0.048373320849425874,0.08165089483953752,0.15740684361409019,0.0016711205866599054
1592290629.6117601,-0.17,9.69,0.86,-0.3466666666666667,-0.5633333333333334,0.042222222222222223,0.09599310885968812,0.13853550937704992,-0.014180800172453926
1592290629.6217601,-0.5320988767729768,9.745834221529885,0.7941657784701156,-0.3466666666666667,-0.5633333333333334,0.042222222222222223,0.10443207462305976,0.11953697013578383,-0.060996105690662904
1592290629.6317601,-1.6858486564590178,9.514373208417814,0.8928133957910929,-0.3466666666666667,-0.5633333333333334,0.042222222222222223,0.10697208972702935,0.14150764129443846,-0.07963064712224129
1592290629.64176,-1.7284784784784784,9.456274274274275,0.8027287287287287,-0.3466666666666667,-0.5633333333333334,0.042222222222222223,0.11573354267794682,0.10717046643921435,-0.03764512718453235
1592290629.65176,-0.8126595387996871,9.73957568081064,0.5296792459859181,-0.3445981364891323,-0.5627423247111807,0.046063778266214654,0.13853550937704992,0.02716616879371394,0.0262032646700596
1592290629.66176,-0.5192594375300832,9.719378395104174,0.6713999862476793,-0.3388888888888889,-0.5611111111111111,0.056666666666666664,0.12296669960340663,0.043870854343174524,0.012190182133763598
1592290629.67176,-0.31222554303061684,9.785222507236485,0.591572729626056,-0.3388888888888889,-0.5611111111111111,0.056666666666666664,0.10588179679784836,0.01939218500037948,0.024982291653880308
1592290629.68176,-0.418964234078358,9.672151643715484,0.709482117039179,-0.3388888888888889,-0.5611111111111111,0.056666666666666664,0.0979400625048995,0.028435570311695142,0.029395938859864912
1592290629.69176,-0.5181616430472628,9.726447198043306,0.6986831882598374,-0.3388888888888889,-0.5611111111111111,0.056666666666666664,0.09007958343431222,0.05761349783698595,0.033256115926833404
1592290629.70176,-0.6922328912035154,9.712561640491497,0.6550410936609977,-0.34247032124483506,-0.5630395746873899,0.060248099022612814,0.08618459706329636,0.07930638926167823,0.0414246739966363
1592290629.71176,-0.79,9.69,0.64,-0.35333333333333333,-0.5688888888888889,0.07111111111111111,0.08290313946973066,0.09817477042468103,0.05126904677733343
1592290629.72176,-0.8088154365089905,9.689504130036386,0.6093113064726037,-0.35333333333333333,-0.5688888888888889,0.07111111111111111,0.07204892266680857,0.07298950382942702,0.08350715105384492
1592290629.73176,-0.644684638204566,9.747657680897717,0.508368373532826,-0.35333333333333333,-0.5688888888888889,0.07111111111111111,0.06524893035525557,0.028648764749277165,0.1154959476209091
1592290629.74176,-0.37658839977057645,9.81043052767422,0.5339073702322914,-0.35333333333333333,-0.5688888888888889,0.07111111111111111,0.055491480055393,-0.008863977694877283,0.13843802439207847
1592290629.75176,0.0937114618675321,9.817721640359935,0.5436288538132469,-0.35333333333333333,-0.5647961023422006,0.0695194718985101,0.04707834331424878,-0.0356521764885807,0.1489720598415507
1592290629.76176,0.73,9.77,0.48,-0.35333333333333333,-0.5488888888888889,0.06333333333333334,0.039269908169872414,-0.05126904677733343,0.14289883250703572
1592290629.77176,-0.9628239681328926,9.668588015933555,0.6225883549453344,-0.35333333333333333,-0.5488888888888889,0.06333333333333334,0.01140874574560642,-0.010548857864599592,0.032480944965273525
1592290629.78176,-1.1,9.6,0.66,-0.35333333333333333,-0.5488888888888889,0.06333333333333334,-0.007635815477475192,0.02617993877991494,-0.01308996938995747
1592290629.79176,-0.25373794212218653,9.772098070739549,0.5454099678456592,-0.35333333333333333,-0.5488888888888889,0.06333333333333334,0.0008189999604917121,-0.05477391063395588,0.023000395036078806
1592290629.80176,-0.2528391144443643,9.842749332948728,0.5220844450854547,-0.3546760494539394,-0.5518428643542223,0.05823101207503025,0.001763170199673726,-0.07495762464916117,0.02406101158782467
1592290629.81176,-0.45,9.82,0.56,-0.35888888888888887,-0.5611111111111111,0.042222222222222223,-0.009817477042468103,-0.053450708342326333,-0.006544984694978735
1592290629.82176,-0.38678668758774465,9.756876703278554,0.5702700470724255,-0.35888888888888887,-0.5611111111111111,0.042222222222222223,-0.03123447873986982,-0.04540545972367959,-0.029832406702643394
1592290629.83176,-0.3981191439638197,9.706188085603618,0.5404953151710558,-0.35888888888888887,-0.5611111111111111,0.042222222222222223,-0.042596431020924294,-0.05812726204560816,-0.02534830806715197
1592290629.84176,-0.47448631438030286,9.709657542920201,0.59,-0.35888888888888887,-0.5611111111111111,0.042222222222222223,-0.04931339756742367,-0.06639125264255276,-0.022944802704858335
1592290629.85176,-0.5199909845610609,9.740013523158408,0.5900135231584087,-0.35888888888888887,-0.5611056016762038,0.04222522736853528,-0.05345365863782011,-0.07964392345196326,-0.01963347893718932
1592290629.86176,-0.45519758467044874,9.755065861556815,0.6536018114971635,-0.35888888888888887,-0.5488888888888889,0.04888888888888889,-0.06447561296637443,-0.11926471445207593,-0.012697072704571917
1592290629.87176,-0.35087216355875084,9.715436081779375,0.7172819591103122,-0.35888888888888887,-0.5488888888888889,0.04888888888888889,-0.07358350867564792,-0.1419142174201434,-0.00416196914865599
1592290629.88176,-0.2805550671260544,9.686759177854341,0.7721306878935488,-0.35888888888888887,-0.5488888888888889,0.04888888888888889,-0.07635815477475191,-0.1456156582199722,0.0010605565671238562
1592290629.8917599,-0.2326652054198971,9.675110136946598,0.8771145206869068,-0.35888888888888887,-0.5488888888888889,0.04888888888888889,-0.07395784886137259,-0.12241332918288175,0.003805893661573661
1592290629.9017599,-0.21066841322665156,9.660334206613326,0.9294986900800114,-0.3588424713037047,-0.5490559921955518,0.04888888888888889,-0.06634928222998074,-0.08900153465933557,0.0054906101986352445
1592290629.9117599,-0.30645448533232555,9.71974538239879,0.8239274410694883,-0.35333333333333333,-0.5688888888888889,0.04888888888888889,-0.0375305512022416,-0.022715112080511544,0.008740533495829874
1592290629.9217598,-0.3565133809860701,9.753394647605571,0.6738545046473616,-0.35333333333333333,-0.5688888888888889,0.04888888888888889,-0.02256724539504091,0.008326250076579155,0.005103920350762979
1592290629.9317598,-0.41377637130801687,9.743396624472574,0.583776371308017,-0.35333333333333333,-0.5688888888888889,0.04888888888888889,-0.019305863785575462,0.013398347712435373,0.002552175818119345
1592290629.9417598,-0.452763367602501,9.752412210799166,0.6372366323974991,-0.35333333333333333,-0.5688888888888889,0.04888888888888889,-0.025275628846666485,0.0013206623728327675,0.0027462295887691656
1592290629.9517598,-0.43072560729985815,9.759758130900048,0.6592743927001419,-0.35333333333333333,-0.5688888888888889,0.04888888888888889,-0.03248746904128686,-0.017910911479488235,0.001143598434409082
1592290629.9617598,-0.4062136308354383,9.72,0.67,-0.35888888888888887,-0.5555555555555556,0.042222222222222223,-0.05017821599483697,-0.06326818538479445,0.006544984694978735
1592290629.9717598,-0.382763104793507,9.733789516165194,0.6320788305457155,-0.35888888888888887,-0.5555555555555556,0.042222222222222223,-0.05243452030114595,-0.06778079399741241,0.00579288325954241
1592290629.9817598,-0.3618294923373875,9.765914746168693,0.5777442385060813,-0.35888888888888887,-0.5555555555555556,0.042222222222222223,-0.060271793645120975,-0.07861635029176435,0.0033955250512662056
1592290629.9917598,-0.39,9.782109844372059,0.6284393774882374,-0.35888888888888887,-0.5555555555555556,0.042222222222222223,-0.07424589894684293,-0.08836678830813367,-5.9910811163169445e-05
1592290630.0017598,-0.39,9.789699963807454,0.6587998552298227,-0.35888888888888887,-0.5555555555555556,0.042222222222222223,-0.09411678516193471,-0.10409790656174801,-0.004199678772640626
1592290630.0117598,-0.3230995265290184,9.683099526529018,0.8741516571484356,-0.3655555555555556,-0.5611111111111111,0.027777777777777776,-0.10362892433716332,-0.10208521801307835,-0.005116048017580513
1592290630.0217597,-0.2949369297502119,9.67,0.908702697312659,-0.3655555555555556,-0.5611111111111111,0.027777777777777776,-0.09828876460726631,-0.08845752777081246,-0.005723421659609963
1592290630.0317597,-0.26609126159811664,9.666091261598117,0.9173611688131837,-0.3655555555555556,-0.5611111111111111,0.027777777777777776,-0.08092057982570856,-0.06351706278600798,-0.0030841914791357007
1592290630.0417597,-0.26,9.66,0.96,-0.3655555555555556,-0.5611111111111111,0.027777777777777776,-0.06763150851478027,-0.04690572364734761,-0.001090830782496456
1592290630.0517597,-0.28988086642599276,9.669960288808664,0.9898808664259928,-0.3655555555555556,-0.5611111111111111,0.027777777777777776,-0.0480745271716976,-0.014310754742209823,-4.331818991863256e-06
1592290630.0617597,-0.36,9.68,0.97,-0.3466666666666667,-0.5611111111111111,0.042222222222222223,-0.032724923474893676,0.00545415391248228,0.0
1592290630.0717597,-0.41572627163083375,9.682863135815417,0.8999370739381227,-0.3466666666666667,-0.5611111111111111,0.042222222222222223,-0.018229515578070035,0.002955596566942416,0.0020255017308966703
1592290630.0817597,-0.4383486750348675,9.705825662482566,0.7287384937238494,-0.3466666666666667,-0.5611111111111111,0.042222222222222223,-0.010452958238909902,-0.0186716911700999,0.0014085713807173552
1592290630.0917597,-0.4060005586787248,9.721999720660639,0.7460005586787248,-0.3466666666666667,-0.5611111111111111,0.042222222222222223,-0.01287168134866807,-0.03817862031941304,0.001745390194389385
1592290630.1017597,-0.39135514508188135,9.72932242745906,0.7313551450818814,-0.3466666666666667,-0.5611111111111111,0.042222222222222223,-0.016066814943433868,-0.05016037129978479,0.0001478233970064859
1592290630.1117597,-0.3685723547117388,9.761429266033804,0.7357138226441305,-0.35333333333333333,-0.5611111111111111,0.042222222222222223,-0.032724569883067905,-0.0682544362855488,-0.0017141121450907496
1592290630.1217597,-0.34495045969829513,9.73009908060341,0.7475247701508525,-0.35333333333333333,-0.5611111111111111,0.042222222222222223,-0.04606328252174202,-0.08288152343530111,-0.003812503730130209
1592290630.1317596,-0.3559417643429981,9.697970882171498,0.7623202961135102,-0.35333333333333333,-0.5611111111111111,0.042222222222222223,-0.05411473559891869,-0.09033349384016585,-0.0063395235879387495
1592290630.1417596,-0.33828780990267815,9.686575619805355,0.8568487603892875,-0.35333333333333333,-0.5611111111111111,0.042222222222222223,-0.05634965875708685,-0.09381144729469522,-0.010191018975196964
1592290630.1517596,-0.3308389571641685,9.671677914328336,0.886644171343326,-0.35333333333333333,-0.5611111111111111,0.042222222222222223,-0.05472457118479698,-0.09381144729469522,-0.011816106547486828
1592290630.1617596,-0.32765348990231313,9.68,0.9829604697069393,-0.3655555555555556,-0.5555555555555556,0.04888888888888889,-0.04114055845796081,-0.07662604519114473,-0.007702788081573395
1592290630.1717596,-0.3172091969375343,9.691163212249863,0.92092875712548,-0.3655555555555556,-0.5555555555555556,0.04888888888888889,-0.02762585479435052,-0.058397315163317684,-0.004058893741143526
1592290630.1817596,-0.320622846781505,9.72,0.82,-0.3655555555555556,-0.5555555555555556,0.04888888888888889,-0.022038366812399898,-0.042628267591423664,-0.003562185554164594
1592290630.1917596,-0.34831555900840455,9.718315559008404,0.8301066459495726,-0.3655555555555556,-0.5555555555555556,0.04888888888888889,-0.020369930118908676,-0.032713290206431433,-0.004363323129985824
1592290630.2017596,-0.3409098453280599,9.710909845328061,0.8745409280316406,-0.3655555555555556,-0.5555555555555556,0.04888888888888889,-0.023601282298458703,-0.02786626193710639,-0.004363323129985824
1592290630.2117596,-0.35576243207923514,9.674745855973589,0.9594917119471765,-0.35888888888888887,-0.5611111111111111,0.056666666666666664,-0.023018337683304572,-0.02899018417431533,-0.004363323129985824
1592290630.2217596,-0.29729783807525256,9.687882973012542,0.9878829730125421,-0.35888888888888887,-0.5611111111111111,0.056666666666666664,-0.014284075352681495,-0.020765231727509274,-0.004825186771044789
1592290630.2317595,-0.26819932958783815,9.670900335206081,0.98,-0.35888888888888887,-0.5611111111111111,0.056666666666666664,-0.0028226617696264105,-0.004508013611239013,-0.00580052010990827
1592290630.2417595,-0.3316483673688352,9.644945102106506,0.9783516326311649,-0.35888888888888887,-0.5611111111111111,0.056666666666666664,0.012514611842650231,0.011975184882613807,-0.003092683360810559
1592290630.2517595,-0.33914863559958514,9.667445906798756,0.9708513644004149,-0.35888888888888887,-0.5611111111111111,0.056666666666666664,0.024786897037273683,0.02179301303831257,-0.002274531014502329
1592290630.2617595,-0.360695840725409,9.712673960181354,0.9039562389118865,-0.3655555555555556,-0.5555555555555556,0.035555555555555556,0.03607332027068213,0.02676330639531271,0.0
1592290630.2717595,-0.39,9.72,0.86,-0.3655555555555556,-0.5555555555555556,0.035555555555555556,0.039269908169872414,0.028361600344907853,0.0
1592290630.2817595,-0.4328270105090557,9.718206752627264,0.7553797421182082,-0.3655555555555556,-0.5555555555555556,0.035555555555555556,0.03689263366139836,0.019273647384674283,-0.002881266460527085
1592290630.2917595,-0.39693703913783324,9.713062960862167,0.7830629608621668,-0.3655555555555556,-0.5555555555555556,0.035555555555555556,0.03499506422417303,0.006299346679861837,-0.0007567135830931172
1592290630.3017595,-0.38251843448667044,9.72748156551333,0.7974815655133296,-0.3655555555555556,-0.5555555555555556,0.035555555555555556,0.030276586885932544,8.043562207858505e-06,0.0008161121963203774
1592290630.3117595,-0.36525680766846297,9.735256807668463,0.8271147884973055,-0.3655555555555556,-0.5611111111111111,0.056666666666666664,0.02488643372927951,-0.0019229605548658256,-0.002181661564992912
1592290630.3217595,-0.359098681052415,9.715450659473793,0.83180263789517,-0.3655555555555556,-0.5611111111111111,0.056666666666666664,0.019981400764525797,-9.831864528730017e-05,-0.002181661564992912
1592290630.3317595,-0.38414769053947273,9.7,0.7797538491008787,-0.3655555555555556,-0.5611111111111111,0.056666666666666664,0.017666088496884575,0.003698084301371925,-0.0026072535188754694
