time,acc_x,acc_y,acc_z,mag_x,mag_y,mag_z,gyr_x,gyr_y,gyr_z
1592291088.6413224,-0.47880767660269496,9.737019191506738,0.5647692935892201,-0.2911111111111111,-0.5822222222222222,0.31777777777777777,0.07935582368704312,0.0068051093078729495,0.06325348656249048
1592291088.6513224,-0.3760239249578415,9.837044336706015,0.4560239249578415,-0.2911111111111111,-0.5822222222222222,0.31777777777777777,0.08525829003670365,0.006544984694978735,0.07192036972056744
1592291088.6613224,-0.34921042304371713,9.81276351934699,0.44842084608743427,-0.3049853055315735,-0.5896929422947789,0.2975001090094097,0.07154997199906704,0.0369301998562343,0.0899360485528616
1592291088.6713223,-0.4,9.84,0.34,-0.3055555555555556,-0.59,0.2966666666666667,0.061086523819801536,0.05563236990731925,0.09817477042468103
1592291088.6813223,-0.34761426140635515,9.831269043567726,0.32253808713545173,-0.3055555555555556,-0.59,0.2966666666666667,0.04680052976436142,0.06896596435906335,0.10388916804685708
1592291088.6913223,-0.2201209982354424,9.809782203176205,0.36062919082430045,-0.3055555555555556,-0.59,0.2966666666666667,0.031605055200430596,0.07200803050475092,0.10907779870565167
1592291088.7013223,-0.2553642551046131,9.746344340811698,0.5438941265439878,-0.3055555555555556,-0.59,0.2966666666666667,0.023147280717399965,0.07585247345158302,0.10754002152691881
1592291088.7113223,-0.53,9.77,0.75,-0.3111111111111111,-0.5822222222222222,0.30333333333333334,0.02617993877991494,0.09708393964218458,0.09817477042468103
1592291088.7213223,-0.743497177716229,9.809536514391894,0.8369803316621673,-0.3111111111111111,-0.5822222222222222,0.30333333333333334,0.04774376224556114,0.1134724454760757,0.11111306450406877
1592291088.7313223,-1.2155827198968352,9.94564128741067,0.7826822846703563,-0.3111111111111111,-0.5822222222222222,0.30333333333333334,0.08191564191325866,0.11780972450961724,0.15670750411906464
1592291088.7413223,-1.3970970001449206,10.048292353026424,0.6915368822762185,-0.3111111111111111,-0.5822222222222222,0.30333333333333334,0.11185262704834323,0.0856436272000477,0.2278636742993868
1592291088.7513223,-1.3843254588051543,10.060449694129897,0.7108993882597943,-0.3111111111111111,-0.5822222222222222,0.30333333333333334,0.12033476421433001,0.06570675939296416,0.27808951082988254
1592291088.7613223,-1.43,10.13,0.63,-0.28444444444444444,-0.59,0.3322222222222222,0.13744467859455345,0.0,0.42869649752110717
1592291088.7713223,-1.4104108643111979,10.17570798327387,0.43410864311198066,-0.28444444444444444,-0.59,0.3322222222222222,0.1360201164470971,-0.03134036724403943,0.5027737291888368
1592291088.7813222,-1.239296264367816,10.171640517241379,0.17874942528735632,-0.28444444444444444,-0.59,0.3322222222222222,0.12598239799892624,-0.089243750121552,0.6514479674837648
1592291088.7913222,-1.1337199124726476,10.13148796498906,0.16037199124726478,-0.28444444444444444,-0.59,0.3322222222222222,0.09918921918302019,-0.1220871178624261,0.7743490262154438
1592291088.8013222,-1.0322942774515818,10.109430374200333,0.12400315485058278,-0.28444444444444444,-0.59,0.3322222222222222,0.08527293134582277,-0.13111717177444804,0.8371919293199157
1592291088.8113222,-0.5272195676905576,10.09,-0.15958816837315135,-0.304710150423461,-0.5782672228542535,0.31835621286815824,0.03538833761072291,-0.1552898759621786,0.9802600046540267
1592291088.8213222,-0.42512831463291534,10.097072640447257,-0.26194432581434174,-0.3055555555555556,-0.5777777777777777,0.31777777777777777,-0.0032165045269178585,-0.16756138276708943,1.0379347432055857
1592291088.8313222,-0.19572162314787425,10.072245946163982,-0.4757756742947804,-0.3055555555555556,-0.5777777777777777,0.31777777777777777,-0.08918573458368831,-0.2046445716487251,1.1228558048642325
1592291088.8413222,0.0833043561788579,9.994770183948898,-0.28311800585946884,-0.3055555555555556,-0.5777777777777777,0.31777777777777777,-0.1810684271427844,-0.24521198576274247,1.1668989536786274
1592291088.8513222,0.09298164484917473,9.912798093340923,-0.0383942800227661,-0.3055555555555556,-0.5777777777777777,0.31777777777777777,-0.25543460437600884,-0.2537432578995057,1.199993950200252
1592291088.8613222,0.15989728743654824,9.800117385786804,0.30963316941624364,-0.33773049739142696,-0.582215700789622,0.2966976434715172,-0.3446144942484811,-0.24654216224753706,1.263108418513835
1592291088.8713222,0.33639396053009474,9.715330898945554,0.5287285110573176,-0.3377777777777778,-0.5822222222222222,0.2966666666666667,-0.36086546807626624,-0.2372917906685498,1.29704725544161
1592291088.8813221,0.5652302035456336,9.56129455022981,0.7295742613263296,-0.3377777777777778,-0.5822222222222222,0.2966666666666667,-0.35167304340476285,-0.20554815943529162,1.3530130425891649
1592291088.8913221,0.6283693390942551,9.537907665226436,0.7823231717074732,-0.3377777777777778,-0.5822222222222222,0.2966666666666667,-0.32641343737550216,-0.18376802358962008,1.3840344099822655
1592291088.9013221,0.7297094287408579,9.536337220794623,0.8416861039731173,-0.3377777777777778,-0.5822222222222222,0.2966666666666667,-0.28392671449030754,-0.15881732891909017,1.4307514646846038
1592291088.911322,0.6979627706626668,9.494976731664167,1.0851163416791663,-0.37279587537231473,-0.5782201539257037,0.3096733886303518,-0.23691220159536025,-0.1418029253611424,1.4887871726774298
1592291088.921322,0.7342918111496399,9.477345196814388,1.1163274015928057,-0.37666666666666665,-0.5777777777777777,0.3111111111111111,-0.21135098927616297,-0.15176057003108212,1.528548175833961
1592291088.931322,0.9450430963940866,9.417130543887405,1.0230726637935736,-0.37666666666666665,-0.5777777777777777,0.3111111111111111,-0.155277479778256,-0.1802779216982145,1.600884178308286
1592291088.941322,1.2312077931414604,9.39198566943852,0.98297850415778,-0.37666666666666665,-0.5777777777777777,0.3111111111111111,-0.10031735144569176,-0.19898004050142784,1.6609411564166046
1592291088.951322,1.5274048442906574,9.33482122260669,0.9248212226066898,-0.37666666666666665,-0.5777777777777777,0.3111111111111111,-0.07406703268141161,-0.20210188033906656,1.6876246810503648
1592291088.961322,2.1977044854881265,9.232849604221636,0.8047493403693932,-0.39376136030489595,-0.5405716798592788,0.28496628554676046,-0.014223972894716323,-0.1931259775871034,1.7425316595917264
1592291088.971322,2.30027220367585,9.186755566968708,0.8054055541289116,-0.39555555555555555,-0.5366666666666666,0.2822222222222222,0.0008847818555705132,-0.17134831077843987,1.7529947602866771
1592291088.981322,2.520620977011494,9.099277586206897,0.7846387931034483,-0.39555555555555555,-0.5366666666666666,0.2822222222222222,0.029351497934311244,-0.1279866741789149,1.7567435736503814
1592291088.991322,2.593030317295923,9.046969682704075,0.8316363807551078,-0.39555555555555555,-0.5366666666666666,0.2822222222222222,0.05525554492464535,-0.09603937750364959,1.7506049044568561
1592291089.001322,2.6770008550662676,9.04,0.84,-0.39555555555555555,-0.5366666666666666,0.2822222222222222,0.08270341810051128,-0.07903055028197736,1.7475927025496945
1592291089.011322,2.8485323126748123,8.991800382746945,0.8159001913734727,-0.438399659780493,-0.4947151479464154,0.2822222222222222,0.12929227212233496,-0.06848965656448747,1.7446674952366865
1592291089.021322,3.107686274509804,8.928770588235295,0.7189254901960784,-0.4488888888888889,-0.48444444444444446,0.2822222222222222,0.15358854639872355,-0.06701059052231219,1.7411338312494926
1592291089.031322,3.33838771386232,8.898341101980332,0.5332245722753604,-0.4488888888888889,-0.48444444444444446,0.2822222222222222,0.178544502059584,-0.07836902777239775,1.7242262980192107
1592291089.041322,3.4101329876614335,8.908590426808777,0.5529521340438812,-0.4488888888888889,-0.48444444444444446,0.2822222222222222,0.18201498009419126,-0.09852581170054996,1.7035266409835954
1592291089.051322,3.3866392254623454,8.930850484086035,0.580850484086034,-0.4488888888888889,-0.48444444444444446,0.2822222222222222,0.17943941869238833,-0.11463898569734944,1.6896879019738957
1592291089.061322,3.155520099794777,9.00392378576315,0.7417713572894451,-0.4645062349380083,-0.4785879396760247,0.2744135491976625,0.17083241422250725,-0.17141208953994508,1.63992759046422
1592291089.071322,3.274399088665274,9.038879817733054,0.7195682551737231,-0.4666666666666667,-0.4777777777777778,0.2733333333333333,0.17458002125410158,-0.2000268024547423,1.6042824086696061
1592291089.081322,3.3882026509102525,8.920554934525711,0.58336553816672,-0.4666666666666667,-0.4777777777777778,0.2733333333333333,0.19301651453558116,-0.2555504533939907,1.5038596088543716
1592291089.091322,3.7202138344403046,8.903952697229872,0.4158221286246558,-0.4666666666666667,-0.4777777777777778,0.2733333333333333,0.1978715440130818,-0.2969577845780701,1.4375909209157312
1592291089.101322,4.408297407486882,8.948027037044262,0.22757837036459044,-0.4666666666666667,-0.4777777777777778,0.2733333333333333,0.2051251290518603,-0.34099960117642186,1.3125088000004026
1592291089.111322,4.774610186129045,8.933349945256163,0.10737984671725752,-0.5008733844275808,-0.4386843860510188,0.2798488986211265,0.2198340522919564,-0.33539881599873966,1.1324850580534773
1592291089.121322,4.765010359766435,8.705040497268788,0.07,-0.5133333333333333,-0.42444444444444446,0.2822222222222222,0.23616250152594725,-0.30489223767916107,0.9888564937387697
1592291089.131322,4.615885700216125,8.819400049243564,-0.1260714578830739,-0.5133333333333333,-0.42444444444444446,0.2822222222222222,0.27351958910121843,-0.22340836938867578,0.7423477251474457
1592291089.141322,4.460955763948091,8.62771573363645,-0.09934735246755708,-0.5133333333333333,-0.42444444444444446,0.2822222222222222,0.2873817823510472,-0.12125007274477975,0.5914312048724393
1592291089.151322,4.531574729318519,8.960323933196518,-0.09194996815511995,-0.5133333333333333,-0.42444444444444446,0.2822222222222222,0.2903736966729066,-0.06320556161632085,0.5135605425350082
1592291089.1613219,4.614970942704474,9.0877760443075,0.02725301298802607,-0.5241456808421199,-0.39533427807463456,0.28721253645704675,0.2626729799227502,0.0010147589606974913,0.46499356314266815
1592291089.1713219,4.387251461988304,9.02448343079922,0.11267056530214425,-0.5277777777777778,-0.38555555555555554,0.28888888888888886,0.23276159995164145,0.01968173435241169,0.46160003656272547
1592291089.1813219,4.169562132176949,8.94017514712922,0.38190887843888155,-0.5277777777777778,-0.38555555555555554,0.28888888888888886,0.1509530357886498,0.06099099587979184,0.48889086410052884
1592291089.1913218,4.186935989077182,8.953064010922818,0.44173399726929563,-0.5277777777777778,-0.38555555555555554,0.28888888888888886,0.12695873806558242,0.06703558601999744,0.5122965736926899
1592291089.2013218,4.166760328960251,8.935775210495398,0.515633052672802,-0.5277777777777778,-0.38555555555555554,0.28888888888888886,0.1021233984373344,0.04948693642865888,0.5363353516987243
1592291089.2113218,4.068036104647063,8.693844580777096,0.47445525703405966,-0.5570205830963183,-0.3777099248603374,0.28460945396422443,0.09575011228385381,0.027056541811952856,0.5409710692596308
1592291089.2213218,4.965297276948174,8.933039528171665,0.3382010289873259,-0.5733333333333334,-0.37333333333333335,0.2822222222222222,0.11928084718318305,0.011802901311716641,0.5151658282374267
1592291089.2313218,5.018358208955224,8.892238805970148,0.20421641791044776,-0.5733333333333334,-0.37333333333333335,0.2822222222222222,0.13437162918863993,0.0037202214000065697,0.4813250125124474
1592291089.2413218,5.202809040590406,8.954589483394834,-0.09365774907749079,-0.5733333333333334,-0.37333333333333335,0.2822222222222222,0.14706341109869772,0.022317250626213234,0.38832670185559953
1592291089.2513218,5.058484800254655,8.976671971987905,-0.06103135444851186,-0.5733333333333334,-0.37333333333333335,0.2822222222222222,0.13694188598813778,0.04318495419013266,0.3071712120412199
1592291089.2613218,4.9799693323897145,8.845213493748526,0.04759141306912008,-0.5823983643941181,-0.36804539854787555,0.28675473775261456,0.09791872498269379,0.10614974961325091,0.19880397444300474
1592291089.2713218,4.996115351325832,8.868076953340154,0.032249980328900786,-0.5866666666666667,-0.3655555555555556,0.28888888888888886,0.07530088405488479,0.13040672147064494,0.13374212820664405
1592291089.2813218,4.708446722854577,8.968456859848814,-0.05307614330813566,-0.5866666666666667,-0.3655555555555556,0.28888888888888886,0.009896113408721569,0.17034235564545114,-0.014187434819666965
1592291089.2913218,4.509196990488809,9.253838073155727,-0.05,-0.5866666666666667,-0.3655555555555556,0.28888888888888886,-0.04566866073468447,0.2221397681634251,-0.08805517666570549
1592291089.3013217,4.235751437769016,9.27590678916338,-0.11166835461352045,-0.5866666666666667,-0.3655555555555556,0.28888888888888886,-0.08044112567393409,0.23282624436771127,-0.1352969094461759
1592291089.3113217,4.115777496839444,8.910195954487989,-0.16,-0.5851172917544599,-0.3802746172215199,0.27416982722292454,-0.13315996147544285,0.2361496948294366,-0.16990896108601877
1592291089.3213217,4.348268385705994,8.908165160434457,-0.13436696791310837,-0.5844444444444444,-0.38666666666666666,0.2677777777777778,-0.16163460413284086,0.24479143569650258,-0.17243582766575039
1592291089.3313217,4.332591850367401,9.08442217768871,-0.08,-0.5844444444444444,-0.38666666666666666,0.2677777777777778,-0.21810349020183314,0.2499365119547658,-0.1597961438065082
1592291089.3413217,4.305776953969725,9.090016872222618,-0.05856419761887788,-0.5844444444444444,-0.38666666666666666,0.2677777777777778,-0.27568350875044245,0.26414319252957363,-0.14975337974103617
1592291089.3513217,4.228948239664082,8.940822028423772,0.08292554909560725,-0.5844444444444444,-0.38666666666666666,0.2677777777777778,-0.3165015478810041,0.2557987614888467,-0.1452848927179252
1592291089.3613217,3.9727405185343905,8.816325262481252,0.4845189629312192,-0.5890026902840273,-0.38666666666666666,0.25790157845868156,-0.35846284220934105,0.23424930759069493,-0.11117264910790964
1592291089.3713217,4.037763706316127,8.849878967617826,0.5067377364539917,-0.5911111111111111,-0.38666666666666666,0.25333333333333335,-0.36534594899130535,0.21325584415999968,-0.08096541970364485
1592291089.3813217,4.185474677799964,8.730949355599927,0.31025542618572205,-0.5911111111111111,-0.38666666666666666,0.25333333333333335,-0.36371242397236714,0.15819043406936734,-0.08179233807985295
1592291089.3913217,4.426729031951312,8.514118961582351,0.3899339102320274,-0.5911111111111111,-0.38666666666666666,0.25333333333333335,-0.3653213918406625,0.12143181484538243,-0.13151958784748255
1592291089.4013216,4.433628274642992,8.582190311624858,0.5189159665534568,-0.5911111111111111,-0.38666666666666666,0.25333333333333335,-0.3440267837167526,0.09666642588799901,-0.16059105096134457
1592291089.4113216,4.203023761552975,8.830337714669481,0.6167229524449135,-0.5903688068765301,-0.39186279630873316,0.23329111899964822,-0.2908068559718464,0.12261340572484572,-0.16725458015683708
1592291089.4213216,4.048725761772853,8.966538600505842,0.5275237865831628,-0.59,-0.39444444444444443,0.22333333333333333,-0.2504164115871971,0.12684051063005852,-0.1750573858141175
1592291089.4313216,3.958311766476076,8.90154378573578,0.4566235329521517,-0.59,-0.39444444444444443,0.22333333333333333,-0.18123055398525154,0.08448505747781083,-0.18774566639578633
1592291089.4413216,4.373338394793926,8.890702819956616,0.17028778018799712,-0.59,-0.39444444444444443,0.22333333333333333,-0.14710882410837564,0.059861527949739896,-0.17076904631723983
1592291089.4513216,4.5891178632688066,8.9334256309728,0.09934329821122273,-0.59,-0.39444444444444443,0.22333333333333333,-0.13218297706222248,0.060954480103419945,-0.15334846215930636
1592291089.4613216,4.503178721507704,8.659203489112441,0.5451044186934929,-0.5938772868118342,-0.39767551678763957,0.2149325452410261,-0.06020999065473745,0.10126925441259199,-0.10680102219235046
1592291089.4713216,4.332545204482019,8.412726022410096,0.629337000930383,-0.5966666666666667,-0.4,0.2088888888888889,-0.020784957396024865,0.11878878496032842,-0.10176434986423867
1592291089.4813216,4.106084576324976,8.621321273669736,0.5768861737014706,-0.5966666666666667,-0.4,0.2088888888888889,0.05725840360626747,0.1907101776481982,-0.05132045533690205
1592291089.4913216,4.300511942144828,8.970444381006757,0.43157484061280804,-0.5966666666666667,-0.4,0.2088888888888889,0.11438018325415211,0.2135562053419753,-0.022399450823943547
1592291089.5013216,4.242750858902974,9.131160407534653,0.49623208150693043,-0.5966666666666667,-0.4,0.2088888888888889,0.12163545066588131,0.1914272762504238,-0.041151497577898516
1592291089.5113215,4.062560873215785,9.005306465155332,0.2964651553316541,-0.6043427558540909,-0.4076760891874242,0.19563018938333798,0.08000341633170902,0.15045496513138146,-0.06012208652847595
1592291089.5213215,4.33241562941101,8.969219812652382,0.30368343385089186,-0.6088888888888889,-0.4122222222222222,0.18777777777777777,0.05890486225480862,0.1407171709420428,-0.05890486225480862
1592291089.5313215,4.324563290894315,8.871776247049263,0.5817688943926319,-0.6088888888888889,-0.4122222222222222,0.18777777777777777,0.05625379012902624,0.11376460432992197,-0.07392760430090876
1592291089.5413215,4.392945015822785,8.901941367791842,0.6206740066807314,-0.6088888888888889,-0.4122222222222222,0.18777777777777777,0.08165807158160432,0.07290265868707316,-0.08771318446223013
1592291089.5513215,4.41659520284276,8.951026552166617,0.563589379133353,-0.6088888888888889,-0.4122222222222222,0.18777777777777777,0.10551089007745969,0.08586788208446595,-0.08478510521002702
1592291089.5613215,4.237541604085311,8.858770802042656,0.6314112346049865,-0.6122289643202831,-0.4098364540569407,0.17871185874970794,0.13484752486007856,0.07302609107362547,-0.10850040618673325
1592291089.5713215,4.350286113699907,8.893755358807084,0.7108977166821995,-0.6166666666666667,-0.4066666666666667,0.16666666666666666,0.18890957677006762,0.05889589060368511,-0.11893176545522892
1592291089.5813215,4.22,8.794251720183485,0.5800229357798166,-0.6166666666666667,-0.4066666666666667,0.16666666666666666,0.23422557493735757,0.07614048899934552,-0.1075828731855299
1592291089.5913215,4.351811852121275,8.917542802213504,0.28684289833987164,-0.6166666666666667,-0.4066666666666667,0.16666666666666666,0.27024527074919946,0.08574812454658638,-0.09829606516238816
1592291089.6013215,4.301486700792934,8.728094549834386,0.07172899728997287,-0.6166666666666667,-0.4066666666666667,0.16666666666666666,0.2764859576912324,0.11386928854356941,-0.08497907924373907
1592291089.6113214,4.4275362593610765,8.75097829178121,0.33573071697159285,-0.6203824480466816,-0.40976315115001244,0.16295088528665172,0.2688094241235857,0.11205190139645894,-0.09774529048819713
1592291089.6213214,4.532325890162944,9.080369342184671,0.47695232347616173,-0.6233333333333333,-0.4122222222222222,0.16,0.24678239374623262,0.10358587042456507,-0.12384912197408464
1592291089.6313214,4.168018113207547,9.212449056603774,-0.10146943396226413,-0.6233333333333333,-0.4122222222222222,0.16,0.15293003005602163,0.08169309940624891,-0.22652126167840198
1592291089.6413214,4.354669716900201,8.82652845295968,0.40414355161567056,-0.6233333333333333,-0.4122222222222222,0.16,0.10649340791613528,0.050207537725907796,-0.26475183657133383
1592291089.6513214,4.2968754619364375,8.699870657797486,0.69,-0.6233333333333333,-0.4122222222222222,0.16,0.08562316190317294,0.06479861371655637,-0.2424325055805695
1592291089.6613214,4.03382256733209,8.704719207606004,0.5632609825440983,-0.6198128050706694,-0.4268910899833219,0.16821456594621584,0.07868704564807297,0.08230238386621276,-0.19724475506953626
1592291089.6713214,3.977913703176861,8.727856804172593,0.4644855381697487,-0.6166666666666667,-0.44,0.17555555555555555,0.07235947635868738,0.08932347256746821,-0.17112647117690016
1592291089.6813214,4.051255818874313,8.996311627168852,0.6520403089293271,-0.6166666666666667,-0.44,0.17555555555555555,0.07751257503684587,0.08861165130060292,-0.1285272638957893
1592291089.6913214,4.075630525158886,9.006182443732976,0.5058221436421848,-0.6166666666666667,-0.44,0.17555555555555555,0.0863936728724684,0.08909127284646164,-0.13323981704906562
1592291089.7013214,4.32457833151449,8.97084333697102,0.34249727173517647,-0.6166666666666667,-0.44,0.17555555555555555,0.09122117059755398,0.0834025579645786,-0.14130858322969134
1592291089.7113214,4.450560598821468,8.842242395285874,0.3958878802357063,-0.6244340039992214,-0.4459397285484242,0.16367609845870715,0.07867236991309166,0.11419047340406721,-0.11724910802050814
1592291089.7213213,4.492545989698308,8.94924629454431,0.38283086302953856,-0.6355555555555555,-0.45444444444444443,0.14666666666666667,0.06967981191725416,0.1533429667792256,-0.09281384109184447
1592291089.7313213,4.4713463580378,8.99831705245275,0.418821936716925,-0.6355555555555555,-0.45444444444444443,0.14666666666666667,0.03460900413227043,0.21635550828150912,-0.04932604064102325
1592291089.7413213,4.204387007138409,9.083622382982801,0.5718880850859963,-0.6355555555555555,-0.45444444444444443,0.14666666666666667,0.013084377529960004,0.24773554634327802,-0.028356008484910388
1592291089.7513213,4.0122586471103325,8.910647621132515,0.5729042615294805,-0.6355555555555555,-0.45444444444444443,0.14666666666666667,0.010837882216761572,0.26461444204102647,-0.021535132115588555
1592291089.7613213,4.092559741526457,8.89654657400634,0.5416556937332357,-0.6273347963911241,-0.45786976076295755,0.14255628708445095,0.01594419024135426,0.25490149899769005,-0.019634954084936207
1592291089.7713213,4.333055479701438,9.101559484798834,0.6011537411250683,-0.6088888888888889,-0.46555555555555556,0.13333333333333333,0.01601982708218563,0.24408505448845577,-0.017723666834592654
1592291089.7813213,4.243220157602879,8.76580503940072,0.35317637902519705,-0.6088888888888889,-0.46555555555555556,0.13333333333333333,0.02470558212447927,0.2458204519346418,-0.029914805844724772
1592291089.7913213,4.292883064516129,8.987223671726754,0.40723434535104364,-0.6088888888888889,-0.46555555555555556,0.13333333333333333,0.029448938192023925,0.24248009157821834,-0.051113546468917775
1592291089.8013213,4.3160902640914465,9.07530981474182,0.8027926685061095,-0.6088888888888889,-0.46555555555555556,0.13333333333333333,0.012523270544340472,0.2731767485608997,-0.04122622309982142
1592291089.8113213,4.128347863993025,8.86837837837838,0.8270793374019181,-0.6132776324711808,-0.46386757725467404,0.12016710258645742,0.007774190262874698,0.301165825458493,-0.02205151992479976
1592291089.8213212,3.898244102203351,9.08713162324448,0.5535658116222396,-0.6233333333333333,-0.46,0.09,-0.0014227417341034828,0.2861164486148553,-0.040182327566441876
1592291089.8313212,3.8113814916048416,8.904877782116362,0.4502444357672784,-0.6233333333333333,-0.46,0.09,-0.014225140463144235,0.27245064120113993,-0.05318466659818448
1592291089.8413212,4.134479604902141,8.870181086519114,0.32895920980428023,-0.6233333333333333,-0.46,0.09,-0.027157236964050237,0.2084556275635394,-0.038981986307947705
1592291089.8513212,4.145798783748985,8.685830675672998,0.31824297288196024,-0.6233333333333333,-0.46,0.09,-0.03735834514857155,0.18115634651149984,-0.0340004584455085
1592291089.8613212,4.397445008460237,8.847715736040609,0.29570219966159056,-0.6175653318292912,-0.4679864636209814,0.09,-0.03860359698124091,0.14422407193484021,-0.04036073895236887
1592291089.8713212,4.89,9.1,0.56,-0.6088888888888889,-0.48,0.09,-0.04908738521234052,0.12980886311707826,-0.04036073895236887
1592291089.8813212,4.053718417553192,8.992002160904256,0.10772273936170212,-0.6088888888888889,-0.48,0.09,-0.10841826258075875,0.2026053175825586,-0.03546460228276106
1592291089.8913212,4.37,8.683771653356715,0.38266830967558463,-0.6088888888888889,-0.48,0.09,-0.15944810990516414,0.2286847286502422,-0.046802867757787345
1592291089.9013212,4.430971784299459,8.81910461637966,0.6203585576845339,-0.6088888888888889,-0.48,0.09,-0.19276458884770625,0.25894258232151995,-0.05256910999830291
1592291089.9113212,4.604615257867853,9.072692371066074,0.053576866040533855,-0.6064017136266271,-0.4746111202650995,0.08129488658208381,-0.20499224939711988,0.2396765343032461,-0.07749510636443054
1592291089.9213212,4.73,9.01,0.11,-0.6022222222222222,-0.46555555555555556,0.06666666666666667,-0.23234695667174513,0.20616701789183017,-0.10690141668465267
1592291089.9313211,4.383055399540464,8.718635945876946,0.627485830993107,-0.6022222222222222,-0.46555555555555556,0.06666666666666667,-0.21484938483231833,0.2213205706614912,-0.1506601060563809
1592291089.9413211,4.424648962655602,8.868448132780083,0.4789311203319502,-0.6022222222222222,-0.46555555555555556,0.06666666666666667,-0.20386875964236795,0.16620875476178323,-0.25782731534484404
1592291089.9513211,4.025804391217565,8.973383233532934,0.4888722554890219,-0.6022222222222222,-0.46555555555555556,0.06666666666666667,-0.19660315356302513,0.1382789790720724,-0.36652206051012365
1592291089.961321,4.177268946395564,9.176050523721504,0.5603666050523721,-0.6067188676661874,-0.4676309303758472,0.06528308345313891,-0.18339248075530026,0.0997285153793552,-0.4678622289988743
1592291089.971321,3.95,8.57,1.07,-0.6166666666666667,-0.4722222222222222,0.06222222222222222,-0.2247111411942699,0.10799224746714915,-0.5279620987282847
1592291089.981321,4.681038829202267,9.051687674477625,0.9066229591405127,-0.6166666666666667,-0.4722222222222222,0.06222222222222222,-0.1771537428166973,0.053422378670536605,-0.6824493357413609
1592291089.991321,4.737657605967152,8.711621602237681,0.959729613426092,-0.6166666666666667,-0.4722222222222222,0.06222222222222222,-0.14779775253417216,0.08472609350135582,-0.7681954576232797
1592291090.001321,4.941627518114499,8.87371924516283,1.2438394776654194,-0.6166666666666667,-0.4722222222222222,0.06222222222222222,-0.09430652934423975,0.12444347654751431,-0.8265321857686058
1592291090.011321,4.746479413125372,8.793506047187892,1.0167566585156302,-0.6119818400781325,-0.4787089051909619,0.05213182649307162,-0.03543668078661162,0.16262332540843222,-0.8934795531726112
1592291090.021321,4.26,8.28,1.01,-0.6022222222222222,-0.4922222222222222,0.03111111111111111,0.004363323129985824,0.23780111058422737,-0.9413869652944414
1592291090.031321,3.837661494045471,8.518902923132444,0.8362757127390834,-0.6022222222222222,-0.4922222222222222,0.03111111111111111,0.09957541132115248,0.2233912005180842,-1.13810851447634
1592291090.041321,3.8078440585794016,8.481942470066308,0.9796124123455612,-0.6022222222222222,-0.4922222222222222,0.03111111111111111,0.13097665515165277,0.19409091803229112,-1.2974215816167673
1592291090.051321,3.9052702864199498,8.805841532884516,0.7228562323228299,-0.6022222222222222,-0.4922222222222222,0.03111111111111111,0.16666862753837944,0.1472829267446196,-1.3910585009741576
1592291090.061321,3.7520575214576115,8.709410028610149,1.0173525071525373,-0.5960447389114758,-0.4992822031487895,0.03111111111111111,0.14982995257371942,0.13702556041587283,-1.4112132530739931
1592291090.071321,3.73,8.68,1.01,-0.5788888888888889,-0.5188888888888888,0.03111111111111111,0.16907877128695067,0.10253809355466686,-1.395172570812967
1592291090.081321,3.5898386149414034,8.849122311414426,1.475566246189131,-0.5788888888888889,-0.5188888888888888,0.03111111111111111,0.18220147810956047,0.11174591600323111,-1.3571522379382566
1592291090.091321,3.283987432232627,9.041710941350418,1.1594972893050763,-0.5788888888888889,-0.5188888888888888,0.03111111111111111,0.2185325713439489,0.10277956553394645,-1.3079472361358042
1592291090.101321,3.29,9.18,1.4,-0.5788888888888889,-0.5188888888888888,0.03111111111111111,0.25198191075668136,0.0916297857297023,-1.2882711541283145
1592291090.111321,2.8813108808290155,8.793001295336788,1.3326865284974092,-0.5726678180771445,-0.5266652274035694,0.028000575705238916,0.3817851219007933,0.09395585520398425,-1.2240250361210254
1592291090.121321,3.28,8.77,0.98,-0.5522222222222222,-0.5522222222222222,0.017777777777777778,0.48214720586343357,0.11235557059713495,-1.1562806294462433
1592291090.131321,2.9984364993318375,9.171343637326341,0.7020276846272157,-0.5522222222222222,-0.5522222222222222,0.017777777777777778,0.5637534280915959,0.1848016581519492,-1.1195930041362843
1592291090.141321,2.4799742395953963,9.169471557204641,0.4687370311724529,-0.5522222222222222,-0.5522222222222222,0.017777777777777778,0.6145988065397606,0.1605953081331471,-1.2112663844199352
1592291090.151321,2.5997320203406247,8.742990152554686,0.062445717975623524,-0.5522222222222222,-0.5522222222222222,0.017777777777777778,0.6234234837123173,0.11627579049740785,-1.3286346666031346
1592291090.161321,2.5552234827351064,9.329595499349079,0.5185592957659165,-0.5448647531667803,-0.5566367036554873,0.020720765399954537,0.5777470178518179,0.07957644708057177,-1.4315338673892162
1592291090.171321,2.15,9.54,0.69,-0.5188888888888888,-0.5722222222222222,0.03111111111111111,0.5301437602932776,0.044724062082354694,-1.4944381720201445
1592291090.181321,2.099882675647049,9.622892371201216,0.2488794437956601,-0.5188888888888888,-0.5722222222222222,0.03111111111111111,0.46852285648231146,-0.012761662534314613,-1.5326300475090942
1592291090.191321,1.944761271003161,9.845101837108158,0.18589538227535232,-0.5188888888888888,-0.5722222222222222,0.03111111111111111,0.3942227242290586,0.023414558178424888,-1.5069938347240919
1592291090.201321,1.4145942877629063,9.611622848948375,0.09513145315487571,-0.5188888888888888,-0.5722222222222222,0.03111111111111111,0.32209627162552695,0.05931750862693966,-1.4882115852919737
1592291090.2113209,1.481068684969693,9.484498719652525,0.29423422255356396,-0.5133655671164989,-0.5844195578029165,0.03111111111111111,0.25866790330101974,0.057347729687619184,-1.4962140294008093
1592291090.2213209,1.6,9.54,-0.57,-0.4922222222222222,-0.6311111111111111,0.03111111111111111,0.22580197197676635,0.00545415391248228,-1.523890603147549
1592291090.2313209,1.320289565019127,9.31941326983001,0.4185445747726294,-0.4922222222222222,-0.6311111111111111,0.03111111111111111,0.10635087502709195,0.030946122881887528,-1.551341469084939
1592291090.2413208,1.4121021539359169,9.761811396897944,0.21782710166772015,-0.4922222222222222,-0.6311111111111111,0.03111111111111111,0.055118883340452944,-0.011588094771979538,-1.5348306276452384
1592291090.2513208,1.2350754440810279,9.874019226946638,0.194067294313233,-0.4922222222222222,-0.6311111111111111,0.03111111111111111,-0.04436195648820843,-0.009061076500052511,-1.5024742551184544
1592291090.2613208,1.2166330513988288,10.069345315549773,0.8747625243981783,-0.4916194968553459,-0.631474824694571,0.031048760211089422,-0.11740243725177393,0.0032622902053303653,-1.4769338687894065
1592291090.2713208,0.86,10.0,0.32,-0.42777777777777776,-0.67,0.024444444444444446,-0.18980455615438332,0.002181661564992912,-1.471530725587719
1592291090.2813208,0.27733072026095645,9.057348082285474,0.3800173620245173,-0.42777777777777776,-0.67,0.024444444444444446,-0.292045794749169,0.01035436986986087,-1.495243511261234
1592291090.2913208,0.33895522388059696,9.358507462686568,0.4205970149253731,-0.42777777777777776,-0.67,0.024444444444444446,-0.33939490286449436,0.026139236138777014,-1.5264467290110109
1592291090.3013208,-0.15,9.44,0.57,-0.42777777777777776,-0.67,0.024444444444444446,-0.35124751196385884,0.028361600344907853,-1.545707218797478
1592291090.3113208,-0.3657394451145959,9.374340168878165,0.7763594692400483,-0.42777777777777776,-0.67,0.024444444444444446,-0.36352587167149564,0.0017584876450280618,-1.574356724781964
1592291090.3213208,-0.18,9.63,0.88,-0.39555555555555555,-0.6888888888888889,0.01,-0.3425208657038872,-0.04799655442984406,-1.5871587885323435
1592291090.3313208,-0.5312287819575789,10.045928820739238,1.1572858804928252,-0.39555555555555555,-0.6888888888888889,0.01,-0.33747966613733366,-0.07723551191585412,-1.5780846293125472
1592291090.3413208,0.8973560721268736,15.724177710189007,2.826567456006952,-0.39555555555555555,-0.6888888888888889,0.01,-0.21730188105637036,-0.06809220263626041,-1.2386479513189232
1592291090.3513207,-1.24,6.03,4.08,-0.39555555555555555,-0.6888888888888889,0.01,-0.3556108350938446,0.22907446432425577,-0.6261368691529657
1592291090.3613207,-0.3376325317983474,11.50002135363476,-0.37602079658341836,-0.39555555555555555,-0.6888888888888889,0.01,-0.04509017045471797,-0.029692756208349824,0.01418515498850137
1592291090.3713207,-1.03,8.62,2.82,-0.3422222222222222,-0.7022222222222222,0.0011111111111111111,-0.10581058590215622,-0.03381575425739013,0.1908953869368798
1592291090.3813207,-0.4380528939280457,10.026588496603734,0.2679942663808466,-0.3422222222222222,-0.7022222222222222,0.0011111111111111111,0.17106558831329988,-0.12861421479194127,0.003240515980895871
1592291090.3913207,-1.21,9.68,0.78,-0.3422222222222222,-0.7022222222222222,0.0011111111111111111,0.18653206380689397,-0.10799224746714915,-0.13853550937704992
1592291090.4013207,-0.6989330589469102,10.322259532619665,0.23173635158398798,-0.3422222222222222,-0.7022222222222222,0.0011111111111111111,0.34407723734391144,-0.1375473574641408,-0.19849008337997115
1592291090.4113207,-0.6906335951876842,10.106473474879792,0.32303045293547306,-0.3422222222222222,-0.7022222222222222,0.0011111111111111111,0.3476985615626224,-0.16380195804979522,-0.2745378919729011
1592291090.4213207,-0.1,10.37,0.02,-0.33,-0.7155555555555555,0.0011111111111111111,0.3425208657038872,-0.21162117180431245,-0.36760997370130566
1592291090.4313207,-0.05915316483041694,10.369779650032404,-0.11263339814214733,-0.33,-0.7155555555555555,0.0011111111111111111,0.2604250682650126,-0.21732841542524176,-0.46435858126237284
1592291090.4413207,-0.1724701565441159,10.550596869117681,-0.10458219161762253,-0.33,-0.7155555555555555,0.0011111111111111111,0.15138607248290303,-0.20562811333264885,-0.5372887552008878
1592291090.4513206,-0.20228783878441725,10.38699876070909,-0.16913896222856833,-0.33,-0.7155555555555555,0.0011111111111111111,0.05371367385344704,-0.2007437215773225,-0.6095422995023728
1592291090.4613206,-0.2926871059863139,10.334265854841316,-0.0034069723584244926,-0.33,-0.7155555555555555,0.0011111111111111111,-0.02928333149050348,-0.18759568112679567,-0.6793912643957966
1592291090.4713206,-0.46,10.03,0.12,-0.3422222222222222,-0.7288888888888889,0.024444444444444446,-0.11453723216212788,-0.11780972450961724,-0.7603090554000298
1592291090.4813206,-0.4351899458784346,10.199008378434637,0.10160335137385512,-0.3422222222222222,-0.7288888888888889,0.024444444444444446,-0.18709819907926267,-0.06086456564122321,-0.8800616235571773
1592291090.4913206,-0.8785261618849021,9.847537211476235,0.00048488770643081297,-0.3422222222222222,-0.7288888888888889,0.024444444444444446,-0.24547149086826187,-0.0018255551615605475,-0.9530441424003979
1592291090.5013206,-0.84,9.94,0.17,-0.3422222222222222,-0.7288888888888889,0.024444444444444446,-0.2748893571891069,0.03599741582238304,-1.0068368122442288
1592291090.5113206,-1.1594017835767296,9.833532738807756,0.42388346899688767,-0.3422222222222222,-0.7288888888888889,0.024444444444444446,-0.3034771149334981,0.06279843870774979,-1.0577587557264259
1592291090.5213206,-1.33,9.53,0.53,-0.3088888888888889,-0.7411111111111112,0.01,-0.32834006553143325,0.07308566242726255,-1.1071932442339028
1592291090.5313206,-1.6519140764313736,9.962131628761899,0.8112751364845958,-0.3088888888888889,-0.7411111111111112,0.01,-0.32715640445381994,0.0469291556657475,-1.166863881608552
1592291090.5413206,-1.7408314143158703,9.412152657839187,1.087414603722894,-0.3088888888888889,-0.7411111111111112,0.01,-0.32413452664675674,0.0021046272667855238,-1.1926706480574523
1592291090.5513206,-1.5978270945372206,9.577289838664024,1.2653037432776677,-0.3088888888888889,-0.7411111111111112,0.01,-0.3117303876682689,-0.04077871579126062,-1.2223574416543683
1592291090.5613205,-1.6349264081517123,9.043059722615341,1.2430441551089726,-0.3088888888888889,-0.7411111111111112,0.01,-0.2898770880861729,-0.0634413968393601,-1.2563514632265176
1592291090.5713205,-1.77,9.16,0.91,-0.2911111111111111,-0.7266666666666667,0.017777777777777778,-0.23671027980173093,-0.0545415391248228,-1.2893619849108109
1592291090.5813205,-1.9033384757790806,9.321094826699579,1.2911333950426824,-0.2911111111111111,-0.7266666666666667,0.017777777777777778,-0.18762710174297917,-0.025697181929448806,-1.3082669137050238
1592291090.5913205,-1.9155999326323896,9.420854125063157,1.045816230782186,-0.2911111111111111,-0.7266666666666667,0.017777777777777778,-0.13567341379942546,-0.003589718526254969,-1.3491560095475505
1592291090.6013205,-2.22,9.1,0.98,-0.2911111111111111,-0.7266666666666667,0.017777777777777778,-0.09708393964218458,0.0,-1.403899217072939
1592291090.6113205,-2.2041439623276156,9.179280188361924,1.3922569794820048,-0.2911111111111111,-0.7266666666666667,0.017777777777777778,-0.06508586977648212,-0.013837003185168633,-1.4540583536191751
1592291090.6213205,-2.25,9.49,1.78,-0.23555555555555555,-0.7533333333333333,-0.0033333333333333335,0.001090830782496456,-0.04145156973486533,-1.5184364492350666
1592291090.6313205,-2.4855112272654543,9.178117232919089,1.5040898181236333,-0.23555555555555555,-0.7533333333333333,-0.0033333333333333335,0.04577544631994035,-0.07988635149522501,-1.5441988248102252
1592291090.6413205,-2.4178818148995065,8.780049103381875,0.9173399927789144,-0.23555555555555555,-0.7533333333333333,-0.0033333333333333335,0.0898941714226959,-0.09961486660779774,-1.555868604892519
1592291090.6513205,-2.46,8.62,1.01,-0.23555555555555555,-0.7533333333333333,-0.0033333333333333335,0.13308135546456762,-0.0839939702522271,-1.5577063574049392
1592291090.6613204,-2.46,9.001194636211256,1.064456376601608,-0.23555555555555555,-0.7533333333333333,-0.0033333333333333335,0.14665911361319706,-0.05089818476494288,-1.5526146980992033
1592291090.6713204,-2.69,9.32,1.02,-0.2111111111111111,-0.7588888888888888,-0.012222222222222223,0.1679879405044542,0.0,-1.5511613727099605
1592291090.6813204,-2.7375447341988766,8.483212678099772,0.5160258174919088,-0.2111111111111111,-0.7588888888888888,-0.012222222222222223,0.18977050954054775,0.038378812111212406,-1.5521986379021553
1592291090.6913204,-3.105674487504181,9.082376833755436,0.9088651024991637,-0.2111111111111111,-0.7588888888888888,-0.012222222222222223,0.2246504149620528,0.03733584283065759,-1.582262898952089
1592291090.7013204,-2.85,8.75,0.96,-0.2111111111111111,-0.7588888888888888,-0.012222222222222223,0.2683443724941282,0.02617993877991494,-1.598067096357308
1592291090.7113204,-3.190094493912411,8.684875522442304,0.6271415591495548,-0.2111111111111111,-0.7588888888888888,-0.012222222222222223,0.3007069411315871,0.015129305586636289,-1.5988564272996848
1592291090.7213204,-3.74,9.08,0.82,-0.15777777777777777,-0.7777777777777778,0.008888888888888889,0.2923426497090502,-0.02181661564992912,-1.5555246958399462
1592291090.7313204,-3.2585783122934173,8.892780454780773,0.5525435068296762,-0.15777777777777777,-0.7777777777777778,0.008888888888888889,0.2923426497090502,-0.04223909995094108,-1.4962022414417686
1592291090.7413204,-3.687785505732666,8.700609585301589,0.23084102831913028,-0.15777777777777777,-0.7777777777777778,0.008888888888888889,0.24124867134201083,-0.06357624467739445,-1.409137053650767
1592291090.7513204,-3.9169119093168367,9.03227977329209,-0.1583833652178577,-0.15777777777777777,-0.7777777777777778,0.008888888888888889,0.17148536270148199,-0.07754111844628153,-1.3471562206840613
1592291090.7613204,-3.8869156639430726,8.957289159857682,0.051590352398491024,-0.15777777777777777,-0.7777777777777778,0.008888888888888889,0.09949954151284064,-0.09962767722006921,-1.2939848754879055
1592291090.7713203,-4.03,8.9,-0.28,-0.13777777777777778,-0.7822222222222223,0.008888888888888889,-0.002181661564992912,-0.07635815477475191,-1.165007275706215
1592291090.7813203,-4.080006345848758,9.169966155473295,-0.17001427815970388,-0.13777777777777778,-0.7822222222222223,0.008888888888888889,-0.0861799005363054,-0.03599493535048207,-1.037374478671004
1592291090.7913203,-4.205914261135538,8.514228636971898,-0.44098571018925636,-0.13777777777777778,-0.7822222222222223,0.008888888888888889,-0.17592915106527218,0.012413648048850296,-0.9219998254001284
1592291090.8013203,-4.271589540380956,8.418013810149674,-0.4168870274829825,-0.13777777777777778,-0.7822222222222223,0.008888888888888889,-0.26593162864457204,0.02870838426042147,-0.8266293072953579
1592291090.8113203,-4.386779135688644,8.895227847852953,-0.08777389803244601,-0.13777777777777778,-0.7822222222222223,0.008888888888888889,-0.3395280088128912,0.0538388555374085,-0.7485453429704337
1592291090.8213203,-4.07,9.27,0.49,-0.09777777777777778,-0.7944444444444444,0.0,-0.42760566673861067,0.08726646259971647,-0.657770961845363
1592291090.8313203,-4.472616800095591,8.07090213884574,-0.18394551320348906,-0.09777777777777778,-0.7944444444444444,0.0,-0.46388631535946007,0.1626920215746402,-0.5842549106925892
1592291090.8413203,-4.714746865728777,8.270435448368266,0.268062015503876,-0.09777777777777778,-0.7944444444444444,0.0,-0.5124410664201537,0.18716031719468837,-0.5438714830807153
1592291090.8513203,-4.770141637987627,9.0114700909109,1.0247741152599017,-0.09777777777777778,-0.7944444444444444,0.0,-0.5257804371632917,0.15934147526541642,-0.5379998728545202
1592291090.8613203,-4.453080626230878,8.076974477312062,0.9413370069028626,-0.09777777777777778,-0.7944444444444444,0.0,-0.5257804371632917,0.10837264619434012,-0.5589334990801409
1592291090.8713202,-5.01,8.55,1.45,-0.06333333333333334,-0.7833333333333333,-0.0011111111111111111,-0.6043202535030366,0.0272707695624114,-0.581412807070611
1592291090.8813202,-5.169991187309726,8.167798830315654,-0.629885435026438,-0.06333333333333334,-0.7833333333333333,-0.0011111111111111111,-0.5577807036242084,0.0069097164904240935,-0.6415263923307639
1592291090.8913202,-4.904150808413221,8.835409929889826,0.5453221729384271,-0.06333333333333334,-0.7833333333333333,-0.0011111111111111111,-0.5568818868666491,-0.056876521542394386,-0.653693522015316
1592291090.9013202,-4.988480785018961,8.13595175730091,2.2496112045036947,-0.06333333333333334,-0.7833333333333333,-0.0011111111111111111,-0.4295382569096801,0.008920150489049317,-0.6357608419663562
1592291090.9113202,-4.955685914226514,8.480297900621602,0.9460150905039291,-0.06333333333333334,-0.7833333333333333,-0.0011111111111111111,-0.3535192409518406,0.03664473277955549,-0.60803625967585
1592291090.9213202,-5.21,7.57,1.1,-0.07111111111111111,-0.7888888888888889,-0.0011111111111111111,-0.25198191075668136,0.0370882466048795,-0.5530512067257032
1592291090.9313202,-4.951299088970731,7.998194611358791,1.2427315371195968,-0.07111111111111111,-0.7888888888888889,-0.0011111111111111111,-0.1264520475836886,0.043899944606514765,-0.5151003178594495
1592291090.9413202,-6.143325735992403,8.855414292497626,1.4076132478632477,-0.07111111111111111,-0.7888888888888889,-0.0011111111111111111,-0.1718474406989537,-0.011098762943067098,-0.46106583916685373
1592291090.9513202,-4.4420832179725505,8.31665387809991,1.3224166435945102,-0.07111111111111111,-0.7888888888888889,-0.0011111111111111111,-0.23437057871784056,-0.09862088798553273,-0.40699736524818
1592291090.9613202,-4.981238974805205,8.16734920697702,1.430247794961041,-0.07111111111111111,-0.7888888888888889,-0.0011111111111111111,-0.275991923365854,-0.11852674846936524,-0.36356639691981807
1592291090.9713202,-4.59,7.7,1.4,-0.04777777777777778,-0.7733333333333333,-0.015555555555555555,-0.2694352032766246,-0.10035643198967394,-0.28797932657906433
1592291090.9813201,-5.237272727272727,7.998181818181818,1.0727272727272728,-0.04777777777777778,-0.7733333333333333,-0.015555555555555555,-0.2464285904094266,-0.08448980242608914,-0.2427594323228476
1592291090.9913201,-5.467040352339007,8.124559457207475,1.1329596476609927,-0.04777777777777778,-0.7733333333333333,-0.015555555555555555,-0.23350759231421897,-0.07535458006722721,-0.15792614645206524
1592291091.0013201,-5.099776795715129,8.684419892878235,1.499386188216606,-0.04777777777777778,-0.7733333333333333,-0.015555555555555555,-0.2422861727665742,-0.08635824039576147,-0.1276089406942312
1592291091.01132,-5.065609433232185,7.830235830804636,1.4054259413885097,-0.04777777777777778,-0.7733333333333333,-0.015555555555555555,-0.2609215781431291,-0.11431134846059386,-0.12481362988774795
1592291091.02132,-5.61,8.66,1.21,-0.05444444444444444,-0.7777777777777778,-0.044444444444444446,-0.2781618495365963,-0.1407171709420428,-0.08726646259971647
1592291091.03132,-5.601848961236852,8.252448061842644,1.21,-0.05444444444444444,-0.7777777777777778,-0.044444444444444446,-0.29683379792013803,-0.1309366265506638,-0.009022107468684412
1592291091.04132,-5.241157056882159,8.402218986604543,1.201028926422054,-0.05444444444444444,-0.7777777777777778,-0.044444444444444446,-0.33532002720704635,-0.12480366305023613,0.08603543962579842
1592291091.05132,-5.209746406783166,7.71851230482887,1.3267032881811602,-0.05444444444444444,-0.7777777777777778,-0.044444444444444446,-0.3902804399378854,-0.1094703564516621,0.19058740291748089
1592291091.06132,-5.437431290898275,7.984289113622844,1.191916716240333,-0.05444444444444444,-0.7777777777777778,-0.044444444444444446,-0.4252774795396573,-0.10022275492769045,0.2506691500945812
1592291091.07132,-5.072634638922889,7.543199204406365,1.5078044675642595,-0.0621734326125391,-0.7656322249422004,-0.044444444444444446,-0.4753353548249401,-0.07324304514266863,0.3192644402068655
1592291091.08132,-5.21784891941022,8.13139567764088,1.428683094324379,-0.06222222222222222,-0.7655555555555555,-0.044444444444444446,-0.48850447336457525,-0.06582814556694479,0.36880325576917083
1592291091.09132,-5.2412197231833915,8.138538062283738,1.4095934256055362,-0.06222222222222222,-0.7655555555555555,-0.044444444444444446,-0.5118921608165938,-0.04024561667255523,0.43638515601226735
1592291091.10132,-4.963366829429387,8.254007973014412,1.7438676196541882,-0.06222222222222222,-0.7655555555555555,-0.044444444444444446,-0.5470286721571087,-0.01845887521000914,0.5456907943068711
1592291091.11132,-5.337337115521468,8.267904839092274,1.396377401755357,-0.06222222222222222,-0.7655555555555555,-0.044444444444444446,-0.5823169666646029,-0.025213850151224567,0.6215768480234952
1592291091.12132,-5.08,7.8,1.9,-0.08888888888888889,-0.7833333333333333,-0.08888888888888889,-0.6305001922829515,-0.019634954084936207,0.7766715171374766
1592291091.13132,-5.048663368360796,8.309220264137057,1.7589851576235842,-0.08888888888888889,-0.7833333333333333,-0.08888888888888889,-0.6399005069461953,-0.01707123190405154,0.8604197750463758
1592291091.14132,-4.8626911813389695,8.66463699101072,1.981297206447834,-0.08888888888888889,-0.7833333333333333,-0.08888888888888889,-0.6557329147127596,-0.046901501327478515,0.9293814932071768
1592291091.15132,-4.644018477950281,7.930976283455567,2.0749023716544435,-0.08888888888888889,-0.7833333333333333,-0.08888888888888889,-0.5892728355996747,-0.06644987040740508,0.9490014815710012
1592291091.16132,-4.475417683646957,7.5631062514762615,2.36597728525313,-0.08888888888888889,-0.7833333333333333,-0.08888888888888889,-0.5501175538510619,-0.03727934167542943,0.9888969358491392
1592291091.17132,-4.85,8.19,2.24,-0.10666666666666667,-0.7555555555555555,-0.09777777777777778,-0.4003348971761993,-0.05999569303730508,0.9555677654668954
1592291091.18132,-4.7375237941603485,8.105642845620261,2.2892083400548477,-0.10666666666666667,-0.7555555555555555,-0.09777777777777778,-0.3650608012330632,-0.05079375496518261,0.9724379852657866
1592291091.19132,-4.653352322407992,8.216590710368035,1.9710089822739196,-0.10666666666666667,-0.7555555555555555,-0.09777777777777778,-0.34216139821648867,-0.07388980365379647,1.0475259478832442
1592291091.20132,-4.603950649535706,8.101061818699979,2.243925713064336,-0.10666666666666667,-0.7555555555555555,-0.09777777777777778,-0.3675507004016084,-0.12056235789512032,1.1049792258720035
1592291091.21132,-4.351645630677707,8.268504702950398,2.3398496663718946,-0.10666666666666667,-0.7555555555555555,-0.09777777777777778,-0.3714848389602001,-0.16329839416433198,1.1466253870647303
1592291091.22132,-4.104505382470239,8.27381720591322,2.369236558817356,-0.1425866176230505,-0.7483715653642787,-0.130618875795043,-0.3689506400265982,-0.21886522500160052,1.2047264168356007
1592291091.23132,-3.9704321531560396,8.319233819288689,2.3418663889778917,-0.14555555555555555,-0.7477777777777778,-0.13333333333333333,-0.36486467836808995,-0.23787398409212568,1.2707857500806101
1592291091.24132,-3.604730702911046,8.401302363322852,2.470119687595091,-0.14555555555555555,-0.7477777777777778,-0.13333333333333333,-0.3613360647155384,-0.25294373163022243,1.3504942043501653
1592291091.25132,-3.506150603285361,8.526673692881717,2.5887238939768378,-0.14555555555555555,-0.7477777777777778,-0.13333333333333333,-0.3728131049173652,-0.26591168823271255,1.4060557975114942
1592291091.2613199,-3.4092825498646886,8.50220106244362,2.683157662624035,-0.14555555555555555,-0.7477777777777778,-0.13333333333333333,-0.36508386457720915,-0.25983173767784284,1.4535919220752176
1592291091.2713199,-3.3160518401833023,8.44026254236479,2.8378963196333955,-0.1881876621000207,-0.7343565590508165,-0.12385953187900775,-0.3582804519437091,-0.2504604025479579,1.4911946830974419
1592291091.2813199,-3.1910162676601868,8.409001807517798,2.994482828580914,-0.20555555555555555,-0.7288888888888889,-0.12,-0.34290492392822364,-0.24701872928112517,1.5081814568619674
1592291091.2913198,-3.0346033606877687,8.46168815943728,3.004603360687769,-0.20555555555555555,-0.7288888888888889,-0.12,-0.3046960205870288,-0.24503239366131607,1.5133254445136395
1592291091.3013198,-2.9377849163476166,8.569990821838779,2.9522242618136048,-0.20555555555555555,-0.7288888888888889,-0.12,-0.23126313416379923,-0.24822415975826967,1.498439553526096
1592291091.3113198,-2.892666022699831,8.592133542622555,2.960266843757547,-0.20555555555555555,-0.7288888888888889,-0.12,-0.21669705162752526,-0.2509492962511546,1.493565454709734
1592291091.3213198,-2.757616517749336,8.636024631731466,2.9974054576189326,-0.20555555555555555,-0.7288888888888889,-0.12,-0.19165330491017096,-0.2590516848950045,1.4825167429226658
1592291091.3313198,-2.6225670127988407,8.679915720840377,3.034544071480319,-0.20555555555555555,-0.7288888888888889,-0.12,-0.1666095581928167,-0.2671540735388544,1.4714680311355979
1592291091.3413198,-2.17816,8.907243636363637,3.0226836363636367,-0.22924848484848484,-0.7288888888888889,-0.13540040404040404,-0.04535317394455082,-0.2668925758890601,1.400510104998157
1592291091.3513198,-1.7950905953408112,9.133506717613706,2.963246641193147,-0.25,-0.7288888888888889,-0.14888888888888888,0.06799426722933413,-0.24428935540613655,1.3018029415820316
1592291091.3613198,-1.7505937313630642,9.18,2.9091094029554037,-0.25,-0.7288888888888889,-0.14888888888888888,0.1057994903799832,-0.21278786415371834,1.2249603937431297
1592291091.3713198,-1.7803831891223734,9.154042027194068,2.8903831891223732,-0.2776885043263288,-0.7127372613651971,-0.15984892185139404,0.13912070166333354,-0.18611406931669136,1.1488389791513138
1592291091.3813198,-1.8223004731249517,9.11061971612503,2.8676995268750485,-0.30333333333333334,-0.6977777777777778,-0.17,0.17353837654138238,-0.16787219889967217,1.0696614906902313
1592291091.3913198,-1.8893310282621767,9.173996542393265,2.6444540489075967,-0.30333333333333334,-0.6977777777777778,-0.17,0.20946257751684078,-0.15196539313967497,1.0021604136829567
1592291091.4013197,-1.8081428759720575,9.174690479328676,2.6153095206713237,-0.30333333333333334,-0.6977777777777778,-0.17,0.23326377020670216,-0.14192877381591887,0.9676058674514563
1592291091.4113197,-1.761492976087128,9.182338015941914,2.6508450398547865,-0.30333333333333334,-0.6977777777777778,-0.17,0.24965889143422182,-0.14097220891798362,0.942434794737197
1592291091.4213197,-1.71326004697286,9.175304018789143,2.70673995302714,-0.3515034939689167,-0.6928791173741592,-0.16510133959638135,0.27638376974140616,-0.14180800172453928,0.9131340352656134
1592291091.4313197,-1.6768451688009312,9.185436554132712,2.5733527357392316,-0.3688888888888889,-0.6911111111111111,-0.16333333333333333,0.3139256066116227,-0.16454020409644737,0.8854320447250104
1592291091.4413197,-1.6780473059774805,9.222189223909922,2.4092904103377917,-0.3688888888888889,-0.6911111111111111,-0.16333333333333333,0.36765498190860885,-0.19671735517351377,0.8642865872622576
1592291091.4513197,-1.6394085383227277,9.254354877006364,2.2663439073036376,-0.3688888888888889,-0.6911111111111111,-0.16333333333333333,0.40685646770489026,-0.22857600676871523,0.8429541210280662
1592291091.4613197,-1.4551417500296548,9.30035190383931,2.213098730773793,-0.3688888888888889,-0.6911111111111111,-0.16333333333333333,0.42516275959022526,-0.2484673662028193,0.8315126885997318
1592291091.4713197,-1.3082768894023227,9.397153888247097,2.184569222350581,-0.38603419738824374,-0.6773948643116272,-0.15733247535855915,0.41741226527982417,-0.24178850929789472,0.8035336313909349
1592291091.4813197,-1.274632877706544,9.427683561146727,2.195367122293456,-0.39111111111111113,-0.6733333333333333,-0.15555555555555556,0.4134248665661568,-0.23780111058422737,0.7963064712224128
1592291091.4913197,-1.1606283161128175,9.484685841943591,2.041256632225635,-0.39111111111111113,-0.6733333333333333,-0.15555555555555556,0.3996138705182353,-0.21667841074622982,0.7873699443678753
1592291091.5013196,-1.059521592780921,9.5,1.9878309341354532,-0.39111111111111113,-0.6733333333333333,-0.15555555555555556,0.3846300744509315,-0.17868750380096282,0.755263770978726
1592291091.5113196,-1.0224394284899878,9.5,1.9724394284899878,-0.39111111111111113,-0.6733333333333333,-0.15555555555555556,0.3702974066969487,-0.16186883688619483,0.7357257188332614
1592291091.5213196,-0.9437596593597225,9.5368001892446,1.9452799243021606,-0.4107378787082304,-0.6684266414340535,-0.15228442762270233,0.35412726394288274,-0.14876310163564663,0.7155412981562251
1592291091.5313196,-0.8384072117129835,9.573312225224862,1.9011462912918968,-0.4177777777777778,-0.6666666666666666,-0.1511111111111111,0.34149946302508044,-0.13388030662736977,0.7044404187520173
1592291091.5413196,-0.71,9.63198631823779,1.7813698180325626,-0.4177777777777778,-0.6666666666666666,-0.1511111111111111,0.3061722766934874,-0.09455110488917495,0.6753811405766292
1592291091.5513196,-0.673525415504064,9.63594726838934,1.788369121274617,-0.4177777777777778,-0.6666666666666666,-0.1511111111111111,0.2896038611764108,-0.07488809829622561,0.6593954964427093
1592291091.5613196,-0.6572156395791446,9.60873392024049,1.8459495598196336,-0.4177777777777778,-0.6666666666666666,-0.1511111111111111,0.2643813407592535,-0.045704295838083366,0.6341729760255521
1592291091.5713196,-0.7220329787993433,9.596406595759868,1.8856263830394746,-0.44625153671052736,-0.6574126950135231,-0.14612820329787993,0.25206701876191145,-0.030406606329682243,0.6120747374159836
1592291091.5813196,-0.7105278799361047,9.577895909952078,1.9294721200638953,-0.4622222222222222,-0.6522222222222223,-0.14333333333333334,0.2516948073689631,-0.030083815444135145,0.5985794014299183
1592291091.5913196,-0.6156604444444445,9.565336888888888,1.891320888888889,-0.4622222222222222,-0.6522222222222223,-0.14333333333333334,0.25929134966403355,-0.03974328024810777,0.575120701191699
1592291091.6013196,-0.5441669443518827,9.625833055648117,1.8007145237301851,-0.4622222222222222,-0.6522222222222223,-0.14333333333333334,0.2678898293773298,-0.044685090858369185,0.5583236160892857
1592291091.6113195,-0.5100074658120436,9.67997760256387,1.7500223974361309,-0.4622222222222222,-0.6522222222222223,-0.14333333333333334,0.2710710422534896,-0.04472487647611405,0.5443310756158063
1592291091.6213195,-0.4363520352035204,9.74182398239824,1.707270407040704,-0.4707086175284195,-0.6501006233956729,-0.14333333333333334,0.26397965732485995,-0.04571610607715576,0.5272664150965697
1592291091.6313195,-0.3196871563459861,9.78113495885632,1.6704110576011526,-0.47555555555555556,-0.6488888888888888,-0.14333333333333334,0.25177914057368495,-0.04275588418003912,0.5132860793328946
1592291091.6413195,-0.25904111384970374,9.746947139336095,1.5739530127431958,-0.47555555555555556,-0.6488888888888888,-0.14333333333333334,0.22120382476779643,-0.0317386909453625,0.48234999547610063
1592291091.6513195,-0.2582220319634703,9.69822203196347,1.5645186453576865,-0.47555555555555556,-0.6488888888888888,-0.14333333333333334,0.20479330994865208,-0.03261990818266704,0.4594658743734603
1592291091.6613195,-0.27207074188282243,9.701035370941412,1.5920707418828226,-0.47555555555555556,-0.6488888888888888,-0.14333333333333334,0.2090263281533393,-0.039834615416969255,0.4471648582429886
1592291091.6713195,1.1140082980066746,9.803255163705241,1.2991494543158655,-0.47785815219025285,-0.6373759057154025,-0.1323959993185212,0.23128278911122543,-0.03172579056281183,0.3191506008353776
1592291091.6813195,0.13715645013723687,9.75451967063129,1.4638591033851784,-0.48,-0.6266666666666667,-0.12222222222222222,0.1822407973855049,0.20721673044172018,0.06098472625363993
1592291091.6913195,-1.1334776389815961,9.69,1.4894655287498808,-0.48,-0.6266666666666667,-0.12222222222222222,0.15855350764588458,0.23673243551420087,-0.003786910544765636
1592291091.7013195,-0.9835825962228066,9.590942385847478,1.3816978245278508,-0.48,-0.6266666666666667,-0.12222222222222222,0.1259391389603435,0.09978937209568912,0.011711136332493509
1592291091.7113194,-0.32886861648482624,9.70254057027597,1.3373127349408638,-0.48,-0.6266666666666667,-0.12222222222222222,0.13681840350882934,0.0073986870475403685,0.02042464876345386
1592291091.7213194,-0.14457275850604012,9.703523218441761,1.4807436551036242,-0.4933503269422586,-0.6189375300158854,-0.12222222222222222,0.14368416296953124,-0.03864452108820843,0.010490617438892827
1592291091.7313194,-0.37604696673189825,9.751086105675148,1.4442367906066536,-0.5011111111111111,-0.6144444444444445,-0.12222222222222222,0.13086020198279158,-0.05105771165508852,0.0024719805208041016
1592291091.7413194,-0.35540948055924076,9.774136901724667,1.2869088682518623,-0.5011111111111111,-0.6144444444444445,-0.12222222222222222,0.0932016607533318,-0.09140163411334078,0.0059846801704353855
1592291091.7513194,-0.3336813464640871,9.710261009848066,1.3434203366160218,-0.5011111111111111,-0.6144444444444445,-0.12222222222222222,0.07123439407247462,-0.10911155000732602,0.008726646259971648
1592291091.7613194,-0.3528387719016235,9.714245298183572,1.3528644912393506,-0.5011111111111111,-0.6144444444444445,-0.12222222222222222,0.06591013159920918,-0.1086087658775747,0.008570412498967896
1592291091.7713194,-0.31395435602302046,9.695132764437387,1.3581369319309389,-0.4980355008709841,-0.6175200546845715,-0.1244190866794558,0.04175437864507688,-0.08452490328996293,0.006773108822503
1592291091.7813194,-0.33259715148085267,9.728118515374458,1.3651943029617053,-0.49333333333333335,-0.6222222222222222,-0.12777777777777777,0.009244152968919166,-0.054818130885909956,0.004767085882128035
1592291091.7913194,-0.40004712988171776,9.655981148047314,1.3860047129881716,-0.49333333333333335,-0.6222222222222222,-0.12777777777777777,-0.015717731305842055,-0.03620889858453444,0.005673348283496633
1592291091.8013194,-0.45195487620256874,9.604135371392294,1.4258646286077061,-0.49333333333333335,-0.6222222222222222,-0.12777777777777777,-0.03247476274067464,-0.032499373954305216,0.007849059391248367
1592291091.8113194,-0.4245105552846095,9.619925625304814,1.4899256253048143,-0.49333333333333335,-0.6222222222222222,-0.12777777777777777,-0.040114726324838666,-0.036719227663584195,0.009694470728703001
1592291091.8213193,-0.36519560309411897,9.67370109922647,1.5474021984529405,-0.49333333333333335,-0.6238671552117646,-0.12572161154084985,-0.04536849159307709,-0.03874582976624583,0.010504580528433801
1592291091.8313193,-0.3701079944915562,9.673978401101689,1.56,-0.49333333333333335,-0.6266666666666667,-0.12222222222222222,-0.05411934325771175,-0.03271314310332073,0.008503767954843177
1592291091.8413193,-0.39,9.618353643428314,1.525569095618876,-0.49333333333333335,-0.6266666666666667,-0.12222222222222222,-0.05922708671435718,-0.02929131889763003,0.007635815477475192
1592291091.8513193,-0.39,9.63060837709122,1.5674778361216266,-0.49333333333333335,-0.6266666666666667,-0.12222222222222222,-0.06169991465961588,-0.025294646145836125,0.007022424637660845
1592291091.8613193,-0.3726618549260195,9.648327318657524,1.6633453626849513,-0.49333333333333335,-0.6266666666666667,-0.12222222222222222,-0.06123170548439363,-0.02054332363766467,0.005599335577074374
1592291091.8713193,-0.37551768244200917,9.605418467175994,1.7528084488540119,-0.49819384427466845,-0.6250464963528883,-0.11655162612399796,-0.056814496065223596,-0.019441540627494223,0.003170374265455268
1592291091.8813193,-0.42612849525295876,9.549357523735205,1.81,-0.5066666666666667,-0.6222222222222222,-0.10666666666666667,-0.0405728047416361,-0.029592597704736406,0.001090830782496456
1592291091.8913193,-0.4121662448274477,9.54070025310353,1.7885994937929373,-0.5066666666666667,-0.6222222222222222,-0.10666666666666667,-0.03070317679983406,-0.03420482643958464,0.0014799029646909653
1592291091.9013193,-0.31924078199704625,9.579240781997047,1.7168980450073843,-0.5066666666666667,-0.6222222222222222,-0.10666666666666667,-0.00756009709253783,-0.031302821345098236,0.002685668037828767
1592291091.9113193,-0.2931588382932951,9.595261742560059,1.7526308712800287,-0.5066666666666667,-0.6222222222222222,-0.10666666666666667,0.005970528720869137,-0.02130024084154226,0.000344575804725485
1592291091.9213192,-0.3130976649746193,9.598656243654823,1.7778359390862943,-0.5066666666666667,-0.6239635420191766,-0.11842057529610829,0.01930941031151219,-0.005824438359624934,-0.0017542773867380568
1592291091.9313192,-0.3782355327702578,9.552646700844614,1.7855888319256445,-0.5066666666666667,-0.6266666666666667,-0.13666666666666666,0.028906794455984073,0.006127811221600439,-0.0008983572656055532
1592291091.9413192,-0.397050502877427,9.570737374280643,1.702949497122573,-0.5066666666666667,-0.6266666666666667,-0.13666666666666666,0.05086687149556001,0.012079573663815698,0.0021012265086382278
1592291091.9513192,-0.4244594499045464,9.585900916825755,1.6548198166348487,-0.5066666666666667,-0.6266666666666667,-0.13666666666666666,0.06350404485823531,0.00977816713022796,0.003837562694857668
1592291091.9613192,-0.3910196223882442,9.602407848955297,1.6879607552235114,-0.5066666666666667,-0.6266666666666667,-0.13666666666666666,0.07353995850898894,0.007070295846986867,0.005191498336478214
1592291091.9713192,-0.3677751587271414,9.579633121697144,1.7551834391514276,-0.503211040565715,-0.623499009407461,-0.13119525867349308,0.08330591286286473,0.004080610380707097,0.006544984694978735
1592291091.9813192,-0.38465067530549535,9.555349324694506,1.753952025916486,-0.49333333333333335,-0.6144444444444445,-0.11555555555555555,0.10373130096666323,0.0050230547601896065,0.00537794308651191
1592291091.9913192,-0.3902919708029197,9.57543795620438,1.6525182481751826,-0.49333333333333335,-0.6144444444444445,-0.11555555555555555,0.12077566952041964,0.005983644766759756,0.004363323129985824
1592291092.0013192,-0.39038913023384786,9.604416304649227,1.5748054348830762,-0.49333333333333335,-0.6144444444444445,-0.11555555555555555,0.13500833188707176,0.006502537171230607,0.003314939871237497
1592291092.0113192,-0.39774622973539764,9.61645075405292,1.58,-0.49333333333333335,-0.6144444444444445,-0.11555555555555555,0.14451814043814687,0.006474327457357652,0.0010201735448753715
1592291092.0213192,-0.4120603152309613,9.617688436329587,1.5697487515605493,-0.4967504161464836,-0.6212786100707449,-0.11327750034678874,0.1511211738055302,0.0024064070925507997,-0.0005317119146578777
1592291092.0313191,-0.325463282095147,9.668780598254044,1.4651704445394853,-0.5066666666666667,-0.6411111111111111,-0.10666666666666667,0.1541051161461427,-0.0032724923474893677,0.001090830782496456
1592291092.0413191,-0.307115073572922,9.695929227977434,1.385097242494773,-0.5066666666666667,-0.6411111111111111,-0.10666666666666667,0.15168146404642777,-0.0021082911565288125,0.0009614750946119498
1592291092.0513191,-0.3446787221845849,9.729785814789723,1.215321277815415,-0.5066666666666667,-0.6411111111111111,-0.10666666666666667,0.1334048130263168,0.0098875689886257,-0.0005570973822744942
1592291092.061319,-0.35515838250733084,9.703227744995113,1.2593514462585527,-0.5066666666666667,-0.6411111111111111,-0.10666666666666667,0.11365864009521362,0.015376930896358875,-0.001548223083776737
1592291092.071319,-0.39705335431268773,9.68,1.3176333857817195,-0.5019644304582082,-0.6387599930068818,-0.10666666666666667,0.0953553215869869,0.01969822570305984,-0.00141225996457952
1592291092.081319,-0.41034971605997467,9.68,1.3501748580299875,-0.49333333333333335,-0.6344444444444445,-0.10666666666666667,0.08600396534771083,0.021759393493426055,-3.814810433537469e-05
1592291092.091319,-0.4213350443077817,9.684332477846109,1.3383376107694542,-0.49333333333333335,-0.6344444444444445,-0.10666666666666667,0.07304995463543805,0.01098252298400807,0.0011265385743209487
1592291092.101319,-0.4012649040953862,9.69,1.2968973561430794,-0.49333333333333335,-0.6344444444444445,-0.10666666666666667,0.06681663699711443,-0.0051027016930309844,0.004977728337441707
1592291092.111319,-0.3770953896777424,9.693226152580564,1.2832261525805644,-0.49333333333333335,-0.6344444444444445,-0.10666666666666667,0.05978407366020787,-0.01625723727947649,0.004715241784376826
1592291092.121319,-0.3533300565249447,9.695004915212582,1.2999901695748342,-0.49333333333333335,-0.6324094099014227,-0.10574165096529314,0.04836195191240554,-0.02381557847364129,0.005817406728968566
1592291092.131319,-0.3594773773846941,9.67,1.360522622615306,-0.49333333333333335,-0.6222222222222222,-0.10111111111111111,0.03353070783918789,-0.028361600344907853,0.008209735510543643
