time,acc_x,acc_y,acc_z,mag_x,mag_y,mag_z,gyr_x,gyr_y,gyr_z
1592290809.5915885,-0.44534657054251076,9.687673285271256,0.9783664263562769,-0.29663918983625776,-0.5846038906117846,0.2893289209302742,0.019888759289756457,0.01643807170066229,0.028691015512943556
1592290809.6015885,-0.41406504770164787,9.69513356461405,0.9540650477016479,-0.3,-0.5755555555555556,0.2877777777777778,0.018514984023948085,0.018573262580931418,0.03113238621888649
1592290809.6115885,-0.364703744274049,9.7,0.874111232822147,-0.3,-0.5755555555555556,0.2877777777777778,0.01495044852952254,0.01713211009451545,0.03439348613517418
1592290809.6215885,-0.3445496255794604,9.723175561630809,0.9140763104718888,-0.3,-0.5755555555555556,0.2877777777777778,0.012495425770551878,0.01467708733554479,0.03069314903513147
1592290809.6315885,-0.3803622697966017,9.706935845830513,0.9761283083389735,-0.3,-0.5755555555555556,0.2877777777777778,0.011999138607461015,0.012293868471929922,0.028823453893896307
1592290809.6415884,-0.41704002169617604,9.675919956607649,1.024080043392352,-0.28983107977219014,-0.5943289467453584,0.2924711255752285,0.015070927557713713,0.010140360587401386,0.02912954758247103
1592290809.6515884,-0.41640004725897917,9.677199905482041,1.0228000945179585,-0.28555555555555556,-0.6022222222222222,0.29444444444444445,0.01793323744362203,0.008639395262836712,0.031415900760123294
1592290809.6615884,-0.3739612848926918,9.697207743021462,0.930714826763922,-0.28555555555555556,-0.6022222222222222,0.29444444444444445,0.023084513255472974,0.005758741898965299,0.0372653134279269
1592290809.6715884,-0.2901341939867505,9.7,0.9077628673348055,-0.28555555555555556,-0.6022222222222222,0.29444444444444445,0.02653866960969465,0.01222853363187593,0.03733227992245175
1592290809.6815884,-0.30415569278942334,9.711385230929809,0.9043073845350962,-0.28555555555555556,-0.6022222222222222,0.29444444444444445,0.028512705598817904,0.02039048035448646,0.03460437453206649
1592290809.6915884,-0.3587564853556485,9.712810878661088,0.8784326359832636,-0.2911470943747094,-0.607014969781497,0.3152130172013017,0.024747162214051814,0.02822595393965348,0.03037228901821743
1592290809.7015884,-0.38693210721972215,9.71677284288789,0.8733864214439444,-0.29333333333333333,-0.6088888888888889,0.3233333333333333,0.01921343367886489,0.028344227301336105,0.030560634953472516
1592290809.7115884,-0.3843854708877322,9.715754188355094,0.8515083767101858,-0.29333333333333333,-0.6088888888888889,0.3233333333333333,0.007337207648287664,0.01607908836837268,0.034278900461284796
1592290809.7215884,-0.33967390009766324,9.702418475024416,0.9385598246825945,-0.29333333333333333,-0.6088888888888889,0.3233333333333333,0.0038001217481556937,0.004555993867991379,0.03656061720421317
1592290809.7315884,-0.31866808063165025,9.68866808063165,0.964334040315825,-0.29333333333333333,-0.6088888888888889,0.3233333333333333,0.0038905526710775536,0.0027997218885810974,0.03647018628129131
1592290809.7415884,-0.36683158384981907,9.68,0.9915731021387884,-0.30175282723701025,-0.6088888888888889,0.3233333333333333,0.005740959598461626,0.014982402329533684,0.03875268875933465
1592290809.7515883,-0.3924277000358809,9.710289199856478,0.9645662002152853,-0.30666666666666664,-0.6088888888888889,0.3233333333333333,0.011501043432073504,0.025120654807992297,0.04449078789994785
1592290809.7615883,-0.4407474461875228,9.698251094491061,0.8920029186428311,-0.30666666666666664,-0.6088888888888889,0.3233333333333333,0.015462406951433139,0.04041456414876896,0.050559767987802484
1592290809.7715883,-0.4742514427433586,9.70425144274336,0.8628742786283207,-0.30666666666666664,-0.6088888888888889,0.3233333333333333,0.021026235469279234,0.05203325784062768,0.06168742502349467
1592290809.7815883,-0.506740503498005,9.699303798600798,0.908132906296409,-0.30666666666666664,-0.6088888888888889,0.3233333333333333,0.026407770155034933,0.055708313699025916,0.07303388168210763
1592290809.7915883,-0.5187401129943503,9.706889830508475,0.9443700564971751,-0.3097944130571249,-0.6088888888888889,0.3070690521029504,0.03497961523634186,0.057337332257475435,0.09007088377245666
1592290809.8015883,-0.4759546783962416,9.747236257283006,0.919572807037745,-0.31222222222222223,-0.6088888888888889,0.29444444444444445,0.04446918404262439,0.057071277776204736,0.11080158325850725
1592290809.8115883,-0.4531424874261439,9.801145075443136,0.8277098491137262,-0.31222222222222223,-0.6088888888888889,0.29444444444444445,0.04540964648596385,0.056723200689815706,0.1264433952761152
1592290809.8215883,-0.37518435335953587,9.82,0.8104042672655811,-0.31222222222222223,-0.6088888888888889,0.29444444444444445,0.0373048611398278,0.05152976003004688,0.14128657521911236
1592290809.8315883,-0.37000371451313346,9.794996904572388,0.8500037145131334,-0.31222222222222223,-0.6088888888888889,0.29444444444444445,0.025633510412349722,0.046905453520329744,0.15053518823854664
1592290809.8415883,-0.3888616562169205,9.77,0.9022766875661591,-0.30170267531598044,-0.6014633263668359,0.29877602258230873,0.013808278040559934,0.04533156449558526,0.1585429855938801
1592290809.8515882,-0.43042809715184344,9.766120915603704,0.9316372531888869,-0.29333333333333333,-0.5955555555555555,0.3022222222222222,0.011754592758440754,0.04623803533158925,0.16863637774402312
1592290809.8615882,-0.5035691755117077,9.811446595906338,0.8856917551170769,-0.29333333333333333,-0.5955555555555555,0.3022222222222222,0.020104910698618743,0.04339825299301697,0.19612144412183616
1592290809.8715882,-0.5376813453042611,9.833719775782622,0.8625604484347537,-0.29333333333333333,-0.5955555555555555,0.3022222222222222,0.026053475784110346,0.04487690068351252,0.22357297423202854
1592290809.8815882,-0.5832703511536895,9.843962210692213,0.8932703511536895,-0.29333333333333333,-0.5955555555555555,0.3022222222222222,0.027778449869570326,0.044875002418711896,0.2517897486801416
1592290809.8915882,-0.61,9.86461429749146,0.9292285949829231,-0.2994857299886154,-0.5955555555555555,0.29453172640311964,0.02483820792461015,0.03650229922542286,0.2902405104917625
1592290809.9015882,-0.61,9.8632070567282,0.94,-0.30666666666666664,-0.5955555555555555,0.28555555555555556,0.018502799380043317,0.02500646015262562,0.34235840545497415
1592290809.9115882,-0.5716569157250682,9.82804742977089,0.9208284578625341,-0.30666666666666664,-0.5955555555555555,0.28555555555555556,0.016756195576227435,0.018027767826414565,0.3887681252872706
1592290809.9215882,-0.5194915855996591,9.791694951359796,0.9527117801604772,-0.30666666666666664,-0.5955555555555555,0.28555555555555556,0.02102159419487383,0.015271630954950384,0.43483467661574005
1592290809.9315882,-0.48188457845891264,9.798115421541087,0.9754711446147282,-0.30666666666666664,-0.5955555555555555,0.28555555555555556,0.029432513565024337,0.01576565244132332,0.47393769865006546
1592290809.9415882,-0.46,9.815743626871928,0.987025492512289,-0.30903131840448456,-0.5955555555555555,0.2827179734701741,0.04296189006722095,0.02007684800136039,0.5204939211178905
1592290809.9515882,-0.4149441862693432,9.803563455181335,0.9906903655440042,-0.31222222222222223,-0.5955555555555555,0.2788888888888889,0.060785295025171646,0.03000393485220118,0.5795810809686371
1592290809.9615881,-0.40807962059982633,9.775893839200231,0.9619203794001736,-0.31222222222222223,-0.5955555555555555,0.2788888888888889,0.07136638895563165,0.03929885903694288,0.6262671480547828
1592290809.9715881,-0.3626753259111238,9.748535065182224,0.9901272718622134,-0.31222222222222223,-0.5955555555555555,0.2788888888888889,0.08026984551967331,0.04363323129985824,0.6701591156840639
1592290809.9815881,-0.2647666247765368,9.752746163513107,1.0242487211710356,-0.31222222222222223,-0.5955555555555555,0.2788888888888889,0.08631128817203214,0.042706304131936226,0.7022181312740939
1592290809.991588,-0.17170023237800155,9.744380325329201,1.0848993028659955,-0.3248287288062656,-0.5935222480420002,0.2768555813753335,0.09543670911509175,0.04304852572163396,0.7346132731176908
1592290810.001588,-0.14,9.7,1.18,-0.3466666666666667,-0.59,0.2733333333333333,0.12382596624135232,0.05448896488001964,0.7888202640425561
1592290810.011588,-0.14,9.670650957828162,1.1506509578281616,-0.3466666666666667,-0.59,0.2733333333333333,0.15447192021225722,0.07344192526519276,0.8345577775128925
1592290810.021588,-0.15127289052716147,9.633090664209258,1.1243635547364192,-0.3466666666666667,-0.59,0.2733333333333333,0.191351890894461,0.09765931866341915,0.869015532705391
1592290810.031588,-0.0970695355362153,9.645172185785514,1.073850992726558,-0.3466666666666667,-0.59,0.2733333333333333,0.22820288356965102,0.11274422426532003,0.8937476400600377
1592290810.041588,0.02437976891214301,9.693751907564858,0.9824961848702856,-0.3466666666666667,-0.5808320616234285,0.2733333333333333,0.2657893504912631,0.12268505083879969,0.9194692807361712
1592290810.051588,0.11517577610288304,9.732587888051443,0.8355908396141887,-0.3466666666666667,-0.5633333333333334,0.2733333333333333,0.2982777684089132,0.14366209208923317,0.954470006675687
1592290810.061588,0.15251324100592412,9.722489701439837,0.7249676330966299,-0.3466666666666667,-0.5633333333333334,0.2733333333333333,0.3037960519542218,0.15135325252794504,0.9700240015888235
1592290810.071588,0.27961769467801745,9.675961769467802,0.5182676137253878,-0.3466666666666667,-0.5633333333333334,0.2733333333333333,0.29760782959398036,0.15315681216663773,0.9845796939771658
1592290810.081588,0.43616857363470446,9.712527200617718,0.4946467429453882,-0.3466666666666667,-0.5633333333333334,0.2733333333333333,0.27881099952019234,0.1420718080388307,0.9738688140593089
1592290810.091588,0.57,9.7583988691853,0.41601130814700593,-0.360664781975499,-0.5544678603044062,0.27846597561323855,0.24421741593477903,0.11881476906249563,0.9404079930270354
1592290810.101588,0.57,9.740088325477094,0.2102649764312846,-0.38,-0.5422222222222223,0.28555555555555556,0.18946264502769264,0.08535692215482737,0.8825688163739973
1592290810.111588,0.7207107540173052,9.726028430160692,0.08368726823238566,-0.38,-0.5422222222222223,0.28555555555555556,0.1351079545573886,0.05072727198325794,0.8168151686288049
1592290810.121588,0.8933122432598328,9.821640304074792,0.10109353604986071,-0.38,-0.5422222222222223,0.28555555555555556,0.06613007746796246,0.020669592583391697,0.7225119928345896
1592290810.131588,1.1309520408527658,9.689047959147235,0.10817465985787239,-0.38,-0.5422222222222223,0.28555555555555556,0.00376107375267673,0.009916420376665904,0.6301910917487549
1592290810.141588,1.520299976564331,9.687091633466137,0.20803609093039607,-0.39187407233809857,-0.5451907403067469,0.2929768507668672,-0.058221271555864276,0.01844109897496235,0.5231506325559467
1592290810.151588,1.6389479719076967,9.866087143471407,0.33427834312741866,-0.4066666666666667,-0.5488888888888889,0.3022222222222222,-0.09633457000759872,0.03575742366943306,0.45282000842626563
1592290810.161588,1.4843828336777691,9.523235459888886,0.41020666147776375,-0.4066666666666667,-0.5488888888888889,0.3022222222222222,-0.15645088038112165,0.09976623746635487,0.3783385501815281
1592290810.171588,1.2778607001082642,9.511010465535907,0.9072508119812343,-0.4066666666666667,-0.5488888888888889,0.3022222222222222,-0.17503539232710472,0.16363107339209126,0.3400264022118745
1592290810.181588,1.1503296995479926,9.439107684126563,0.8749274129220952,-0.4066666666666667,-0.5488888888888889,0.3022222222222222,-0.1685000305947429,0.18541054706407098,0.3020881974683332
1592290810.191588,1.4006606881405563,9.533556002928258,0.8075054904831624,-0.4142984382625671,-0.5412571172929884,0.2933184886936717,-0.15904588311448373,0.1913116355059693,0.24247946500535147
1592290810.201588,1.561545867879112,9.711509953005006,1.156836434493562,-0.4266666666666667,-0.5288888888888889,0.2788888888888889,-0.14966996047278305,0.1916411262556896,0.1927855545771113
1592290810.211588,1.3893462285666018,9.30972041557564,0.9213390770616888,-0.4266666666666667,-0.5288888888888889,0.2788888888888889,-0.10610960689205926,0.195449038032604,0.15098661931641447
1592290810.221588,1.3924774988157271,9.692593083846518,1.0985495026054002,-0.4266666666666667,-0.5288888888888889,0.2788888888888889,-0.06662748946675061,0.2055578888883215,0.14710672129340482
1592290810.231588,1.2049976392823418,9.6780738359846,1.1572977046560615,-0.4266666666666667,-0.5288888888888889,0.2788888888888889,-0.03469647313987315,0.200460935710811,0.12057784529133475
1592290810.2415879,1.099142813815066,9.599285741365584,0.8052856655419494,-0.431380959000476,-0.5391746176172002,0.2788888888888889,-0.02189452918043764,0.18406988871884408,0.05881131639174584
1592290810.2515879,1.0405158385338495,9.610504779208469,0.76791452721384,-0.4388888888888889,-0.5555555555555556,0.2788888888888889,-0.01773946433672746,0.16649357385384567,-7.238311535643326e-06
1592290810.2615879,1.1077133363948244,9.614144358302493,0.8037737378103136,-0.4388888888888889,-0.5555555555555556,0.2788888888888889,0.007840580141771037,0.10311195912340504,-0.18078380194875954
1592290810.2715878,1.3050126156433979,9.902020185029437,0.5329924306139613,-0.4388888888888889,-0.5555555555555556,0.2788888888888889,0.017835496139781835,0.05356226849636467,-0.3237956406382306
1592290810.2815878,1.5739211002406337,9.919691742925895,0.5233079233484974,-0.4388888888888889,-0.5555555555555556,0.2788888888888889,0.01013637447530795,0.05361847245683882,-0.4346286335446839
1592290810.2915878,1.6706931551381612,9.943098789958462,0.3898240924688459,-0.4388888888888889,-0.5515962514799431,0.2745996428069753,0.008864906155791769,0.052936045829017016,-0.5290247180301864
1592290810.3015878,0.866886602238754,9.507663213515956,0.4865292359034972,-0.4388888888888889,-0.5422222222222223,0.2644444444444444,0.008517474925887992,0.06618831731961063,-0.6198730295397303
1592290810.3115878,0.847537987227483,9.433693019158776,0.7656155031931293,-0.4388888888888889,-0.5422222222222223,0.2644444444444444,0.012281795339620783,0.09890751596462269,-0.6824547416903188
1592290810.3215878,0.7419143594893128,9.568085640510686,0.4861433079902453,-0.4388888888888889,-0.5422222222222223,0.2644444444444444,-0.0027519574747344525,0.10744057282596549,-0.7520186788605573
1592290810.3315878,0.8257232803399969,9.444988194553753,0.2103557374468755,-0.4388888888888889,-0.5422222222222223,0.2644444444444444,-0.03443920877828493,0.10674447990908181,-0.8167226751200924
1592290810.3415878,1.02,9.368540199174156,0.26487976682050035,-0.4388888888888889,-0.5500272582516935,0.2540377297384827,-0.05017848095252036,0.08705370157995825,-0.8821898547148591
1592290810.3515878,1.0147408635478987,9.828925250486558,0.5445044330714337,-0.4388888888888889,-0.5688888888888889,0.2288888888888889,-0.08429826745746472,0.09832691902729984,-0.9368282471889995
1592290810.3615878,0.7621053200984502,9.806172341979282,0.6993303221269576,-0.4388888888888889,-0.5688888888888889,0.2288888888888889,-0.09545552663244479,0.08869655346843602,-1.009227240168915
1592290810.3715878,0.71489623099882,9.5099467851276,0.6196381388676802,-0.4388888888888889,-0.5688888888888889,0.2288888888888889,-0.0910771142858415,0.10905753694444936,-1.0275643385642885
1592290810.3815877,0.6619382461179427,9.580816264249169,1.2744642312180234,-0.4388888888888889,-0.5688888888888889,0.2288888888888889,-0.09835285165861017,0.17458861719737606,-1.009566640510495
1592290810.3915877,0.11546423927178154,9.627477243172951,1.1471443433029909,-0.4405135096084381,-0.5770119924866349,0.22374425661031644,-0.09284884941562876,0.20826612243271217,-0.9748912157288976
1592290810.4015877,-0.10931050719763216,9.736385936589084,0.9819666801201848,-0.44555555555555554,-0.6022222222222222,0.20777777777777778,-0.08324588604480404,0.21130215063977367,-0.9304731052342281
1592290810.4115877,-0.3559079327331408,9.493246863549224,1.1535062729015506,-0.44555555555555554,-0.6022222222222222,0.20777777777777778,-0.04050953071699341,0.18794877528931797,-0.9045059312733515
1592290810.4215877,-0.6522227990278204,9.347908869959177,1.01725571627457,-0.44555555555555554,-0.6022222222222222,0.20777777777777778,-0.004256451108255125,0.11491529966096711,-0.8909378369612818
1592290810.4315877,-0.18479856158956542,9.319857987444385,0.939715974888767,-0.44555555555555554,-0.6022222222222222,0.20777777777777778,0.019822643199276884,0.03786998539567571,-0.8855669062727816
1592290810.4415877,0.08684952675294572,9.717801815723393,1.1353486575236624,-0.4280267422144957,-0.6047874144184748,0.20820530981048657,0.03147037325681682,-0.01368964186571272,-0.8852518481885445
1592290810.4515877,-0.19,10.13,1.0,-0.4,-0.6088888888888889,0.2088888888888889,0.04690572364734761,-0.05999569303730508,-0.8879362569521151
1592290810.4615877,0.059319455564451576,9.509891913530826,0.11397518014411531,-0.4,-0.6088888888888889,0.2088888888888889,0.0283987182858655,-0.06466272826065611,-0.8720757607809132
1592290810.4715877,-0.11453477309485302,10.06985705451432,0.4693414042431737,-0.4,-0.6088888888888889,0.2088888888888889,0.03936040426371096,-0.03695250246412169,-0.8560477996656832
1592290810.4815876,-0.5846658082169731,9.877176773570481,0.8510245060560944,-0.4,-0.6088888888888889,0.2088888888888889,0.04169141116561502,0.019241129539422617,-0.8265676648610841
1592290810.4915876,-0.9550852881594786,9.764728868794222,0.5641751563371598,-0.3927274269366398,-0.6219795204029372,0.21143428946106496,-0.006306712741079156,0.05771475149152067,-0.7794881542441318
1592290810.5015876,-0.9663089794956399,9.77593754419043,0.9902448739099693,-0.37777777777777777,-0.6488888888888888,0.21666666666666667,-0.03957394222204783,0.06187332055012257,-0.7474438850758783
1592290810.5115876,-0.6918606767403432,9.784629421202615,0.8931693766613186,-0.37777777777777777,-0.6488888888888888,0.21666666666666667,-0.040731228020309845,0.01857714157656211,-0.7469748448209552
1592290810.5215876,-0.6875992626205332,10.137468803176404,0.994931934203063,-0.37777777777777777,-0.6488888888888888,0.21666666666666667,-0.02873748219423661,-0.0284684869119392,-0.7518145896568658
1592290810.5315876,-1.6587532630471298,9.961321609972277,0.7608468745573386,-0.37777777777777777,-0.6488888888888888,0.21666666666666667,-0.009285824789267236,-0.020163339386363197,-0.7297317333104866
1592290810.5415876,-3.351324964704438,8.617132772696582,1.0609253575593887,-0.37629324985165635,-0.6503734168150103,0.20664610316534693,-0.011330987176416826,0.05975246408773671,-0.5425732785492866
1592290810.5515876,-0.6716172976397909,9.784639632504357,1.2270362743545065,-0.37333333333333335,-0.6533333333333333,0.18666666666666668,0.0012373577116200074,0.08526726853136798,-0.10724820860299109
1592290810.5615876,-0.13639845479813445,10.447725538229614,0.37271682291421304,-0.37333333333333335,-0.6533333333333333,0.18666666666666668,0.03636710709525625,-0.022907446432425576,0.04619522162639335
1592290810.5715876,-0.7140681458762639,9.869019264867973,0.5492059232280635,-0.37333333333333335,-0.6533333333333333,0.18666666666666668,-0.018307211187316638,-0.027477623322239762,-0.046809406221903146
1592290810.5815876,-0.9140031260510852,9.48701719328097,0.7174882773084305,-0.37333333333333335,-0.6533333333333333,0.18666666666666668,-0.015437727817069622,-0.02732386185461687,-0.12942528209701
1592290810.5915875,-0.8603028013659303,9.635496358526488,0.6419854341059502,-0.36936374106420344,-0.6603564581171786,0.18055960163723606,-0.033898956847067716,-0.017969649637498655,-0.09235352299450875
1592290810.6015875,-0.65,9.65,0.7,-0.35888888888888887,-0.6788888888888889,0.16444444444444445,-0.028361600344907853,-0.025089107997418484,-0.03381575425739013
1592290810.6115875,-0.5418893218168442,9.90122285496308,0.7967777444756274,-0.35888888888888887,-0.6788888888888889,0.16444444444444445,-0.037160946860839456,-0.019222768005765042,-0.0260952307956607
1592290810.6215875,-0.6340383295871288,10.118843250916834,0.7294250561930675,-0.35888888888888887,-0.6788888888888889,0.16444444444444445,-0.02876030267373798,0.02158515769518102,-0.08869178213037698
1592290810.6315875,-0.6797893236179313,10.263263107872643,0.5405266909551719,-0.35888888888888887,-0.6788888888888889,0.16444444444444445,-0.02037558032309167,0.05742935508556533,-0.18375889480071922
1592290810.6415875,-0.7203307787841153,10.247851452458121,0.36727258958592074,-0.36412302224376253,-0.6824701380264341,0.16444444444444445,-0.016894346240698452,0.06166351128304186,-0.30514396015507983
1592290810.6515875,-0.583308952603862,10.215973522527793,0.46251828554710356,-0.38,-0.6933333333333334,0.16444444444444445,-0.03183052521042723,0.04562643892188328,-0.4588563888992719
1592290810.6615875,-0.56,10.35,0.48,-0.38,-0.6933333333333334,0.16444444444444445,-0.04581489286485115,0.039269908169872414,-0.5268712679457882
1592290810.6715875,-0.6951833249623305,10.301265695630336,0.674203917629332,-0.38,-0.6933333333333334,0.16444444444444445,-0.0966475525411005,0.05688345583993134,-0.6772010084904931
1592290810.6815875,-0.9547629746579225,9.96151242814347,0.7199548619544976,-0.38,-0.6933333333333334,0.16444444444444445,-0.14991659002840127,0.07325556654173324,-0.7685973954122617
1592290810.6915874,-1.0858773678963112,9.726822033898305,0.6509571286141574,-0.3718159410656918,-0.6981308851224105,0.15908247479782875,-0.19841075424968752,0.06598656179640949,-0.840113713414793
1592290810.7015874,-1.25,9.6,0.83,-0.3477777777777778,-0.7122222222222222,0.14333333333333334,-0.22689280275926282,0.0643590161672909,-0.8726646259971648
1592290810.7115874,-1.346598794591953,9.464494217299235,0.8178139762176251,-0.3477777777777778,-0.7122222222222222,0.14333333333333334,-0.2496368348392473,0.062217097636182724,-0.8945607277148633
1592290810.7215874,-1.619846659100239,9.276614909082129,0.7850757045229528,-0.3477777777777778,-0.7122222222222222,0.14333333333333334,-0.26238672580009903,0.07780130406479202,-0.8902187013664434
1592290810.7315874,-1.51,9.38,1.05,-0.3477777777777778,-0.7122222222222222,0.14333333333333334,-0.2694352032766246,0.10035643198967394,-0.8704829644321719
1592290810.7415874,-1.8559948112363571,9.565703166935052,0.9093367925090953,-0.34638078765829705,-0.7133863806551228,0.14030652140779176,-0.26649545107567774,0.10702584048566208,-0.8690912069612734
1592290810.7515874,-1.69,9.21,1.02,-0.3411111111111111,-0.7177777777777777,0.1288888888888889,-0.27598018797160334,0.09926560120717749,-0.8803004414746399
1592290810.7615874,-1.914380158490773,9.257584523842167,1.3247182538594424,-0.3411111111111111,-0.7177777777777777,0.1288888888888889,-0.24893602550037058,0.04199083837885416,-0.862975408089725
1592290810.7715874,-1.7965399755667164,9.356458531288176,1.2765942717524095,-0.3411111111111111,-0.7177777777777777,0.1288888888888889,-0.22510633969548927,0.034921392027568096,-0.805811668894678
1592290810.7815874,-1.8823281783408052,9.556030929955167,1.3325572738863982,-0.3411111111111111,-0.7177777777777777,0.1288888888888889,-0.1984562310723753,0.03320380236096187,-0.7478600887406908
1592290810.7915874,-1.8925296074517632,9.659383898868928,1.382097139055223,-0.33388230945516373,-0.7216047904191616,0.12357359355363347,-0.17932082318488146,0.06667509014806448,-0.6804296146701772
1592290810.8015873,-2.03,9.53,1.56,-0.30333333333333334,-0.7377777777777778,0.10111111111111111,-0.13962634015954636,0.09490227807719166,-0.6424993308904126
1592290810.8115873,-1.9135275014175988,9.601477911232537,1.5825027063250683,-0.30333333333333334,-0.7377777777777778,0.10111111111111111,-0.13479820919162477,0.1139759314316325,-0.6822493418089295
1592290810.8215873,-2.012213440461115,9.306640321383346,1.4661067202305575,-0.30333333333333334,-0.7377777777777778,0.10111111111111111,-0.11638582380674148,0.11156439556996295,-0.7587762907281834
1592290810.8315873,-2.0857539375161376,9.342067303554524,1.4691062053533006,-0.30333333333333334,-0.7377777777777778,0.10111111111111111,-0.10612143371357251,0.12217304763960307,-0.8319625271407459
1592290810.8415873,-2.29155134569277,9.08878600614595,1.4262226049370208,-0.30060521467673734,-0.7400861858718205,0.09565487379791908,-0.06828638271365312,0.12279112246145524,-0.902249483311145
1592290810.8515873,-2.47,8.74,1.41,-0.28888888888888886,-0.75,0.07222222222222222,-0.05235987755982988,0.12544553998709243,-0.940296134511945
1592290810.8615873,-2.5595795660036167,8.792891048824593,1.1066229656419528,-0.28888888888888886,-0.75,0.07222222222222222,-0.01161498075051493,0.0881193522192136,-0.9867331263967416
1592290810.8715873,-2.3980988559951095,8.633574360317876,0.9018251681075888,-0.28888888888888886,-0.75,0.07222222222222222,-0.018021522859441273,0.0658272700185369,-0.9941159782382705
1592290810.8815873,-2.3919941489826217,9.030380316129596,1.0361287223823248,-0.28888888888888886,-0.75,0.07222222222222222,-0.023348884721316375,0.04252006187283332,-0.984793094979989
1592290810.8915873,-2.4598516065207106,9.457180523893502,1.479183835863908,-0.28846844069756883,-0.7501978579723859,0.07211504915384652,-0.02950099277994351,0.047124251083774,-0.9201593766841037
1592290810.9015872,-2.441810830573358,9.114405780893803,1.379959568153469,-0.23735290884673654,-0.7742522259021893,0.05908559985853633,-0.03540482290299166,0.0736914866374907,-0.8591531320792727
1592290810.9115872,-2.659685606160849,9.529356921692646,1.589685606160849,-0.23222222222222222,-0.7766666666666666,0.057777777777777775,-0.041443775405829573,0.09923286502522732,-0.8072802514112777
1592290810.9215872,-2.754384984565467,9.143021563281584,1.3917915324125187,-0.23222222222222222,-0.7766666666666666,0.057777777777777775,-0.012623316695415266,0.12397553238384897,-0.7588244971597291
1592290810.9315872,-2.9071152474950277,9.235256501669982,1.1024516831162983,-0.23222222222222222,-0.7766666666666666,0.057777777777777775,-0.003837168289012095,0.12542810110416588,-0.7212804260469861
1592290810.9415872,-3.0015566480279205,9.172295567981386,1.2677241340488612,-0.23222222222222222,-0.7766666666666666,0.057777777777777775,0.017625245636687256,0.09623921816521477,-0.6955255293361469
1592290810.9515872,-3.110359592030124,9.172157552180742,0.8996341737113788,-0.22666666666666666,-0.7833333333333333,0.051111111111111114,0.019362416402338968,0.0628793315897323,-0.6232944961624209
1592290810.9615872,-3.035364771286453,8.717798693065445,1.261704379206086,-0.22666666666666666,-0.7833333333333333,0.051111111111111114,0.01045619767084199,0.02618063032386171,-0.549966016396412
1592290810.9715872,-3.0626290927341975,8.987966106698945,1.3943594815623985,-0.22666666666666666,-0.7833333333333333,0.051111111111111114,-0.006799955239250368,-0.014164890680364728,-0.4806530662359309
1592290810.9815872,-2.947052936140061,8.810474151929379,1.3283159635086061,-0.22666666666666666,-0.7833333333333333,0.051111111111111114,-0.04011952013506503,-0.0371283745950478,-0.4144642008347856
1592290810.9915872,-2.831476779545924,8.632982197159812,1.2622724454548138,-0.22666666666666666,-0.7833333333333333,0.051111111111111114,-0.07343908503087969,-0.060091858509730874,-0.3482753354336402
1592290811.0015872,-2.782394587078833,8.8153222207851,1.1947891741576666,-0.21623795511867036,-0.7833333333333333,0.051111111111111114,-0.08083516048935865,-0.04147326219206106,-0.2980337099447116
1592290811.0115871,-2.76,9.032729766803842,1.1377914951989025,-0.20777777777777778,-0.7833333333333333,0.051111111111111114,-0.058506836207971785,-0.0035971978067510027,-0.23196239767160576
1592290811.0215871,-2.8743263847230556,9.094309638072385,1.0814644571085783,-0.20777777777777778,-0.7833333333333333,0.051111111111111114,0.010921095258402643,0.03600472292720481,-0.15847351745487376
1592290811.0315871,-3.0978201081237984,9.103569536664127,1.2322343166067995,-0.20777777777777778,-0.7833333333333333,0.051111111111111114,0.06263508320429252,0.06490591576282576,-0.12383753327357457
1592290811.041587,-3.523930916875295,8.685067849497479,1.3539802619643702,-0.20777777777777778,-0.7833333333333333,0.051111111111111114,0.09500611300908382,0.07984639105734481,-0.10308687314229809
1592290811.051587,-3.572062876788375,9.2693207826485,1.4919056848174372,-0.19555555555555557,-0.8033333333333333,0.03666666666666667,0.17697665727430267,-0.057825675273140156,-0.1472052115015854
1592290811.061587,-3.6292521207281085,9.171282078751814,1.4061218189078373,-0.19555555555555557,-0.8033333333333333,0.03666666666666667,0.1885622178503467,-0.12511104631093417,-0.1521067948222194
1592290811.071587,-3.686441364667842,9.073243374855128,1.3203379529982373,-0.19555555555555557,-0.8033333333333333,0.03666666666666667,0.2001477784263907,-0.1923964173487282,-0.1570083781428534
1592290811.081587,-3.1610528961977584,9.445741698963024,1.4302386089871164,-0.19555555555555557,-0.8033333333333333,0.03666666666666667,0.16199091917667946,-0.2930628928137474,-0.17455895340224561
1592290811.091587,-3.354358856185189,9.498461506232324,0.9733336126531895,-0.19555555555555557,-0.8033333333333333,0.03666666666666667,0.11694268142698436,-0.2796442688032,-0.12471834993449785
1592290811.101587,-2.85,9.46,1.33,-0.1688888888888889,-0.81,0.03,0.04908738521234052,-0.2814343418840856,-0.08726646259971647
1592290811.111587,-2.85,9.46,1.33,-0.1688888888888889,-0.81,0.03,0.04908738521234052,-0.2814343418840856,-0.08726646259971647
1592290811.121587,-2.584633519074153,9.238139734247751,0.9714316330904416,-0.1688888888888889,-0.81,0.03,-0.07824712021036516,-0.1644695085977736,0.010705384310346702
1592290811.131587,-2.757625744741215,9.228262675799456,1.2538128723706075,-0.1688888888888889,-0.81,0.03,-0.07949001028362737,-0.12739480370795644,0.026012708713251266
1592290811.141587,-2.9611519740400216,8.734915569977765,1.3781876089177334,-0.1686158016679019,-0.8092899732254338,0.030327704665184384,-0.05352274866622296,-0.10663331393238955,0.04568923199050191
1592290811.151587,-2.79,8.83,1.73,-0.16333333333333333,-0.7955555555555556,0.03666666666666667,-0.03381575425739013,-0.10144726277217041,0.0643590161672909
1592290811.161587,-3.02766358073121,9.034813274752864,1.448317903656049,-0.16333333333333333,-0.7955555555555556,0.03666666666666667,0.013146025734107414,-0.11266649074720632,0.11626000194493454
1592290811.171587,-3.074752803323168,8.986715009484477,1.3364535260643025,-0.16333333333333333,-0.7955555555555556,0.03666666666666667,0.023314920067580503,-0.12112344353974039,0.2158068849375132
1592290811.181587,-3.23569185648646,9.19708397692834,1.253245478541402,-0.16333333333333333,-0.7955555555555556,0.03666666666666667,0.02674332317955604,-0.12283078799548161,0.30774457463702376
1592290811.191587,-2.719041353015935,8.885453514517549,1.3188518916805163,-0.16333333333333333,-0.7955555555555556,0.03666666666666667,0.013324792870557448,-0.17471577185694281,0.34621102818948635
1592290811.201587,-2.68,8.57,1.42,-0.17777777777777778,-0.7955555555555556,0.015555555555555555,0.074176493209759,-0.13199052468207118,0.4974188368183839
1592290811.211587,-3.032062359838967,8.527378887357813,1.3062038312933992,-0.17777777777777778,-0.7955555555555556,0.015555555555555555,0.198392295454859,-0.11236184837824521,0.6386487226909152
1592290811.221587,-2.56,8.99,1.58,-0.17777777777777778,-0.7955555555555556,0.015555555555555555,0.32506757318394386,-0.1308996938995747,0.7210391472301574
1592290811.231587,-2.496993150004964,8.590774545815547,1.3847608458254739,-0.17777777777777778,-0.7955555555555556,0.015555555555555555,0.4692013738477938,-0.14350015933807378,0.8340805345001355
1592290811.241587,-2.3970594658989377,8.948870247195472,1.5429891789933485,-0.17777777777777778,-0.7955555555555556,0.015555555555555555,0.5827542267968876,-0.1634854614571143,0.8931280180336643
1592290811.251587,-1.81,9.39,1.38,-0.18222222222222223,-0.7833333333333333,0.03666666666666667,0.6763150851478027,-0.17889624832941878,0.9337511498169663
1592290811.261587,-1.7313449911888301,9.533386742578283,0.9887108580723871,-0.18222222222222223,-0.7833333333333333,0.03666666666666667,0.7219657840990189,-0.14642370793430887,0.9589634032496109
1592290811.271587,-1.5084651650078575,9.612325825039287,0.6631639601885804,-0.18222222222222223,-0.7833333333333333,0.03666666666666667,0.7103999757585484,-0.08502937380271615,0.9602710803808443
1592290811.281587,-1.4443470765949884,9.584765061311534,0.47135773947041054,-0.18222222222222223,-0.7833333333333333,0.03666666666666667,0.6644426705642474,-0.015075099188948088,0.9440428193558027
1592290811.2915869,-1.0791068064688112,9.681665541140926,0.545896570108406,-0.18222222222222223,-0.7833333333333333,0.03666666666666667,0.6294796926552249,0.0076914910773921985,0.9042012863897072
1592290811.3015869,-1.4,9.74,0.37,-0.21666666666666667,-0.7566666666666667,0.022222222222222223,0.5748678223756323,0.11235557059713495,0.892299580082101
1592290811.3115869,-1.3,9.959298693018809,0.5615843162256933,-0.21666666666666667,-0.7566666666666667,0.022222222222222223,0.5196575973742584,0.18153691424025017,0.8732213426317764
1592290811.3215868,-1.2905958158995816,9.859392707710699,0.30984817692767486,-0.21666666666666667,-0.7566666666666667,0.022222222222222223,0.4644976811663832,0.19416787928436915,0.789402144829377
1592290811.3315868,-1.2785363790186126,9.373046045289268,0.1841307556611585,-0.21666666666666667,-0.7566666666666667,0.022222222222222223,0.41621677995620654,0.19529436814190995,0.7284909976717898
1592290811.3415868,-1.6333840947546532,9.614644490045722,0.21433056125571515,-0.21666666666666667,-0.7566666666666667,0.022222222222222223,0.38080318657065915,0.20353008753389773,0.7111959869486155
1592290811.3515868,-1.44,9.59,0.21,-0.24333333333333335,-0.75,0.05333333333333334,0.30325095753401476,0.19198621771937624,0.7134033317526822
1592290811.3615868,-1.355052956054379,9.683441748340183,0.15903177363262724,-0.24333333333333335,-0.75,0.05333333333333334,0.25784616082921297,0.19569273173609475,0.7235962452986582
1592290811.3715868,-1.093151364120136,9.19458064013706,0.011344910832489681,-0.24333333333333335,-0.75,0.05333333333333334,0.2006692851154416,0.2078170682865978,0.754520343802653
1592290811.3815868,-1.1554467662044845,9.945063823743498,0.3575319118717489,-0.24333333333333335,-0.75,0.05333333333333334,0.16230633248398785,0.26139864638948446,0.7793777078224994
1592290811.3915868,-0.8427004811191792,9.900385783017025,0.3351928915085128,-0.24333333333333335,-0.75,0.05333333333333334,0.1306278141020448,0.2873912768567198,0.7939985624603191
1592290811.4015868,-0.78,9.66,0.1,-0.26222222222222225,-0.7477777777777778,0.06,0.11235557059713495,0.3141592653589793,0.7777623479199731
1592290811.4115868,-0.915188960006523,9.876302336010436,0.2442015573402911,-0.26222222222222225,-0.7477777777777778,0.06,0.0926931333932953,0.3387373118637789,0.7463024483938296
1592290811.4215868,-1.0129227243429062,10.104154551314188,0.09198811143737019,-0.26222222222222225,-0.7477777777777778,0.06,0.06491415786609629,0.3433123293332986,0.6702686811341885
1592290811.4315867,-1.1423706351388505,9.842939235633763,0.12159747044267254,-0.26222222222222225,-0.7477777777777778,0.06,0.0478167188133511,0.2980330853071115,0.5705609453147324
1592290811.4415867,-1.2653819081660709,9.57385207588672,0.23692053890569154,-0.26222222222222225,-0.7477777777777778,0.06,0.024334434251221736,0.2678415765843737,0.5168871520298653
1592290811.4515867,-1.19,9.61,0.35,-0.28888888888888886,-0.7355555555555555,0.03888888888888889,-0.002181661564992912,0.2574360646691636,0.5061454830783556
1592290811.4615867,-1.0657196894286283,9.476842524387816,0.6340692813059925,-0.28888888888888886,-0.7355555555555555,0.03888888888888889,-0.009928449475248452,0.27196129200089275,0.5361642862305958
1592290811.4715867,-1.19,9.489735429447853,0.2875661426380368,-0.28888888888888886,-0.7355555555555555,0.03888888888888889,-0.0020114022454377108,0.2811399890607797,0.580425862444404
1592290811.4815867,-1.19,9.64,0.25,-0.28888888888888886,-0.7355555555555555,0.03888888888888889,0.017453292519943295,0.29343348049154666,0.5988660995905543
1592290811.4915867,-1.086951870027738,9.619390374005548,0.25686987533148414,-0.28888888888888886,-0.7355555555555555,0.03888888888888889,0.036937358377032735,0.3099199977552377,0.5996154867389039
1592290811.5015867,-0.98,9.97,0.23,-0.3088888888888889,-0.7088888888888889,0.03111111111111111,0.0839939702522271,0.34143003492139073,0.5835944686356039
1592290811.5115867,-1.0040019734407761,9.841989474982528,0.0539855281009744,-0.3088888888888889,-0.7088888888888889,0.03111111111111111,0.09272133407551413,0.3379390893920759,0.5661397409890299
1592290811.5215867,-1.0130629940224651,9.658423507258435,0.18792800683146854,-0.3088888888888889,-0.7088888888888889,0.03111111111111111,0.07581764765627641,0.3294947635713227,0.5591637857259015
1592290811.5315866,-0.8844908147402071,9.814546867815464,0.3348676402969062,-0.3088888888888889,-0.7088888888888889,0.03111111111111111,0.06579975544672355,0.31046076837317227,0.5511494719582591
1592290811.5415866,-1.014420612595718,9.598601343959993,0.4269780434442882,-0.3088888888888889,-0.7088888888888889,0.03111111111111111,0.04388659077016381,0.29944557926277415,0.55604472664382
1592290811.5515866,-0.890645763780263,9.752681343823687,0.36698643569210654,-0.3288888888888889,-0.6944444444444444,0.05333333333333334,0.03471873997062472,0.2558991018471702,0.5709036700178278
1592290811.5615866,-0.919691760521636,9.42023710729105,0.22981821774352895,-0.3288888888888889,-0.6944444444444444,0.05333333333333334,0.026196319562264227,0.23561427614059788,0.5890632790375566
1592290811.5715866,-0.528588949778189,9.714003036557305,0.005291438331791331,-0.3288888888888889,-0.6944444444444444,0.05333333333333334,0.04671332152014762,0.2304212792146557,0.608978041166366
1592290811.5815866,-0.4769700875355781,9.675955820489412,0.1733166854626497,-0.3288888888888889,-0.6944444444444444,0.05333333333333334,0.043172142792848436,0.2681262961613333,0.6484834837127013
1592290811.5915866,-0.04900327587132808,13.81296833324383,0.9391520326513078,-0.3288888888888889,-0.6944444444444444,0.05333333333333334,0.09968427730419173,0.2967918716381016,0.7017195524552711
1592290811.6015866,2.38,9.18,-2.15,-0.36,-0.6733333333333333,0.03888888888888889,0.030543261909900768,0.4112432050011639,0.3337942194439155
1592290811.6115866,-0.5201348466119793,11.298359366220923,-1.5783792186387984,-0.36,-0.6733333333333333,0.03888888888888889,0.10940292779698732,0.384650992085751,-0.05225135425914773
1592290811.6215866,-1.5865582668729912,8.964576598024044,1.2605389834543508,-0.36,-0.6733333333333333,0.03888888888888889,-0.023522108348647656,0.5875193819269966,0.02195713428733153
1592290811.6315866,0.8595131019830028,10.351404922096316,-0.9668130311614731,-0.36,-0.6733333333333333,0.03888888888888889,0.0638700929863614,0.5010509479542954,0.15268975338225999
1592290811.6415865,-0.43264022662889523,9.80929461756374,-0.1350821529745042,-0.36,-0.6733333333333333,0.03888888888888889,-0.03576843406322443,0.5237328890712744,0.08221372205450414
1592290811.6515865,-0.2,10.02,0.23,-0.38333333333333336,-0.6677777777777778,0.03888888888888889,-0.02617993877991494,0.4745113903859583,0.025089107997418484
1592290811.6615865,-0.3578211646937316,9.787025899737825,0.23751529355684436,-0.38333333333333336,-0.6677777777777778,0.03888888888888889,-0.02372056471452401,0.43106244856405185,0.024269316642288173
1592290811.6715865,-0.42885225126132803,9.590860811554004,0.12893833241672845,-0.38333333333333336,-0.6677777777777778,0.03888888888888889,-0.016312381751258244,0.3488749204515219,0.031734252664774414
1592290811.6815865,-0.029192213769961877,9.88961736441735,-0.23872454805783452,-0.38333333333333336,-0.6677777777777778,0.03888888888888889,0.0010398163670257937,0.28249734662177994,0.06674009772003277
1592290811.6915865,0.11081182691800917,9.823299660933575,-0.01766553644524868,-0.38333333333333336,-0.6677777777777778,0.03888888888888889,-0.007801909368866714,0.2776745871294749,0.10130320741488529
1592290811.7015865,0.06,9.9,-0.02,-0.38333333333333336,-0.6533333333333333,0.03888888888888889,0.01308996938995747,0.27270769562411395,0.12326387842209952
1592290811.7115865,-0.12546532883779504,9.814400617459478,0.12979891944591135,-0.38333333333333336,-0.6533333333333333,0.03888888888888889,0.009977488008694479,0.28827010253042895,0.13260132256588847
1592290811.7215865,0.11659599042983254,9.80878145367544,-0.11700217253801942,-0.38333333333333336,-0.6533333333333333,0.03888888888888889,0.00558707669655515,0.26940775476671114,0.15205169562913948
1592290811.7315865,-0.27566062955289716,9.611677025551916,0.1674844616721246,-0.38333333333333336,-0.6533333333333333,0.03888888888888889,-0.021096272205309224,0.2762111654179183,0.1605831024732939
1592290811.7415864,0.3188195232690125,9.866821793416573,0.0012561483163072151,-0.38333333333333336,-0.6533333333333333,0.03888888888888889,-0.014707023875701365,0.2600370542988619,0.17073420914869614
1592290811.7515864,0.17,9.97,0.1,-0.4033333333333333,-0.6533333333333333,0.01888888888888889,-0.04145156973486533,0.29888763440402893,0.1908953869368798
1592290811.7615864,0.09005783343969369,9.824650606253988,0.20901204530950862,-0.4033333333333333,-0.6533333333333333,0.01888888888888889,-0.024803652478753872,0.31949934148302406,0.2265694953428329
1592290811.7715864,0.021988734835355288,9.655966204506067,0.22149155112651647,-0.4033333333333333,-0.6533333333333333,0.01888888888888889,-0.0372028594578931,0.3106636914996449,0.26797087638240036
1592290811.7815864,0.10641680632032559,10.062880296863778,0.3928336126406512,-0.4033333333333333,-0.6533333333333333,0.01888888888888889,-0.023515459893715555,0.24799926850571036,0.2820040182711907
1592290811.7915864,0.1363145261493279,10.027370947701344,0.5684129673556986,-0.4033333333333333,-0.6533333333333333,0.01888888888888889,-0.0343893244926235,0.22189907603829684,0.28941429950270087
1592290811.8015864,-0.10705890962312478,10.026044639590193,0.2043000365898281,-0.3961708338415254,-0.6308226206447941,0.005587104118388423,-0.009565224918597723,0.13441334247054904,0.3086741387173636
1592290811.8115864,-0.05673151611047181,9.971385212888377,0.2625758774453395,-0.39555555555555555,-0.6288888888888889,0.0044444444444444444,-0.01027474885027741,0.08609215627402553,0.3199195877933756
1592290811.8215864,0.18657451923076923,9.993287259615384,0.16640892094017093,-0.39555555555555555,-0.6288888888888889,0.0044444444444444444,-0.015190270245545433,-0.022145044869899502,0.35172059863134775
1592290811.8315864,0.48161856710393536,10.043325933400606,0.1644419778002018,-0.39555555555555555,-0.6288888888888889,0.0044444444444444444,-0.024723883321704738,-0.06901821751557648,0.3660321766845242
1592290811.8415864,0.8753613442120971,9.862964786139266,0.027319327893951417,-0.39555555555555555,-0.6288888888888889,0.0044444444444444444,-0.03799648653351403,-0.1162128948748358,0.37607048168881374
1592290811.8515863,1.0998867657466385,9.540289376425257,0.1197986946606904,-0.41220125291604415,-0.6288888888888889,0.003334731287078539,-0.058884275686608645,-0.10802106866262912,0.37960773987088664
1592290811.8615863,1.4333639922465888,9.575464254494317,0.19092850898863595,-0.4122222222222222,-0.6288888888888889,0.0033333333333333335,-0.06277341230287765,-0.10102885738062488,0.35407668199151104
1592290811.8715863,1.6521282030813442,9.480495729224875,-0.16326494771294006,-0.4122222222222222,-0.6288888888888889,0.0033333333333333335,-0.050423109406718576,-0.06333500352325022,0.29384060091291103
1592290811.8815863,1.5865629671528423,9.47,0.24062219708294613,-0.4122222222222222,-0.6288888888888889,0.0033333333333333335,-0.05376031547929202,-0.018606882101448882,0.24234085469204575
1592290811.8915863,1.5142779876715053,9.81724716643468,0.378528932193279,-0.4122222222222222,-0.6288888888888889,0.0033333333333333335,-0.023053165287005233,0.03709709645493435,0.17763904904221467
1592290811.9015863,0.15465420560747667,9.256606355140187,1.412152523364486,-0.41720498442367604,-0.6179268120456906,-0.002645981308411215,-0.0072984123412368485,0.12193612327151693,0.08087978089904245
1592290811.9115863,0.9083469285189625,9.472782309506321,0.4476089225654307,-0.4177777777777778,-0.6166666666666667,-0.0033333333333333335,0.041583015961681014,0.06310439419295866,0.05969012378497704
1592290811.9215863,1.3546513444159323,10.819766261296442,0.5066038156867121,-0.4177777777777778,-0.6166666666666667,-0.0033333333333333335,0.0293611533089426,0.1016146054393502,0.03405423277109111
1592290811.9315863,1.348164831175118,9.290670700714026,0.856142805276534,-0.4177777777777778,-0.6166666666666667,-0.0033333333333333335,-0.04941641663461986,0.10254828502706292,-0.13679134184729763
1592290811.9415863,1.0750234245126191,9.579726462142965,0.5663548435847061,-0.4177777777777778,-0.6166666666666667,-0.0033333333333333335,-0.03422673221428354,0.04848682656935509,-0.20489287082852126
1592290811.9515862,1.139298395224436,9.47450267462594,0.114225133731297,-0.4654775994693818,-0.6216353980928754,0.003622890663358916,-0.03460717528832223,0.0328174398619044,-0.3390490487456261
1592290811.9615862,0.7805665745407251,9.69415054462689,0.1041509510648675,-0.4711111111111111,-0.6222222222222222,0.0044444444444444444,-0.04136923870076128,0.05713481152483022,-0.3781477697050491
1592290811.9715862,0.8051450889861219,9.833343086462836,0.1,-0.4711111111111111,-0.6222222222222222,0.0044444444444444444,-0.02690928710435651,0.0456563617973818,-0.4217043814260071
1592290811.9815862,0.8313836729791408,9.894402450254233,0.13433959242503102,-0.4711111111111111,-0.6222222222222222,0.0044444444444444444,-0.019628097359434667,0.04894330662998652,-0.4173079568705699
1592290811.9915862,0.8467186092948593,9.656251125641127,0.04984417211542226,-0.4711111111111111,-0.6222222222222222,0.0044444444444444444,-0.013024645961672425,0.05587666543513256,-0.41591614708724806
1592290812.0015862,0.6373545220845992,9.840509464828232,0.16094648282308952,-0.4711111111111111,-0.6174352782321935,0.006359222040455974,-0.01842762186107474,0.04732405814467799,-0.40384039240641867
1592290812.0115862,0.704847156706162,9.947181220517773,0.15854585298815138,-0.4711111111111111,-0.6166666666666667,0.006666666666666667,-0.03393126733397511,0.03723710491542781,-0.39399164506919554
1592290812.0215862,0.5506789137380192,9.915203674121406,0.021960862619808313,-0.4711111111111111,-0.6166666666666667,0.006666666666666667,-0.05143850890768132,0.027639317023270826,-0.3745531290573075
1592290812.0315862,0.34838797486089423,9.969974780833434,0.05248108562507506,-0.4711111111111111,-0.6166666666666667,0.006666666666666667,-0.07144253879271793,0.021545971192544984,-0.35479890172169226
1592290812.0415862,0.17297276926347527,10.233268461434395,0.24842799992269485,-0.4711111111111111,-0.6166666666666667,0.006666666666666667,-0.10901346645203426,0.004159589510326241,-0.3199215705875382
1592290812.0515862,-0.20334356063511544,10.186661041650687,-0.09168021784152802,-0.4544439330793554,-0.6268521643527397,-0.01740814604586945,-0.12708186983275416,-0.04527073255235857,-0.22907212151057849
1592290812.0615861,-0.10110489397072539,9.894374974658396,0.26277906175242266,-0.45111111111111113,-0.6288888888888889,-0.022222222222222223,-0.143561124204603,-0.025068408617529243,-0.12218277811732876
1592290812.0715861,0.29551597156803977,9.712197482230025,0.5863375296166253,-0.45111111111111113,-0.6288888888888889,-0.022222222222222223,-0.125210689547151,-0.06325361232646873,-0.011312679054489808
1592290812.0815861,0.5863457298955238,9.604085114540402,0.35311703249305093,-0.45111111111111113,-0.6288888888888889,-0.022222222222222223,-0.12135202312895864,-0.07407089184003587,-0.015541437226802401
1592290812.091586,0.8455935592131101,9.61919882894784,0.33469956085543934,-0.45111111111111113,-0.6288888888888889,-0.022222222222222223,-0.10132789412822198,-0.07468913577429187,-0.014758988390417524
1592290812.101586,0.843101946802133,9.69490739279967,0.34127315180008205,-0.46371655851099264,-0.6230709900889436,-0.03385801982211284,-0.07201503540172585,-0.043039853497496866,-0.016897775250215193
1592290812.111586,0.675133886594988,9.834866113405011,0.2677502963901721,-0.46555555555555556,-0.6222222222222222,-0.035555555555555556,-0.06354819546137738,-0.027145369286037578,-0.0185041218629279
1592290812.121586,0.449960614846015,9.81992122969203,0.18199606148460148,-0.46555555555555556,-0.6222222222222222,-0.035555555555555556,-0.06436331242112492,0.0021902540726609562,-0.02138114258769734
1592290812.131586,0.5368183319752461,9.741850595723127,0.19525976171074946,-0.46555555555555556,-0.6222222222222222,-0.035555555555555556,-0.09483856800528248,0.0015512393526848538,-0.022648906540311434
1592290812.141586,0.5275008762023443,9.796784337396316,0.16357217960200943,-0.46555555555555556,-0.6222222222222222,-0.035555555555555556,-0.11753673007744647,0.003973658782938041,-0.02621882875154061
1592290812.151586,0.5536389119921141,9.860114591997043,0.28750700797831374,-0.4692804799994524,-0.6229672071110015,-0.040025464888231735,-0.13092469399513512,0.002156661469432509,-0.024704664323619334
1592290812.161586,0.4790529376471131,9.819526468823558,0.41768403563022105,-0.4711111111111111,-0.6233333333333333,-0.042222222222222223,-0.13544098752922015,0.003146176086203375,-0.025267078497078106
1592290812.171586,0.24509348723037552,9.70644487387058,0.41661121846764504,-0.4711111111111111,-0.6233333333333333,-0.042222222222222223,-0.14230692847952503,0.011166843892806462,-0.030432139256677843
1592290812.181586,0.1263631615185546,9.68795460481018,0.433863814430542,-0.4711111111111111,-0.6233333333333333,-0.042222222222222223,-0.13965109939476247,-0.011205988420753024,-0.02729552879762749
1592290812.191586,0.11649921996879875,9.761491419656787,0.44,-0.4711111111111111,-0.6233333333333333,-0.042222222222222223,-0.13711759953621364,-0.02950552616705156,-0.02192620925740614
1592290812.201586,0.12,9.75994423481484,0.48005576518516047,-0.47645187980246584,-0.6349049988312686,-0.03065055672428698,-0.1346060853448401,-0.046483990625684535,-0.019634954084936207
1592290812.211586,0.12,9.770863833056982,0.4733089335544142,-0.4777777777777778,-0.6377777777777778,-0.027777777777777776,-0.13462736447385254,-0.04908738521234052,-0.018724597631359273
1592290812.221586,0.12,9.745492068991117,0.3954920689911163,-0.4777777777777778,-0.6377777777777778,-0.027777777777777776,-0.13674949025542762,-0.05057385843820761,-0.01671005590700975
1592290812.231586,-0.06617252952781125,9.697659296456662,0.43702211063001206,-0.4777777777777778,-0.6377777777777778,-0.027777777777777776,-0.13500768588178344,-0.03827175230922675,-0.02204877806724351
1592290812.241586,-0.3602369952600948,9.76035019299614,0.5047683046339073,-0.4777777777777778,-0.6377777777777778,-0.027777777777777776,-0.1341721862470641,-0.03381575425739013,-0.02399827721492203
1592290812.251586,-0.05518799630066651,9.639806103900245,0.8046181075995791,-0.4777777777777778,-0.6326922572666744,-0.015911563251870042,-0.13001160450816762,-0.07708580434191326,-0.02982309164937707
1592290812.261586,0.14802683916589657,9.607006709791474,0.8559865804170518,-0.4777777777777778,-0.6311111111111111,-0.012222222222222223,-0.1129493061674865,-0.09981467622196778,-0.03905466971220678
1592290812.271586,0.1449957689866723,9.637308017770257,0.7442278400676962,-0.4777777777777778,-0.6311111111111111,-0.012222222222222223,-0.06372844812981013,-0.09003450051722123,-0.08177180925792848
1592290812.281586,-0.027027610008628147,9.670450580001917,0.7123873549995207,-0.4777777777777778,-0.6311111111111111,-0.012222222222222223,-0.02687756433355638,-0.057730396929286415,-0.12785828805593175
1592290812.291586,-0.3415120850569211,9.683085364602919,0.71,-0.4777777777777778,-0.6311111111111111,-0.012222222222222223,-0.009456974455397804,-0.04109106714779502,-0.14358392540318432
1592290812.301586,-1.3010990053772888,9.544980845605032,0.732897761220258,-0.4777777777777778,-0.6158459369642725,-0.023247070217161245,0.020066754847711928,-0.014897682216593428,-0.13241814660411683
1592290812.311586,-1.1489617245930488,9.522503299604049,0.7264980202375715,-0.4777777777777778,-0.6111111111111112,-0.02666666666666667,0.02928974233054276,-0.03076401956935891,-0.09157027714323966
1592290812.321586,-0.3221356699863609,9.66608327543169,0.528619882137986,-0.4777777777777778,-0.6111111111111112,-0.02666666666666667,0.05608232813096463,-0.08322526003971821,-0.012190052942666715
1592290812.331586,-0.27960061223513655,9.777320275505812,0.41511981632945905,-0.4777777777777778,-0.6111111111111112,-0.02666666666666667,0.07387546732371063,-0.08184716184467944,-0.004345896551263204
1592290812.3415859,-0.34609831595238977,9.802683052658733,0.39195084202380515,-0.4777777777777778,-0.6111111111111112,-0.02666666666666667,0.07744898555724837,-0.07364420219668394,-0.008593714196821122
1592290812.3515859,-0.3698421100666241,9.783122813422166,0.37,-0.4777777777777778,-0.6290292354963342,-0.03114619776297243,0.06572160057084736,-0.05960337757654413,-0.013447838610803864
1592290812.3615859,-0.3082666445293043,9.762609520647043,0.35521904129408693,-0.4777777777777778,-0.6377777777777778,-0.03333333333333333,0.05274010689925655,-0.056201678997190266,-0.01308996938995747
1592290812.3715858,-0.272313787001287,9.763537242599742,0.3429255148005148,-0.4777777777777778,-0.6377777777777778,-0.03333333333333333,0.04709138950447136,-0.055246516596023545,-0.013475822701253172
1592290812.3815858,-0.24,9.776387380270563,0.38109904216451074,-0.4777777777777778,-0.6377777777777778,-0.03333333333333333,0.03518077381808791,-0.04896749830990954,-0.01696782057991056
1592290812.3915858,-0.2559711094216036,9.753381484297327,0.4366185157026727,-0.4777777777777778,-0.6377777777777778,-0.03333333333333333,0.0304726408398836,-0.0434919891598239,-0.022028478859980626
1592290812.4015858,-0.34861946016951806,9.718768648547213,0.4768470271791824,-0.4777777777777778,-0.6296662461729862,-0.03333333333333333,0.02883985593271742,-0.036550968177370226,-0.027539408776166036
1592290812.4115858,-0.3772764132370863,9.690365847942251,0.4965447173525827,-0.4777777777777778,-0.6233333333333333,-0.03333333333333333,0.029789436175095045,-0.03058316972961289,-0.027310677382123522
1592290812.4215858,-0.33449422134702395,9.699129333989733,0.44898844269404786,-0.4777777777777778,-0.6233333333333333,-0.03333333333333333,0.0333255107585215,-0.030147993339559493,-0.020615441082673484
1592290812.4315858,-0.35157079171335254,9.722628316685341,0.43894247502801154,-0.4777777777777778,-0.6233333333333333,-0.03333333333333333,0.03903919201133167,-0.028476958424178227,-0.017453292519943295
1592290812.4415858,-0.37945245573957737,9.739452455739578,0.4310950885208452,-0.4777777777777778,-0.6233333333333333,-0.03333333333333333,0.04402932715759441,-0.021599703232407425,-0.01796884400448911
1592290812.4515858,-0.3990006536422398,9.74099934635776,0.41,-0.4657769062547914,-0.6298338054082843,-0.03033311545258673,0.044942085636238804,-0.01134435493273277,-0.014616847280222136
1592290812.4615858,-0.3916183464422901,9.74225443570514,0.42225443570513993,-0.45111111111111113,-0.6377777777777778,-0.02666666666666667,0.03719539424164566,-0.009218487832836795,-0.009817477042468103
1592290812.4715858,-0.3678643014875391,9.75,0.35718580892523477,-0.45111111111111113,-0.6377777777777778,-0.02666666666666667,0.03050625588126794,-0.01090830782496456,-0.0071698783415703495
1592290812.4815857,-0.36,9.76831870373885,0.32221246915923324,-0.45111111111111113,-0.6377777777777778,-0.02666666666666667,0.027695513480448842,-0.009576134096046535,-0.0061202407769412916
