time,acc_x,acc_y,acc_z,mag_x,mag_y,mag_z,gyr_x,gyr_y,gyr_z
1592290862.2415383,-0.5264398852941743,9.72,0.3841099713235436,-0.28,-0.6,0.37444444444444447,-0.001285004918013108,0.031529584221578554,0.002809321217878775
1592290862.2515383,-0.6878864104389999,9.72,0.42447160260975,-0.28,-0.6,0.37444444444444447,0.007520537049740091,0.041215680386107074,0.008973200595306015
1592290862.2615383,-0.7597863024130218,9.751276712198372,0.3961698634048832,-0.28,-0.5955555555555555,0.37444444444444447,0.02945243112740431,0.031634092692397225,0.05235987755982988
1592290862.2715383,-0.6683335989980644,9.763611066833656,0.3447225321644085,-0.28,-0.5955555555555555,0.37444444444444447,0.02958373322273111,0.0288767486905345,0.054985919466365815
1592290862.2815382,-0.5211264059090146,9.79,0.16397371639607664,-0.28,-0.5955555555555555,0.37444444444444447,0.02889609408691528,0.006125854960520878,0.0759103540760595
1592290862.2915382,-0.646671531207903,9.788002918724741,0.2159912438257746,-0.28,-0.5955555555555555,0.37444444444444447,0.009454397420768285,-0.024143509063601958,0.0966466521787478
1592290862.3015382,-0.6074343286933094,9.764460597215985,0.2866182083520431,-0.28,-0.5955555555555555,0.37444444444444447,0.005174282588571676,-0.0258555549964806,0.10435085887670169
1592290862.3115382,-0.41005609650423,9.6529532757166,0.24588785259845392,-0.28,-0.6,0.38333333333333336,-0.012833063355669659,-0.031568846320598525,0.05055949559336172
1592290862.3215382,-0.8731188517980971,9.745627049400634,0.28737622964038056,-0.28,-0.6,0.38333333333333336,-0.01081290484248207,-0.021571804677670735,0.02215682960466999
1592290862.3315382,-1.01,9.7,0.26,-0.28,-0.6,0.38333333333333336,-0.009817477042468103,-0.007635815477475192,0.0370882466048795
1592290862.3415382,-0.9361481727712795,9.798459269108513,0.29154073089148813,-0.28,-0.6,0.38333333333333336,-0.016698597074242538,-0.034572058765180456,0.036039432739482506
1592290862.3515382,-0.8490083726341595,9.763603349053664,0.3263966509463362,-0.28,-0.6,0.38333333333333336,-0.024302979183855294,-0.05168191851180916,0.0369899805031841
1592290862.3615382,-0.7031960335621663,9.791700991609458,0.3031960335621663,-0.28555555555555556,-0.5877777777777777,0.3688888888888889,-0.030936826334096664,-0.07981619652307784,0.044397894525727226
1592290862.3715382,-0.6727465345613546,9.801569448320775,0.26450693087729094,-0.28555555555555556,-0.5877777777777777,0.3688888888888889,-0.03852147789534349,-0.08042187746026615,0.05400710916777358
1592290862.3815382,-0.7403066357129039,9.839846682143548,0.13107322499516347,-0.28555555555555556,-0.5877777777777777,0.3688888888888889,-0.047190038170798636,-0.07311911119472739,0.06778202796837199
1592290862.3915381,-0.7618668444613773,9.83,0.2023335555767216,-0.28555555555555556,-0.5877777777777777,0.3688888888888889,-0.06606077037116835,-0.07521641370714038,0.07757626127003608
1592290862.4015381,-0.8257860748642728,9.83,0.282232593580341,-0.28555555555555556,-0.5877777777777777,0.3688888888888889,-0.08697828960625689,-0.07347328710421634,0.0819340777773462
1592290862.4115381,-0.9635523028331683,9.82101494366662,0.4540597746664781,-0.3055555555555556,-0.5733333333333334,0.38333333333333336,-0.11028462221154689,-0.056501774331006026,0.10562176156645044
1592290862.421538,-1.0312795627522093,9.842985646421821,0.5282939163303877,-0.3055555555555556,-0.5733333333333334,0.38333333333333336,-0.11147157251957934,-0.05115019598001694,0.14578345781274352
1592290862.431538,-1.0535777041624659,9.902507321522878,0.5092668875126026,-0.3055555555555556,-0.5733333333333334,0.38333333333333336,-0.08719288166691089,-0.018977569985973858,0.22150584054556316
1592290862.441538,-1.0,9.84,0.67,-0.3055555555555556,-0.5733333333333334,0.38333333333333336,-0.05017821599483697,0.022907446432425576,0.31306843457648287
1592290862.451538,-0.9467365911799762,9.923699642431465,0.6319547079856973,-0.3055555555555556,-0.5733333333333334,0.38333333333333336,-0.010337279362899666,0.037017778156236705,0.39109026881402675
1592290862.461538,-0.8327215242764422,9.930544304855289,0.6394556951447116,-0.2915042201732639,-0.5960316443354968,0.36063502233116984,0.040382829650685674,0.038268139061057596,0.5089871612295098
1592290862.471538,-0.6107316562332736,10.063467687510181,0.4874654999883642,-0.2911111111111111,-0.5966666666666667,0.36,0.08408883503624864,0.008021011686397517,0.5968741675936045
1592290862.481538,-0.7894260965076513,10.13978856187124,0.41021143812876004,-0.2911111111111111,-0.5966666666666667,0.36,0.08400056005849696,0.017420343488594017,0.7174141002472307
1592290862.491538,-0.6614173544923492,10.199345836388146,0.6177104273585129,-0.2911111111111111,-0.5966666666666667,0.36,0.07644140598528844,0.027163732291721573,0.8547917494399837
1592290862.501538,-0.6995571491236435,9.77278278946465,1.0393057807106212,-0.2911111111111111,-0.5966666666666667,0.36,0.09016620467295129,0.05402386624017269,0.9486434979539262
1592290862.511538,-0.63,9.64,1.17,-0.3055555555555556,-0.5822222222222222,0.36777777777777776,0.17344209441693648,0.08290313946973066,1.064650843716541
1592290862.521538,-0.42224118820660606,9.555007758811794,1.1888871647084902,-0.3055555555555556,-0.5822222222222222,0.36777777777777776,0.26615424737839544,0.10453597516073773,1.1511821864805694
1592290862.531538,-0.16,9.65,0.83,-0.3055555555555556,-0.5822222222222222,0.36777777777777776,0.38069994309126315,0.15271630954950383,1.2457287536109527
1592290862.541538,-0.2013299073425212,9.559074203846453,0.7721381297204704,-0.3055555555555556,-0.5822222222222222,0.36777777777777776,0.44652248843500786,0.19509520860643537,1.3088462628446804
1592290862.551538,-0.1794036032727347,9.501754504090918,0.6911581073636531,-0.3055555555555556,-0.5822222222222222,0.36777777777777776,0.5078906654350984,0.228182587579929,1.358799948907637
1592290862.561538,0.04,9.57,0.46,-0.34444444444444444,-0.5822222222222222,0.36777777777777776,0.56941366846315,0.23125612588924865,1.3897184169004848
1592290862.571538,0.4612981775882125,9.719209771229158,-0.12806203955021328,-0.34444444444444444,-0.5822222222222222,0.36777777777777776,0.57898793972821,0.20732044772659863,1.3868461355209667
1592290862.581538,0.6441912517560778,9.783224039812367,-0.5638688477748411,-0.34444444444444444,-0.5822222222222222,0.36777777777777776,0.5579784257598727,0.19258468503988724,1.3869734568336942
1592290862.591538,0.7676650202065559,9.878132016165246,-0.6771980242478671,-0.34444444444444444,-0.5822222222222222,0.36777777777777776,0.5074567331927441,0.1772960039798831,1.4031140344306658
1592290862.601538,0.6923295913785362,9.81786367310283,-0.5867955096542434,-0.34444444444444444,-0.5822222222222222,0.36777777777777776,0.44417951551354934,0.16086036302424814,1.4129754190040469
1592290862.611538,0.71,9.83,-0.55,-0.36444444444444446,-0.5633333333333334,0.37444444444444447,0.3392483733563978,0.09817477042468103,1.4191708480278893
1592290862.621538,0.6506384222629302,9.68901625287446,-0.5054788166971976,-0.36444444444444446,-0.5633333333333334,0.37444444444444447,0.27368551910958133,0.04556260343649499,1.4029824889546012
1592290862.631538,0.8739810426540284,9.748009478672985,-0.5695734597156398,-0.36444444444444446,-0.5633333333333334,0.37444444444444447,0.1799457205988348,-0.06211014701854228,1.3550031149835953
1592290862.641538,1.151810224025915,9.609937578481864,-0.54112358732643,-0.36444444444444446,-0.5633333333333334,0.37444444444444447,0.10105233315403388,-0.13363970423503652,1.292062510225137
1592290862.651538,1.3731694844310178,9.602304500536862,-0.6785189903364939,-0.36444444444444446,-0.5633333333333334,0.37444444444444447,0.05275923410592683,-0.20191615461339474,1.2221207805692578
1592290862.661538,1.5905936675461743,9.619802110817941,-0.6007915567282321,-0.3977777777777778,-0.5422222222222223,0.37444444444444447,-0.04917804792909154,-0.2880980515652859,1.0851629236087748
1592290862.6715379,1.8768028386861977,9.524399053771267,-0.9824037849149303,-0.3977777777777778,-0.5422222222222223,0.37444444444444447,-0.09288685630481831,-0.34533577681921385,0.9821350181517046
1592290862.6815379,2.137097260307814,9.648490575360064,-0.7924383013414363,-0.3977777777777778,-0.5422222222222223,0.37444444444444447,-0.14773237244879506,-0.33611520251254007,0.8976001569637908
1592290862.6915379,2.729789291555071,9.817106965940603,-0.9276175013628499,-0.3977777777777778,-0.5422222222222223,0.37444444444444447,-0.17623193337750345,-0.3692161639203526,0.8226764670543563
1592290862.7015378,2.6307580468501572,9.463142953043848,-0.7843440624668763,-0.3977777777777778,-0.5422222222222223,0.37444444444444447,-0.21325836223676367,-0.30862053284521135,0.778496364534913
1592290862.7115378,3.32,9.5,-0.32,-0.45111111111111113,-0.5155555555555555,0.37444444444444447,-0.24107360293171679,-0.24870941840919195,0.7112216701876892
1592290862.7215378,2.8583084134809664,9.158749696920715,-0.05235270346722698,-0.45111111111111113,-0.5155555555555555,0.37444444444444447,-0.24983234022901396,-0.17644983570649028,0.6907846164939959
1592290862.7315378,3.2922255561005165,9.360067222526759,0.13843166671475146,-0.45111111111111113,-0.5155555555555555,0.37444444444444447,-0.2042346414204051,-0.0822896986107704,0.6434972895215243
1592290862.7415378,2.676080849850278,8.911627691430201,0.30579423926992727,-0.45111111111111113,-0.5155555555555555,0.37444444444444447,-0.14544695597471816,0.01715215913980453,0.5914348246063036
1592290862.7515378,2.78981327691087,9.202897646125365,0.47587252049722295,-0.45111111111111113,-0.5155555555555555,0.37444444444444447,-0.07082743210012349,0.039302220533701984,0.5484448484591993
1592290862.7615378,3.008170766590389,9.179857694508009,0.5493428203661328,-0.4656443872362065,-0.5082889174930079,0.35472071256038645,0.022682790207197462,0.08359489342991219,0.46404280031849754
1592290862.7715378,2.9406756756756756,9.22491683991684,0.4950831600831601,-0.4666666666666667,-0.5077777777777778,0.35333333333333333,0.06587620076914148,0.11146884536645697,0.412646997629782
1592290862.7815378,3.391603491058441,9.39933430307179,0.041997090784632485,-0.4666666666666667,-0.5077777777777778,0.35333333333333333,0.13917580193869322,0.13269353978036527,0.3119528694603369
1592290862.7915378,2.542664551567383,9.083086940051142,0.21548820911071126,-0.4666666666666667,-0.5077777777777778,0.35333333333333333,0.16123861228378383,0.19115732475760333,0.2443719739714133
1592290862.8015378,3.3800631662775333,9.400181354183633,0.11660621527212178,-0.4666666666666667,-0.5077777777777778,0.35333333333333333,0.18340705306055657,0.19293945823702288,0.20132857498517465
1592290862.8115377,2.45,9.1,0.0,-0.4866666666666667,-0.4955555555555556,0.3466666666666667,0.1908953869368798,0.29343348049154666,0.13308135546456762
1592290862.8215377,2.3695512010113777,9.246270543615676,-0.20477876106194695,-0.4866666666666667,-0.4955555555555556,0.3466666666666667,0.21403106661140797,0.3054002113576819,0.07883217553808775
1592290862.8315377,3.4397783095776573,9.826784568453164,-0.2522744963972019,-0.4866666666666667,-0.4955555555555556,0.3466666666666667,0.19732628563748655,0.33298288070144066,-0.028802252836622147
1592290862.8415377,2.069099983324201,9.386135026323938,-0.4174917216570979,-0.4866666666666667,-0.4955555555555556,0.3466666666666667,0.15871768490748744,0.3856364740588817,-0.131410092627426
1592290862.8515377,2.0832391892158606,9.5271563344978,-0.5301318412378866,-0.4866666666666667,-0.4955555555555556,0.3466666666666667,0.1375042504810904,0.3625399691099216,-0.19566957738984037
1592290862.8615377,2.6146122574684325,9.598664613489374,-0.20537234370187868,-0.48044512883687507,-0.4976294014988194,0.3383712828936112,0.0424068109565932,0.3657179685270329,-0.29822372932476515
1592290862.8715377,2.5412054617435564,9.578241092348712,-0.6441900298941584,-0.48,-0.49777777777777776,0.3377777777777778,0.006723896102304245,0.3514867949544444,-0.36763588500857347
1592290862.8815377,2.7338130453696357,9.390143811254125,-0.49625886025742727,-0.48,-0.49777777777777776,0.3377777777777778,-0.08970713332130974,0.31734542132093524,-0.4681233910877594
1592290862.8915377,2.3317057102611334,9.48531000108354,-0.4188178567558782,-0.48,-0.49777777777777776,0.3377777777777778,-0.1675481805077746,0.29708862053383006,-0.5611478210859003
1592290862.9015377,2.3079456515185015,9.557561956062951,-0.4779456515185014,-0.48,-0.49777777777777776,0.3377777777777778,-0.2384978189189085,0.26452776928841487,-0.6496424933081186
1592290862.9115376,2.2391517951611766,9.4974878324046,-0.31747160894406434,-0.4728693188497802,-0.503889790192252,0.30314304076242427,-0.3390774814069074,0.22688926334923284,-0.7638662009519944
1592290862.9215376,2.1592322602713696,9.605801755919577,-0.2034985367336855,-0.4722222222222222,-0.5044444444444445,0.3,-0.3717591605007987,0.20435956630147953,-0.818236519011786
1592290862.9315376,1.9168099308099307,9.12227024827025,-0.11466259666259666,-0.4722222222222222,-0.5044444444444445,0.3,-0.40542766067071173,0.21813268126892885,-0.8828501529861894
1592290862.9415376,2.281720386880129,9.521845011469246,-0.4215957622910115,-0.4722222222222222,-0.5044444444444445,0.3,-0.37398088773342614,0.19424678891058186,-0.886965119097251
1592290862.9515376,1.50982003257329,9.526840187296417,0.3222086726384365,-0.4722222222222222,-0.5044444444444445,0.3,-0.35239512723965416,0.2364576698638055,-0.8578512461252114
1592290862.9615376,2.0339414792112414,9.152871103914878,0.6832359914416237,-0.48964314398247205,-0.5179940502579721,0.2941930260799167,-0.27752222517214165,0.25469173551729346,-0.8296630710666999
1592290862.9715376,1.5573484365781711,9.444976283185841,0.19580389380530971,-0.4922222222222222,-0.52,0.29333333333333333,-0.22865756746236712,0.19639554237404222,-0.8432530221882509
1592290862.9815376,1.6551105495893872,9.637749526216046,0.4528600758054327,-0.4922222222222222,-0.52,0.29333333333333333,-0.20750333728220052,0.18274447606463762,-0.8603169797028765
1592290862.9915376,1.408429700101151,9.76833128297657,0.18679788949943954,-0.4922222222222222,-0.52,0.29333333333333333,-0.15963340355594519,0.1705350016040962,-0.8935670718327897
1592290863.0015376,1.482333522244262,9.690206250253006,0.11626988624863377,-0.4922222222222222,-0.52,0.29333333333333333,-0.1471773063738322,0.12951446288929605,-0.9207010328652229
1592290863.0115376,1.0088334020749388,9.687008471080935,0.6971778926996415,-0.474216574834932,-0.552010039799627,0.2753276859460431,-0.13918815974337875,0.12533984509798607,-0.9421545510657219
1592290863.0215375,1.0122322623828648,9.733562583668006,0.5172941767068273,-0.4722222222222222,-0.5555555555555556,0.2733333333333333,-0.1174912004608461,0.11024400257639885,-0.9394955348111369
1592290863.0315375,0.7741479581470947,9.15814099959366,0.2446127082486794,-0.4722222222222222,-0.5555555555555556,0.2733333333333333,-0.06186317561244903,0.13227090609078834,-0.8786657466652751
1592290863.0415375,0.9701616562677254,9.203370877562595,0.26084271939064907,-0.4722222222222222,-0.5555555555555556,0.2733333333333333,-0.018922524289383055,0.1429907589322684,-0.8259994136989115
1592290863.0515375,1.21,9.606331207919027,0.3133152004280555,-0.4722222222222222,-0.5555555555555556,0.2733333333333333,0.06864816455507727,0.154524470888038,-0.7530823440252691
1592290863.0615375,0.6022328533230243,9.79945910247737,0.7107074514351986,-0.45099860757635957,-0.5729203311748977,0.2791215918731141,0.10356992157037707,0.16385307299500282,-0.7031622225758436
1592290863.0715375,1.1562458025520483,9.766502686366689,0.6270802552048355,-0.4477777777777778,-0.5755555555555556,0.28,0.13047735411038117,0.14166917537579307,-0.6906755537214703
1592290863.0815375,0.5229023160626936,9.90433562942997,0.5317832185285015,-0.4477777777777778,-0.5755555555555556,0.28,0.1461713248545251,0.0944636643521043,-0.6959919921686435
1592290863.0915375,0.784000959232614,9.756413429256595,0.17951654676258993,-0.4477777777777778,-0.5755555555555556,0.28,0.11886288631545194,0.06541971176845796,-0.7163373264904472
1592290863.1015375,0.6701222253441979,9.72388662545659,0.09056687271705535,-0.4477777777777778,-0.5755555555555556,0.28,0.08800849725114213,0.04836757175555689,-0.7284276178238239
1592290863.1115375,0.4635654034999371,9.776337026312476,0.4847560745310336,-0.4477777777777778,-0.6012983479513758,0.2568314868437618,-0.0017068693299701412,0.02162215305544152,-0.7729348758113718
1592290863.1215374,0.48059050528600716,9.848228484141977,0.3149756803473088,-0.4477777777777778,-0.6088888888888889,0.25,-0.01932660814038843,0.00015627772274861423,-0.7859367164251695
1592290863.1315374,0.3039894748950365,9.678718007706907,0.04211911198021512,-0.4477777777777778,-0.6088888888888889,0.25,-0.05920594334557761,-0.0012035401343544506,-0.7860752037373177
1592290863.1415374,0.4697976286843484,9.680691395647825,-0.21469644302652255,-0.4477777777777778,-0.6088888888888889,0.25,-0.06189131083680073,0.008516022060027686,-0.764942787798797
1592290863.1515374,0.2336521277014526,9.580133448805258,-0.15015569027280243,-0.4477777777777778,-0.6088888888888889,0.25,-0.08106163521070733,0.025434117638876888,-0.7465072312174559
1592290863.1615374,0.21896894570340242,9.737635095874491,-0.015515527148298791,-0.44150845402830685,-0.6276968601373017,0.2643298828559336,-0.12504206852005634,0.032936483657643977,-0.7290320233356432
1592290863.1715374,0.3317868659064097,9.882010224144711,0.0511167911915061,-0.44,-0.6322222222222222,0.2677777777777778,-0.16988280322509908,0.019342578834700426,-0.7426636342495399
1592290863.1815374,0.31895681063122927,9.78791362126246,0.09299667774086379,-0.44,-0.6322222222222222,0.2677777777777778,-0.26924747890940426,-0.010261782205039753,-0.7947967034350774
1592290863.1915374,0.1684008660686669,9.891348592638417,0.2573987008969997,-0.44,-0.6322222222222222,0.2677777777777778,-0.3454002810759332,-0.0387570523735858,-0.8614641253303685
1592290863.2015374,0.06402361953399296,9.714996488988191,0.03767890201085222,-0.44,-0.6322222222222222,0.2677777777777778,-0.41197548565923814,-0.0561379889505179,-0.9181740305349931
1592290863.2115374,-0.30314909514039867,9.700662951281501,-0.08077349419726246,-0.41120933745700256,-0.6429158968810498,0.2455678381017512,-0.4783684627476704,-0.06189410001566817,-0.9472810656881149
1592290863.2215374,-0.3855399137439987,9.577699568719993,0.14676051753600783,-0.4011111111111111,-0.6466666666666666,0.23777777777777778,-0.49713332479853695,-0.044322046245921586,-0.945884722733166
1592290863.2315373,-0.44357524747234134,9.542354031020063,-0.03129214970091576,-0.4011111111111111,-0.6466666666666666,0.23777777777777778,-0.5088059530096849,-0.023146850615593767,-0.9128573893661192
1592290863.2415373,-0.46086909266564685,9.751568714274212,0.14287778761774417,-0.4011111111111111,-0.6466666666666666,0.23777777777777778,-0.5180214959506052,-0.03484994017596982,-0.8919388532936697
1592290863.2515373,-0.2096908639249241,9.806899964512441,0.9003091360750759,-0.4011111111111111,-0.6466666666666666,0.23777777777777778,-0.5066839520096309,-0.04206044953286303,-0.8520122198338423
1592290863.2615373,-0.4884120533660481,9.848199279251649,0.5669122833921179,-0.4011111111111111,-0.6732451140758916,0.22334947775562713,-0.43621513358390074,-0.0379435894201839,-0.7756440853530734
1592290863.2715373,-0.6250199203187251,9.826693227091633,0.6158565737051793,-0.4011111111111111,-0.6855555555555556,0.21666666666666667,-0.4082749284097492,-0.027314228956136357,-0.7332642746849882
1592290863.2815373,-0.3215727666713267,11.154385572487069,0.5564029078708234,-0.4011111111111111,-0.6855555555555556,0.21666666666666667,-0.3598269959555362,-0.030825233965938226,-0.6981317007977318
1592290863.2915373,-1.5611009697661153,10.595009779154104,0.47700676391492136,-0.4011111111111111,-0.6855555555555556,0.21666666666666667,-0.3343257227646348,-0.010675491769275687,-0.6524756633324668
1592290863.3015373,-2.0810377089144136,9.224414161157842,1.0276021786396679,-0.4011111111111111,-0.6855555555555556,0.21666666666666667,-0.2874116192667235,0.03625897755746082,-0.27859357732811824
1592290863.3115373,-0.21510700741962074,10.031073042044518,1.13,-0.3813113859118806,-0.6913304754053312,0.20181687276724375,-0.2407739616978109,-0.09397069240183822,0.048783139647349434
1592290863.3215373,-0.29433011406541865,9.876535908747664,1.1554330114065419,-0.37444444444444447,-0.6933333333333334,0.19666666666666666,-0.23546805674180205,-0.14427952834305832,0.040796750445535546
1592290863.3315372,-0.8949224290780142,9.309559230939715,1.3679019835992907,-0.37444444444444447,-0.6933333333333334,0.19666666666666666,-0.13732005021060467,-0.13966018685935785,-0.025953770296531647
1592290863.3415372,-0.888271989010545,9.392776049452547,1.3226063593390165,-0.37444444444444447,-0.6933333333333334,0.19666666666666666,-0.05033894727291724,-0.1214499552130983,0.005012242060189768
1592290863.3515372,-0.8692720834153059,9.585031805364286,1.141170787155442,-0.37444444444444447,-0.6933333333333334,0.19666666666666666,0.06546706293826665,-0.10342180788850516,0.031506379625506474
1592290863.3615372,-0.870333032462884,9.443721871206698,1.127277226181954,-0.3568146810946151,-0.7050865088998862,0.18711721151884245,0.13489973496747606,-0.1072165893372069,-0.01601734377846659
1592290863.3715372,-0.8265033980777737,9.443496601922226,1.0396501387380868,-0.3477777777777778,-0.7111111111111111,0.18222222222222223,0.18563968553012855,-0.10541390022370223,-0.05246673660137737
1592290863.3815372,-0.9339814083320167,9.677455627534629,0.7391546847843261,-0.3477777777777778,-0.7111111111111111,0.18222222222222223,0.30058796767620277,-0.09307193216158864,-0.10919372975262596
1592290863.3915372,-0.9258866736621196,9.86813221406086,0.5068205666316894,-0.3477777777777778,-0.7111111111111111,0.18222222222222223,0.35695691799018864,-0.10615740828106118,-0.1451113990364855
1592290863.4015372,-0.8691379310344828,9.868275862068966,0.4552155172413793,-0.3477777777777778,-0.7111111111111111,0.18222222222222223,0.380648222666231,-0.13226793423451638,-0.1759481841025857
1592290863.4115372,-0.7920418908978281,9.81261256726935,0.44840837817956564,-0.3574374626281398,-0.7078912161609905,0.1796463062621257,0.39982717455173955,-0.1808814429464008,-0.21865103118332238
1592290863.4215372,-0.743232454074423,9.8,0.442255848641859,-0.36444444444444446,-0.7055555555555556,0.17777777777777778,0.4114487741088247,-0.21322967192894984,-0.23980272255586194
1592290863.4315372,-0.7388857086179046,9.894428543089523,0.45,-0.36444444444444446,-0.7055555555555556,0.17777777777777778,0.4377451965226564,-0.26381690076961584,-0.26583753596382
1592290863.4415371,-0.6681403768975746,10.006672046763217,0.3240621183039609,-0.36444444444444446,-0.7055555555555556,0.17777777777777778,0.4438471206816112,-0.2864453874277576,-0.3043043867724944
1592290863.4515371,-0.7098057476317998,10.074924457412365,0.2849244574123666,-0.36444444444444446,-0.7055555555555556,0.17777777777777778,0.42818757540956437,-0.29887821678345977,-0.3560844411282532
1592290863.4615371,-0.8,10.051867677463818,0.23861474844934527,-0.36831993261352325,-0.7165361053679455,0.18165326594685657,0.3839758184425576,-0.30451920807162436,-0.4147916001034267
1592290863.471537,-0.770850439882698,10.114452590420331,0.17514173998044966,-0.3711111111111111,-0.7244444444444444,0.18444444444444444,0.34340430001796174,-0.30251787233072414,-0.4449837847031621
1592290863.481537,-0.8141855788566504,10.354609177091223,-0.05957640176542789,-0.3711111111111111,-0.7244444444444444,0.18444444444444444,0.23092304517814294,-0.29077213940092955,-0.5187406458594185
1592290863.491537,-0.8935815291014093,10.158793640231005,-0.05879364023100506,-0.3711111111111111,-0.7244444444444444,0.18444444444444444,0.13069820765194387,-0.27996825203899833,-0.5778503736277146
1592290863.501537,-0.9006032986111111,10.09060329861111,0.16844618055555552,-0.3711111111111111,-0.7244444444444444,0.18444444444444444,0.044207527193594436,-0.28240752012775816,-0.6515590498307168
1592290863.511537,-0.8688934240362811,10.164596047942988,0.294127632005183,-0.35545146312493253,-0.7322742684375337,0.1805295324478998,-0.05034556858913251,-0.2897107333390502,-0.761998977374183
1592290863.521537,-0.8798156348120119,10.189144191288946,0.35635939135335315,-0.34444444444444444,-0.7377777777777778,0.17777777777777778,-0.10112337710065869,-0.28664505461396744,-0.8220490589599936
1592290863.531537,-1.0148436492585429,10.088281216419514,0.7220314850634,-0.34444444444444444,-0.7377777777777778,0.17777777777777778,-0.19039266820504747,-0.26650358089641435,-0.9489206838869441
1592290863.541537,-0.996327664750638,9.978757363989791,0.792655329501276,-0.34444444444444444,-0.7377777777777778,0.17777777777777778,-0.2509649173048006,-0.23666105491465378,-1.059498465419919
1592290863.551537,-1.1027222598432813,9.858366644094032,0.7691833220470156,-0.34444444444444444,-0.7377777777777778,0.17777777777777778,-0.2894858908384616,-0.20911286250746894,-1.148860574113674
1592290863.561537,-1.194862261901122,9.764035833307855,0.7605509523955116,-0.32731865078151806,-0.7549035714407042,0.18120293651036307,-0.3110670717613042,-0.17334143928801687,-1.2347813577107416
1592290863.571537,-1.183742941586371,9.66117235745008,0.7299435326909676,-0.3111111111111111,-0.7711111111111111,0.18444444444444444,-0.3099238265884572,-0.1177727667422789,-1.3244642102169482
1592290863.581537,-1.2367281855127898,9.418299784843414,0.6117561558689936,-0.3111111111111111,-0.7711111111111111,0.18444444444444444,-0.28961862384536347,-0.05348304470786054,-1.390280913194495
1592290863.591537,-1.2742831725446782,9.304283172544679,0.5585722758184407,-0.3111111111111111,-0.7711111111111111,0.18444444444444444,-0.27395814860833506,-0.021664109812237063,-1.4168295642611717
1592290863.601537,-1.5019727690809,9.210652454634014,0.655576674746834,-0.3111111111111111,-0.7711111111111111,0.18444444444444444,-0.2110840227164272,0.04154179476798407,-1.455668986836044
1592290863.611537,-1.7781775912563027,9.080907883216087,0.8563551825126053,-0.29717326033500063,-0.7674751500390823,0.18444444444444444,-0.14171331441136403,0.08171254942754452,-1.4520945654583746
1592290863.621537,-1.818867150520669,9.0926601451562,0.8996055538024614,-0.28555555555555556,-0.7644444444444445,0.18444444444444444,-0.10363959513371031,0.08733633910613704,-1.447269120651557
1592290863.631537,-1.9893688911358274,8.998301033591732,0.6053398494551174,-0.28555555555555556,-0.7644444444444445,0.18444444444444444,-0.03581738768852311,0.11138652535447739,-1.408532613041586
1592290863.641537,-2.245682883311526,8.878020459141192,0.6677647198762936,-0.28555555555555556,-0.7644444444444445,0.18444444444444444,0.006289994727836826,0.1332805517792207,-1.3609640032915196
1592290863.651537,-2.3496825139710054,9.06301611727545,0.8565080586377257,-0.28555555555555556,-0.7644444444444445,0.18444444444444444,0.032915401418285785,0.1523527140133117,-1.3405790831581281
1592290863.661537,-2.5759171029398096,9.228140701960907,1.0374371921563768,-0.2533738112202224,-0.7741596880173752,0.17594360631813002,0.05545421991551846,0.16600909689294924,-1.35166541645154
1592290863.671537,-2.7554332700822264,9.193110373181531,1.1422438330170779,-0.22666666666666666,-0.7822222222222223,0.1688888888888889,0.05983682916148609,0.1673179868739646,-1.3655483390120386
1592290863.681537,-2.7646524189760453,9.191077448984917,1.2289225510150827,-0.22666666666666666,-0.7822222222222223,0.1688888888888889,0.026724813338616135,0.14667666170755103,-1.3906543418555626
1592290863.691537,-2.968836092329214,9.506508276987642,0.9416474702727908,-0.22666666666666666,-0.7822222222222223,0.1688888888888889,0.0012070605954134263,0.14243299765946743,-1.3991228075925377
1592290863.701537,-3.0009636766651173,9.428673089986058,0.9002933395302277,-0.22666666666666666,-0.7822222222222223,0.1688888888888889,-0.034356606808498495,0.14555734986527794,-1.3890236952402155
1592290863.711537,-3.0396962184708616,9.01652933537953,0.9649458938338646,-0.2198240620504816,-0.79188236991566,0.1576187165798782,-0.08925406419667466,0.1318177980040416,-1.3803907470456398
1592290863.7215369,-3.199350493319256,8.927615684275676,0.7598754869479739,-0.20777777777777778,-0.8088888888888889,0.13777777777777778,-0.13916049223007887,0.12016025098476325,-1.382244675199664
1592290863.7315369,-3.434677410266524,8.635000281737758,0.46387107680171297,-0.20777777777777778,-0.8088888888888889,0.13777777777777778,-0.2315199978985605,0.129316215981128,-1.3563777306048863
1592290863.7415369,-3.706920077512052,8.68244659230551,0.5470784100576614,-0.20777777777777778,-0.8088888888888889,0.13777777777777778,-0.27555525993921204,0.14754630885839073,-1.3240906487374262
1592290863.7515368,-4.05434628975265,8.712626619552413,0.868032979976443,-0.20777777777777778,-0.8088888888888889,0.13777777777777778,-0.3095094224828254,0.14744845771412635,-1.2981168976928261
1592290863.7615368,-4.303178492699914,8.61861218491422,1.0950867384428613,-0.1755686186809793,-0.8208990838063391,0.1274053367127071,-0.35567370397124864,0.10635936429044962,-1.2565552691658133
1592290863.7715368,-4.370624711494076,8.642577704262193,1.1671099399907678,-0.14222222222222222,-0.8333333333333334,0.11666666666666667,-0.3950683111048372,0.062364754597475286,-1.2166597245784734
1592290863.7815368,-4.261209386281588,8.365201564380264,1.2255655836341757,-0.14222222222222222,-0.8333333333333334,0.11666666666666667,-0.4554731553060881,-0.016611650718847456,-1.081166013012388
1592290863.7915368,-4.255674950578932,8.531968135178387,1.203936270356773,-0.14222222222222222,-0.8333333333333334,0.11666666666666667,-0.4552383779183246,-0.043480973995636586,-0.9276903284599778
1592290863.8015368,-3.9829371231696813,8.578643711315426,1.4060449091601066,-0.14222222222222222,-0.8333333333333334,0.11666666666666667,-0.4364185341445017,-0.06075992790797784,-0.8029190606374813
1592290863.8115368,-3.7770163463265676,8.283144123106402,1.330564636848093,-0.12074360151421405,-0.8223655270143504,0.11072577157721761,-0.4077243433517419,-0.07218836087107212,-0.722728070191285
1592290863.8215368,-3.83,8.03,1.36,-0.09,-0.8066666666666666,0.10222222222222223,-0.394880743263717,-0.07090400086226964,-0.6970408700152353
1592290863.8315368,-4.348913724373577,8.485654897494305,1.3278274487471526,-0.09,-0.8066666666666666,0.10222222222222223,-0.36829304746465025,-0.04436857921488112,-0.6736594464261784
1592290863.8415368,-4.411479984965232,8.329342228904341,1.1988489005825973,-0.09,-0.8066666666666666,0.10222222222222223,-0.34716950432749066,-0.03823289115929953,-0.6416400018296101
1592290863.8515368,-4.495801474849618,8.457941006015307,1.3567203581206657,-0.09,-0.8066666666666666,0.10222222222222223,-0.3210788327861397,-0.04328352192491453,-0.5898892373845906
1592290863.8615367,-4.3682465780147615,8.72778554475404,1.7875550281236792,-0.07367291276060012,-0.8127310133555866,0.09056001705122231,-0.284540711027582,-0.05360044620894858,-0.5053967937452444
1592290863.8715367,-4.19820920173024,8.781465198584348,1.9459300039323633,-0.051111111111111114,-0.8211111111111111,0.07444444444444444,-0.2533644304625351,-0.06446556841517612,-0.4499879015272735
1592290863.8815367,-4.128549305397404,8.84001720691313,1.605768364584124,-0.051111111111111114,-0.8211111111111111,0.07444444444444444,-0.16442711043703373,-0.048944154843900675,-0.27945034319602424
1592290863.8915367,-4.441657853434746,8.673843534951105,1.5127072316793433,-0.051111111111111114,-0.8211111111111111,0.07444444444444444,-0.06888930238626007,0.01247529552852756,-0.08736705134191988
1592290863.9015367,-4.456323557024297,8.563593262983964,1.7291640692478125,-0.051111111111111114,-0.8211111111111111,0.07444444444444444,-0.011637569720093673,0.07066696258359166,0.07080669084222305
1592290863.9115367,-4.077607239068867,8.549012917040823,1.9176037853146368,-0.04322365744898038,-0.822754330624055,0.07444444444444444,0.011261771056344738,0.09012385604682778,0.14973564476439677
1592290863.9215367,-4.31,8.38,1.65,-0.024444444444444446,-0.8266666666666667,0.07444444444444444,0.025089107997418484,0.05017821599483697,0.13744467859455345
1592290863.9315367,-4.514035106846925,8.345573484518098,1.1263563017880505,-0.024444444444444446,-0.8266666666666667,0.07444444444444444,0.06693814354945599,0.14285613644827905,0.25963390078566323
1592290863.9415367,-4.547355192559914,8.425715035173484,0.9708816024800286,-0.024444444444444446,-0.8266666666666667,0.07444444444444444,0.09385449784781388,0.15428462429154494,0.3855239721706658
1592290863.9515367,-4.476630587573799,8.25154484115828,1.147031206072533,-0.024444444444444446,-0.8266666666666667,0.07444444444444444,0.11355388976570535,0.1467087667848948,0.49959773833922655
1592290863.9615366,-4.156920250145058,8.389923924956483,1.4295815872606537,-0.028534015286642456,-0.8248077708293039,0.07667511944927971,0.13716267024964912,0.1585396060561015,0.6528892637751552
1592290863.9715366,-4.285277044854881,8.60976253298153,1.0635883905013193,-0.03666666666666667,-0.8211111111111111,0.0811111111111111,0.18204785705457344,0.17020126206577288,0.8418306677573638
1592290863.9815366,-4.189459613602339,8.9,1.1026380076519096,-0.03666666666666667,-0.8211111111111111,0.0811111111111111,0.19469713220341173,0.18045738501925662,0.98550444862842
1592290863.9915366,-4.223513487909433,8.554594652203775,0.9222523269308198,-0.03666666666666667,-0.8211111111111111,0.0811111111111111,0.2032319305136562,0.1759611609512448,1.0929927836340638
1592290864.0015366,-4.376404813739719,8.443728229317852,0.6165600306402192,-0.03666666666666667,-0.8211111111111111,0.0811111111111111,0.1838773746698751,0.15816562587989957,1.167980541612642
1592290864.0115366,-4.058518170609992,9.059328362590266,1.2563112781072037,-0.05668206161894884,-0.8188142625100295,0.07914238373875548,0.15467817828613253,0.12081823491115168,1.214270264629329
1592290864.0215366,-3.5130966404372614,8.887450643170146,1.1550294491824906,-0.10444444444444445,-0.8133333333333334,0.07444444444444444,0.10672874335789415,0.03059918349927815,1.1641730006345432
1592290864.0315366,-3.2559921861892094,8.841182617866302,0.6156767575082094,-0.10444444444444445,-0.8133333333333334,0.07444444444444444,0.050049212397587695,-0.022599265362142365,1.1189472655482524
1592290864.0415366,-2.959235245416913,8.984941218214074,0.6819997634535778,-0.10444444444444445,-0.8133333333333334,0.07444444444444444,0.022066881002015058,-0.0027206648580873757,1.1404828193945058
1592290864.0515366,-2.9691218758664397,9.03234166435616,0.9657725670376678,-0.10444444444444445,-0.8133333333333334,0.07444444444444444,0.005358365428908206,0.020552008917529677,1.1623964022351214
1592290864.0615366,-2.929637067118601,9.164752342276085,1.1243894093946856,-0.10444444444444445,-0.8074110432499458,0.0763146413128826,0.010843568851015358,0.0688304003647846,1.1806245067440795
1592290864.0715365,-2.98,9.1,1.11,-0.10444444444444445,-0.7922222222222223,0.0811111111111111,0.04145156973486533,0.09708393964218458,1.1759155835311794
1592290864.0815365,-3.3834439981697084,9.117835172098225,0.937072550714322,-0.10444444444444445,-0.7922222222222223,0.0811111111111111,0.09152646488228805,0.11735085349968406,1.142655310544697
1592290864.0915365,-3.4989421981776765,8.984198462414579,0.9452562642369021,-0.10444444444444445,-0.7922222222222223,0.0811111111111111,0.13689985852192701,0.08534174572857897,1.1270577842395095
1592290864.1015365,-3.2837728227500405,8.91294680526382,0.9003256674027397,-0.10444444444444445,-0.7922222222222223,0.0811111111111111,0.1529844689345189,0.031813440070471266,1.1218748383736104
1592290864.1115365,-3.005667817554061,9.316908231873523,1.1127479556605486,-0.10941902396672523,-0.789843075494175,0.07970525168090133,0.16261081672863886,-0.03029139754641903,1.1116918755761604
1592290864.1215365,-2.78,9.01,0.86,-0.15555555555555556,-0.7677777777777778,0.06666666666666667,0.17344209441693648,-0.07853981633974483,1.102829921103917
1592290864.1315365,-2.48,9.35397049446409,0.753970494464089,-0.15555555555555556,-0.7677777777777778,0.06666666666666667,0.1764014258201146,-0.1134882615603753,1.1095471838388302
1592290864.1415365,-2.48,9.19,0.59,-0.15555555555555556,-0.7677777777777778,0.06666666666666667,0.17562375598192942,-0.13526301702956053,1.1181015520588673
1592290864.1515365,-1.993208242332162,8.993958788339189,0.6652023549520464,-0.15555555555555556,-0.7677777777777778,0.06666666666666667,0.17196036275066973,-0.09808647642040794,1.1848565426663753
1592290864.1615365,-1.9564253200015562,9.277918530910789,0.6559728436369295,-0.15754650343453208,-0.7677777777777778,0.06666666666666667,0.16141087130293666,-0.1018692843766969,1.2146178590622203
1592290864.1715364,-2.16,9.5,0.73,-0.18222222222222223,-0.7677777777777778,0.06666666666666667,0.17453292519943295,-0.06654067773228381,1.275181184738357
1592290864.1815364,-1.8849260291595198,9.392839837049744,0.6243203259005146,-0.18222222222222223,-0.7677777777777778,0.06666666666666667,0.16176594837178843,-0.0323887165173811,1.3315813928658597
1592290864.1915364,-1.575955262016102,9.418351974159958,0.6136703948319915,-0.18222222222222223,-0.7677777777777778,0.06666666666666667,0.15387660894616784,-0.035735975084052955,1.328260149224854
1592290864.2015364,-1.5,9.45,0.62,-0.18222222222222223,-0.7677777777777778,0.06666666666666667,0.148352986419518,-0.02399827721492203,1.3144510929082294
1592290864.2115364,-1.2120193704600484,9.711330104923325,0.823682001614205,-0.18418043224822886,-0.7677777777777778,0.06692529817953546,0.13744731983131495,0.01581308449105637,1.2986716401652694
1592290864.2215364,-0.98,9.75,0.64,-0.2411111111111111,-0.7677777777777778,0.07444444444444444,0.10581058590215622,0.06326818538479445,1.2839078309983287
1592290864.2315364,-0.5734354560126851,10.081553642721635,0.6387527253164199,-0.2411111111111111,-0.7677777777777778,0.07444444444444444,0.0485384023902409,0.1714704634128909,1.2735079515650924
1592290864.2415364,-0.55,9.98,0.67,-0.2411111111111111,-0.7677777777777778,0.07444444444444444,0.007635815477475192,0.234528618236738,1.2402745996984703
1592290864.2515364,-0.7946118533341181,9.918356188570419,0.7804337590489082,-0.2411111111111111,-0.7677777777777778,0.07444444444444444,-0.04804387020211761,0.33434461037431057,1.1555882911990276
1592290864.2615364,-0.9098104879053617,9.770243658407392,0.9696886587016655,-0.2411111111111111,-0.7677777777777778,0.07444444444444444,-0.06868837723006817,0.36755533907144844,1.060444041418038
1592290864.2715364,-1.0,9.95,1.01,-0.2822222222222222,-0.7288888888888889,0.08888888888888889,-0.0545415391248228,0.38615409700374537,0.9097528726020443
1592290864.2815363,-0.9086603937778746,9.647508974219514,0.7752643315566192,-0.2822222222222222,-0.7288888888888889,0.08888888888888889,-0.053080255421304484,0.3835237863374124,0.9052228931211376
1592290864.2915363,-0.9572716959727736,9.830341983361695,0.6776136793344678,-0.2822222222222222,-0.7288888888888889,0.08888888888888889,-0.03972862324155325,0.3600114628216342,0.8566743852570162
1592290864.3015363,-1.1105028092392757,9.646940515473112,0.654383840185499,-0.2822222222222222,-0.7288888888888889,0.08888888888888889,-0.026892223166188247,0.33584145579038943,0.7906730836852385
1592290864.3115363,-0.9833234638366182,9.67686506733256,0.587053598501739,-0.2822222222222222,-0.7288888888888889,0.08888888888888889,-0.025260092050153324,0.32115227574607513,0.7710875102928195
1592290864.3215363,-0.87,9.62,0.68,-0.3233333333333333,-0.7066666666666667,0.057777777777777775,-0.032724923474893676,0.3196134192714616,0.755945732270044
1592290864.3315363,-0.9655623433132582,9.358875313373483,0.5543330547791256,-0.3233333333333333,-0.7066666666666667,0.057777777777777775,-0.0268684858303309,0.2988239190481196,0.7843187429130254
1592290864.3415363,-0.89,9.49028782515007,0.5016647243782845,-0.3233333333333333,-0.7066666666666667,0.057777777777777775,-0.003028105381134426,0.2462396685280847,0.8182732832785952
1592290864.3515363,-0.8743186303069029,9.446969497641376,0.7343932417448176,-0.3233333333333333,-0.7066666666666667,0.057777777777777775,0.01461861674842781,0.20577061307290195,0.8519965305774184
1592290864.3615363,-0.8033744291379279,9.478500253716478,0.8447508880076678,-0.3233333333333333,-0.7066666666666667,0.057777777777777775,0.041274524223060195,0.1644969498863744,0.8769327020859455
1592290864.3715363,-0.59,13.18,1.76,-0.3377777777777778,-0.6933333333333334,0.09555555555555556,0.10035643198967394,0.11671889372712078,0.9195703496445125
1592290864.3815362,1.279642263122018,10.841615269256987,-0.9141529652351739,-0.3377777777777778,-0.6933333333333334,0.09555555555555556,0.0640911194295146,0.14830504042847822,0.6662503531279687
1592290864.3915362,-0.03,6.75,3.21,-0.3377777777777778,-0.6933333333333334,0.09555555555555556,0.001090830782496456,0.07199483164476608,0.23234695667174513
1592290864.4015362,-1.0031797781688052,8.99095553490579,1.6509159928033375,-0.3377777777777778,-0.6933333333333334,0.09555555555555556,0.012195828473539184,0.11898928140056168,0.035635049251128065
1592290864.4115362,-0.8124506217995611,9.63777615215801,0.4484930504754936,-0.3377777777777778,-0.6933333333333334,0.09555555555555556,0.06013853042579584,0.15064955627469342,0.01754346360876707
1592290864.4215362,-0.54,9.93,0.58,-0.35555555555555557,-0.6788888888888889,0.057777777777777775,0.056723200689815706,0.19307704850187268,0.06544984694978735
1592290864.4315362,-0.9733662194159431,9.871416732438831,0.5128255722178374,-0.35555555555555557,-0.6788888888888889,0.057777777777777775,0.11711019806069982,0.19316013072011334,0.15100989549196003
1592290864.4415362,-0.63,10.25,0.46,-0.35555555555555557,-0.6788888888888889,0.057777777777777775,0.11999138607461016,0.20180369476184434,0.25089107997418486
1592290864.4515362,-0.6575533740372721,9.979786503850912,0.4992693243944291,-0.35555555555555557,-0.6788888888888889,0.057777777777777775,0.1523276257210625,0.2229414522748553,0.3869261104092115
1592290864.4615362,-0.724504170158426,9.711983319366295,0.7587036593639012,-0.35555555555555557,-0.6788888888888889,0.057777777777777775,0.17788882198362221,0.22659305174093525,0.5001256938576903
1592290864.4715362,-1.02,9.77,0.74,-0.3711111111111111,-0.6666666666666666,0.07444444444444444,0.21380283336930533,0.2083486794568231,0.6174102228929941
1592290864.4815361,-0.8019440178493814,10.368407464286749,1.1065567500217321,-0.3711111111111111,-0.6666666666666666,0.07444444444444444,0.242376493165396,0.17651270515543727,0.7449098537273906
1592290864.4915361,-0.9712771790508603,10.234515031196823,0.7993959160521837,-0.3711111111111111,-0.6666666666666666,0.07444444444444444,0.2597980876482789,0.12086947494896799,0.8781586883529091
1592290864.5015361,-0.8714362384575074,9.85227109271942,0.9684470265093335,-0.3711111111111111,-0.6666666666666666,0.07444444444444444,0.2645460484193963,0.061551643231857876,1.0072603200662338
1592290864.5115361,-0.022556424944433218,9.77647825222718,0.619799960245035,-0.3711111111111111,-0.6666666666666666,0.07444444444444444,0.2529712455291474,0.016905974940897836,1.1023390580932784
1592290864.521536,0.06,10.27,0.55,-0.39111111111111113,-0.6522222222222223,0.08888888888888889,0.23125612588924865,0.004363323129985824,1.2380929381334775
1592290864.531536,-0.06,9.77414689935615,0.35414689935615046,-0.39111111111111113,-0.6522222222222223,0.08888888888888889,0.18830578817397092,0.026703144496640976,1.3602395559523592
1592290864.541536,-0.06,10.02,0.6,-0.39111111111111113,-0.6522222222222223,0.08888888888888889,0.19525871006686563,0.009817477042468103,1.4377149713303288
1592290864.551536,0.5075391755289166,8.905792905189584,-0.16024068994025026,-0.39111111111111113,-0.6522222222222223,0.08888888888888889,0.1893889820507063,0.006622930459246032,1.485746122775709
1592290864.561536,0.6415121566269588,9.102811995039646,0.5253857427379655,-0.39111111111111113,-0.6522222222222223,0.08888888888888889,0.19454692976145552,-0.0011139911068777444,1.4943427022936242
1592290864.571536,0.96,9.86,-0.04,-0.41,-0.6322222222222222,0.044444444444444446,0.22907446432425577,-0.03381575425739013,1.4704398948052226
1592290864.581536,1.560544075829384,9.514441164522681,0.008308733920108329,-0.41,-0.6322222222222222,0.044444444444444446,0.19610570287295787,-0.05900914479136142,1.4030666406628345
1592290864.591536,1.4769300468585638,9.494298316916899,-0.2971050492493067,-0.41,-0.6322222222222222,0.044444444444444446,0.15804604073885112,-0.12445041899162289,1.3140874478754492
1592290864.601536,1.9,9.63,0.11,-0.41,-0.6322222222222222,0.044444444444444446,0.10144726277217041,-0.1679879405044542,1.2479104151759455
1592290864.611536,1.6469308152811208,9.851435536629019,-0.19842806887613407,-0.41,-0.6322222222222222,0.044444444444444446,0.04364810963121242,-0.17143863621436214,1.2004633491647114
1592290864.621536,1.53,9.7,-0.16,-0.4722222222222222,-0.5911111111111111,0.07222222222222222,-0.007635815477475192,-0.18435040224190105,1.1453723216212788
1592290864.631536,1.6205386184785777,9.301175167589625,0.100293791897406,-0.4722222222222222,-0.5911111111111111,0.07222222222222222,-0.04360919550645785,-0.15713304555371274,1.11467149173242
1592290864.641536,1.84,9.78,0.22,-0.4722222222222222,-0.5911111111111111,0.07222222222222222,-0.03381575425739013,-0.17889624832941878,1.050470043544087
1592290864.651536,2.4810382469638075,9.459584701214478,0.08875410364343114,-0.4722222222222222,-0.5911111111111111,0.07222222222222222,-0.03788461393290777,-0.18289715490005914,0.9610290815882979
1592290864.661536,2.523276066947292,9.442689573221083,0.038068719663249484,-0.4722222222222222,-0.5911111111111111,0.07222222222222222,-0.025905292234790205,-0.16815337434852984,0.8725663982791219
1592290864.671536,2.83,9.22,-0.02,-0.49777777777777776,-0.5644444444444444,0.07444444444444444,-0.0272707695624114,-0.1265363707695889,0.7646723785300156
1592290864.681536,3.1351592443010867,9.452521887620957,-0.12562301791667796,-0.49777777777777776,-0.5644444444444444,0.07444444444444444,-0.027321359416011038,-0.041277654177370844,0.69877352075804
1592290864.691536,2.83,9.71,0.17,-0.49777777777777776,-0.5644444444444444,0.07444444444444444,-0.028361600344907853,-0.015271630954950384,0.6446809924554054
1592290864.701536,2.2662699547295686,9.581429989675165,0.24912000635374476,-0.49777777777777776,-0.5644444444444444,0.07444444444444444,-0.025125105153333605,0.013856825769217845,0.6004488915038907
1592290864.711536,2.8520005603249885,9.213126413319726,-0.35867663244681913,-0.49777777777777776,-0.5644444444444444,0.07444444444444444,-0.025089107997418484,0.043286036655052124,0.5926806212524012
1592290864.721536,2.4804204031853074,9.682578377215009,0.2238833488772509,-0.5311111111111111,-0.5377777777777778,0.06666666666666667,-0.06122065711208928,0.05331657505003859,0.5685370283580116
1592290864.731536,2.9168872848972254,9.395223407178001,0.47764254851519766,-0.5311111111111111,-0.5377777777777778,0.06666666666666667,-0.0863353101112886,0.028514549319980535,0.5218204917541691
1592290864.741536,2.13,9.35,0.55,-0.5311111111111111,-0.5377777777777778,0.06666666666666667,-0.09817477042468103,0.019634954084936207,0.48432886742842646
1592290864.751536,3.236637229839647,9.185768068789217,-0.15652567975830817,-0.5311111111111111,-0.5377777777777778,0.06666666666666667,-0.10371638346334536,-0.02283697212205281,0.45375645247646496
1592290864.761536,2.830496165465954,9.665014524750173,-0.05092900302114804,-0.5311111111111111,-0.5377777777777778,0.06666666666666667,-0.10637457051367352,-0.053849154375881725,0.4528703901263556
1592290864.7715359,2.546207225440249,9.411334356898598,0.9263391257822132,-0.5377777777777778,-0.5188888888888888,0.057777777777777775,-0.12431258532763449,-0.04242937657279158,0.4603257941817299
1592290864.7815359,2.486191051677482,9.823808948322517,0.24712739405722092,-0.5377777777777778,-0.5188888888888888,0.057777777777777775,-0.07994399982107785,-0.08413640329715281,0.4819762862095227
1592290864.7915359,3.1967053756276322,9.267553482616663,0.10752445089593796,-0.5377777777777778,-0.5188888888888888,0.057777777777777775,-0.09074415251367265,-0.09096635253504594,0.47319835958208856
1592290864.8015358,4.01,9.63,-0.14,-0.5377777777777778,-0.5188888888888888,0.057777777777777775,-0.0839939702522271,-0.10253809355466686,0.45487643630102215
1592290864.8115358,3.2438550276505915,9.474058987928881,0.15154189213296065,-0.5377777777777778,-0.5188888888888888,0.057777777777777775,-0.13280678290689935,-0.041891871771589234,0.43934508681999007
1592290864.8215358,3.52,9.05,0.16,-0.5788888888888889,-0.49333333333333335,0.06555555555555556,-0.16253378659197193,-0.042542400517361786,0.3610649890063269
1592290864.8315358,3.424950893697084,8.877183443085606,0.5056331138287865,-0.5788888888888889,-0.49333333333333335,0.06555555555555556,-0.15593580989171746,-0.03217415141696189,0.2913149496036367
1592290864.8415358,3.4725623212096446,9.290862280343278,1.0091622394769104,-0.5788888888888889,-0.49333333333333335,0.06555555555555556,-0.12831236988583977,0.0027647456121957575,0.1414562790079926
1592290864.8515358,2.8,9.1,1.3,-0.5788888888888889,-0.49333333333333335,0.06555555555555556,-0.0916297857297023,-0.04581489286485115,-0.07963064712224129
1592290864.8615358,3.7766206060606065,9.027413333333334,1.3131975757575758,-0.5788888888888889,-0.49333333333333335,0.06555555555555556,-0.05779842928657464,-0.10411999652215626,-0.18544361301883205
1592290864.8715358,3.11,9.48,0.38,-0.5866666666666667,-0.4477777777777778,0.057777777777777775,-0.0370882466048795,-0.001090830782496456,-0.17562375598192942
1592290864.8815358,3.035530314427561,9.358986760944786,0.12866481119301942,-0.5866666666666667,-0.4477777777777778,0.057777777777777775,-0.03201113251830148,0.003986283304081565,-0.1319605748373584
1592290864.8915358,3.3666971022153875,9.292047671680523,0.41454418761112977,-0.5866666666666667,-0.4477777777777778,0.057777777777777775,-0.07189538880780152,-0.0268370373362412,-0.08718002019689382
1592290864.9015357,3.81,9.16,0.49,-0.5866666666666667,-0.4477777777777778,0.057777777777777775,-0.08835729338221293,-0.019634954084936207,-0.06763150851478027
1592290864.9115357,3.4191451789342087,9.17891233005157,0.41435067979371776,-0.5866666666666667,-0.4477777777777778,0.057777777777777775,-0.08079290439291809,-0.014821252000839485,-0.07106986714627793
1592290864.9215357,3.51,8.8,0.35,-0.5955555555555555,-0.4622222222222222,0.07444444444444444,-0.05126904677733343,0.001090830782496456,-0.07963064712224129
1592290864.9315357,3.518032142857143,9.209639285714287,0.43835357142857145,-0.5955555555555555,-0.4622222222222222,0.07444444444444444,-0.022355408139997902,0.015109564667265193,-0.0875161849324237
1592290864.9415357,3.1890004347047842,9.243800086940958,0.516742782622037,-0.5955555555555555,-0.4622222222222222,0.07444444444444444,-0.005987114859656948,0.06599831667838396,-0.10801715635529627
1592290864.9515357,3.0002843747780172,8.994855208012693,0.12399687448204005,-0.5955555555555555,-0.4622222222222222,0.07444444444444444,0.03465756887778472,0.048152225045857755,-0.13171020392620647
1592290864.9615357,3.3039232464412636,8.870126863745558,0.5081002203736426,-0.5955555555555555,-0.4622222222222222,0.07444444444444444,0.038800432307676255,0.03834479513336382,-0.18787129795406382
1592290864.9715357,3.85,9.48,0.45,-0.6077777777777778,-0.4622222222222222,0.051111111111111114,0.04581489286485115,0.00545415391248228,-0.2868884957965679
1592290864.9815357,2.554196580857562,9.18509301495379,0.3338245210424021,-0.6077777777777778,-0.4622222222222222,0.051111111111111114,0.0341169431462465,0.019101761917521037,-0.32588166152525005
1592290864.9915357,3.7099197234128205,9.624613890928035,0.3573290866466172,-0.6077777777777778,-0.4622222222222222,0.051111111111111114,0.0009311157352972425,-0.04915803387061155,-0.3697868048095904
1592290865.0015357,2.1147476979742175,9.134979742173114,-0.0427219152854512,-0.6077777777777778,-0.4622222222222222,0.051111111111111114,-0.03912366050695208,-0.0184517140648802,-0.40588909413282215
1592290865.0115356,2.740823301347291,9.346381893961423,0.26625046040515654,-0.6077777777777778,-0.4622222222222222,0.051111111111111114,-0.032915091958503076,-0.10714555047129456,-0.45644458088447837
1592290865.0215356,3.32,9.14,1.13,-0.6,-0.47555555555555556,0.044444444444444446,-0.061086523819801536,-0.10471975511965977,-0.5366887449882564
1592290865.0315356,3.129572501444252,9.167203928365106,0.46803774311573276,-0.6,-0.47555555555555556,0.044444444444444446,-0.03437912960086317,-0.11757887085470416,-0.6296700433801158
1592290865.0415356,5.85,10.92,0.89,-0.6,-0.47555555555555556,0.044444444444444446,-0.062177354602297986,-0.12435470920459597,-0.7450374244450794
1592290865.0515356,2.7887466581541043,9.471434898846814,0.34768006065200907,-0.6,-0.47555555555555556,0.044444444444444446,0.008656480695094566,-0.1796206686124517,-0.8407798611657309
1592290865.0615356,3.3520103092783504,8.757870207610813,0.8071651859945841,-0.6,-0.47555555555555556,0.044444444444444446,-0.047588859728627864,-0.1324405331907798,-0.990010505149818
1592290865.0715356,2.8,10.06,0.35,-0.6,-0.48333333333333334,0.051111111111111114,0.0,-0.14180800172453928,-1.076649982324002
1592290865.0815356,2.3096753193913258,9.807176336561152,0.48790381642118974,-0.6,-0.48333333333333334,0.051111111111111114,-0.014207252086619762,-0.09500764190979183,-1.0967072793874653
1592290865.0915356,2.593626487325401,9.798986032074497,0.6482617692705639,-0.6,-0.48333333333333334,0.051111111111111114,-0.012093944386798524,-0.11189734266367032,-1.0845544141762669
1592290865.1015356,2.2071808006070954,9.34825792069816,0.345565120470499,-0.6,-0.48333333333333334,0.051111111111111114,0.008354576938575175,-0.08557436593129789,-1.0810720532415767
1592290865.1115355,2.2081706905786893,9.601462098518063,0.6096327890967526,-0.6,-0.48333333333333334,0.051111111111111114,0.03368260049293875,-0.07171553983849119,-1.064970192018509
1592290865.1215355,1.99,9.61,0.61,-0.6077777777777778,-0.5222222222222223,0.044444444444444446,0.05781403147231216,-0.03490658503988659,-1.050470043544087
1592290865.1315355,1.8969873609505203,9.488368087396834,0.15924644152944462,-0.6077777777777778,-0.5222222222222223,0.044444444444444446,0.0617163795429431,-0.01851672314323666,-1.0247145462779228
1592290865.1415355,2.0299744981009225,9.647746608790017,0.14053147042864894,-0.6077777777777778,-0.5222222222222223,0.044444444444444446,0.03339602411663736,0.0055121283428379644,-0.9835703919270588
1592290865.1515355,1.6671158409434097,9.78429471968553,0.4177117039380648,-0.6077777777777778,-0.5222222222222223,0.044444444444444446,-0.002783512761807126,0.025318224033635654,-0.9588026339440074
1592290865.1615355,1.7962927526668866,9.674184904138714,0.16789215147182812,-0.6077777777777778,-0.5222222222222223,0.044444444444444446,-0.013672193672121347,0.025515019455476688,-0.9484405564897528
1592290865.1715355,1.5156825862017405,9.506420646550435,0.5427602500074763,-0.5713858069918358,-0.5409380929121352,0.05068306800774877,-0.05025872588960659,0.10573170708305049,-0.9363530417160039
1592290865.1815355,1.4830216813089385,9.77913274764246,0.3008672523575401,-0.5688888888888889,-0.5422222222222223,0.051111111111111114,-0.03713554788326937,0.1401909662001035,-0.929843079511335
1592290865.1915355,1.1000067267590476,9.297571639983856,0.16146374276873404,-0.5688888888888889,-0.5422222222222223,0.051111111111111114,-0.007290353932742695,0.22247503348097808,-0.9100192331388708
1592290865.2015355,1.2381586280814576,9.605001548171966,-0.008158628081457647,-0.5688888888888889,-0.5422222222222223,0.051111111111111114,0.06180446896718094,0.2687464352870097,-0.8689183101179287
1592290865.2115355,0.7804478088922622,9.442179123556906,0.2930347940718252,-0.5688888888888889,-0.5422222222222223,0.051111111111111114,0.08702875709424296,0.283568244469427,-0.8627049614085261
1592290865.2215354,0.38622179082746905,9.446523901965541,0.11622179082746903,-0.5500475882337081,-0.5621102618026909,0.04273719970880854,0.1132732872491406,0.25708712322800226,-0.8494247157300351
1592290865.2315354,0.5101065203357004,9.723207714654615,0.19106923821820532,-0.5488888888888889,-0.5633333333333334,0.042222222222222223,0.08473489364605157,0.23538617742678647,-0.8417888860477636
1592290865.2415354,0.34971763579803783,9.794107840791257,0.01889606763978624,-0.5488888888888889,-0.5633333333333334,0.042222222222222223,0.06098150405793879,0.18784555040596604,-0.822829486158935
1592290865.2515354,0.40643219724438,9.73904520183708,0.14649504471839497,-0.5488888888888889,-0.5633333333333334,0.042222222222222223,0.03359373842010176,0.1718442132126995,-0.8033310839554291
1592290865.2615354,0.09281466082162065,9.873709947123423,0.31929633479459485,-0.5488888888888889,-0.5633333333333334,0.042222222222222223,-0.004184221207772707,0.1565981822604604,-0.770305634364711
1592290865.2715354,-0.0592129114326602,9.530756877086977,0.3305247257115599,-0.5423971307927422,-0.5687431317467889,0.04871398031836893,-0.038554424471701335,0.14849608315915222,-0.7348732196662128
1592290865.2815354,0.1489154477345701,9.66826257581163,0.5456546557260078,-0.5422222222222223,-0.5688888888888889,0.04888888888888889,-0.044415843038566896,0.12188817852337494,-0.7172210449086901
1592290865.2915354,-0.025501990036637723,9.428949366087668,0.6233385170932286,-0.5422222222222223,-0.5688888888888889,0.04888888888888889,-0.043997407021176674,0.11683858925276808,-0.6944984254918417
1592290865.3015354,0.40691073553915735,9.803036419900023,0.655916210426089,-0.5422222222222223,-0.5688888888888889,0.04888888888888889,-0.030900216224753866,0.13054273958472162,-0.6750472183197204
1592290865.3115354,0.0785695162982526,9.754642379074564,0.5033410513367823,-0.5422222222222223,-0.5688888888888889,0.04888888888888889,-0.0071626393593125885,0.13570548997675314,-0.6574397385626491
1592290865.3215353,-0.05534161870944043,9.695113872903146,0.6011904616138117,-0.5165850033331973,-0.5978341360216589,0.022424662938927666,0.0032724923474893677,0.1463757137127246,-0.6371445498323661
1592290865.3315353,-0.04,9.812129593559279,0.7123412543825477,-0.5077777777777778,-0.6077777777777778,0.013333333333333334,0.016594764358313505,0.13421836347535832,-0.6184079909792043
1592290865.3415353,-0.28971314338013926,9.865673306197163,0.3186753052819192,-0.5077777777777778,-0.6077777777777778,0.013333333333333334,0.02827250843076143,0.12420781657941382,-0.5978354603666863
1592290865.3515353,-0.43237059415911383,9.83067029204431,0.4947411883182276,-0.5077777777777778,-0.6077777777777778,0.013333333333333334,0.014743154748662977,0.12326387842209952,-0.5857874229905707
1592290865.3615353,-0.4894677045249047,9.769467704524905,0.5295514408145615,-0.5077777777777778,-0.6077777777777778,0.013333333333333334,-0.00738528933715423,0.09661942421049052,-0.5754758693019607
1592290865.3715353,-3.2475236529826814,9.430540410519564,0.35126122514432334,-0.5018618594540659,-0.6008758730667807,0.044884897726462834,0.008082966886672847,0.06607878891233802,-0.4760100145074052
1592290865.3815353,-2.032773670403053,9.61469194689562,0.3905556880515144,-0.5011111111111111,-0.6,0.04888888888888889,-0.03811187062559563,0.07967782193309096,-0.21421292469376885
1592290865.3915353,0.030859812580784074,9.914880170185265,1.0627261956053424,-0.5011111111111111,-0.6,0.04888888888888889,-0.06364399562368016,-0.08364397971007272,0.050292921245958494
1592290865.4015353,0.13466107842347064,9.80932215684694,0.9830934150076569,-0.5011111111111111,-0.6,0.04888888888888889,-0.061680471377724866,-0.12780976866096372,0.02397058222850417
1592290865.4115353,0.0677088473032874,9.63239866016808,0.6317782858976674,-0.5011111111111111,-0.6,0.04888888888888889,-0.024636165003270392,-0.11448128707295598,-0.019873152827921924
1592290865.4215353,0.02733009883198563,9.786019407008085,0.36481796945193173,-0.4838686632724368,-0.6163349505840072,0.040721413596885296,0.024746236262514123,-0.06670086226336308,-0.035980205590091366
1592290865.4315352,0.04795205506546936,9.908265754183315,0.32440958898690614,-0.48,-0.62,0.03888888888888889,0.03542181584581276,-0.04609865817303963,-0.030251427241518965
1592290865.4415352,0.17115566747871785,9.733970109216324,0.2947110831303205,-0.48,-0.62,0.03888888888888889,0.023637881749322923,-0.015767734572260175,-0.015722498521689946
1592290865.4515352,0.19,9.748005323439264,0.2783989353121471,-0.48,-0.62,0.03888888888888889,0.008070986396190104,-0.00756995914252612,-0.017977239713826695
1592290865.4615352,0.12913127413127412,9.723044401544401,0.30652123552123556,-0.48,-0.62,0.03888888888888889,-0.007730578769390906,0.012236046837250304,-0.02138975966612211
1592290865.4715352,0.08259169372756794,9.813349512903777,0.4040830627243206,-0.4758842742930933,-0.6397554833931521,0.032303727757838165,-0.01927222628277844,0.03502925922462128,-0.016159769680237787
1592290865.4815352,0.04759771794992692,9.787094865387335,0.43,-0.47444444444444445,-0.6466666666666666,0.03,-0.035071143156186146,0.04722262467362663,-0.016831705673705333
1592290865.4915352,-0.05131436527362961,9.747171408681593,0.3843428173631852,-0.47444444444444445,-0.6466666666666666,0.03,-0.04232943240923431,0.04991745621671218,-0.017453292519943295
1592290865.5015352,-0.18124121996303144,9.682147874306839,0.442315157116451,-0.47444444444444445,-0.6466666666666666,0.03,-0.052310427236464396,0.05570006795449544,-0.01824212851418022
1592290865.5115352,-0.08823089609675647,9.731374931280923,0.5084326553051127,-0.47444444444444445,-0.6466666666666666,0.03,-0.050841110083331524,0.05661621651631523,-0.02093975321443362
1592290865.5215352,0.02636928164615102,9.758153591769245,0.5782156898769061,-0.47444444444444445,-0.6367588952170984,0.035661583685467575,-0.0496848470401521,0.056327150755520375,-0.04236131018205702
1592290865.5315351,-0.007140606538007091,9.814281213076015,0.5777156360771957,-0.47444444444444445,-0.6311111111111111,0.03888888888888889,-0.04397650573672893,0.06077461237904043,-0.07289748445060502
1592290865.5415351,-0.26445234199222745,9.721716608713438,0.4832588463898548,-0.47444444444444445,-0.6311111111111111,0.03888888888888889,-0.04489229411549078,0.07249952774417436,-0.09769445012052493
1592290865.5515351,-0.5950911303020182,9.71409919366382,0.5403306455460661,-0.47444444444444445,-0.6311111111111111,0.03888888888888889,-0.04143353581787811,0.07088596694528243,-0.11568216469558597
1592290865.5615351,-0.76592969036517,9.70823003440387,0.59530989678839,-0.47444444444444445,-0.6311111111111111,0.03888888888888889,-0.03843488283519144,0.0640356017282409,-0.11504884305775884
1592290865.571535,-0.84,9.664608926714676,0.6483128586282589,-0.4972520250060975,-0.6256058330445051,0.03259714252705357,-0.030911339058444454,0.04609765105782622,-0.08533160008148162
1592290865.581535,-0.6603880336454531,9.631093477225837,0.6789065227741629,-0.5066666666666667,-0.6233333333333333,0.03,-0.02475243236430311,0.023861685326747185,-0.05509946245513393
1592290865.591535,-0.39172676727561556,9.632757744241461,0.6317267672756155,-0.5066666666666667,-0.6233333333333333,0.03,-0.004175886228254239,-0.0061307751349426185,-0.020575835346047393
1592290865.601535,-0.3462481910274964,9.687503617945007,0.649586348287506,-0.5066666666666667,-0.6233333333333333,0.03,0.016636353402805934,-0.014135677770331848,-0.01463518144630134
1592290865.611535,-0.36072084967507373,9.702960121382153,0.6511196358535398,-0.5066666666666667,-0.6233333333333333,0.03,0.026215070457516747,-0.01462583265023461,-0.015472396781885474
1592290865.621535,-0.3610304789550073,9.69600870827286,0.6369956458635704,-0.4926753749395259,-0.641988388969521,0.03,0.046900974021298995,-0.014616182560242788,-0.017017910132154434
1592290865.631535,-0.34,9.683966701427595,0.6339667014275954,-0.4866666666666667,-0.65,0.03,0.052481673725806775,-0.01494256556481184,-0.01405900400647703
1592290865.641535,-0.3462990826714398,9.68259816534288,0.5507100906141627,-0.4866666666666667,-0.65,0.03,0.06193677144001006,-0.014867923500403578,-0.012162262899719896
1592290865.651535,-0.36376846345674274,9.738189622098599,0.49623153654325725,-0.4866666666666667,-0.65,0.03,0.07036664167380793,-0.010765911825062615,-0.011927940607510044
1592290865.661535,-0.36500474522457854,9.755004745224578,0.49,-0.4866666666666667,-0.65,0.03,0.07581015126498362,-0.008726646259971648,-0.010363410057420345
1592290865.671535,-0.34536091416503245,9.735360914165033,0.49975939055664503,-0.48991979685221504,-0.640782797807613,0.03,0.07694293979410578,-0.007662061896212284,-0.010882061406227467
1592290865.681535,-0.33,9.706101229849576,0.48915184477436424,-0.49333333333333335,-0.6311111111111111,0.03,0.07526732399225547,-0.004270803747139953,-0.013515259239353535
1592290865.691535,-0.3566585310734463,9.766646327683617,0.34670734463276837,-0.49333333333333335,-0.6311111111111111,0.03,0.07163233070337377,0.0010894995991686638,-0.013453801514677588
1592290865.701535,-0.38301697512390165,9.780474537314147,0.319050925371705,-0.49333333333333335,-0.6311111111111111,0.03,0.06413344321571617,0.003982458205496494,-0.012380003531950344
1592290865.711535,-0.3705429622913222,9.784592778281509,0.3594570377086778,-0.49333333333333335,-0.6311111111111111,0.03,0.056311048294317025,0.004363323129985824,-0.011468530215740513
1592290865.721535,-0.3730475921480017,9.763123852563197,0.41687614743680274,-0.4846264651885327,-0.6341841233975113,0.03665819328720049,0.04674366264138994,0.0038605026704365466,-0.01090830782496456
1592290865.731535,-0.4066757595475249,9.713324240452476,0.4533242404524751,-0.47444444444444445,-0.6377777777777778,0.044444444444444446,0.03781050772937294,0.0076417667540802335,-0.012364732627161514
1592290865.741535,-0.3967409960445051,9.73651800791099,0.37044597626703063,-0.47444444444444445,-0.6377777777777778,0.044444444444444446,0.03238158340740902,0.008371144076478494,-0.010920469940973055
1592290865.751535,-0.37694924547643455,9.756525377261783,0.3365253772617827,-0.47444444444444445,-0.6377777777777778,0.044444444444444446,0.030543261909900768,0.006924007239019688,-0.009817477042468103
1592290865.761535,-0.40362398202752037,9.755196573996068,0.3928376860432463,-0.47444444444444445,-0.6377777777777778,0.044444444444444446,0.027399426941981327,0.006021012200325495,-0.010341449537121343
1592290865.771535,-0.4270729406832949,9.737072940683294,0.45430901977223503,-0.48258370401422174,-0.634905097929621,0.03486884495058882,0.02258815379194008,0.00545415391248228,-0.009968225542976591
1592290865.781535,-0.39103036876355746,9.738969631236444,0.46,-0.49333333333333335,-0.6311111111111111,0.022222222222222223,0.019346274355078144,0.0026951328877732393,-0.007347135747617127
