time,acc_x,acc_y,acc_z,mag_x,mag_y,mag_z,gyr_x,gyr_y,gyr_z
1592290915.941487,-0.31861015562985595,9.69,0.990694922185072,-0.5166666666666667,-0.6344444444444445,-0.017777777777777778,0.015983440481988697,0.0026364870715426814,-0.005302545410299023
1592290915.951487,-0.2563615624563527,9.69,0.9172703570929746,-0.5166666666666667,-0.6344444444444445,-0.017777777777777778,0.01735415840348382,-0.002776821765191988,-0.00545415391248228
1592290915.961487,-0.28690509107666934,9.65309490892333,1.04839409153751,-0.5166666666666667,-0.6344444444444445,-0.017777777777777778,0.019466152988806603,-0.006291783050784332,-0.009479874850208899
1592290915.971487,-0.23051219512195123,9.683048780487805,1.1062682926829268,-0.5166666666666667,-0.6344444444444445,-0.017777777777777778,0.02612406695934805,-0.0058239721533774194,-0.013422539750474683
1592290915.981487,-0.01578871475733315,9.7,1.13,-0.5334131471432727,-0.6400266046033131,0.007341942937131342,0.0413263557889369,0.004593013108814528,-0.021665282695775626
1592290915.991487,0.09834187189556082,9.719585467973891,1.1495854679738902,-0.5366666666666666,-0.6411111111111111,0.012222222222222223,0.05965655481649669,0.03965985329603153,-0.04747654249127119
1592290916.001487,0.10736676988265971,9.70526646023468,1.076332301173403,-0.5366666666666666,-0.6411111111111111,0.012222222222222223,0.06803159239287809,0.06768279676131714,-0.07130066256100581
1592290916.011487,0.054899702342435616,9.73673353177171,1.05,-0.5366666666666666,-0.6411111111111111,0.012222222222222223,0.09093903446546583,0.10750153596204268,-0.11168670088735522
1592290916.021487,0.05479336322322872,9.763966816116143,1.0404132735535425,-0.5366666666666666,-0.6411111111111111,0.012222222222222223,0.10265523800780896,0.11801703126551853,-0.13388360033778984
1592290916.031487,-0.6437809727745487,9.732936677883146,0.9348944631385745,-0.5292695693552224,-0.6178630909894294,-0.016309438836205434,0.11137152043574552,0.14002309690484716,-0.18394630432889914
1592290916.041487,-0.8862929693575984,9.656799268937625,0.8368354331933427,-0.5288888888888889,-0.6166666666666667,-0.017777777777777778,0.11053883426241957,0.12402134324100755,-0.18108579971108396
1592290916.051487,-0.7101657009801268,9.394327178209778,0.7177846970271294,-0.5288888888888889,-0.6166666666666667,-0.017777777777777778,0.10721985870276272,0.0624551570157967,-0.1345854933887291
1592290916.061487,-0.3686215790227827,9.608112910159049,0.5726271672159335,-0.5288888888888889,-0.6166666666666667,-0.017777777777777778,0.11988846129021785,0.011768046285936293,-0.0628756332268578
1592290916.071487,-0.13944455665522118,9.760974983408836,0.5477210953054218,-0.5288888888888889,-0.6166666666666667,-0.017777777777777778,0.11572453397063212,-0.0012936559999823065,-0.049133149933976834
1592290916.081487,0.3789120874239261,10.026304029141308,0.4536959708586913,-0.49921509977837997,-0.6537589030548029,-0.0018811050400051321,0.07677920353620685,-0.01626166976785008,-0.07355386050911059
1592290916.091487,0.44613773570842963,10.089880251422324,0.4425149685722094,-0.49777777777777776,-0.6555555555555556,-0.0011111111111111111,0.05648804780666444,-0.003298617434427,-0.08914765856421404
1592290916.101487,0.5673867563276361,10.303459419071634,0.39870084991127297,-0.49777777777777776,-0.6555555555555556,-0.0011111111111111111,-0.0030781050183585935,0.04201680081558731,-0.13710857597463602
1592290916.111487,0.6753127572016461,10.468474219317356,0.4422062454611474,-0.49777777777777776,-0.6555555555555556,-0.0011111111111111111,-0.07582287927748768,0.10075154457738865,-0.21627540954893792
1592290916.121487,0.7992365522466344,10.430763447753366,0.7054193134798065,-0.49777777777777776,-0.6555555555555556,-0.0011111111111111111,-0.15312418706570508,0.1730755386565848,-0.3422874295693032
1592290916.131487,0.8366367376332059,10.424788211229517,0.833697052807379,-0.5022963978756856,-0.6543232046197626,-0.0027542456921684846,-0.19358956706880107,0.2284401527133447,-0.4339826532475607
1592290916.141487,0.8655560748021542,10.450494288713026,0.8401235721782565,-0.5101510326623135,-0.6521810314961367,-0.005610476523669558,-0.20585749608841103,0.2557801088141898,-0.479198734491266
1592290916.1514869,0.8944754119711027,10.476200366196537,0.8465500915491339,-0.5180056674489415,-0.6500388583725109,-0.008466707355170631,-0.218125425108021,0.28312006491503483,-0.5244148157349713
1592290916.1614869,0.7795882747818303,10.345098083090923,0.8789803833818155,-0.5222222222222223,-0.6488888888888888,-0.01,-0.25079161397645217,0.4195056766050497,-0.9343627538292006
1592290916.1714869,0.3824065784841321,10.13358296031786,0.9464839309963285,-0.5116013121203485,-0.6517855007348544,-0.013379380486959826,-0.26213042803158837,0.49611799244460864,-1.2104035678131098
1592290916.1814868,-0.03949152542372891,9.943728813559321,1.015042372881356,-0.4987099811676083,-0.65530131826742,-0.017481167608286254,-0.2638562509271618,0.5329355475501752,-1.3674534513102923
1592290916.1914868,-0.13064272650738817,9.880058931111563,1.034268876825268,-0.49777777777777776,-0.6555555555555556,-0.017777777777777778,-0.27059614464501963,0.5406565164793719,-1.4165550645017024
1592290916.2014868,-0.3836647186970504,9.72158822919188,1.0121117604343166,-0.49777777777777776,-0.6555555555555556,-0.017777777777777778,-0.2877489692503633,0.5527637409975173,-1.5450674840185736
1592290916.2114868,-0.5408946201894016,9.524737054201088,1.1304735039290752,-0.49777777777777776,-0.6555555555555556,-0.017777777777777778,-0.27844318409263,0.5451283420840247,-1.6432848126684532
1592290916.2214868,-0.5917397210650245,9.426520557869951,1.102868502082956,-0.49777777777777776,-0.6555555555555556,-0.017777777777777778,-0.2586688555888134,0.536309196730119,-1.7003024404086204
1592290916.2314868,-0.8005978717446094,9.382376085130216,0.9403934472136657,-0.45118718690687326,-0.6758859952083138,-0.04488503064812223,-0.2279184158514588,0.5248406609374865,-1.7545425108100323
1592290916.2414868,-1.0049889901290812,9.375000379650722,0.8800015186028853,-0.43666666666666665,-0.6822222222222222,-0.05333333333333334,-0.22143864884678055,0.5121458392380035,-1.7660548712078847
1592290916.2514868,-1.4420774802458296,9.33842405618964,0.77316615452151,-0.43666666666666665,-0.6822222222222222,-0.05333333333333334,-0.24554945689308394,0.4836990539136422,-1.7742644004383308
1592290916.2614868,-1.7077733304743525,9.395312462773688,0.8724608677006647,-0.43666666666666665,-0.6822222222222222,-0.05333333333333334,-0.2831515303891406,0.4717502290285249,-1.7936837251227784
1592290916.2714868,-1.6831878015895543,9.276375603179108,1.0396982330400226,-0.43666666666666665,-0.6822222222222222,-0.05333333333333334,-0.30738735968480047,0.4661727507465703,-1.8294916616293775
1592290916.2814867,-1.6872689677111499,9.221512645140766,1.1851471289963416,-0.4060293727798102,-0.7128595161090787,-0.02532209320820741,-0.3279757034122599,0.47649369382003215,-1.8844239704714247
1592290916.2914867,-1.7867537198956895,9.224896840006137,1.1744842000306794,-0.3977777777777778,-0.7211111111111111,-0.017777777777777778,-0.33497507430387524,0.49889226993009933,-1.9148356376492308
1592290916.3014867,-1.9407610629008785,9.109927235487522,1.0399272354875222,-0.3977777777777778,-0.7211111111111111,-0.017777777777777778,-0.34182131821021267,0.5496444257183086,-1.973727980955936
1592290916.3114867,-2.1866105082809826,9.05572030268418,0.9209744431753284,-0.3977777777777778,-0.7211111111111111,-0.017777777777777778,-0.35399771689999726,0.6220694595704875,-2.0283629287307074
1592290916.3214867,-2.6108654337746593,8.846622181478413,1.0256157114398041,-0.3977777777777778,-0.7211111111111111,-0.017777777777777778,-0.37170921897389253,0.6788053247276385,-2.0863954010128873
1592290916.3314867,-3.045240417556729,8.632816492684697,1.1254367014630606,-0.33174299929690687,-0.7365478125741719,-0.062372693115508804,-0.3910521298986227,0.7455876540707673,-2.1756453986709077
1592290916.3414867,-3.2545713634290925,8.510915792673657,1.1617069463444292,-0.31222222222222223,-0.7411111111111112,-0.07555555555555556,-0.39984262227222733,0.7661156277390505,-2.19300220923152
1592290916.3514867,-3.8672410367048005,8.138093507820706,1.4245096091066511,-0.31222222222222223,-0.7411111111111112,-0.07555555555555556,-0.40744779388613783,0.7888196320101487,-2.175102583774991
1592290916.3614867,-4.007790296893199,7.888613468349616,1.585693265825192,-0.31222222222222223,-0.7411111111111112,-0.07555555555555556,-0.4043305131744116,0.7545524072065186,-2.151575804291178
1592290916.3714867,-4.234671392195994,7.952335696097997,1.4527300254628037,-0.31222222222222223,-0.7411111111111112,-0.07555555555555556,-0.3699090998225515,0.7482354668972732,-2.1210217405448843
1592290916.3814867,-4.570840048840049,7.885861619861619,1.5176467236467237,-0.2459501650612762,-0.7455788902455569,-0.06959851670962783,-0.3282598848072497,0.728920210947051,-2.0855882754090405
1592290916.3914866,-4.683928499617968,7.765892950496641,1.6473213495797645,-0.21333333333333335,-0.7477777777777778,-0.06666666666666667,-0.30071871408887096,0.7014821440963007,-2.092466638852756
1592290916.4014866,-4.909519695333371,7.491476723696925,1.6619928380605922,-0.21333333333333335,-0.7477777777777778,-0.06666666666666667,-0.2103876395470297,0.6412959014208807,-2.1506311401512725
1592290916.4114866,-5.0622593095561434,7.27392275986944,1.670753103185381,-0.21333333333333335,-0.7477777777777778,-0.06666666666666667,-0.12631850608396555,0.5810192056553939,-2.200605007261665
1592290916.4214866,-5.526741543500677,7.106147920499808,1.68651853050001,-0.21333333333333335,-0.7477777777777778,-0.06666666666666667,-0.03508421805151696,0.5241885551319476,-2.217893317883655
1592290916.4314866,-5.9986783756851025,7.132391629297459,1.5745104633781764,-0.15173891380169408,-0.743500387532525,-0.07522144715717212,0.07298117203466917,0.4354329347039456,-2.1898565195672948
1592290916.4414866,-6.200755874568931,7.184214050846099,1.467357847461705,-0.13333333333333333,-0.7422222222222222,-0.07777777777777778,0.14135562495204035,0.38074079784909665,-2.1330265565530704
1592290916.4514866,-6.563060098473414,7.080481233144469,1.2388947720018804,-0.13333333333333333,-0.7422222222222222,-0.07777777777777778,0.22652207629197502,0.2823890381076858,-1.9905619762176876
1592290916.4614866,-6.730531955606582,7.191063911213165,1.1067891312667433,-0.13333333333333333,-0.7422222222222222,-0.07777777777777778,0.25515629930245365,0.17627040614728992,-1.8733108796215545
1592290916.4714866,-6.76,6.93537053759557,1.086169205145185,-0.13333333333333333,-0.7422222222222222,-0.07777777777777778,0.27551358654364005,0.0835864273086251,-1.7842839043110623
1592290916.4814866,-6.9905279085406855,7.012442073729901,1.0480858348107844,-0.06192401486281783,-0.7523126693974038,-0.09485391915116193,0.28013470807047125,-0.007855388770338777,-1.6560683903372466
1592290916.4914865,-7.108436986246441,7.030440274269217,1.0521243834957297,-0.03111111111111111,-0.7566666666666667,-0.10222222222222223,0.27615068632318807,-0.06312410596711357,-1.5719633963220856
1592290916.5014865,-7.339821165579633,7.114944245739533,0.869507679360404,-0.03111111111111111,-0.7566666666666667,-0.10222222222222223,0.26669470035767023,-0.14896553162433246,-1.3887983368232644
1592290916.5114865,-7.415567934066461,7.143407604398764,0.748351901099691,-0.03111111111111111,-0.7566666666666667,-0.10222222222222223,0.2317080187247298,-0.1593851982369073,-1.206816026597897
1592290916.5214865,-7.34857783591852,7.099317884507569,0.772046346477294,-0.03111111111111111,-0.7566666666666667,-0.10222222222222223,0.20061317863966546,-0.15787915395195296,-1.1010062297975793
1592290916.5314865,-7.102596571932699,7.07,0.8248166236057723,0.0001630012393135441,-0.762139636327991,-0.0678206986367551,0.10262130299837548,-0.12330601587686481,-0.7995464153075346
1592290916.5414865,-7.10644130998703,7.13166990920882,0.81,0.013333333333333334,-0.7644444444444445,-0.05333333333333334,0.060887033365415025,-0.10724840274095263,-0.689658838936736
1592290916.5514865,-7.1037165675615155,7.157610280397084,0.8942480033836737,0.013333333333333334,-0.7644444444444445,-0.05333333333333334,-0.02451963315580121,-0.09531735448322011,-0.48735015360263223
1592290916.5614865,-7.0332641666233835,6.915075832337817,0.9230566664935335,0.013333333333333334,-0.7644444444444445,-0.05333333333333334,-0.0730238488717801,-0.10523426373316677,-0.3625449732313818
1592290916.5714865,-7.104725451058667,6.891733004579077,1.2261461390943604,0.013333333333333334,-0.7644444444444445,-0.05333333333333334,-0.10043391850175688,-0.13492835214348994,-0.2736259641576632
1592290916.5814865,-7.092610540352153,6.831978967784949,1.4232421129193562,0.05621753492741764,-0.7535532186427722,-0.05333333333333334,-0.10950563178669047,-0.18236623205778016,-0.17821649979016696
1592290916.5914865,-7.257556525658972,6.922208118816579,1.4691855085529906,0.08333333333333333,-0.7466666666666667,-0.05333333333333334,-0.09247974811454533,-0.22972747726178572,-0.07908573639777657
1592290916.6014864,-7.012705639026246,7.079486259033853,1.5137671167744389,0.08333333333333333,-0.7466666666666667,-0.05333333333333334,-0.07006720627094225,-0.2691961042890196,0.020404479394935247
1592290916.6114864,-6.514357973909977,7.20810483017981,1.6623231872135387,0.08333333333333333,-0.7466666666666667,-0.05333333333333334,-0.052918151139758854,-0.2725628839597694,0.12259225279399999
1592290916.6214864,-6.173041936810765,7.100691634184083,1.890368244765244,0.08333333333333333,-0.7466666666666667,-0.05333333333333334,-0.045583663148121935,-0.26774114967369766,0.1620210301012985
1592290916.6314864,-5.7748408513962115,6.9986701816051555,1.9328724858426087,0.07987589229534162,-0.7598049426110352,-0.06716309748530018,-0.015120818966274829,-0.24145659721934196,0.1322748947454636
1592290916.6414864,-5.545364995602463,7.037140001599104,1.8019724954025744,0.07777777777777778,-0.7677777777777778,-0.07555555555555556,0.018834557979477667,-0.205078367549852,0.08313984809239758
1592290916.6514864,-5.657191286968401,7.4114891087105015,1.3478002378121283,0.07777777777777778,-0.7677777777777778,-0.07555555555555556,0.07371322060253438,-0.12052848093860048,-0.04388058415495767
1592290916.6614864,-5.6867114431434524,7.363422886286904,1.4265692119818978,0.07777777777777778,-0.7677777777777778,-0.07555555555555556,0.09199109747010106,-0.054557916082910704,-0.16032195694629076
1592290916.6714864,-6.17198753918192,7.239160249216362,1.4741217445145312,0.07777777777777778,-0.7677777777777778,-0.07555555555555556,0.09785836153453738,0.017620097900425277,-0.22336230345605898
1592290916.6814864,-6.329099983196102,7.07033876659385,1.489830616703075,0.09005941111671241,-0.7630015870348588,-0.06259160925334678,0.09030854421059047,0.08788089123069079,-0.2610925749110119
1592290916.6914864,-6.273786415813683,6.98911234511624,1.4946081803489288,0.09777777777777778,-0.76,-0.05444444444444444,0.08633940786980734,0.10680458855750886,-0.2760471358970468
1592290916.7014863,-6.633519520135346,7.05,1.1384712004306479,0.09777777777777778,-0.76,-0.05444444444444444,0.09974481624781795,0.11278713816261778,-0.2829090927569073
1592290916.7114863,-6.558277768470431,7.341844530072039,1.0190333389177417,0.09777777777777778,-0.76,-0.05444444444444444,0.10224478087148596,0.09228549034481326,-0.2601679844827906
1592290916.7214863,-6.503052136782805,7.480441709426244,1.0426678388173238,0.09777777777777778,-0.76,-0.05444444444444444,0.10179272448541142,0.07899416933853269,-0.24461832349307322
1592290916.7314863,-6.310860076192936,7.378328275327695,0.9522289662297411,0.10021939547864518,-0.7545063601730484,-0.06360051082269717,0.10112417626094736,0.058366384736103546,-0.16655486482158
1592290916.7414863,-6.400924158714214,7.425124309392265,0.8285723254645907,0.10222222222222223,-0.75,-0.07111111111111111,0.0914921306648594,0.05270819281345726,-0.12764528162030353
1592290916.7514863,-6.382079044874434,7.290790448744339,0.953960477562783,0.10222222222222223,-0.75,-0.07111111111111111,0.05291090653065045,0.06269560026841611,-0.07340990278336071
1592290916.7614863,-6.437665438231052,7.3898605992629385,0.9182230411792982,0.10222222222222223,-0.75,-0.07111111111111111,0.03625968013725822,0.06960412768017925,-0.0602275448291624
1592290916.7714863,-6.544879389510444,7.266656319386061,0.908223070124383,0.10222222222222223,-0.75,-0.07111111111111111,-0.007662128604415062,0.07003331618737911,-0.04926480482159995
1592290916.7814863,-6.5110950371125025,7.14182506185417,1.1061862902052102,0.10335361179837967,-0.7533941687284723,-0.07111111111111111,-0.038358252415919905,0.0691383505012432,-0.04803637110285383
1592290916.7914863,-6.485744266260527,7.2624681956638595,1.125063608672281,0.10444444444444445,-0.7566666666666667,-0.07111111111111111,-0.05657470423989604,0.04073198007716805,-0.06794724060137321
1592290916.8014863,-6.57845983144078,7.36451191010175,0.9262581741778607,0.10444444444444445,-0.7566666666666667,-0.07111111111111111,-0.0603873043527144,0.029183863072666107,-0.06337467008192194
1592290916.8114862,-6.55751509798773,7.246066407275679,1.0211066287923998,0.10444444444444445,-0.7566666666666667,-0.07111111111111111,-0.06639033144679138,0.03210049426249429,-0.02460734371370165
1592290916.8214862,-6.587160709151893,6.989855869669382,1.1893826545280306,0.10444444444444445,-0.7566666666666667,-0.07111111111111111,-0.06451387546016969,0.03192363587412781,0.005299294619603482
1592290916.8314862,-6.684912306131324,6.777585157269169,1.1370691404551385,0.1106083007199111,-0.7618822373612923,-0.07016282553027009,-0.04568318362556726,0.028229891105623968,0.028319383818030546
1592290916.8414862,-6.557586501191281,6.686790654670887,1.1158088261441625,0.11888888888888889,-0.7688888888888888,-0.06888888888888889,-0.03335856811171597,0.01973332707538502,0.04797343522546414
1592290916.8514862,-6.949666868041771,6.929611346048733,0.82,0.11888888888888889,-0.7688888888888888,-0.06888888888888889,0.007135823910560661,0.011993082097549856,0.1333115028411917
1592290916.8614862,-6.89,6.936460191766446,0.9670388303200878,0.11888888888888889,-0.7688888888888888,-0.06888888888888889,0.019762676460342285,-0.012188497631336634,0.20147919823178434
1592290916.8714862,-6.805808791840253,7.096346789254418,1.1852090216922857,0.11888888888888889,-0.7688888888888888,-0.06888888888888889,0.015173689676533448,-0.04769599223463816,0.23678205117055487
1592290916.8814862,-6.645133976833977,7.3566138996139,1.3553227799227798,0.12404723294723295,-0.7688888888888888,-0.0627926640926641,0.007295678435025718,-0.08120245425748328,0.2924250305974889
1592290916.8914862,-6.428562374612438,7.58534515776035,1.3777010760532555,0.13111111111111112,-0.7688888888888888,-0.05444444444444444,0.007134268075929767,-0.0730165778040231,0.3993698014027377
1592290916.9014862,-6.349626035502959,7.596622485207101,1.3452473372781066,0.13111111111111112,-0.7688888888888888,-0.05444444444444444,0.007254218342201874,-0.057445601761868983,0.44953278548319275
1592290916.9114861,-6.493508097008136,7.361272646928856,1.169122975747966,0.13111111111111112,-0.7688888888888888,-0.05444444444444444,0.02366811596017459,-0.017539603998769405,0.5801493533304622
1592290916.9214861,-6.6159735581189,7.17969405501331,1.2461265306122449,0.13111111111111112,-0.7688888888888888,-0.05444444444444444,0.0329206341973611,0.02123174838406283,0.6472062802354843
1592290916.9314861,-6.553608280561895,7.092908161625253,1.3476672345623453,0.13274407906250782,-0.7695420760694476,-0.0524848829027684,0.05337773849892491,0.04985418220201015,0.6876033901822537
1592290916.9414861,-6.319332747212068,7.270844014622183,1.3855545786867798,0.13666666666666666,-0.7711111111111111,-0.04777777777777778,0.10642613730618862,0.059656344772499016,0.7139171745811406
1592290916.951486,-6.2630217408366695,7.300647515893572,1.29007220783298,0.13666666666666666,-0.7711111111111111,-0.04777777777777778,0.13939089673659172,0.05352134136921273,0.7258654805533573
1592290916.961486,-5.8978516491294295,7.486859104421271,1.192809654131081,0.13666666666666666,-0.7711111111111111,-0.04777777777777778,0.14014923686692057,0.03806190302431489,0.7453439101665146
1592290916.971486,-5.865550194608362,7.557808189693828,1.2214582174950228,0.13666666666666666,-0.7711111111111111,-0.04777777777777778,0.11370090834461472,0.0272707695624114,0.7828665547556033
1592290916.981486,-6.108270190684814,7.2145800265737785,1.07,0.12884679378987562,-0.7730660793303088,-0.04777777777777778,0.08470741518495264,0.037187078294621256,0.8384067732655672
1592290916.991486,-6.280752981491084,6.975508262506482,0.9445293865680727,0.11,-0.7777777777777778,-0.04777777777777778,0.08839425527472353,0.07860552637087476,0.9125846749203987
1592290917.001486,-6.599641341203064,6.935523044078865,0.9246861735526811,0.11,-0.7777777777777778,-0.04777777777777778,0.08893042132743567,0.09164282693157265,0.9495404836091904
1592290917.011486,-6.709682386910491,6.981828681424447,1.0609528392685275,0.11,-0.7777777777777778,-0.04777777777777778,0.0858207706002,0.06363144568387412,0.963904904296351
1592290917.021486,-6.68461899179367,7.313048065650645,1.0823094958968347,0.11,-0.7777777777777778,-0.04777777777777778,0.0924686895905671,0.009573223022002891,1.000116629639283
1592290917.031486,-6.599479302477184,7.4717764015645365,0.9425880052151239,0.10185978922207736,-0.7777777777777778,-0.04777777777777778,0.08269265321704555,-0.06959601724391604,1.0845213504068891
1592290917.041486,-6.457225516555559,7.394845493720305,0.7065614526168466,0.08444444444444445,-0.7777777777777778,-0.04777777777777778,0.057126974008076155,-0.13442176235184358,1.1619843594635053
1592290917.051486,-6.024201066507864,7.612521451966543,1.2316796145413205,0.08444444444444445,-0.7777777777777778,-0.04777777777777778,-0.010253006210154073,-0.26379783183970223,1.3177971380121056
1592290917.061486,-5.868985879332477,7.7648985879332475,1.2229011553273428,0.08444444444444445,-0.7777777777777778,-0.04777777777777778,-0.05868361544654875,-0.3224655426832572,1.4383666692073172
1592290917.071486,-5.810154401443754,7.726061760577501,1.4811389612993784,0.08444444444444445,-0.7777777777777778,-0.04777777777777778,-0.07340785888658023,-0.34081582741442257,1.50706486096147
1592290917.081486,-5.617467066925658,7.693059862263818,1.388520925304609,0.07234265308925383,-0.7845322659760237,-0.04777777777777778,-0.08377514917348511,-0.3345943803251605,1.5385952640644982
1592290917.091486,-5.499081455805893,7.750675909878683,1.5044598497978048,0.03666666666666667,-0.8044444444444444,-0.04777777777777778,-0.09195999678113392,-0.34413348036154656,1.5039638786106797
1592290917.101486,-5.387826130653266,7.612065075376885,1.2184778894472363,0.03666666666666667,-0.8044444444444444,-0.04777777777777778,-0.08969712410588979,-0.38039171487568635,1.4382365967437076
1592290917.111486,-5.325843935937537,7.652208085416618,1.2029874650172856,0.03666666666666667,-0.8044444444444444,-0.04777777777777778,-0.07793061245009164,-0.4226190557110794,1.405655895623825
1592290917.121486,-5.051328681287383,7.604764668185702,1.3037923668470521,0.03666666666666667,-0.8044444444444444,-0.04777777777777778,-0.050966707072059476,-0.445159739160312,1.448607433991549
1592290917.131486,-4.71608669548511,7.399849503682356,1.1382600864553314,0.031256270679901804,-0.8006120806204859,-0.04800321094389298,-0.020568168027662724,-0.45757954327248934,1.5408053787418072
1592290917.141486,-4.74,7.91,1.21,0.01,-0.7855555555555556,-0.04888888888888889,0.022907446432425576,-0.4810563750809371,1.6329736813971945
1592290917.151486,-4.213384443200895,7.914162283156127,0.8183245663122551,0.01,-0.7855555555555556,-0.04888888888888889,0.10609492220796868,-0.41156343433999865,1.7832884540331575
1592290917.161486,-4.299212640084652,8.030070222692512,0.7420912895002646,0.01,-0.7855555555555556,-0.04888888888888889,0.13761836890793205,-0.3372814308995462,1.8580789770935808
1592290917.171486,-4.299733123175297,8.556577707725099,1.3229419139904355,0.01,-0.7855555555555556,-0.04888888888888889,0.11959769367670749,-0.29521271613497124,1.869319380546575
1592290917.181486,-3.9992527803958526,8.533177379830349,1.1271491046182847,-0.0013940307885642496,-0.7873546130484868,-0.04768951722693476,0.08216918821713068,-0.26263026980214876,1.8713405846263076
1592290917.191486,-3.54,8.73,1.57,-0.05333333333333334,-0.7955555555555556,-0.042222222222222223,0.014180800172453926,-0.24652775684419903,1.8838647613713795
1592290917.2014859,-2.7494597923139366,7.457581660928709,1.4883354325859992,-0.05333333333333334,-0.7955555555555556,-0.042222222222222223,-0.010585580437526835,-0.21741518177635663,1.9630034400552305
1592290917.2114859,-2.8193277430695773,8.043569850583177,1.35399743449652,-0.05333333333333334,-0.7955555555555556,-0.042222222222222223,0.08612365171056899,-0.13669254769941266,2.0864232559969516
1592290917.2214859,-3.276837387731355,8.574519835642342,0.8605121631940656,-0.05333333333333334,-0.7955555555555556,-0.042222222222222223,0.19606042170556304,-0.04475059805535531,2.1846184022236015
1592290917.2314858,-3.1624027099417047,8.357349929100362,0.9475972900582952,-0.06699648127724384,-0.794416959893563,-0.04184269033489137,0.1839482368045225,0.0007452091181510373,2.233837718256777
1592290917.2414858,-2.64,8.83,1.47,-0.13333333333333333,-0.7888888888888889,-0.04,0.13962634015954636,0.004363323129985824,2.270018858375125
1592290917.2514858,-2.5071690766075645,9.379591651307079,1.5414085823317152,-0.13333333333333333,-0.7888888888888889,-0.04,0.055655392295787094,-0.010269174605137842,2.238682810748686
1592290917.2614858,-2.5933013472444904,9.445438273229797,1.6613606451458518,-0.13333333333333333,-0.7888888888888889,-0.04,-0.019539337698894793,-0.03399557988759468,2.1928348474110257
1592290917.2714858,-2.4051131139166606,9.18726191344961,1.3909881047945705,-0.13333333333333333,-0.7888888888888889,-0.04,-0.08510362767706907,-0.07804634337610945,2.155247228545402
1592290917.2814858,-2.049117970198448,9.070788985785896,1.265243768454302,-0.1462027054865069,-0.7880639291354803,-0.03802009659181945,-0.15453869281687646,-0.11430948575038714,2.1262037594705827
1592290917.2914858,-1.6006122590969178,9.376848952897793,1.3066367494607944,-0.22,-0.7833333333333333,-0.02666666666666667,-0.2650718801466388,-0.15053464798451094,2.058397686570812
1592290917.3014858,-1.3884710246158294,9.979181559805387,1.3691969748061081,-0.22,-0.7833333333333333,-0.02666666666666667,-0.3057619859926291,-0.14717876296628493,2.024838836388552
1592290917.3114858,-1.0743805309734513,10.282221238938053,1.3710884955752212,-0.22,-0.7833333333333333,-0.02666666666666667,-0.492333441630604,-0.1212810762740927,1.8612266439551632
1592290917.3214858,-0.8878806253652834,9.85738895382817,0.863197691408533,-0.22,-0.7833333333333333,-0.02666666666666667,-0.6806784082777886,-0.08944812416470939,1.6907877128695066
1592290917.3314857,-1.250301338850072,9.643201530114368,1.124162145282798,-0.2282172085821721,-0.7799497768583213,-0.024249840613086642,-0.7107327783868921,-0.08944812416470939,1.6588351720166703
1592290917.3414857,-1.37,9.78,2.21,-0.27666666666666667,-0.76,-0.01,-0.8879362569521151,-0.08944812416470939,1.4704398948052226
1592290917.3514857,-1.5304876930133007,9.484437649696785,1.8167899913366967,-0.27666666666666667,-0.76,-0.01,-0.760422791311001,-0.11887487298963634,1.424645180892318
1592290917.3614857,-1.284986063211603,8.586871545329995,1.964043322152407,-0.27666666666666667,-0.76,-0.01,-0.5621137806303909,-0.16527838527855032,1.3693636031384429
1592290917.3714857,-1.726852573676733,9.362768933736476,2.3676394302575496,-0.27666666666666667,-0.76,-0.01,-0.40711890220401536,-0.22434825945204714,1.3041153609728495
1592290917.3814857,-1.3742957798709485,9.507154935845138,2.108577467922569,-0.280832159015056,-0.7565287563763422,-0.013967135569894599,-0.27072384472909095,-0.310827429810499,1.269669224803914
1592290917.3914857,-1.01,9.07,1.89,-0.3233333333333333,-0.7211111111111111,-0.05444444444444444,-0.16144295580947549,-0.3436116964863836,1.246819584393449
1592290917.4014857,-0.4363576071795141,13.358393031028765,1.8658862541779615,-0.3233333333333333,-0.7211111111111111,-0.05444444444444444,-0.10475311421035802,-0.3419529286201667,1.0502443959942696
1592290917.4114857,0.4707086921519358,8.858164719084677,2.7178861213437098,-0.3233333333333333,-0.7211111111111111,-0.05444444444444444,-0.19321095742084327,-0.37632142481168823,0.6147949274180995
1592290917.4214857,-0.02,9.33,2.85,-0.3233333333333333,-0.7211111111111111,-0.05444444444444444,-0.11017390903214205,-0.35779249665883756,0.4308781590861001
1592290917.4314857,-0.15723994882332415,9.373000426472299,2.1234396929399453,-0.3249007698040381,-0.7204636916992982,-0.05444444444444444,-0.1344542721354544,-0.2731163606825121,0.3961316059804967
1592290917.4414856,-0.07,10.1,1.6,-0.37444444444444447,-0.7,-0.05444444444444444,-0.00545415391248228,-0.21707532571679475,0.4701480672559725
1592290917.4514856,-0.3152810712791184,9.856901938903611,1.7279606639698704,-0.37444444444444447,-0.7,-0.05444444444444444,0.05052331352792415,-0.1383358762362164,0.5775328943738782
1592290917.4614856,-0.34354990382560374,9.846368882239796,1.47,-0.37444444444444447,-0.7,-0.05444444444444444,0.10866926661490929,-0.131972806550105,0.6470549890055575
1592290917.4714856,-0.2702114803625377,9.882896525679758,1.5169977341389729,-0.37444444444444447,-0.7,-0.05444444444444444,0.11460643894893278,-0.14067103308417286,0.7045152029901658
1592290917.4814856,-0.209738029398923,9.770261970601076,1.6601964779508076,-0.3745717912644124,-0.699992723038859,-0.05444080596387393,0.09478082769899202,-0.15388572587083538,0.7506630377150201
1592290917.4914856,-0.13,9.85,1.72,-0.41333333333333333,-0.6977777777777778,-0.05333333333333334,0.05781403147231216,-0.1778054175469223,0.8028514559173915
1592290917.5014856,0.11457330794530032,9.728405746927471,1.898937164618314,-0.41333333333333333,-0.6977777777777778,-0.05333333333333334,0.009986096029618759,-0.1921021550744832,0.8628875570882355
1592290917.5114856,0.3451851763184985,9.63119341169711,1.736008235378612,-0.41333333333333333,-0.6977777777777778,-0.05333333333333334,-0.0215988986636546,-0.20254550461096443,0.8968357292904321
1592290917.5214856,0.59,9.74,1.6,-0.41333333333333333,-0.6977777777777778,-0.05333333333333334,-0.014180800172453926,-0.20180369476184434,0.9250245035569946
1592290917.5314856,0.6894402411268992,9.411847204281234,1.4508396383096511,-0.41333333333333333,-0.6977777777777778,-0.05333333333333334,-0.007672451610048426,-0.14973690626260033,0.9944468882226533
1592290917.5414855,0.97,9.63,1.35,-0.4211111111111111,-0.6644444444444444,-0.017777777777777778,0.007635815477475192,-0.13853550937704992,1.0395617357191225
1592290917.5514855,0.6477843671528557,9.434668483197093,1.2211374686114227,-0.4211111111111111,-0.6644444444444444,-0.017777777777777778,0.003043742503962169,-0.11850891224790917,1.027954240155866
1592290917.5614855,0.6491226278412465,9.38286131629575,1.2781854024653825,-0.4211111111111111,-0.6644444444444444,-0.017777777777777778,-0.021050964003150142,-0.16920600853780787,0.9805742249547976
1592290917.5714855,0.71036717752235,9.8912458829065,1.5139934126504,-0.4211111111111111,-0.6644444444444444,-0.017777777777777778,-0.04761314687713357,-0.2228813948232403,0.9435285740050324
1592290917.5814855,0.8442848020434227,9.96172884318075,1.626766149089198,-0.4211111111111111,-0.6644444444444444,-0.017777777777777778,-0.07529174065223875,-0.2674746847942431,0.9289204272903936
1592290917.5914855,0.97,9.8,1.76,-0.47444444444444445,-0.6644444444444444,-0.017777777777777778,-0.10471975511965977,-0.2999784651865254,0.9228428419920017
1592290917.6014855,1.2130735666288506,9.738080111702592,1.7896168950170173,-0.47444444444444445,-0.6644444444444444,-0.017777777777777778,-0.08848361613711064,-0.27644226080677553,0.9397082148930692
1592290917.6114855,1.4065546942291127,9.54240884295148,1.6437812230835487,-0.47444444444444445,-0.6644444444444444,-0.017777777777777778,-0.05262107562833463,-0.24050830015755478,0.9662499521821952
1592290917.6214855,1.4479130108468397,9.430347206089955,1.4992178481442433,-0.47444444444444445,-0.6644444444444444,-0.017777777777777778,-0.019767718840026063,-0.2247111411942699,0.9524184669605701
1592290917.6314855,1.44041796965744,9.28794142349136,1.60414842479584,-0.47444444444444445,-0.6644444444444444,-0.017777777777777778,-0.012409479359097563,-0.2247111411942699,0.9254382555304989
1592290917.6414855,1.45,9.26,1.33,-0.47444444444444445,-0.6322222222222222,0.0044444444444444444,-0.03381575425739013,-0.234528618236738,0.8813912722571364
1592290917.6514854,1.3910166595472022,9.535690410081163,1.7656145877829987,-0.47444444444444445,-0.6322222222222222,0.0044444444444444444,-0.08207715317506052,-0.2568037462702539,0.8648947282652412
1592290917.6614854,1.6357544382195115,9.700468288301066,1.6626742784199702,-0.47444444444444445,-0.6322222222222222,0.0044444444444444444,-0.09065473468418453,-0.2576630857837205,0.9289939435060564
1592290917.6714854,1.4879349368525614,9.319558145310062,1.9423534837519512,-0.47444444444444445,-0.6322222222222222,0.0044444444444444444,-0.0881173051922863,-0.24311066788755692,0.9884687473583128
1592290917.6814854,1.830168866184192,9.356757485454803,1.912594011636157,-0.47444444444444445,-0.6322222222222222,0.0044444444444444444,-0.053220065818426844,-0.25528412348308926,1.010380967430271
1592290917.6914854,2.01,9.15,1.8,-0.5255555555555556,-0.6133333333333333,0.0044444444444444444,-0.014180800172453926,-0.2748893571891069,0.9839293658118032
1592290917.7014854,2.1010869164052406,8.942581657132314,1.590896844436243,-0.5255555555555556,-0.6133333333333333,0.0044444444444444444,0.017236897780843148,-0.31772222990044213,0.9156072058087881
1592290917.7114854,2.22648956403004,8.804902467570468,1.4642299814688382,-0.5255555555555556,-0.6133333333333333,0.0044444444444444444,0.028466502242063957,-0.36230253349691494,0.8910987140185358
1592290917.7214854,2.42,9.13,1.65,-0.5255555555555556,-0.6133333333333333,0.0044444444444444444,0.025089107997418484,-0.39269908169872414,0.868301302867179
1592290917.7314854,2.4373511778598678,9.69391328044571,1.788809422878944,-0.5255555555555556,-0.6133333333333333,0.0044444444444444444,0.0052155491291977635,-0.3945918015909356,0.8654622230288618
1592290917.7414854,2.43,9.06,1.57,-0.5455555555555556,-0.5788888888888889,0.02666666666666667,-0.04036073895236887,-0.394880743263717,0.8257589023498172
1592290917.7514853,2.45992362160872,9.342623385578275,1.7680229135173842,-0.5455555555555556,-0.5788888888888889,0.02666666666666667,-0.061737689653286375,-0.3860794309139047,0.7922418124517898
1592290917.7614853,2.722201917814738,9.371096438004141,1.6988076712589526,-0.5455555555555556,-0.5788888888888889,0.02666666666666667,-0.07452681426696878,-0.3924588897254398,0.753993802621578
1592290917.7714853,2.76972706595906,9.054283548142532,1.7465529441496084,-0.5455555555555556,-0.5788888888888889,0.02666666666666667,-0.07656104874895393,-0.3863718772206199,0.7074372564949647
1592290917.7814853,2.951436152929709,9.531269901440485,1.822265063720712,-0.5455555555555556,-0.5788888888888889,0.02666666666666667,-0.06252089994079786,-0.3624210351361183,0.6851381966231874
1592290917.7914853,2.94,8.92,1.72,-0.5522222222222222,-0.5466666666666666,0.01888888888888889,-0.08726646259971647,-0.34470252726888007,0.6250460383704692
1592290917.8014853,3.1372996426748343,9.339178152118428,1.8622307299642675,-0.5522222222222222,-0.5466666666666666,0.01888888888888889,-0.08948654546332718,-0.323374808723102,0.5918216380135443
1592290917.8114853,2.91,9.27,2.05,-0.5522222222222222,-0.5466666666666666,0.01888888888888889,-0.09272061651219875,-0.27270769562411395,0.5497787143782138
1592290917.8214853,3.227813639968279,9.314094964314037,1.6861827914353686,-0.5522222222222222,-0.5466666666666666,0.01888888888888889,-0.07481183077375941,-0.228133179435117,0.4986289150420914
1592290917.8314853,3.4606455194290247,9.106209357652657,1.6362902458366375,-0.5522222222222222,-0.5466666666666666,0.01888888888888889,-0.04034309188816353,-0.18731493601796398,0.4859299059789772
1592290917.8414853,3.54,8.76,2.2,-0.5788888888888889,-0.52,0.04777777777777778,-0.03599741582238304,-0.09053895494720585,0.4908738521234052
1592290917.8514853,3.4922759817747884,8.405048546322412,1.1888015296159686,-0.5788888888888889,-0.52,0.04777777777777778,0.030449509394449167,-0.004047688675156829,0.5150332452105737
1592290917.8614852,3.253490397288646,9.039707211447938,1.6380512144605537,-0.5788888888888889,-0.52,0.04777777777777778,0.09239825557958188,0.03527485082655881,0.5184545051245459
1592290917.8714852,3.1477150695669214,9.375827944346463,1.9421849892220262,-0.5788888888888889,-0.52,0.04777777777777778,0.1343166897957546,0.07019965294372646,0.527506998054968
1592290917.8814852,2.9609131883205957,9.525269449343524,1.4340838722320204,-0.5788888888888889,-0.52,0.04777777777777778,0.16039915280909722,0.06612426809789167,0.5438085374383071
1592290917.8914852,3.22,8.89,1.56,-0.5733333333333334,-0.52,0.04777777777777778,0.13744467859455345,0.03599741582238304,0.5443245604657315
1592290917.9014852,3.6089302200026996,8.691133216358482,1.0801903090835472,-0.5733333333333334,-0.52,0.04777777777777778,0.1282102048902591,0.0032724923474893677,0.5632528964837877
1592290917.9114852,3.4470541091781643,9.216559328134373,1.568872225554889,-0.5733333333333334,-0.52,0.04777777777777778,0.07461709199948337,-0.00026737459971688804,0.5699735192035654
1592290917.9214852,3.6267471154863977,9.707526904484668,1.239298189901556,-0.5733333333333334,-0.52,0.04777777777777778,0.052825292535375816,-0.01692063639634256,0.5638497425104546
1592290917.9314852,3.2493622313962107,8.73816573162556,1.7720768497935855,-0.5733333333333334,-0.52,0.04777777777777778,0.010044622798189594,-0.007234447021885304,0.5436701813136686
1592290917.9414852,3.0,8.77,2.15,-0.6,-0.5066666666666667,0.04,-0.014180800172453926,-0.002181661564992912,0.4941463444708945
1592290917.9514852,3.590142240560276,9.361422405602758,1.362133608404137,-0.6,-0.5066666666666667,0.04,-0.005562766179650145,-0.018555760331064878,0.46012500270779383
1592290917.9614851,3.627482325782715,9.617751406723416,1.92223488674073,-0.6,-0.5066666666666667,0.04,-0.036958640610162165,-0.020580755208498818,0.3974357991486454
1592290917.9714851,3.6648275110756043,8.665536349771227,1.613295083157818,-0.6,-0.5066666666666667,0.04,-0.04407625009103553,-0.01011630874495751,0.36381714025573825
1592290917.9814851,4.0760632580434315,8.932078037620743,1.2629831505555957,-0.6,-0.5066666666666667,0.04,-0.04739912869589056,0.0040059253256763475,0.3762779350239446
1592290917.991485,3.946546716595123,8.903652388345968,1.6889816421591013,-0.62,-0.48,0.06888888888888889,-0.06525606981288393,0.037628232251160514,0.3342536057566465
1592290918.001485,3.74,8.57,1.26,-0.62,-0.48,0.06888888888888889,-0.06872233929727672,0.05235987755982988,0.3065234498815041
1592290918.011485,3.9514081289383176,9.05856802148972,1.3772075916953281,-0.62,-0.48,0.06888888888888889,-0.07425719710642803,0.0437113336118026,0.276599803297709
1592290918.021485,3.8331600401725052,8.993097418325751,1.7055715720446623,-0.62,-0.48,0.06888888888888889,-0.09030083716252313,0.04451088383290126,0.258263838131748
1592290918.031485,3.7753429432267973,8.596637324983755,1.4990819400957052,-0.62,-0.48,0.06888888888888889,-0.09750868506000429,0.04270892185853097,0.2744814959010807
1592290918.041485,3.67,8.98,2.33,-0.6322222222222222,-0.44555555555555554,0.1111111111111111,-0.09926560120717749,0.030543261909900768,0.2552544031041707
1592290918.051485,3.9474365295845573,9.024730644146034,2.023845205623164,-0.6322222222222222,-0.44555555555555554,0.1111111111111111,-0.07607852353083353,0.015426981646016157,0.22415187870643313
1592290918.061485,3.8154949226535066,8.69412119199013,2.2496749549207555,-0.6322222222222222,-0.44555555555555554,0.1111111111111111,-0.05108373909007247,0.02584157108393035,0.18329823761649508
1592290918.071485,4.217424173204886,9.014747244016288,1.9082490813387625,-0.6322222222222222,-0.44555555555555554,0.1111111111111111,-0.0006519417502142393,0.025337001432368174,0.16327571186070255
1592290918.081485,4.292404210944483,9.264680703148276,1.991560234382759,-0.6322222222222222,-0.44555555555555554,0.1111111111111111,0.014797381194948743,0.04987416140409762,0.14873517261819624
1592290918.091485,3.68,8.61,2.28,-0.6322222222222222,-0.44,0.09,0.07090400086226964,0.07635815477475191,0.1090830782496456
1592290918.101485,4.001678458916491,8.710805660279917,1.8782544027268502,-0.6322222222222222,-0.44,0.09,0.10251612257882771,0.07534056057838599,0.0739274888169152
1592290918.111485,4.24261068738341,8.824252756853763,1.6355996599683582,-0.6322222222222222,-0.44,0.09,0.0997134061884923,0.08653387580227187,0.0370882466048795
1592290918.121485,4.142877397001135,8.741654353929787,1.812446086142695,-0.6322222222222222,-0.44,0.09,0.10411939525591458,0.09260686114455038,0.04022345922665992
1592290918.131485,3.9090208885083335,8.491093809116073,1.8458541587845239,-0.6322222222222222,-0.44,0.09,0.09591982060105805,0.1208498405112784,0.08304346020202176
1592290918.141485,4.33842022782027,8.332306037003251,1.3958473089607748,-0.6288888888888889,-0.44,0.10444444444444445,0.12484663298740728,0.1529025159689518,0.1201650647670166
1592290918.151485,3.9919100852677496,9.021780539663752,1.7893345169987507,-0.6288888888888889,-0.44,0.10444444444444445,0.14262259200309715,0.15231843523239677,0.06902213185664502
1592290918.161485,3.8723907849455297,9.343563271300496,1.9272414019859274,-0.6288888888888889,-0.44,0.10444444444444445,0.15465723802407402,0.11420872283263665,-0.023243487637511065
1592290918.171485,3.7643557627153448,8.704294367672121,1.5249693024783886,-0.6288888888888889,-0.44,0.10444444444444445,0.13587870780694217,0.06661430169856923,-0.1328872722069275
1592290918.181485,3.9882768320979034,9.08323771585799,1.6024804418800436,-0.6288888888888889,-0.44,0.10444444444444445,0.11145270827374018,0.033733148480797316,-0.16388950238368388
1592290918.191485,4.19,9.01,2.05,-0.6088888888888889,-0.4211111111111111,0.1111111111111111,0.008726646259971648,-0.001090830782496456,-0.25634523388666713
1592290918.201485,3.6160661976703956,9.884565794026065,1.7311478875946642,-0.6088888888888889,-0.4211111111111111,0.1111111111111111,-0.010154668843569631,-0.03686595413657467,-0.24541394619514326
1592290918.211485,3.9007546325306595,8.678239190761794,1.495723748992928,-0.6088888888888889,-0.4211111111111111,0.1111111111111111,-0.0852768755266375,-0.03345904448669283,-0.2578750920792526
1592290918.221485,3.928914376510608,8.612533121475249,1.336151866439889,-0.6088888888888889,-0.4211111111111111,0.1111111111111111,-0.09244429582409837,-0.020148121077122626,-0.2742577670448775
1592290918.231485,3.861863053625362,9.03585591484149,1.6451333769827021,-0.6088888888888889,-0.4211111111111111,0.1111111111111111,-0.12245096792450505,-0.008486072305321342,-0.32691747216064293
1592290918.2414849,3.82,9.12,1.24,-0.6088888888888889,-0.4266666666666667,0.11888888888888889,-0.11780972450961724,-0.030543261909900768,-0.42869649752110717
1592290918.2514849,3.7194609055165984,8.864785375542134,1.6576239309310528,-0.6088888888888889,-0.4266666666666667,0.11888888888888889,-0.14818019380073497,-0.05500836217219005,-0.4970300534261221
1592290918.2614849,3.696521967777406,9.32820672180523,1.852629201128269,-0.6088888888888889,-0.4266666666666667,0.11888888888888889,-0.14555107357988623,-0.05969705353470117,-0.5399842096051767
1592290918.2714849,3.07,8.78,1.51,-0.6088888888888889,-0.4266666666666667,0.11888888888888889,-0.11671889372712078,-0.04581489286485115,-0.5410520681182421
1592290918.2814848,3.6247281504910935,9.046557682703513,1.4019360745796572,-0.6088888888888889,-0.4266666666666667,0.11888888888888889,-0.09550059158845675,-0.047386618949196636,-0.5284782594434783
1592290918.2914848,3.3,9.54,1.97,-0.59,-0.4388888888888889,0.12555555555555556,-0.10144726277217041,-0.04363323129985824,-0.5323254218582705
1592290918.3014848,3.2281494105381343,9.076962867912423,2.0897509824364424,-0.59,-0.4388888888888889,0.12555555555555556,-0.08925531070375645,-0.0906593321351692,-0.5628053020293053
1592290918.3114848,3.56032315978456,8.708204667863555,1.9183482944344703,-0.59,-0.4388888888888889,0.12555555555555556,-0.11547530746700364,-0.16577494448251348,-0.6963417199445868
1592290918.3214848,3.65,8.21,1.46,-0.59,-0.4388888888888889,0.12555555555555556,-0.07308566242726255,-0.15707963267948966,-0.8050331174823844
1592290918.3314848,3.255772027864962,8.886758018831815,1.7753823777080302,-0.59,-0.4388888888888889,0.12555555555555556,-0.0487169553454528,-0.12196002541452855,-0.8258181911698105
1592290918.3414848,3.07,8.85,2.05,-0.5755555555555556,-0.4388888888888889,0.16111111111111112,-0.007635815477475192,-0.030543261909900768,-0.8704829644321719
1592290918.3514848,3.416870118712902,9.12072789753202,1.54238519212746,-0.5755555555555556,-0.4388888888888889,0.16111111111111112,0.05419645867461177,-0.0028571690059812256,-0.8870946201745236
1592290918.3614848,2.6194434755446805,9.397503448993936,1.3510854569591588,-0.5755555555555556,-0.4388888888888889,0.16111111111111112,0.0751607595044842,0.018366515822820954,-0.9192506561811986
1592290918.3714848,2.789162991371045,8.603720038350911,1.967116970278044,-0.5755555555555556,-0.4388888888888889,0.16111111111111112,0.13606979254789012,0.006600781264725797,-0.9499715839223296
1592290918.3814847,2.584394741784038,9.448121690140844,1.9378741784037559,-0.5755555555555556,-0.4388888888888889,0.16111111111111112,0.15527751877155016,-0.012378686264514431,-0.959225008683058
1592290918.3914847,1.832207188412708,9.359515407999046,2.1422611313107227,-0.551933599570841,-0.46465829541766834,0.16862718801533846,0.17950993410998697,-0.05874777533995426,-0.9621861570852478
1592290918.4014847,2.313523065386197,9.024063958973366,1.814317956409202,-0.5511111111111111,-0.46555555555555556,0.1688888888888889,0.21121942288287002,-0.09015105943684765,-0.9351883158765684
1592290918.4114847,2.128971544877679,9.320187572335076,1.8236448896515944,-0.5511111111111111,-0.46555555555555556,0.1688888888888889,0.21534223821824408,-0.11212114014800924,-0.8946544633290013
1592290918.4214847,2.327942040447407,9.719147836402668,1.8395980680149135,-0.5511111111111111,-0.46555555555555556,0.1688888888888889,0.23906204860743574,-0.13578387609571413,-0.7879902267820902
1592290918.4314847,2.141696574225122,9.027675367047308,1.674747145187602,-0.5511111111111111,-0.46555555555555556,0.1688888888888889,0.2562064332324506,-0.13635384781205698,-0.743748179906876
1592290918.4414847,2.217459146020032,9.340048321911791,1.7672474081883676,-0.5250090786622152,-0.46555555555555556,0.18411507448407816,0.2905820055072191,-0.13315064650794708,-0.7394908824747578
1592290918.4514847,2.1213527575442246,9.396035379812695,1.434599375650364,-0.5244444444444445,-0.46555555555555556,0.18444444444444444,0.28838228696177637,-0.140255185376511,-0.7725828881275367
1592290918.4614847,2.2348929982440735,9.621535886742757,1.1500713345039508,-0.5244444444444445,-0.46555555555555556,0.18444444444444444,0.2679021801979422,-0.12900046676430138,-0.8447218737866137
1592290918.4714847,1.4160820742668498,9.90235620135425,1.4679452516928118,-0.5244444444444445,-0.46555555555555556,0.18444444444444444,0.23549990159884376,-0.11025160959825352,-0.8988176744932055
1592290918.4814847,1.1374666558887723,9.912052380567456,1.5615285748928946,-0.5244444444444445,-0.46555555555555556,0.18444444444444444,0.217832673189987,-0.10648222587226984,-0.8995162047471933
1592290918.4914846,0.89,9.63,1.49,-0.51,-0.5011111111111111,0.1988888888888889,0.21707532571679475,-0.10581058590215622,-0.8879362569521151
1592290918.5014846,0.8526604361370717,9.592660436137072,1.422788785046729,-0.51,-0.5011111111111111,0.1988888888888889,0.22196306319679568,-0.12128842125549255,-0.8789754049054468
1592290918.5114846,0.84,10.033977862769433,1.2274884121476153,-0.51,-0.5011111111111111,0.1988888888888889,0.22461073646633514,-0.16219170873381009,-0.8739562662355308
1592290918.5214846,0.5729035437803529,9.683960426984662,0.8415910948694524,-0.51,-0.5011111111111111,0.1988888888888889,0.2036128730455035,-0.18891390595953883,-0.8697367390370392
1592290918.5314846,0.6128596722614682,9.845563424813456,0.9846102007263005,-0.51,-0.5011111111111111,0.1988888888888889,0.1675190620216203,-0.2084186436707721,-0.8869153903835677
1592290918.5414846,0.6311031251101011,9.858825000880808,1.2468343726878766,-0.49220625022020226,-0.5119850693098764,0.2236024302497191,0.09060440556280644,-0.2664504169234899,-0.9624161366325441
1592290918.5514846,0.38139910457307324,9.725699552286537,0.9316265590022386,-0.49,-0.5133333333333333,0.22666666666666666,0.04373247701703772,-0.3081119482255864,-1.00473708508283
1592290918.5614846,0.5998253753127607,9.411488219349458,1.2167957673060883,-0.49,-0.5133333333333333,0.22666666666666666,-0.038970077544554255,-0.32592151900814803,-1.0860491862620056
1592290918.5714846,0.4434410094090101,9.748548107358106,1.065251051467719,-0.49,-0.5133333333333333,0.22666666666666666,-0.05941312516894411,-0.32973194725832505,-1.1235850070019944
1592290918.5814846,0.5071943670360995,9.80141483545704,1.2129498606649791,-0.49,-0.5133333333333333,0.22666666666666666,-0.08322491935147411,-0.3086946229120954,-1.1347779272772565
1592290918.5914845,0.3341560577650581,9.461541827033784,1.5433820191453667,-0.45350464744819824,-0.5195896794850708,0.25377749999086224,-0.07013224857965668,-0.22934370026494688,-1.1110533692303004
1592290918.6014845,0.3069169181251257,9.55120619593643,1.416086099376383,-0.45111111111111113,-0.52,0.25555555555555554,-0.056591625124097565,-0.16905257028203613,-1.0951034773598614
1592290918.6114845,0.1160817838008194,9.566209948524005,1.1998718352768147,-0.45111111111111113,-0.52,0.25555555555555554,-0.019606992879880096,-0.06415363309449656,-1.0808708350925698
1592290918.6214845,0.009591385974599673,9.56,1.3140143567090006,-0.45111111111111113,-0.52,0.25555555555555554,0.0051945470282989716,-0.008620032759970607,-1.0808970545754557
1592290918.6314845,-0.09441630349360577,9.550061441737515,1.3449078373937273,-0.45111111111111113,-0.52,0.25555555555555554,0.004383429891569313,0.021662463811122374,-1.0891442694187525
1592290918.6414845,-0.3104376163873371,9.604851024208566,1.3322067039106147,-0.4130240016552866,-0.5385288640595903,0.2658493689219946,-0.008004504093905558,0.06408580063610696,-1.1276935501127747
1592290918.6514845,-0.33096743025081526,9.615483715125407,1.3245162848745924,-0.41,-0.54,0.26666666666666666,-0.022484798360814566,0.07023529115877619,-1.144457023293295
1592290918.6614845,-0.365562272941568,9.568875454116863,1.3711245458831358,-0.41,-0.54,0.26666666666666666,-0.04775781135500942,0.09555431409277526,-1.1544216884998941
1592290918.6714845,-0.31772009996429845,9.647133166726169,1.3712866833273831,-0.41,-0.54,0.26666666666666666,-0.04542583897277191,0.13063128955280692,-1.1436437384327072
1592290918.6814845,-0.3027974688534931,9.609582281974452,1.4564303737580824,-0.41,-0.54,0.26666666666666666,-0.045509736351004616,0.16119026789500782,-1.1256006696321412
1592290918.6914845,-0.26959351375041085,9.643211350936781,1.5280081078119865,-0.39564138149324957,-0.5509801200345739,0.2768021620831964,-0.03254756038940833,0.20525797232026582,-1.0951453427296238
1592290918.7014844,-0.3705692772422371,9.66,1.6063415663453422,-0.39111111111111113,-0.5544444444444444,0.28,-0.01469219827396325,0.24251921660142606,-1.057807238582793
1592290918.7114844,-0.6211531303104686,9.781819113640655,1.5487872575728967,-0.39111111111111113,-0.5544444444444444,0.28,0.011443969206437542,0.295390696848197,-1.008218233073604
1592290918.7214844,-1.1341006465309273,10.493493679436456,1.4793708385602624,-0.39111111111111113,-0.5544444444444444,0.28,0.05041963454155661,0.336728399513595,-0.9402912924569422
1592290918.7314844,-1.7232709561650859,11.11896949500128,1.5431248397846706,-0.39111111111111113,-0.5544444444444444,0.28,0.06657674980891597,0.3608203140679305,-0.8838738140892317
1592290918.7414844,-3.3759983462874152,10.235560112452456,0.74125814453448,-0.37365981294673206,-0.5777128419969498,0.2606096687062455,0.07963064712224129,0.37840052158996895,-0.5960921026596931
1592290918.7514844,-2.611853982300885,9.864308125502816,1.1976238938053099,-0.3711111111111111,-0.5811111111111111,0.2577777777777778,0.02930433965954729,0.330809397515173,-0.24131006661180016
1592290918.7614844,-0.7417630342113892,9.494891244944803,1.7642310635042082,-0.3711111111111111,-0.5811111111111111,0.2577777777777778,-0.02139108553049204,0.20930203861485586,0.18443386289855726
1592290918.7714844,-1.0359603658536585,9.744070836509147,1.4212747713414635,-0.3711111111111111,-0.5811111111111111,0.2577777777777778,0.0527838528053705,0.12455742123215499,0.00894603876967534
1592290918.7814844,-1.1155758665467985,9.761806213165519,1.35,-0.3711111111111111,-0.5811111111111111,0.2577777777777778,0.07172641165179819,0.09365151108227404,-0.05259120647314923
1592290918.7914844,-0.7136016758940595,9.57440071824031,1.507713601675894,-0.3553397509435217,-0.571473057675362,0.2753015112973216,0.061903137078043305,0.08445524330195552,0.021492124912894414
1592290918.8014843,-0.7447567844342038,9.638842018196856,1.3323159636062862,-0.3511111111111111,-0.5688888888888889,0.28,0.07303917462125753,0.08682083272551688,0.034021898890672975
1592290918.8114843,-0.87,9.755865972500334,0.9872062474969964,-0.3511111111111111,-0.5688888888888889,0.28,0.08790634093698065,0.09896702432339285,0.009512725919572819
1592290918.8214843,-0.8086816461303052,9.76,1.002558589031167,-0.3511111111111111,-0.5688888888888889,0.28,0.06924645111562043,0.09189184163887416,0.008320780252471153
1592290918.8314843,-0.41454071758225397,9.694527318743487,1.3021304153640019,-0.3511111111111111,-0.5688888888888889,0.28,0.021350369531640104,0.06145110847168549,0.01784256174513966
1592290918.8414843,-0.14695355914263034,9.619687748081503,1.5736709446943637,-0.3502691041133751,-0.5781509658639852,0.27494795801358385,-0.005292145768349933,0.028421424287663186,0.018510061901980745
1592290918.8514843,-0.17361663652802894,9.590614828209764,1.653616636528029,-0.35,-0.5811111111111111,0.2733333333333333,-0.006083403495875352,0.014944184463278751,0.009523564227654411
1592290918.8614843,-0.2505556430033055,9.54708326774752,1.638888713993389,-0.35,-0.5811111111111111,0.2733333333333333,0.01422630153517415,-0.02402866869115403,-0.01640796310016706
1592290918.8714843,-0.2913765268947782,9.563532395171084,1.62,-0.35,-0.5811111111111111,0.2733333333333333,0.0521501114003556,-0.05178465698433243,-0.033795884134557315
1592290918.8814843,-0.17006558154235143,9.57,1.587516395385588,-0.35,-0.5811111111111111,0.2733333333333333,0.08447304027409902,-0.07231421165934737,-0.037796928921676395
1592290918.8914843,-0.1,9.589484867997424,1.5050504400085856,-0.340618396890129,-0.5681211991128282,0.28271493644320433,0.11975561303361984,-0.08355543707866715,-0.042430016148270064
1592290918.9014843,-0.1,9.632987983185599,1.4370120168144018,-0.33555555555555555,-0.5611111111111111,0.2877777777777778,0.14422518923592198,-0.07141076418041972,-0.05264060973484639
1592290918.9114842,-0.07991734310037617,9.629917343100376,1.4133057810334586,-0.33555555555555555,-0.5611111111111111,0.2877777777777778,0.15564623006394332,-0.05851720807651102,-0.06402546080329055
1592290918.9214842,-0.09692189964917237,9.64019142473688,1.41,-0.33555555555555555,-0.5611111111111111,0.2877777777777778,0.16698063452016546,-0.053429827142774416,-0.08084676510204926
1592290918.9314842,-0.14591131833973303,9.65,1.384349058328762,-0.33555555555555555,-0.5611111111111111,0.2877777777777778,0.1796546838844458,-0.05627719470833092,-0.09733956383871913
1592290918.9414842,-0.2248776198153305,9.661219404953833,1.3543902975230837,-0.33555555555555555,-0.5704606152393049,0.26783216897096424,0.19618982518884415,-0.06672685279401869,-0.11730411812684645
1592290918.9514842,-0.3454630085833571,9.662230635583331,1.3111531779166559,-0.33555555555555555,-0.5777777777777777,0.25222222222222224,0.2139121059703163,-0.08046989351090107,-0.1364631204130679
1592290918.9614842,-0.45599058312205726,9.698218036943137,1.309554509235784,-0.33555555555555555,-0.5777777777777777,0.25222222222222224,0.21707532571679475,-0.07508637488020063,-0.14431639891326437
1592290918.9714842,-0.3921955870335059,9.65392486565464,1.1908872984819592,-0.33555555555555555,-0.5777777777777777,0.25222222222222224,0.22333488612689054,-0.04854444155325837,-0.11345134484396358
1592290918.9814842,-0.5255840307532135,9.62,1.0360959836623553,-0.33555555555555555,-0.5777777777777777,0.25222222222222224,0.2424698689541366,-0.07478736368960576,-0.05126205791235128
1592290918.9914842,-0.26810783316378434,9.689434939424766,0.8380736150929438,-0.3394130521902648,-0.5808637750855451,0.27150970539576846,0.25155790615307155,-0.09675052655274125,-0.023755455639645144
1592290919.0014842,-0.18605697151424289,9.920799600199901,0.6652573713143428,-0.3411111111111111,-0.5822222222222222,0.28,0.24284477195337142,-0.07652115247788357,-0.030453313344627444
1592290919.0114841,-0.38707160157432635,9.761583409022101,0.9063775355737209,-0.3411111111111111,-0.5822222222222222,0.28,0.17087708988167935,-0.023212684201339394,-0.03130045303208325
1592290919.0214841,-0.35625741734953376,9.640825091833852,1.0870825091833851,-0.3411111111111111,-0.5822222222222222,0.28,0.11649496364419236,-0.06639812072835484,-0.017545453696537372
1592290919.0314841,-0.4044207212878856,9.62747387354978,1.1537891896753305,-0.3411111111111111,-0.5822222222222222,0.28,0.11109821619109236,-0.10749267659651073,-0.006711508318524871
1592290919.041484,-0.4208830456774393,9.59,1.1547434263871192,-0.3336071319784977,-0.5869974816702489,0.29432577834408025,0.13011346515650118,-0.12770335206194108,0.007615640646600802
1592290919.051484,-0.3732503101440977,9.598374844927951,1.1053440213760857,-0.3288888888888889,-0.59,0.30333333333333334,0.1403626171062586,-0.12478431686175438,0.014231911720712897
1592290919.061484,-0.43839239022630966,9.676221260481473,0.9935073483004238,-0.3288888888888889,-0.59,0.30333333333333334,0.15174389552493053,-0.08228145149063408,0.01630325335848526
1592290919.071484,-0.6770370193227473,9.70152047063325,0.9584795293667495,-0.3288888888888889,-0.59,0.30333333333333334,0.15598880189699318,-0.016319940832160124,0.024259819912102763
1592290919.081484,-0.671032661544035,9.704806375960494,0.9058390375045283,-0.3288888888888889,-0.59,0.30333333333333334,0.15760392696448539,0.03621193388234202,0.05530851294478084
1592290919.091484,-0.3904914606903509,9.78650284643655,0.7457876342148879,-0.33135195727542777,-0.59,0.2867076217241959,0.16167940597837002,0.07124527360437588,0.10550712317708398
1592290919.101484,-0.18609759918536797,9.849603650178201,0.648048799592684,-0.3333333333333333,-0.59,0.2733333333333333,0.16108045633078194,0.07853981633974483,0.1285883271587051
1592290919.111484,0.2534942983123004,9.861557244944503,0.43733586741675534,-0.3333333333333333,-0.59,0.2733333333333333,0.11667746305516281,0.08448463678513535,0.13448173871360677
1592290919.121484,0.27643784251514275,9.948379723103548,0.35518243438130953,-0.3333333333333333,-0.59,0.2733333333333333,0.060194698076223165,0.08304008325342883,0.07075423580531309
1592290919.131484,0.23837098616575708,10.008145069171215,0.3807253458560731,-0.3333333333333333,-0.59,0.2733333333333333,0.03492603696588491,0.07041500297881012,0.02878054360519905
1592290919.141484,0.23,9.9268332433891,0.8027425796006475,-0.3376877136175571,-0.59,0.29448318042813454,-0.046459501449219,-0.014913829039353326,-0.12359695562487152
1592290919.151484,0.15456308306514036,9.819941744408686,1.0303495335478878,-0.3411111111111111,-0.59,0.3111111111111111,-0.07983893016609842,-0.037800639495016816,-0.1796785429110405
1592290919.161484,-2.6079396399977286,9.45242234966782,1.1467821248083585,-0.3411111111111111,-0.59,0.3111111111111111,-0.0872155166955314,-0.015762322083162122,-0.2495435685510283
1592290919.171484,-1.5964975591078776,9.331072078108548,1.1718761366899588,-0.3411111111111111,-0.59,0.3111111111111111,-0.061972699836940176,0.0019739787444333773,-0.15859491326871036
1592290919.181484,-0.34735905044510385,9.447032640949555,1.15513353115727,-0.3411111111111111,-0.59,0.3111111111111111,-0.04613858152434565,-0.022415439669993934,-0.09360752343921369
1592290919.191484,-0.3336892177589852,9.931709830866808,0.6805285412262156,-0.3530558491895701,-0.59,0.3029383955837444,-0.00499522087714022,-0.19413847528336103,-0.007693470381412637
1592290919.201484,-0.4347764034253092,9.866856565176024,0.7845147478591817,-0.3622222222222222,-0.59,0.2966666666666667,-0.023515914126277664,-0.1646330650043857,-0.016401123437397358
1592290919.211484,-0.19984787104450552,9.648060851582198,0.955969574208901,-0.3622222222222222,-0.59,0.2966666666666667,-0.07734941738871093,-0.09311468643311421,-0.015304820344462868
1592290919.221484,-0.22990563735459205,9.644952818677297,0.9930187911819734,-0.3622222222222222,-0.59,0.2966666666666667,-0.09089913408542703,-0.058107348087584436,-0.009107412133858598
1592290919.231484,-0.3389554821456662,9.678422211735095,1.1473666823973572,-0.3622222222222222,-0.59,0.2966666666666667,-0.0881270126035264,0.0226807691532565,0.00183744156346894
1592290919.241484,-0.43874231749362913,9.643144206265926,1.1955981112277019,-0.339835565215943,-0.5931237195822715,0.29562542680590953,-0.07670113447289108,0.07178233957433375,0.004363323129985824
1592290919.251484,-0.4479442148760331,9.587217895740624,1.278346312778131,-0.31444444444444447,-0.5966666666666667,0.29444444444444445,-0.06989239920685533,0.09664393192985528,0.004666803626610116
1592290919.261484,-0.3082376220710076,9.614405944822481,1.2239851379437976,-0.31444444444444447,-0.5966666666666667,0.29444444444444445,-0.04278486602198695,0.14928073453712568,0.015944490588318427
1592290919.271484,-0.36382325886990796,9.705429697766098,1.0588915900131406,-0.31444444444444447,-0.5966666666666667,0.29444444444444445,-0.00977805805886935,0.19556710986036643,0.02600470348009866
1592290919.281484,-0.45429894996911674,9.727137893761581,0.998563156269302,-0.31444444444444447,-0.5966666666666667,0.29444444444444445,0.009975475695028584,0.22097349609726483,0.028361600344907853
1592290919.2914839,-0.5333934780928831,9.724311490611235,0.9032130438142338,-0.327695824640033,-0.5876557281336664,0.2912641131975032,0.015371770586323986,0.21398343030551575,0.026280078411288543
1592290919.3014839,-0.5785338904737032,9.74341355618948,0.8265864438105187,-0.3422222222222222,-0.5777777777777777,0.2877777777777778,0.011041982696860344,0.18608335451559263,0.022508832347215027
1592290919.3114839,-0.6142181689873246,9.777345493038025,0.781090844936623,-0.3422222222222222,-0.5777777777777777,0.2877777777777778,-0.011523167713141526,0.08107439984180467,0.013379531180604686
1592290919.3214839,-0.5912411676828038,9.79187588323172,0.7656276496951588,-0.3422222222222222,-0.5777777777777777,0.2877777777777778,-0.024613700097137196,0.028763146928830825,0.011999138607461015
1592290919.3314838,-0.4438668330510741,9.741647205633301,0.9028154024422854,-0.3422222222222222,-0.5777777777777777,0.2877777777777778,-0.049938639646849525,-0.06751936267071829,0.010726078120663386
1592290919.3414838,-0.3149918487120965,9.628117867623084,1.1518984349527226,-0.341874886787668,-0.5777777777777777,0.2860411006050067,-0.0694061091633835,-0.12142676929288863,0.005316688605199958
1592290919.3514838,-0.23002151823072325,9.556017214584578,1.3699569635385536,-0.3411111111111111,-0.5777777777777777,0.2822222222222222,-0.0842111974987881,-0.15140355697075483,-0.009375980724808807
1592290919.3614838,-0.2218830326612428,9.581590614314349,1.3921754510081357,-0.3411111111111111,-0.5777777777777777,0.2822222222222222,-0.06952994765517029,-0.14841678220634952,-0.02001387018978641
1592290919.3714838,-0.2651005250957945,9.592449737452103,1.3975502625478973,-0.3411111111111111,-0.5777777777777777,0.2822222222222222,-0.035293476746768054,-0.13314118886691895,-0.0284652960948216
1592290919.3814838,-0.29854241798256365,9.575728791008718,1.384372746052309,-0.3411111111111111,-0.5777777777777777,0.2822222222222222,-0.0027029580654758835,-0.11938862386707683,-0.03722509218779624
1592290919.3914838,-0.4053597583681576,9.596700732343084,1.3423712193305475,-0.33644907847977895,-0.5777777777777777,0.28434132796373685,0.042260993345825296,-0.10169477470941275,-0.04430797664299705
1592290919.4014838,-0.51820508503115,9.646468260649941,1.317561037211652,-0.3288888888888889,-0.5777777777777777,0.2877777777777778,0.08072147790473774,-0.08617563181722002,-0.04363323129985824
1592290919.4114838,-0.10430555555555554,9.759613363363362,0.9657469969969971,-0.3288888888888889,-0.5777777777777777,0.2877777777777778,0.09715006921101835,-0.11053526720239472,-0.02210611165714571
1592290919.4214838,-0.6027857975219386,9.670039953387715,0.9570943423149183,-0.3288888888888889,-0.5777777777777777,0.2877777777777778,0.11547067346193969,-0.12249000572423152,-0.0190032170349385
1592290919.4314837,-0.4830143103266411,9.677255019162477,0.9711518582328329,-0.3288888888888889,-0.5777777777777777,0.2877777777777778,0.1168926764448695,-0.10995199183838922,-0.02613180430391083
1592290919.4414837,-0.3341036585365854,9.735811737804879,0.9412823932926829,-0.33040836720867206,-0.5819563431571815,0.2877777777777778,0.11040695771227448,-0.10698534912938822,-0.022646420270714628
1592290919.4514837,-0.65,9.67,1.04,-0.3333333333333333,-0.59,0.2877777777777778,0.10035643198967394,-0.11344640137963141,-0.030543261909900768
1592290919.4614837,-0.5395783591567184,9.681894843789687,1.0181051562103125,-0.3333333333333333,-0.59,0.2877777777777778,0.09936894890386816,-0.13347174931077985,-0.015478326348331729
1592290919.4714837,0.06040043546173146,9.809416386614284,0.9492829081270413,-0.3333333333333333,-0.59,0.2877777777777778,0.11913036964402791,-0.16669641585858086,-0.009015269541751133
1592290919.4814837,-0.11124756961167315,9.729771677280105,1.0246963129448279,-0.3333333333333333,-0.59,0.2877777777777778,0.13008901833383116,-0.1612837510599636,-0.024925019308511893
1592290919.4914837,-1.0342258652094718,9.495445861161707,1.2008451730418943,-0.335889406103128,-0.5874439272302053,0.2954459960871619,0.1314476481602823,-0.1166420653295679,-0.03697560910938675
1592290919.5014837,-0.43,9.67,1.08,-0.3411111111111111,-0.5822222222222222,0.3111111111111111,0.15707963267948966,-0.12762720155208535,-0.001090830782496456
1592290919.5114837,-0.1239924145239556,9.77025071113838,0.834001896369011,-0.3411111111111111,-0.5822222222222222,0.3111111111111111,0.15817046346198613,-0.05904160396843798,-0.022298390626291336
1592290919.5214837,-0.40568445475638054,9.714809886831764,0.7467110185141342,-0.3411111111111111,-0.5822222222222222,0.3111111111111111,0.15250892825343285,-0.031634092692397225,-0.016679757703016978
1592290919.5314837,-0.27460178417884784,9.725496560619089,0.7861258598452279,-0.3411111111111111,-0.5822222222222222,0.3111111111111111,0.1430361243004905,-0.02402723628664136,-0.013021323493230076
1592290919.5414836,-0.41931642189586116,9.770683578104139,0.7593164218958611,-0.3273220590416852,-0.5845203975671265,0.3130809756924577,0.1318413910744241,-0.010065228577046928,-0.01313927835342336
1592290919.5514836,-0.37,9.82,0.71,-0.29444444444444445,-0.59,0.31777777777777777,0.12108221685710661,-0.00545415391248228,-0.00545415391248228
1592290919.5614836,-0.35,9.80644031357332,0.6037240764531606,-0.29444444444444445,-0.59,0.31777777777777777,0.0910371947170564,0.011278677207868234,-0.002181661564992912
1592290919.5714836,-0.37938975189041624,9.779007320078275,0.5367941439373808,-0.29444444444444445,-0.59,0.31777777777777777,0.061810784018273494,0.022732594108557675,-0.003097640023621468
1592290919.5814836,-0.41683546314600395,9.762658147415983,0.5916453685399605,-0.29444444444444445,-0.59,0.31777777777777777,0.03816531107825627,0.022617487529848677,-0.0033277308661808095
1592290919.5914836,-0.41,9.786356770636658,0.6685008685144627,-0.2979527393869211,-0.59,0.31602363030653946,0.02148131761467796,0.02029731187447412,-0.001355773898311621
1592290919.6014836,-0.44363147605083086,9.76,0.7348044965786901,-0.3233333333333333,-0.59,0.30333333333333334,-0.0061611146248920085,0.025613197273661896,-0.0053688494524630065
1592290919.6114836,-0.48,9.76,0.74,-0.3233333333333333,-0.59,0.30333333333333334,-0.016362461737446838,0.02617993877991494,-0.007635815477475192
1592290919.6214836,-0.47234796755983927,9.747043902679518,0.6859121946409643,-0.3233333333333333,-0.59,0.30333333333333334,-0.03462190474569944,0.01453181713290722,-0.0017643079382734727
1592290919.6314836,-0.45388044836390634,9.71,0.7783586549082809,-0.3233333333333333,-0.59,0.30333333333333334,-0.0460591411423002,0.006813549157590724,-0.0014246005474828315
1592290919.6414835,-0.4344190711309983,9.70860476778275,0.8283713933035025,-0.3233333333333333,-0.5920153354249172,0.30240317852183307,-0.04923958143747127,-0.0006087849005230183,-0.002181661564992912
1592290919.6514835,-0.40905364594139754,9.709053645941397,0.8528390621758074,-0.3233333333333333,-0.6044444444444445,0.2966666666666667,-0.05412861426951718,-0.003869523345650798,-0.0026754613493279377
1592290919.6614835,-0.4157802248753912,9.72,0.7946813492523472,-0.3233333333333333,-0.6044444444444445,0.2966666666666667,-0.06120639255537666,-0.004653410527830192,-0.0032724923474893677
1592290919.6714835,-0.41,9.716058759470794,0.7994124052920596,-0.3233333333333333,-0.6044444444444445,0.2966666666666667,-0.06693855206157918,-0.005255216747834591,-0.004562260294633512
1592290919.6814835,-0.4214942779688154,9.70137929152339,0.8858621254298346,-0.3233333333333333,-0.6044444444444445,0.2966666666666667,-0.07059054305649577,-0.0032724923474893677,-0.006544984694978735
1592290919.6914835,-0.44129179092764087,9.676734421597866,0.9652393658766284,-0.32248670189574286,-0.6028721289174908,0.29823898219362044,-0.06815081313937794,-0.003866191254773383,-0.006663724476435539
1592290919.7014835,-0.37,9.65,1.09,-0.31555555555555553,-0.59,0.3111111111111111,-0.0545415391248228,-0.008726646259971648,-0.007635815477475192
1592290919.7114835,-0.4051930871425355,9.625193087142534,1.0592276514298582,-0.31555555555555553,-0.59,0.3111111111111111,-0.03473808472086102,-0.004037959084666218,-0.005695267798289098
1592290919.7214835,-0.4237395691365995,9.658697845682997,0.9887812925902015,-0.31555555555555553,-0.59,0.3111111111111111,-0.01732945480970507,0.0008158474254952811,-0.002456644921994087
1592290919.7314835,-0.4383037690119077,9.69,0.97,-0.31555555555555553,-0.59,0.3111111111111111,-0.007402008549420347,0.002181661564992912,-0.0013927643441274257
