time,acc_x,acc_y,acc_z,mag_x,mag_y,mag_z,gyr_x,gyr_y,gyr_z
1592291022.941385,-0.10778179967196426,9.706348057236582,0.6409558282902551,-0.4777777777777778,-0.6588888888888889,-0.0044444444444444444,0.05985601536683553,0.0017665770389685836,-0.014145387194163504
1592291022.951385,-0.0008652646587061132,9.74,0.5535815808233826,-0.4777777777777778,-0.6588888888888889,-0.0044444444444444444,0.10210796289947645,-0.012888050993687577,-0.0462736745958873
1592291022.961385,-0.11662652214639369,9.718785341515169,0.6324293169696622,-0.4777777777777778,-0.6588888888888889,-0.0044444444444444444,0.1322614233973588,-0.01700725114360564,-0.07630370811586376
1592291022.971385,-0.5095088987019939,9.62256924929747,0.8248615014050582,-0.4777777777777778,-0.6588888888888889,-0.0044444444444444444,0.16812121074457456,-0.024878911780799335,-0.10079331898713306
1592291022.981385,-0.79,9.42,0.95,-0.5044444444444445,-0.6533333333333333,-0.035555555555555556,0.19962203319685143,0.0,-0.09708393964218458
1592291022.991385,-0.6182422182267671,9.475184852230587,0.8237967749185302,-0.5044444444444445,-0.6533333333333333,-0.035555555555555556,0.25660773687809496,0.0013736206032874802,-0.03618940522715719
1592291023.001385,-0.02,9.61,0.63,-0.5044444444444445,-0.6533333333333333,-0.035555555555555556,0.29888763440402893,0.008726646259971648,-0.002181661564992912
1592291023.011385,0.11259697321551572,9.76817881250861,0.43364237498277997,-0.5044444444444445,-0.6533333333333333,-0.035555555555555556,0.35028361882363696,0.05408719982817125,0.006460359600128972
1592291023.021385,0.12910574065691852,9.88374018459843,0.20251963080314095,-0.5044444444444445,-0.6533333333333333,-0.035555555555555556,0.3718935448710259,0.0928049839964097,-0.007946257764796965
1592291023.031385,0.19,9.94,0.03,-0.4711111111111111,-0.6733333333333333,-0.027777777777777776,0.35997415822383044,0.10799224746714915,-0.04036073895236887
1592291023.041385,0.2957996059218234,10.205110235381829,-0.5267094472254766,-0.4711111111111111,-0.6733333333333333,-0.027777777777777776,0.31679211888731496,0.10760925421179719,-0.08595003583554865
1592291023.051385,0.3804903623378795,10.34901927532424,-0.8137740941553013,-0.4711111111111111,-0.6733333333333333,-0.027777777777777776,0.2253950762276024,0.10752706742581128,-0.1253547915786697
1592291023.061385,0.38816118373796865,10.266175836805056,-0.7102197960063209,-0.4711111111111111,-0.6733333333333333,-0.027777777777777776,0.11620505460403417,0.11712006120351655,-0.16181215525259596
1592291023.071385,0.3053115572475219,10.175794426088206,-0.5972430326102571,-0.4711111111111111,-0.6733333333333333,-0.027777777777777776,0.04390511628874365,0.13519504578233918,-0.1963189439939846
1592291023.081385,0.16,10.06,-0.44,-0.4777777777777778,-0.6588888888888889,-0.013333333333333334,-0.04581489286485115,0.14289883250703572,-0.2476185876266955
1592291023.091385,0.3271808674254076,10.093085204552445,-0.4215426022762227,-0.4777777777777778,-0.6588888888888889,-0.013333333333333334,-0.11128017451657478,0.13209303123514798,-0.2806220068104394
1592291023.1013849,0.30775570185751233,9.962573947801552,-0.343102280743005,-0.4777777777777778,-0.6588888888888889,-0.013333333333333334,-0.18113184869374369,0.13155852696588052,-0.30772585164692695
1592291023.1113849,0.3380475854712444,10.129134168610223,-0.3502207517492,-0.4777777777777778,-0.6588888888888889,-0.013333333333333334,-0.2238314122305047,0.12113037741777007,-0.3301883503079516
1592291023.1213849,0.25463325559111205,10.053302959628283,-0.28197266366545537,-0.4777777777777778,-0.6588888888888889,-0.013333333333333334,-0.2709812519384142,0.10624095435211442,-0.3583128160986344
1592291023.1313848,0.19382597874988033,10.272955872499281,-0.3008701062505983,-0.4633333333333333,-0.6588888888888889,0.0,-0.3304931171955547,0.10926314311845149,-0.4243611055899648
1592291023.1413848,0.2136420925607276,10.333579074392723,-0.18175802811236005,-0.4633333333333333,-0.6588888888888889,0.0,-0.36058040554914916,0.13288271013067046,-0.5195591987782269
1592291023.1513848,0.23274309477359073,10.180972379094364,-0.008628452613204642,-0.4633333333333333,-0.6588888888888889,0.0,-0.3937463699751424,0.1312424616274867,-0.6088655871085904
1592291023.1613848,0.19399949125134,10.254540581790431,0.033297599796500536,-0.4633333333333333,-0.6588888888888889,0.0,-0.400665097602029,0.1342960807765876,-0.7215110603237351
1592291023.1713848,-0.08797281828588044,10.277403201482638,0.20095681087268563,-0.4633333333333333,-0.6588888888888889,0.0,-0.402327714223947,0.1733675713916592,-0.8337376823031961
1592291023.1813848,0.14,9.85,0.23,-0.4577777777777778,-0.6733333333333333,0.0,-0.39924406639370286,0.2127120025868089,-0.9588402578143849
1592291023.1913848,-0.3692363073969388,9.984809076849235,-0.011541784438163298,-0.4577777777777778,-0.6733333333333333,0.0,-0.4210822938849043,0.23666862683174175,-1.014537463245521
1592291023.2013848,-0.55,10.03,-0.12,-0.4577777777777778,-0.6733333333333333,0.0,-0.44178646691106466,0.24652775684419903,-1.076649982324002
1592291023.2113848,-0.627738271898063,9.93082348983993,0.17095882550800343,-0.4577777777777778,-0.6733333333333333,0.0,-0.47446647598263475,0.2730811477724596,-1.1911570629140766
1592291023.2213848,-0.934794127540017,9.598871213470252,0.1875564393264874,-0.4577777777777778,-0.6733333333333333,0.0,-0.4925716640518257,0.2984284110693269,-1.2472831459285685
1592291023.2313848,-1.28,9.82,0.14,-0.4122222222222222,-0.68,-0.013333333333333334,-0.5115996369908379,0.32615840396644036,-1.2839078309983287
1592291023.2413847,-1.018821393998064,9.491108422071637,0.2754259438528558,-0.4122222222222222,-0.68,-0.013333333333333334,-0.5327034638913138,0.32721359531146416,-1.3271706761443043
1592291023.2513847,-1.46,9.39,-0.13,-0.4122222222222222,-0.68,-0.013333333333333334,-0.5868669609830933,0.3010692959690219,-1.2839078309983287
1592291023.2613847,-1.893184043586764,9.58579601089669,0.11643457222867812,-0.4122222222222222,-0.68,-0.013333333333333334,-0.6774199427677476,0.2640990826037091,-1.1638259874075505
1592291023.2713847,-1.7014190463490368,9.537854761587258,0.5319253995770864,-0.4122222222222222,-0.68,-0.013333333333333334,-0.7148985926246944,0.24056597687957984,-1.1254757410423029
1592291023.2813847,-1.5,9.33,1.34,-0.37777777777777777,-0.7066666666666667,-0.04888888888888889,-0.6959500392327389,0.22580197197676635,-1.1704614296186973
1592291023.2913847,-1.6840613192270322,9.161600993198748,1.2596880060455575,-0.37777777777777777,-0.7066666666666667,-0.04888888888888889,-0.5864027425933058,0.23484386750854447,-1.234701034967306
1592291023.3013847,-2.1876666033344416,9.372269747779415,1.0546349688880445,-0.37777777777777777,-0.7066666666666667,-0.04888888888888889,-0.4681256805603756,0.2639793136100354,-1.2903766497668234
1592291023.3113847,-2.0509392712550607,9.09749077822762,1.2081952316689157,-0.37777777777777777,-0.7066666666666667,-0.04888888888888889,-0.40285906881144984,0.24950092090679288,-1.3529591369877265
1592291023.3213847,-2.322634817813765,9.014472694556906,1.3289488079172291,-0.37777777777777777,-0.7066666666666667,-0.04888888888888889,-0.36169603191513955,0.23303570614826874,-1.4130571708563398
1592291023.3313847,-2.65,8.9,1.12,-0.32666666666666666,-0.7088888888888889,-0.04888888888888889,-0.3065234498815041,0.19634954084936207,-1.4704398948052226
1592291023.3413846,-2.7186241002252873,9.068452112753448,1.1988820814330456,-0.32666666666666666,-0.7088888888888889,-0.04888888888888889,-0.25710774851931334,0.16773466804599832,-1.4758471464105833
1592291023.3513846,-2.537733643749703,8.906699767187723,1.0783498835938614,-0.32666666666666666,-0.7088888888888889,-0.04888888888888889,-0.21515824775728692,0.13823189904190172,-1.4727169723188342
1592291023.3613846,-2.4393572287452256,9.00192672230867,1.133027479134248,-0.32666666666666666,-0.7088888888888889,-0.04888888888888889,-0.18947430941108298,0.13734458804195807,-1.488013261268104
1592291023.3713846,-2.728609067760645,8.942593011741407,1.1552776205969726,-0.32666666666666666,-0.7088888888888889,-0.04888888888888889,-0.1870471954888389,0.14462592980869027,-1.496912678982999
1592291023.3813846,-2.81,9.3,1.03,-0.25222222222222224,-0.7477777777777778,-0.07222222222222222,-0.17235126363444003,0.15817046346198613,-1.4900748488901587
1592291023.3913846,-2.8842324056364417,8.557675943635584,1.076395253522776,-0.25222222222222224,-0.7477777777777778,-0.07222222222222222,-0.1956315741584508,0.17234108725921005,-1.4475629774984868
1592291023.4013846,-3.265495608531995,8.798908406524466,1.2760225846925972,-0.25222222222222224,-0.7477777777777778,-0.07222222222222222,-0.19946463603250125,0.16086674532085438,-1.4130597320381193
1592291023.4113846,-3.788010263958785,8.772015395938176,1.5450213832474688,-0.25222222222222224,-0.7477777777777778,-0.07222222222222222,-0.2130417709760513,0.14442842145500592,-1.3736894556330115
1592291023.4213846,-3.687893700395839,8.621840550593758,1.3364452091579975,-0.25222222222222224,-0.7477777777777778,-0.07222222222222222,-0.18846946936730066,0.12076620509102384,-1.3127137442335193
1592291023.4313846,-4.18,8.61,1.41,-0.2,-0.7477777777777778,-0.07222222222222222,-0.14944381720201447,0.07199483164476608,-1.2359112765684845
1592291023.4413846,-4.1610915762115885,8.487095245375325,1.6463552973551443,-0.2,-0.7477777777777778,-0.07222222222222222,-0.0978790904097955,0.043118584641123475,-1.1472199464858681
1592291023.4513845,-3.45,8.27,1.51,-0.2,-0.7477777777777778,-0.07222222222222222,-0.03490658503988659,-0.039269908169872414,-1.100648259538924
1592291023.4613845,-4.330323041848604,9.043617218594228,1.5366764558135941,-0.2,-0.7477777777777778,-0.07222222222222222,0.03202226304967571,-0.044119824698101565,-1.0579689940905075
1592291023.4713845,-4.182512156328108,8.829238809361508,1.8152456259940923,-0.2,-0.7477777777777778,-0.07222222222222222,0.053920253862517496,-0.07087455512335561,-1.009067550040745
1592291023.4813845,-4.37,8.48,1.1,-0.15444444444444444,-0.7677777777777778,-0.057777777777777775,0.10690141668465267,-0.11017390903214205,-1.0275625971116615
1592291023.4913845,-4.272439222042139,7.9336596434359805,1.8902423014586711,-0.15444444444444444,-0.7677777777777778,-0.057777777777777775,0.06646094277557296,-0.1463574909507923,-1.0669388480231339
1592291023.5013845,-4.7162928996880025,8.484880873593648,1.5611737732816489,-0.15444444444444444,-0.7677777777777778,-0.057777777777777775,0.11398073004410283,-0.1654760491800254,-1.0961588055545377
1592291023.5113845,-4.400508467908495,8.54237298137257,1.3089830641830091,-0.15444444444444444,-0.7677777777777778,-0.057777777777777775,0.077227124578649,-0.1770103870981755,-1.0788686350231442
1592291023.5213845,-4.4087586301854875,8.418620547217687,1.292482739629025,-0.15444444444444444,-0.7677777777777778,-0.057777777777777775,0.07362731218971541,-0.1995092145290105,-1.0617695261757099
1592291023.5313845,-4.55,8.64,1.45,-0.10111111111111111,-0.76,-0.06666666666666667,0.0545415391248228,-0.2159844949342983,-1.0297442586766543
1592291023.5413845,-4.8810806324110665,8.448321739130435,1.1624826086956523,-0.10111111111111111,-0.76,-0.06666666666666667,0.040285501809465454,-0.2169348974219888,-1.0316450636520353
1592291023.5513844,-4.008524216524217,8.283825261158595,0.576065527065527,-0.10111111111111111,-0.76,-0.06666666666666667,0.021351691760865103,-0.18477958666088326,-1.0649503560147267
1592291023.5613844,-4.924635478508668,7.971887912609832,0.6961806380115569,-0.10111111111111111,-0.76,-0.06666666666666667,-0.029330767185938505,-0.17058148070734058,-1.113579176423431
1592291023.5713844,-5.024238898123961,7.797581928283067,0.8289851974986147,-0.10111111111111111,-0.76,-0.06666666666666667,-0.05015544178294087,-0.13255381405194497,-1.1570393668867403
1592291023.5813844,-5.44,8.25,1.22,-0.07444444444444444,-0.7688888888888888,-0.06666666666666667,-0.11780972450961724,-0.14180800172453928,-1.2348204457859882
1592291023.5913844,-5.3586782291914155,8.03043121881682,1.1305460521105568,-0.07444444444444444,-0.7688888888888888,-0.06666666666666667,-0.13555138268664244,-0.1258405093652166,-1.2197400363355169
1592291023.6013844,-5.640929977857669,7.898059808099807,1.0011597342920406,-0.07444444444444444,-0.7688888888888888,-0.06666666666666667,-0.18499288627555258,-0.1471181434304326,-1.1606952723454302
1592291023.6113844,-5.661582550549276,8.142820410762617,1.3524757204266837,-0.07444444444444444,-0.7688888888888888,-0.06666666666666667,-0.20529223447335626,-0.17620147427487232,-1.0922398663292507
1592291023.6213844,-5.377777822002866,7.900751671708327,1.4359476994109217,-0.07444444444444444,-0.7688888888888888,-0.06666666666666667,-0.21257653880550859,-0.1589012514860105,-1.029412741464437
1592291023.6313844,-5.64,7.86,1.35,-0.013333333333333334,-0.7688888888888888,-0.05333333333333334,-0.23561944901923448,-0.13853550937704992,-0.9697485656393494
1592291023.6413844,-5.435083214066653,7.8442371703128195,1.5312725414025763,-0.013333333333333334,-0.7688888888888888,-0.05333333333333334,-0.25023484188495615,-0.12821876147183459,-0.9663096496709442
1592291023.6513844,-5.637693780162303,7.701241810681837,1.5007096061039067,-0.013333333333333334,-0.7688888888888888,-0.05333333333333334,-0.2660562776541668,-0.08760511392916154,-0.9707910176604965
1592291023.6613843,-5.521466923022146,7.4925671152887565,1.638288589807496,-0.013333333333333334,-0.7688888888888888,-0.05333333333333334,-0.28555764029585495,-0.06787153323299674,-0.994544310092281
1592291023.6713843,-5.9496653237065695,7.812248992779927,1.5325836690733574,-0.013333333333333334,-0.7688888888888888,-0.05333333333333334,-0.3038242866013957,-0.03067693426076555,-0.9948376736367678
1592291023.6813843,-6.1,7.75,1.69,0.024444444444444446,-0.7688888888888888,-0.07444444444444444,-0.35452000431134817,-0.030543261909900768,-0.9981101659842572
1592291023.6913843,-5.579548995489955,7.564124641246412,1.913050430504305,0.024444444444444446,-0.7688888888888888,-0.07444444444444444,-0.3764179291192346,-0.01107843985844617,-0.9843225836978102
1592291023.7013843,-6.038460585709567,7.421420235604976,1.4497641197842124,0.024444444444444446,-0.7688888888888888,-0.07444444444444444,-0.4054017419096052,0.03956675513526222,-0.9527794095932515
1592291023.7113843,-6.021164542758676,7.376746814138015,1.9157850444818467,0.024444444444444446,-0.7688888888888888,-0.07444444444444444,-0.4065754161983366,0.05608804114546717,-0.9389270662552724
1592291023.7213843,-6.2556468085960235,7.065223829684773,2.128073920982403,0.024444444444444446,-0.7688888888888888,-0.07444444444444444,-0.3800839718273224,0.08361408263738254,-0.9322199549573174
1592291023.7313843,-6.456175561947374,7.151586236284223,1.9668839884947267,0.06398328657836488,-0.7507223938543849,-0.09688540889883172,-0.33198186226017046,0.1357342345455958,-0.9389132766966997
1592291023.7413843,-6.535173143251322,6.643184640147161,2.006983214532076,0.06555555555555556,-0.75,-0.09777777777777778,-0.2997712850930919,0.14769482592899819,-0.938180288996004
1592291023.7513843,-6.811379412344706,6.726305462433445,2.01,0.06555555555555556,-0.75,-0.09777777777777778,-0.2576214370664849,0.16209719076729742,-0.9106260642513933
1592291023.7613842,-6.94572711932885,6.6719720987713,1.8649302469282507,0.06555555555555556,-0.75,-0.09777777777777778,-0.21625610731417838,0.151984016441317,-0.8886533323007343
1592291023.7713842,-6.913612875444074,6.4152901281085155,1.8163354505328884,0.06555555555555556,-0.75,-0.09777777777777778,-0.18155221988800663,0.14368703965657995,-0.8538009687772772
1592291023.7813842,-7.14,6.47,1.51,0.1111111111111111,-0.7711111111111111,-0.08888888888888889,-0.12435470920459597,0.14180800172453928,-0.7853981633974483
1592291023.7913842,-6.858466531749971,6.444406048340906,1.593180342892054,0.1111111111111111,-0.7711111111111111,-0.08888888888888889,-0.11528114135206971,0.132734433872013,-0.7714388282397155
1592291023.8013842,-7.1520125130344105,6.6842570385818565,1.3386583246437262,0.1111111111111111,-0.7711111111111111,-0.08888888888888889,-0.10914668160861805,0.12249106443446539,-0.7492003638181832
1592291023.8113842,-7.351055262030559,6.46242324717978,1.3009938597743824,0.1111111111111111,-0.7711111111111111,-0.08888888888888889,-0.11011970239037298,0.14912527529851521,-0.7047717028820184
1592291023.8213842,-7.282709883290434,6.28136701808822,1.5740285956066429,0.1111111111111111,-0.7711111111111111,-0.08888888888888889,-0.11094036756386512,0.13213964322315713,-0.6672379314684562
1592291023.8313842,-8.052505793636195,6.514398749310281,2.1973312488504693,0.13468407822941572,-0.7465132323789672,-0.09503835857192489,-0.08208480572030145,0.0911499566144883,-0.5798700750090093
1592291023.8413842,-7.495662073097663,6.284318753744758,1.9902648292390654,0.13666666666666666,-0.7444444444444445,-0.09555555555555556,-0.04849706863789426,0.08770867716378904,-0.5147529157165612
1592291023.8513842,-7.786246534195933,6.266105013863217,2.3342282809611827,0.13666666666666666,-0.7444444444444445,-0.09555555555555556,0.010792747308842884,0.05921966069458174,-0.37935259820782263
1592291023.8613842,-7.812807968430561,6.177721913184044,2.407894023677079,0.13666666666666666,-0.7444444444444445,-0.09555555555555556,0.0943069706490128,0.0729512858496251,-0.2755424657349148
1592291023.8713841,-7.631149944425822,6.059938427338967,2.100451826890845,0.13666666666666666,-0.7444444444444445,-0.09555555555555556,0.13412289957897472,0.0869327142990504,-0.2045632670476712
1592291023.8813841,-8.588506006899014,5.759989294635423,2.219626501724753,0.17619827392516818,-0.7561970844402152,-0.1019660864623396,0.18405819920607588,0.07908464784393213,-0.08856334063838094
1592291023.8913841,-8.06097863410912,6.013546737886303,2.0982266310568485,0.17777777777777778,-0.7566666666666667,-0.10222222222222223,0.21418972245568793,0.03868395599181947,-0.011906827936893405
1592291023.901384,-7.575185905629967,6.609256377480131,1.809106319124104,0.17777777777777778,-0.7566666666666667,-0.10222222222222223,0.25249352755062826,-0.04993201670579579,0.12474465104825835
1592291023.911384,-6.87878215424448,6.589329465634215,2.0757919593412124,0.17777777777777778,-0.7566666666666667,-0.10222222222222223,0.27089847459335054,-0.0442385452337025,0.21859829944467404
1592291023.921384,-7.093653378749978,6.640065463835223,1.9831951319034187,0.17777777777777778,-0.7566666666666667,-0.10222222222222223,0.27125166769263864,-0.0541906239691642,0.26584035976011716
1592291023.931384,-6.837454624340155,6.611295466049605,1.9535454479716536,0.17777777777777778,-0.7538712126690288,-0.09104040623167096,0.2760148951481381,-0.09841772066042398,0.3139807600396656
1592291023.941384,-6.536967444866305,6.638788270458034,1.979394135229017,0.17777777777777778,-0.7533333333333333,-0.08888888888888889,0.27125319583447943,-0.1195618037121681,0.32913349313993134
1592291023.951384,-6.497014614391361,6.919843878389482,2.0342634111984976,0.17777777777777778,-0.7533333333333333,-0.08888888888888889,0.25572798423447507,-0.14164730297679504,0.34578910049491235
1592291023.961384,-6.3199319727891154,6.889977324263039,2.04,0.17777777777777778,-0.7533333333333333,-0.08888888888888889,0.25034442781334193,-0.07797337586538726,0.3535676917234544
1592291023.971384,-6.368877673593058,6.781402908008678,1.8033669792208258,0.17777777777777778,-0.7533333333333333,-0.08888888888888889,0.2404790114642617,-0.016380004366342252,0.3645582603255
1592291023.981384,-7.394960887096775,7.033772983870968,0.2808032258064517,0.18391460573476703,-0.7645841845878136,-0.09707132616487456,0.24666494640914285,0.025970349720294154,0.3587461378763902
1592291023.991384,-6.651503116269074,7.3852043842682145,-0.6994687298517084,0.18444444444444444,-0.7655555555555555,-0.09777777777777778,0.27718050037357667,-0.10026776828841882,0.3383660968537442
1592291024.001384,-6.310470501293263,7.800706162499488,0.16694215215338515,0.18444444444444444,-0.7655555555555555,-0.09777777777777778,0.26890902308762143,-0.29306145063112876,0.32184640456584407
1592291024.011384,-5.861137866803444,7.37257511540642,1.5981435088950677,0.18444444444444444,-0.7655555555555555,-0.09777777777777778,0.2003862890967011,-0.4344249861140888,0.3322722744790972
1592291024.021384,-6.576654250221507,7.318015297542629,1.9600509918087627,0.18444444444444444,-0.7655555555555555,-0.09777777777777778,0.1110856796941477,-0.3516124766487499,0.3756899087726309
1592291024.031384,-6.662377675840979,6.920305810397553,1.7780810397553517,0.17310312606184167,-0.7603211009174311,-0.08469164118246687,0.06015748292400562,-0.2531869952220539,0.44845154306833657
1592291024.041384,-6.591263000886882,6.851031202128517,1.7070104007095057,0.17,-0.7588888888888888,-0.0811111111111111,0.05688625803648574,-0.23378918746967853,0.4959120954682485
1592291024.051384,-6.976194152046784,6.936190643274854,1.8595251461988302,0.17,-0.7588888888888888,-0.0811111111111111,0.07152749677268604,-0.252501618264576,0.6037495129760777
1592291024.061384,-6.722251245263234,6.965331156605258,1.4931452131842988,0.17,-0.7588888888888888,-0.0811111111111111,0.08908332668288213,-0.25944796229770184,0.6894232008207074
1592291024.071384,-6.542954632432244,6.859114914935811,1.432320565007132,0.17,-0.7588888888888888,-0.0811111111111111,0.09095780315132589,-0.2717134126449321,0.7542376824627022
1592291024.081384,-6.8180591367713,6.762155269058296,1.7045249439461885,0.18005504172894868,-0.7735847191081215,-0.0811111111111111,0.08370482977785883,-0.3081078754785579,0.8388839538116052
1592291024.091384,-6.603754980079681,6.71511952191235,1.697918326693227,0.18444444444444444,-0.78,-0.0811111111111111,0.07977026042458271,-0.3454359045379887,0.9083659746997965
1592291024.101384,-6.665306329319223,6.986735190366136,2.043214937355553,0.18444444444444444,-0.78,-0.0811111111111111,0.09346641340043033,-0.3528392412020083,0.9548276299475225
1592291024.111384,-6.734213005888987,7.308402455832603,2.673100864553314,0.18444444444444444,-0.78,-0.0811111111111111,0.163041164368038,-0.3685265394483826,1.0295648545311709
1592291024.121384,-5.623858976644678,7.4954576573364236,2.2856896059903726,0.18444444444444444,-0.78,-0.0811111111111111,0.2023762788213605,-0.3367532510933789,1.1069657042061758
1592291024.131384,-5.431478953356086,7.180875995449375,2.2100037921880924,0.1346070871781907,-0.78,-0.07049003497240129,0.2326038417365651,-0.29060981309627903,1.198149999367048
1592291024.141384,-5.591748808904192,7.2097805981502985,2.2081971413700603,0.11666666666666667,-0.78,-0.06666666666666667,0.2715988277229415,-0.24330313055498795,1.2126819570981844
1592291024.1513839,-5.424405733625323,7.160589858081397,1.5244862205284264,0.11666666666666667,-0.78,-0.06666666666666667,0.39526968969641685,-0.17834157230882053,1.145288495086928
1592291024.1613839,-5.7505298961689935,7.230264948084497,1.5390583601861798,0.11666666666666667,-0.78,-0.06666666666666667,0.4403296825148198,-0.17876463000729156,1.102105043935169
1592291024.1713839,-5.9086488081189525,7.443562662261034,1.3416709936275666,0.11666666666666667,-0.78,-0.06666666666666667,0.4959527674554086,-0.15607994046130844,1.0590332067861485
1592291024.1813838,-5.630112332978598,7.7438205037247245,1.1369102518623624,0.09259049045498141,-0.7949438335107012,-0.06666666666666667,0.47413139896048423,-0.16080563821501942,1.0512728495970916
1592291024.1913838,-5.922152067483394,7.629510653458064,1.6636437814604546,0.08444444444444445,-0.8,-0.06666666666666667,0.4708201867031047,-0.17976839646119386,1.073140153359713
1592291024.2013838,-5.618036565977743,7.503569157392687,1.2298887122416535,0.08444444444444445,-0.8,-0.06666666666666667,0.4228408693222212,-0.1816129199045868,1.1010852855439943
1592291024.2113838,-5.769637796068363,7.551704548314833,1.5238991668554456,0.08444444444444445,-0.8,-0.06666666666666667,0.28288309937202705,-0.18605637493209845,1.177489077212956
1592291024.2213838,-5.7264570731282145,7.539114268282053,1.6216888346552776,0.08444444444444445,-0.8,-0.06666666666666667,0.21592491901097288,-0.15185125116970205,1.2413328947628661
1592291024.2313838,-5.445648059092833,7.5,1.5719932289462548,0.058265088463988174,-0.807999247660695,-0.037578493355048585,0.12227825722571158,-0.08580242525588655,1.3044922313042937
1592291024.2413838,-5.40565244231808,7.713770352650667,1.6613048846361602,0.044444444444444446,-0.8122222222222222,-0.022222222222222223,0.08789091882009999,-0.0570551048317544,1.3174152923518765
1592291024.2513838,-5.767507786489099,7.752549672430459,1.1695977875630974,0.044444444444444446,-0.8122222222222222,-0.022222222222222223,0.10076278432230083,-0.01564664430848611,1.3091907134683332
1592291024.2613838,-5.170858026895157,7.470752112340831,1.3384957753183386,0.044444444444444446,-0.8122222222222222,-0.022222222222222223,0.16774181231647217,0.0435301586304185,1.3200272723991415
1592291024.2713838,-5.455364355317046,7.880550063550346,1.1575035305747776,0.044444444444444446,-0.8122222222222222,-0.022222222222222223,0.20962105861909247,0.04118411900865975,1.351155214875889
1592291024.2813838,-5.384376521288058,8.148080683133156,1.1306332548581461,0.01726595994661914,-0.8220366749575481,-0.022222222222222223,0.24319872289076966,-0.0372117327758201,1.3870886881364568
1592291024.2913837,-4.985936250339713,8.096891718756066,1.2144585937803316,0.0044444444444444444,-0.8266666666666667,-0.022222222222222223,0.22546151351264054,-0.10153759713017269,1.3954379835750863
1592291024.3013837,-4.8288807339449535,8.415981651376146,0.6251376146788991,0.0044444444444444444,-0.8266666666666667,-0.022222222222222223,0.10552636944139568,-0.23572753133529833,1.3999582155853507
1592291024.3113837,-4.813011070110701,8.355269372693726,0.6497244772447724,0.0044444444444444444,-0.8266666666666667,-0.022222222222222223,0.041291366542454404,-0.2773967920800409,1.4052350487175311
1592291024.3213837,-4.236666331213268,8.099230939537879,1.2766667337573465,0.0044444444444444444,-0.8266666666666667,-0.022222222222222223,-0.09814686514482127,-0.31483055090714024,1.435505360574729
1592291024.3313837,-3.9689307265266716,8.425141202027516,1.333883659184166,-0.02613725963472524,-0.8178319521549066,-0.01950384852629603,-0.1886176227323476,-0.34696817990788126,1.452499506715012
1592291024.3413837,-4.024355371235304,8.510072878080205,1.2303643904010308,-0.04555555555555556,-0.8122222222222222,-0.017777777777777778,-0.20411804274147416,-0.3568502518216296,1.4681946351176234
1592291024.3513837,-3.9572971306058915,8.426721489617904,1.185405738788217,-0.04555555555555556,-0.8122222222222222,-0.017777777777777778,-0.19090435732129926,-0.26461676128569883,1.62784009057936
1592291024.3613837,-3.688765475356225,8.26112824106517,1.210548937164214,-0.04555555555555556,-0.8122222222222222,-0.017777777777777778,-0.1631673653681171,-0.23446542598397954,1.7062605143226541
1592291024.3713837,-3.248903750744195,7.998148442151221,1.1173931335582457,-0.04555555555555556,-0.8122222222222222,-0.017777777777777778,-0.08947072442938346,-0.24783515184872557,1.7964335159989628
1592291024.3813837,-3.804891079041026,8.508630763815558,1.7746908365598966,-0.07760895355052341,-0.8162288969715932,-0.012435544778616466,-0.03133729149744131,-0.21810608806713683,1.8684546914516982
1592291024.3913836,-3.8902885001203757,8.642734130487119,2.05,-0.09888888888888889,-0.8188888888888889,-0.008888888888888889,-0.0028141788444189728,-0.1862370116319157,1.901250560870433
1592291024.4013836,-2.7586827866080488,8.872182955698344,1.5924737910043962,-0.09888888888888889,-0.8188888888888889,-0.008888888888888889,-0.021137290358766714,-0.16527266827768208,1.9228668497414234
1592291024.4113836,-2.5665483714146817,9.14170069680765,1.262792092043429,-0.09888888888888889,-0.8188888888888889,-0.008888888888888889,-0.0397848312081826,-0.19001490919783995,1.8872785791459643
1592291024.4213836,-2.388277240218763,8.984702069071021,1.3527200061192488,-0.09888888888888889,-0.8188888888888889,-0.008888888888888889,-0.09815355623364957,-0.26421982895582086,1.6893846767800607
1592291024.4313836,-2.5459531977898955,9.051700913654257,1.5880156007367014,-0.13659500278871195,-0.8091767080359041,-0.024314117302452865,-0.13884474420578838,-0.256539283665822,1.5450620800980832
1592291024.4413836,-2.6763177081269567,9.105394856757934,1.6121028648413045,-0.17222222222222222,-0.8,-0.03888888888888889,-0.1333688347820136,-0.1916426343342645,1.509279081068863
1592291024.4513836,-2.2297988385985383,9.05871856853102,1.9262562862937955,-0.17222222222222222,-0.8,-0.03888888888888889,-0.05779208816741574,-0.07335425575321858,1.5110582554310994
1592291024.4613836,-2.188708086392745,9.097719263354678,1.8093142675311245,-0.17222222222222222,-0.8,-0.03888888888888889,-0.015246422224803196,-0.0717625728969556,1.4954916018983608
1592291024.4713836,-2.243073462674144,9.4130159925487,1.7111161094706804,-0.17222222222222222,-0.8,-0.03888888888888889,0.10000281612910683,-0.07619969993565441,1.4486599853376656
1592291024.4813836,-1.8858099161394732,9.573580991613948,1.3551316757392966,-0.20141157046409364,-0.7854053258790643,-0.034632108936949305,0.11475822289149341,-0.18062886700351494,1.2869437653682692
1592291024.4913836,-1.7905492818769873,9.565406570916933,1.0246365530095385,-0.22555555555555556,-0.7733333333333333,-0.03111111111111111,0.09599310885968812,-0.2650718801466388,1.1802789066611654
1592291024.5013835,-1.701873787733916,9.29181641852206,1.0937093293265947,-0.22555555555555556,-0.7733333333333333,-0.03111111111111111,0.06128257834016881,-0.28471935025202705,1.140983966450389
1592291024.5113835,-1.37678817315854,9.132201971140244,1.5306453362255965,-0.22555555555555556,-0.7733333333333333,-0.03111111111111111,0.026938468946787184,-0.323790710640394,1.0965630709954213
1592291024.5213835,-1.4026504767307797,9.651124023205169,1.7827846201709276,-0.22555555555555556,-0.7733333333333333,-0.03111111111111111,0.05770447527418358,-0.3183283897470929,1.1111199196376373
1592291024.5313835,-1.3745203828429635,9.823997164126197,1.6049563984402695,-0.2378133049745953,-0.7588469022017409,-0.013281657410689669,0.0921641033387961,-0.29068579336844724,1.14485068719179
1592291024.5413835,-1.1001156069364162,9.433816704364581,1.5294839574432437,-0.25,-0.7444444444444445,0.0044444444444444444,0.09183164927988531,-0.27736216283326826,1.1592619777145643
1592291024.5513835,-0.6967639214418492,9.531743581454242,1.4339009671596756,-0.25,-0.7444444444444445,0.0044444444444444444,0.10374659147402357,-0.19549848183750568,1.2134881932104173
1592291024.5613835,-0.6095671595442276,9.687102214365908,1.609130258223252,-0.25,-0.7444444444444445,0.0044444444444444444,0.07561534338721097,-0.13222793144363448,1.2421873774556955
1592291024.5713835,-0.48216454243805623,9.650684714857196,1.619287685676187,-0.25,-0.7444444444444445,0.0044444444444444444,0.06264356323703506,-0.11244230394058771,1.24985897242357
1592291024.5813835,-0.25382430299842185,9.519623506425189,1.6505564740362215,-0.27753834656780474,-0.7474486277063868,0.001940958392825831,0.07118013098106721,-0.05812348410655912,1.2541929594448207
1592291024.5913835,-0.11444095755381212,9.272202373767852,1.6888915711124521,-0.3111111111111111,-0.7511111111111111,-0.0011111111111111111,0.08423394863559829,-0.036483692429506796,1.2674231417923945
1592291024.6013834,-0.9775674790535193,12.270211238776234,1.5945828443546848,-0.3111111111111111,-0.7511111111111111,-0.0011111111111111111,0.1363512875258395,0.01790833873894546,1.244041882242873
1592291024.6113834,1.6516657477766856,10.39146750725124,2.7174149627250284,-0.3111111111111111,-0.7511111111111111,-0.0011111111111111111,-0.06981547113471144,-0.06784924583831378,0.8437039407694087
1592291024.6213834,3.587712488493403,7.9939143909174595,3.319393985885241,-0.3111111111111111,-0.7511111111111111,-0.0011111111111111111,-0.17807569857081487,-0.10952265728206431,0.5907839773424806
1592291024.6313834,-0.4226897365316555,9.868081006685017,1.2651513959889895,-0.3281622755275921,-0.7335727705684449,0.008632411412592302,-0.01392042491292764,0.19975629589245558,0.17728552493646788
1592291024.6413834,-0.8485430410619328,9.157932509695733,1.6692479309103994,-0.35,-0.7111111111111111,0.021111111111111112,-0.05631924744094593,0.19676269666090854,0.1114328719431629
1592291024.6513834,-0.2536278237530754,9.774319783046298,1.0679476067993736,-0.35,-0.7111111111111111,0.021111111111111112,-0.012840073744917888,0.15576748230997192,0.11351932064827795
1592291024.6613834,-0.32357229685503225,9.775610136209208,1.1345912165321197,-0.35,-0.7111111111111111,0.021111111111111112,-0.02994227307121962,0.13501875906299088,0.12964147976944151
1592291024.6713834,-0.23681857265692174,9.886534823731727,1.2118744625967326,-0.35,-0.7111111111111111,0.021111111111111112,-0.023050014170120727,0.07490809081108939,0.17046693083819292
1592291024.6813834,-0.127866641337386,9.731876899696049,1.342133358662614,-0.35757493245525157,-0.7128934481594056,0.015318515704154004,-0.021600687520111243,0.02439656307433658,0.20969460383606217
1592291024.6913834,-0.05,9.66,1.42,-0.3688888888888889,-0.7155555555555555,0.006666666666666667,-0.022907446432425576,0.002181661564992912,0.23125612588924865
1592291024.7013834,0.03602682034799956,9.842648786434667,1.3375495954782224,-0.3688888888888889,-0.7155555555555555,0.006666666666666667,0.010539821487266544,-0.003373681016995024,0.3081558878795147
1592291024.7113833,-0.010717128625563049,9.875358564312782,1.368565742748874,-0.3688888888888889,-0.7155555555555555,0.006666666666666667,0.03490224345070008,0.008998268558299133,0.3667451395343682
1592291024.7213833,-0.05727657382537989,9.89863828691269,1.4651755031458111,-0.3688888888888889,-0.7155555555555555,0.006666666666666667,0.06571732705390994,0.016604415943719326,0.42799208709159925
1592291024.7313833,-0.1136853179038727,9.931474127161549,1.556001052008679,-0.37069001541484936,-0.7145263403978638,0.011555438665702324,0.09365064496618203,0.01911833536402609,0.5051230757666002
1592291024.7413833,-0.03460778520951998,9.843667840514287,1.4407208527333317,-0.37666666666666665,-0.7111111111111111,0.027777777777777776,0.10275009283439242,-0.009731909049106906,0.6107180014369168
1592291024.7513833,0.17438096779414142,9.834546852241463,1.308172034309759,-0.37666666666666665,-0.7111111111111111,0.027777777777777776,0.10152635197601542,-0.039647259002949964,0.698014744106778
1592291024.7613833,0.413976085114396,9.952314753789661,1.113709161095942,-0.37666666666666665,-0.7111111111111111,0.027777777777777776,0.08464455565771847,-0.04257151741095351,0.7867545381953994
1592291024.7713833,0.42193805325433287,9.866141100920686,1.1079931170282593,-0.37666666666666665,-0.7111111111111111,0.027777777777777776,0.059789915340598125,-0.036216332794627326,0.8580234674078725
1592291024.7813833,0.4881941963399627,9.68110078996467,1.213259100472391,-0.37881055403384806,-0.7086099091827328,0.027777777777777776,0.03607432088648188,-0.038765305291525734,0.9258940590706031
1592291024.7913833,0.4,9.81,1.41,-0.38333333333333336,-0.7033333333333334,0.027777777777777776,0.031634092692397225,-0.04690572364734761,0.9806568734643138
1592291024.8013833,0.8497995991983968,9.695673346693386,1.3127795591182365,-0.38333333333333336,-0.7033333333333334,0.027777777777777776,0.014412082530746764,-0.06931934508224623,1.041187051724706
1592291024.8113832,0.8841069614721376,9.70045331065599,1.4320534807360688,-0.38333333333333336,-0.7033333333333334,0.027777777777777776,-0.004709462782296666,-0.10323037285928854,1.061302696934511
1592291024.8213832,0.9154709153657707,9.706113227115855,1.2300761761708063,-0.38333333333333336,-0.7033333333333334,0.027777777777777776,-0.020054780469995506,-0.13476897053600564,1.0822193383286722
1592291024.8313832,1.1883138027963347,9.722651042237068,1.1175924506260724,-0.38679390923066315,-0.6938953990678884,0.03375513614589291,-0.054035965160139296,-0.16484036825205087,1.098939717403232
1592291024.8413832,1.26,9.78,1.39,-0.39555555555555555,-0.67,0.04888888888888889,-0.10799224746714915,-0.17344209441693648,1.0973757671914346
1592291024.8513832,1.3879052574710684,9.404078023259121,1.181788222582388,-0.39555555555555555,-0.67,0.04888888888888889,-0.22139913340940956,-0.1915535329852119,1.0694559705277769
1592291024.8613832,1.4212643244517802,9.324909691110587,1.5180132044329167,-0.39555555555555555,-0.67,0.04888888888888889,-0.2779057190736842,-0.1790538670758262,1.060346627616458
1592291024.8713832,1.37207102195717,9.267465437788019,1.5343589048522634,-0.39555555555555555,-0.67,0.04888888888888889,-0.2911388622014484,-0.17378096459225256,1.0574162907415998
1592291024.8813832,1.4689743984600576,9.237738979788258,1.4343357074109722,-0.41342658539193666,-0.6646386910490857,0.04531468292161266,-0.28965498544537394,-0.1855429459081398,1.0516727500996181
1592291024.8913832,1.63,9.45,1.61,-0.4622222222222222,-0.65,0.035555555555555556,-0.2912518189265538,-0.20071286397934787,1.0341075818066403
1592291024.9013832,1.472650147460103,9.181210275350734,1.4712102753507346,-0.4622222222222222,-0.65,0.035555555555555556,-0.3093748354254422,-0.2546049136589104,0.9802714251406291
1592291024.9113832,1.7921549052541932,9.216807740531333,1.4370152113742283,-0.4622222222222222,-0.65,0.035555555555555556,-0.3153032041765442,-0.28326778195966484,0.9405686164081004
1592291024.9213831,1.9587667103303485,9.284655744764844,1.5704110965565505,-0.4622222222222222,-0.65,0.035555555555555556,-0.3255358186930842,-0.30505406094556003,0.9097278376548747
1592291024.9313831,1.9327717952500367,9.081205930078182,1.6268682696562915,-0.46609111471701825,-0.6445380341249939,0.03828653849305863,-0.3276171628480927,-0.30344807624010095,0.8871870449557582
1592291024.9413831,2.06,9.28,1.77,-0.4811111111111111,-0.6233333333333333,0.04888888888888889,-0.31634092692397225,-0.2999784651865254,0.8715737952146684
1592291024.951383,2.0832095445667864,9.406674403464576,1.8634648588977893,-0.4811111111111111,-0.6233333333333333,0.04888888888888889,-0.30582576774045034,-0.2694579900273813,0.8704854962933671
1592291024.961383,2.238183054243595,9.036436954343781,1.7324788893659653,-0.4811111111111111,-0.6233333333333333,0.04888888888888889,-0.2554971742315189,-0.22782079734508776,0.8845469846668403
1592291024.971383,2.194414990038947,8.761372830554409,1.779290162786941,-0.4811111111111111,-0.6233333333333333,0.04888888888888889,-0.19014746587951975,-0.18378541857944108,0.9205063179704955
1592291024.981383,2.02168028653893,9.151603087943805,1.91358764822478,-0.48663285847310606,-0.6213740036242383,0.05013573506740388,-0.11430390809692165,-0.1500516508584711,0.9559259260625184
1592291024.991383,2.2859192362275835,9.201327312604825,1.8065292220358662,-0.5155555555555555,-0.6111111111111112,0.056666666666666664,-0.0560550228560992,-0.13830169357753505,0.9906748967414687
1592291025.001383,2.34,9.25,1.72,-0.5155555555555555,-0.6111111111111112,0.056666666666666664,-0.03599741582238304,-0.1341721862470641,1.0024734891142428
1592291025.011383,2.385344778254649,9.34465522174535,1.7972646638054364,-0.5155555555555555,-0.6111111111111112,0.056666666666666664,-0.0079697751161794,-0.14478211517987796,1.0663069089903396
1592291025.021383,2.6669949670253383,9.072253774730996,1.823756291218327,-0.5155555555555555,-0.6111111111111112,0.056666666666666664,-0.0016729732080737903,-0.15439777825069886,1.105627707066972
1592291025.031383,2.7622632365044044,9.151027219800651,1.8579614106745512,-0.5213465283493022,-0.5968040018559725,0.06790796679570417,0.003694467336383888,-0.15382290080357353,1.1555487317663484
1592291025.041383,2.79,9.47,2.17,-0.5344444444444445,-0.5644444444444444,0.09333333333333334,0.002181661564992912,-0.14398966328953217,1.1933688760511227
1592291025.051383,3.0578348352055302,8.91422910751759,1.9055770892482409,-0.5344444444444445,-0.5644444444444444,0.09333333333333334,0.023620573185184644,-0.11954568185413574,1.2259678981827709
1592291025.061383,3.227270556895858,9.17,2.0049831624447125,-0.5344444444444445,-0.5644444444444444,0.09333333333333334,0.0487167845552092,-0.09808828140380306,1.225390867204827
1592291025.071383,3.09,9.17,2.19,-0.5344444444444445,-0.5644444444444444,0.09333333333333334,0.061086523819801536,-0.0818123086872342,1.2162763224835484
1592291025.081383,2.7958497674692415,8.922514864308,1.8759733914169658,-0.5398742829483985,-0.5533262036982529,0.08609354866139467,0.06646522437563264,-0.04330393358674575,1.214321020988509
1592291025.091383,3.0762899312575818,8.812338253133845,1.6243744945410432,-0.5577777777777778,-0.5166666666666667,0.06222222222222222,0.05449541700848848,-0.061570296023886854,1.176267578260024
1592291025.101383,3.22,8.98,1.81,-0.5577777777777778,-0.5166666666666667,0.06222222222222222,0.031634092692397225,-0.08508480103472357,1.1344640137963142
1592291025.111383,2.9151022837164327,8.66442882293139,1.6010059758486448,-0.5577777777777778,-0.5166666666666667,0.06222222222222222,-0.018492974972213343,-0.13337428852451053,1.0946156777883183
1592291025.121383,3.3587382969237627,8.753081911401127,1.573725529931504,-0.5577777777777778,-0.5166666666666667,0.06222222222222222,-0.049972234532686,-0.1494447456438915,1.0740600716022153
1592291025.131383,3.455324031007752,9.118634108527132,1.793074418604651,-0.5638528854435831,-0.5130768303186908,0.06553591731266149,-0.07170445079925503,-0.1328359608187688,1.0573246888844536
1592291025.141383,3.29,8.54,1.5,-0.5822222222222222,-0.5022222222222222,0.07555555555555556,-0.08072147790473774,-0.11890055529211369,1.038470904936626
1592291025.151383,4.034608920491273,8.58632967032967,1.538531868131868,-0.5822222222222222,-0.5022222222222222,0.07555555555555556,-0.07919090199671053,-0.1441038655865801,0.9849742505478953
1592291025.161383,4.402171280276817,8.192847462514418,1.349822183775471,-0.5822222222222222,-0.5022222222222222,0.07555555555555556,-0.07295753908852642,-0.1220099577432004,0.9624815503615503
1592291025.171383,4.788979656518036,8.401082938811085,1.275086068577541,-0.5822222222222222,-0.5022222222222222,0.07555555555555556,-0.05007374187813689,-0.07014878372622317,0.9599379166880657
1592291025.181383,4.8997265599043125,8.203155359160077,0.9842491195428268,-0.5866059022009583,-0.4922371733817677,0.07750385776832718,-0.02108418826992145,-0.017422993678353586,0.9341696797483993
1592291025.191383,4.97,8.82,1.32,-0.6022222222222222,-0.45666666666666667,0.08444444444444445,0.008726646259971648,0.0370882466048795,0.9512044423369095
1592291025.2013829,4.636919341273502,8.93093898369462,1.763805583439594,-0.6022222222222222,-0.45666666666666667,0.08444444444444445,0.05056818526207037,0.15910494548233686,0.8910703349213052
1592291025.2113829,4.899550020088389,8.634716753716352,1.52976697468863,-0.6022222222222222,-0.45666666666666667,0.08444444444444445,0.060093863425123156,0.15666328505258262,0.6620816936961605
1592291025.2213829,4.865182269735146,8.604331677637798,1.042308749978516,-0.6022222222222222,-0.45666666666666667,0.08444444444444445,0.06732234948889011,0.17879020809591759,0.5159056466494989
1592291025.2313828,4.8219294295584625,8.762925424952305,0.4944394410738532,-0.6022222222222222,-0.45666666666666667,0.08444444444444445,0.0759722965629966,0.20395369049331827,0.4647923230297787
1592291025.2413828,4.519577912828791,8.418149748361978,1.2449349539454944,-0.6044444444444445,-0.43,0.12777777777777777,0.04708989391904818,0.23836423863940184,0.3382708621898971
1592291025.2513828,4.5,9.26,1.01,-0.6044444444444445,-0.43,0.12777777777777777,0.05563236990731925,0.2476185876266955,0.3097959422289935
1592291025.2613828,4.307348864800733,9.388874777544086,1.0263401283503208,-0.6044444444444445,-0.43,0.12777777777777777,-0.002074802150852546,0.2512148348796192,0.22331840977132844
1592291025.2713828,4.440716041551027,8.75095036079613,1.2487776544286735,-0.6044444444444445,-0.43,0.12777777777777777,-0.028109760377955317,0.218944555215625,0.11355954123083317
1592291025.2813828,4.402075362131819,9.504608833112883,1.617816562893183,-0.607858645818771,-0.4253279349614479,0.1254417452585017,-0.05232753657556966,0.20334437842986688,0.037155849467517044
1592291025.2913828,4.05,8.44,1.14,-0.6255555555555555,-0.4011111111111111,0.11333333333333333,-0.05781403147231216,0.18871372537188688,-0.03599741582238304
1592291025.3013828,4.1810645776566755,8.795699455040872,1.217425068119891,-0.6255555555555555,-0.4011111111111111,0.11333333333333333,-0.0172004991737544,0.17142896174940284,-0.0725079679561835
1592291025.3113828,4.507216627383758,8.839827869437897,1.6288522248410828,-0.6255555555555555,-0.4011111111111111,0.11333333333333333,-0.048998177209629394,0.1392867264618889,-0.13837431168481468
1592291025.3213828,4.276825961905912,9.309599147207305,1.7095378024497676,-0.6255555555555555,-0.4011111111111111,0.11333333333333333,-0.0348729730855274,0.1165155106873625,-0.1752439101817854
1592291025.3313828,4.54,8.55824755585567,1.8351343178415196,-0.6221357433884958,-0.39947554877034336,0.11333333333333333,-0.04215761052729411,0.0868205994085619,-0.21503169535090227
1592291025.3413827,4.54,9.0,1.48,-0.6,-0.3888888888888889,0.11333333333333333,-0.004363323129985824,0.06981317007977318,-0.20180369476184434
1592291025.3513827,4.576011672642571,8.864099819414275,1.862623465675626,-0.6,-0.3888888888888889,0.11333333333333333,0.015438471623193709,0.10783120225675204,-0.28211966191166626
1592291025.3613827,4.444418538728652,8.589543382231357,1.7861498122032458,-0.6,-0.3888888888888889,0.11333333333333333,0.0489605300416172,0.1477789042849365,-0.33172436461988714
1592291025.3713827,4.5730801637690615,8.807313633576614,1.9153867758460412,-0.6,-0.3888888888888889,0.11333333333333333,0.10501279223842927,0.18559189406109072,-0.344131491086987
1592291025.3813827,4.349697632058287,8.392342440801459,1.7802768670309654,-0.6004897793968832,-0.3894766241651488,0.11441084800647641,0.15402967775939483,0.21492386565980534,-0.38085651406696575
1592291025.3913827,4.45,8.52,1.99,-0.6055555555555555,-0.39555555555555555,0.12555555555555556,0.17889624832941878,0.23780111058422737,-0.42760566673861067
1592291025.4013827,4.04,8.769381144729824,1.9752986306937985,-0.6055555555555555,-0.39555555555555555,0.12555555555555556,0.2393372745647707,0.25569973630221754,-0.4712211068802147
1592291025.4113827,4.057709798126654,8.763848702242772,1.8475899134828515,-0.6055555555555555,-0.39555555555555555,0.12555555555555556,0.2419015340580747,0.2497087074898229,-0.5732106081863936
1592291025.4213827,4.064600455509918,9.025709836288957,1.915399544490082,-0.6055555555555555,-0.39555555555555555,0.12555555555555556,0.24367077863410025,0.22576727501741967,-0.6514866290328694
1592291025.4313827,3.8845724597445863,8.738914491948918,2.090723672034055,-0.6046710675139325,-0.3957565755650153,0.12555555555555556,0.24166565573010118,0.22057030474248346,-0.713392530448432
1592291025.4413826,3.7119379992846073,8.658978180517469,1.9339747227852628,-0.5811111111111111,-0.4011111111111111,0.12555555555555556,0.25854918809457406,0.1885353842285747,-0.7745567335012258
1592291025.4513826,3.686308302852088,8.640532883884386,1.5223787324583422,-0.5811111111111111,-0.4011111111111111,0.12555555555555556,0.2623577771633421,0.1544371408111786,-0.7876576688001077
1592291025.4613826,3.85,9.02,1.82,-0.5811111111111111,-0.4011111111111111,0.12555555555555556,0.26398104936414235,0.1308996938995747,-0.7973973020049092
1592291025.4713826,3.3986986438639857,8.623995368205403,1.4126940120693878,-0.5811111111111111,-0.4011111111111111,0.12555555555555556,0.2643770393749705,0.06065069675721549,-0.8336587111678444
1592291025.4813826,3.31438025210084,9.019267707082832,1.730873349339736,-0.5801298852874484,-0.40227074162998533,0.12725040016006403,0.24294490807960084,0.01884678628515823,-0.8196917290375076
1592291025.4913826,3.25,9.24,1.97,-0.5688888888888889,-0.41555555555555557,0.14666666666666667,0.22689280275926282,0.009817477042468103,-0.8126689329598598
1592291025.5013826,2.9710637495284797,9.082510750660129,1.5657019992455679,-0.5688888888888889,-0.41555555555555557,0.14666666666666667,0.2612934332423189,0.031791936030068156,-0.7628341373237822
1592291025.5113826,2.9744865007306616,9.104410799415472,1.4822053997077353,-0.5688888888888889,-0.41555555555555557,0.14666666666666667,0.26640741158427017,0.03890285718717004,-0.721885277357519
1592291025.5213826,3.13,8.98,1.42,-0.5688888888888889,-0.41555555555555557,0.14666666666666667,0.2748893571891069,0.02617993877991494,-0.7134033317526822
1592291025.5313826,3.1998386978785662,9.009930870519385,1.4499308705193854,-0.5688888888888889,-0.41555555555555557,0.14666666666666667,0.2759776743527556,0.005501912670589384,-0.7351696750256564
1592291025.5413826,2.99,9.15,1.37,-0.5633333333333334,-0.44222222222222224,0.16111111111111112,0.2781618495365963,0.006544984694978735,-0.7592182246175333
1592291025.5513825,3.012647882259266,9.092360722266458,1.1694600981172782,-0.5633333333333334,-0.44222222222222224,0.16111111111111112,0.277444444708152,-0.03329884733764911,-0.8250690673847273
1592291025.5613825,2.7,9.24,1.43,-0.5633333333333334,-0.44222222222222224,0.16111111111111112,0.27270769562411395,-0.0370882466048795,-0.842121364087264
1592291025.5713825,2.377219863516127,9.526390068241936,1.5793718185253518,-0.5633333333333334,-0.44222222222222224,0.16111111111111112,0.2809623121234246,-0.03787581154176093,-0.8210703207203447
1592291025.5813825,2.5077469046613463,9.461126547669327,1.2064374152532955,-0.5633333333333334,-0.44222222222222224,0.16111111111111112,0.292149541114305,-0.052114102984699644,-0.8546320076929858
1592291025.5913825,2.299218746429632,9.257046134862785,1.23066220323104,-0.5222222222222223,-0.4688888888888889,0.15444444444444444,0.27660433171846055,-0.08003808536849238,-0.9218575224108011
1592291025.6013825,2.460674495412844,9.15548379204893,1.1697947400611621,-0.5222222222222223,-0.4688888888888889,0.15444444444444444,0.2679541019286669,-0.07655649249647703,-0.9543809682625308
1592291025.6113825,2.3641902704242743,9.567142619720316,1.06,-0.5222222222222223,-0.4688888888888889,0.15444444444444444,0.27977210628299853,-0.04722777499662806,-0.9567729134714043
1592291025.6213825,2.15,9.32,1.06,-0.5222222222222223,-0.4688888888888889,0.15444444444444444,0.2617993877991494,-0.04363323129985824,-0.9981101659842572
1592291025.6313825,2.0045127610208815,9.290902552204175,1.234584686774942,-0.5222222222222223,-0.4688888888888889,0.15444444444444444,0.24910323110004218,-0.07537362304762635,-1.0256185054989897
1592291025.6413825,1.92,9.64,1.24,-0.5022222222222222,-0.47555555555555556,0.20444444444444446,0.23671027980173093,-0.09490227807719166,-1.036289243371633
1592291025.6513824,1.7052838827838828,9.20603872318158,1.230187074829932,-0.5022222222222222,-0.47555555555555556,0.20444444444444446,0.22294118120011716,-0.12005331969046618,-1.0478766804082538
1592291025.6613824,1.7277753585459366,9.33942727315757,1.0943612439059025,-0.5022222222222222,-0.47555555555555556,0.20444444444444446,0.22678948698344162,-0.13400159388159014,-1.038398826564289
1592291025.6713824,1.5062415748156373,9.648765165331854,1.0324696693362938,-0.5022222222222222,-0.47555555555555556,0.20444444444444446,0.21884994763745075,-0.13226433523174944,-1.0167875183813555
1592291025.6813824,1.547815399254619,9.573932281341687,1.1821354373166284,-0.5022222222222222,-0.47555555555555556,0.20444444444444446,0.20887294599973888,-0.12682233433845205,-1.0322065209123648
1592291025.6913824,1.53,9.63,1.13,-0.4688888888888889,-0.4888888888888889,0.20444444444444446,0.18762289458939044,-0.12762720155208535,-1.05265170510908
1592291025.7013824,1.3191872991872993,9.45203175203175,1.0186996786996787,-0.4688888888888889,-0.4888888888888889,0.20444444444444446,0.19983479777208038,-0.08026935318237624,-1.0424884856318648
1592291025.7113824,1.2162572777152167,9.667563073531877,0.8799611855188442,-0.4688888888888889,-0.4888888888888889,0.20444444444444446,0.22757113187081643,-0.01923727142479134,-0.9958008832028153
1592291025.7213824,1.194263463621148,9.44,1.024263463621148,-0.4688888888888889,-0.4888888888888889,0.20444444444444446,0.24230813082822134,0.02472331399868038,-0.9606901057744156
1592291025.7313824,1.2272992025204292,9.44,1.0572992025204293,-0.4688888888888889,-0.4888888888888889,0.20444444444444446,0.2603263312851471,0.04724606456983764,-0.9327618950661805
1592291025.7413824,1.35,9.57,0.9,-0.4622222222222222,-0.52,0.2411111111111111,0.26398104936414235,0.07744898555724837,-0.9250245035569946
1592291025.7513824,1.245086488512826,9.550491351148718,0.9482311358646173,-0.4622222222222222,-0.52,0.2411111111111111,0.28265380809651075,0.1325265056401071,-0.9249494662228696
1592291025.7613823,0.7346161914751598,9.613017068751788,0.7723667397730524,-0.4622222222222222,-0.52,0.2411111111111111,0.29432428575723746,0.18924286203542837,-0.9182922874890309
1592291025.7713823,0.6026625230649704,9.705184034184715,0.7986687384675148,-0.4622222222222222,-0.52,0.2411111111111111,0.2833409492542962,0.21038512291589717,-0.9244991631811181
1592291025.7813823,0.45602291929688255,9.6644508109158,0.8719885403515587,-0.4622222222222222,-0.52,0.2411111111111111,0.271788355263168,0.21838307260206286,-0.9200558577999151
1592291025.7913823,0.4,9.69,0.92,-0.41555555555555557,-0.5288888888888889,0.22666666666666666,0.2498002491916884,0.2127120025868089,-0.9152070265145266
1592291025.8013823,0.18992233086263996,9.790471928717869,0.8195280712821322,-0.41555555555555557,-0.5288888888888889,0.22666666666666666,0.24681121630199093,0.21669737977307219,-0.8942837962866443
1592291025.8113823,0.14,9.74,0.65,-0.41555555555555557,-0.5288888888888889,0.22666666666666666,0.234528618236738,0.20398535632683729,-0.8759371183446542
1592291025.8213823,0.2563157894736842,9.704210526315789,0.7305263157894737,-0.41555555555555557,-0.5288888888888889,0.22666666666666666,0.21891251440310455,0.2000813303684289,-0.8622730274902249
1592291025.8313823,0.26117389153700876,9.77943497616692,0.6782172407590611,-0.41555555555555557,-0.5288888888888889,0.22666666666666666,0.21707532571679475,0.20924982399793482,-0.8375587894671037
1592291025.8413823,0.11,9.76,0.65,-0.3688888888888889,-0.5633333333333334,0.25555555555555554,0.20943951023931953,0.2530727415391778,-0.7930339788749234
1592291025.8513823,0.22451547437848807,9.812853295866995,0.544293408266011,-0.3688888888888889,-0.5633333333333334,0.25555555555555554,0.20943951023931953,0.2626817418871962,-0.7699723780396793
1592291025.8613822,0.12205615507088882,9.800342692511816,0.45137077004725923,-0.3688888888888889,-0.5633333333333334,0.25555555555555554,0.19442955296294218,0.26398104936414235,-0.7443391041804426
1592291025.8713822,-0.03522275772892913,9.741791465851652,0.6537298695192195,-0.3688888888888889,-0.5633333333333334,0.25555555555555554,0.1571287437867773,0.25128191719353943,-0.7333639835204139
1592291025.8813822,-0.057277882797731564,9.757277882797732,0.6945557655954631,-0.3688888888888889,-0.5633333333333334,0.25555555555555554,0.12583320763758266,0.20471532626446248,-0.7377500974406513
1592291025.8913822,-0.14,9.73,0.71,-0.37444444444444447,-0.5577777777777778,0.25555555555555554,0.09053895494720585,0.13526301702956053,-0.7515824091400581
1592291025.9013822,-0.13028943731490622,9.75913168805528,0.7876845014807503,-0.37444444444444447,-0.5577777777777778,0.25555555555555554,0.05982047093964681,0.0759445651528948,-0.7600564736938675
1592291025.9113822,-0.03480385470066665,9.833594860399112,0.5758713779674814,-0.37444444444444447,-0.5577777777777778,0.25555555555555554,0.0489127121262696,0.02801225417276602,-0.7577043912049187
1592291025.9213822,-0.11785747288288485,9.72285670282282,0.6773813557457482,-0.37444444444444447,-0.5577777777777778,0.25555555555555554,0.04589279734924057,0.021972424618707957,-0.7315317964706671
1592291025.9313822,-0.12,9.68045888250208,0.7353575644970872,-0.37444444444444447,-0.5577777777777778,0.25555555555555554,0.04322693277638877,0.02181661564992912,-0.716191517104672
1592291025.9413822,0.021214622641509417,9.632342767295599,0.7123427672955974,-0.3493396226415095,-0.5766063941299789,0.2639238294898672,0.042542400517361786,0.02592438251168857,-0.7164202678319451
1592291025.9513822,0.08520353249620533,9.583997056253162,0.7836047099949405,-0.3477777777777778,-0.5777777777777777,0.2644444444444444,0.0385278863474015,0.036216224204815635,-0.7407629091199333
1592291025.9613822,0.033311391658888835,9.665032912511666,0.7616556958294445,-0.3477777777777778,-0.5777777777777777,0.2644444444444444,0.040240333353888276,0.05460892232023416,-0.7706827184280026
1592291025.9713821,-0.20321489344461552,9.958088688112795,0.8404965156794425,-0.3477777777777778,-0.5777777777777777,0.2644444444444444,0.05297231527024414,0.07180843755898783,-0.7926079352502874
1592291025.9813821,-2.055490640952921,11.631934203062961,1.2058536585365853,-0.3477777777777778,-0.5777777777777777,0.2644444444444444,0.07428972181622347,0.06532053121890717,-0.7777784350443888
1592291025.9913821,-3.42,10.59,-0.05,-0.3422222222222222,-0.5777777777777777,0.2644444444444444,0.13853550937704992,0.053450708342326333,-0.5672320068981571
1592291026.001382,-0.1886792528139214,9.707859024507064,0.7650215534445598,-0.3422222222222222,-0.5777777777777777,0.2644444444444444,0.12389232304230204,-0.013489572045092477,0.0917113781654969
1592291026.011382,-0.48883084273908484,10.058963701518735,0.33124887252870483,-0.3422222222222222,-0.5777777777777777,0.2644444444444444,-0.017079382287801648,-0.21001440287203915,0.010110228464532495
1592291026.021382,0.077895877491724,9.512030293648337,0.8381173640715425,-0.3422222222222222,-0.5777777777777777,0.2644444444444444,0.05753618643625988,-0.27030456337820985,-0.06734560999942212
1592291026.031382,-0.10094286178216393,9.660785718151804,0.7193714254785574,-0.3422222222222222,-0.5777777777777777,0.2644444444444444,0.05863643998691627,-0.18006109745266918,-0.020754223182346106
1592291026.041382,-0.42,9.68,0.85,-0.3088888888888889,-0.5911111111111111,0.27,0.07963064712224129,-0.09381144729469522,-0.032724923474893676
1592291026.051382,-0.5152657240370551,9.672671867381764,0.8280156021452949,-0.3088888888888889,-0.5911111111111111,0.27,0.09322002660715935,-0.06823143885249651,-0.02313242030906916
1592291026.061382,-0.5303838154136277,9.709232369172746,0.6336462464294628,-0.3088888888888889,-0.5911111111111111,0.27,0.09389518282829155,-0.062114552952100735,-0.01642526338764409
1592291026.071382,-0.46755525280048443,9.665396609143203,0.6567620345140781,-0.3088888888888889,-0.5911111111111111,0.27,0.10646168274977712,-0.06412354467231059,-0.02025484187747204
1592291026.081382,-0.5256480955088119,9.71908328595793,0.6140463331438317,-0.3088888888888889,-0.5911111111111111,0.27,0.11443723417254428,-0.06149457763155973,-0.020725784867432664
1592291026.091382,-0.56,9.78616252099496,0.49959369751259697,-0.32194757702595816,-0.5931201400552757,0.2840632026091516,0.11287882562536998,-0.06985749080579959,-0.029601402859077725
1592291026.101382,-0.5880566657994939,9.743238890334178,0.5180566657994939,-0.3233333333333333,-0.5933333333333334,0.28555555555555556,0.10113370987075701,-0.08314603074559102,-0.03156343106684422
1592291026.111382,-0.5812202987481244,9.74,0.5024405974962488,-0.3233333333333333,-0.5933333333333334,0.28555555555555556,0.08215981205500371,-0.08303625341356026,-0.031634092692397225
1592291026.121382,-0.5887235263183056,9.72255294736339,0.5872352631830569,-0.3233333333333333,-0.5933333333333334,0.28555555555555556,0.0739211124982858,-0.08956426319767873,-0.03448886000437497
1592291026.131382,-0.59,9.70689942734431,0.6655028632784538,-0.3233333333333333,-0.5933333333333334,0.28555555555555556,0.07165661163514667,-0.0983987343038432,-0.03490658503988659
1592291026.141382,-0.5551050727426681,9.7,0.6825525363713341,-0.30588586970466736,-0.587517512123778,0.2923406803000368,0.07566205846292869,-0.11776387787677581,-0.035858196560018395
1592291026.151382,-0.39177272836799115,9.718614973133178,0.68,-0.30333333333333334,-0.5866666666666667,0.29333333333333333,0.08448046905835774,-0.14232775035452613,-0.03396683725148159
1592291026.161382,-0.2835160073638364,9.702457455884334,0.5835160073638364,-0.30333333333333334,-0.5866666666666667,0.29333333333333333,0.08986878781589124,-0.14781685271446632,-0.030945362188689537
1592291026.171382,-0.3127399507793273,9.7,0.5870959803117309,-0.30333333333333334,-0.5866666666666667,0.29333333333333333,0.09426871926340373,-0.13436637023377593,-0.035205467305148126
1592291026.181382,-0.30076513317191284,9.744881355932202,0.5130605326876513,-0.30333333333333334,-0.5866666666666667,0.29333333333333333,0.10189627302162414,-0.1180025347932062,-0.03949441329459929
1592291026.191382,-0.3149197212965768,9.75338685246895,0.38693426234474404,-0.3079480965364031,-0.580205998182369,0.29887104917701707,0.10943501244636136,-0.09205177631111641,-0.04688820955117302
1592291026.201382,-0.3824527075451257,9.75,0.413716895281588,-0.3088888888888889,-0.5788888888888889,0.3,0.09995510865607128,-0.06996345270528553,-0.050721567863462935
1592291026.211382,-0.5434051773951231,9.744390673754767,0.4063440425286028,-0.3088888888888889,-0.5788888888888889,0.3,0.08524509126238383,-0.044831563058868484,-0.05725493814972211
1592291026.221382,-0.6552179190532186,9.719709441262376,0.4459443158972803,-0.3088888888888889,-0.5788888888888889,0.3,0.07245308567185513,-0.03713578916714815,-0.06938661109419658
1592291026.231382,-0.4786805404227501,9.791311560252778,0.3882512529962955,-0.3088888888888889,-0.5788888888888889,0.3,0.07033517147405564,-0.05364146704857028,-0.07839760899269133
1592291026.241382,-0.4829065792933277,9.828555508363166,0.3157310438282467,-0.30269720239018216,-0.5822228739266541,0.3038102686145887,0.06825346937050014,-0.06809845901356751,-0.04736691586216681
1592291026.2513819,-0.7112023305084746,9.740723365617434,0.4248191585956416,-0.29444444444444445,-0.5866666666666667,0.3088888888888889,0.04138545627717921,-0.07396643234857155,-0.006623891643228328
1592291026.2613819,-0.523817201416461,9.744330400257539,0.31814760167399936,-0.29444444444444445,-0.5866666666666667,0.3088888888888889,0.019106599385451995,-0.1085424620924442,-0.007017358085124078
1592291026.2713819,-0.5625679261125105,9.774127959697733,0.2729360201511335,-0.29444444444444445,-0.5866666666666667,0.3088888888888889,0.011248654356262362,-0.12183270110830527,-0.007165448511346829
1592291026.2813818,-0.634471526367261,9.804078587727878,0.2681571754557537,-0.29444444444444445,-0.5866666666666667,0.3088888888888889,0.0012061258437623488,-0.12742618057812496,-0.009415435094547321
1592291026.2913818,-0.6859268350965612,9.81,0.30787196141898204,-0.29444444444444445,-0.5835697820645576,0.3146402460070915,-0.014363051590961958,-0.1326270657825734,-0.01156480155768417
1592291026.3013818,-0.733356023948167,9.734092922168458,0.43758508980562616,-0.29444444444444445,-0.5788888888888889,0.3233333333333333,-0.036370926731668925,-0.14490487684689615,-0.010271371077979936
1592291026.3113818,-0.7081721013599066,9.71137092398007,0.4372581520398599,-0.29444444444444445,-0.5788888888888889,0.3233333333333333,-0.052758663180609344,-0.15058449618710837,-0.009817477042468103
1592291026.3213818,-0.6104805559043912,9.734589141445854,0.41787600987902385,-0.29444444444444445,-0.5788888888888889,0.3233333333333333,-0.061086523819801536,-0.1575278098376044,-0.010997943256587504
1592291026.3313818,-0.3805206065085803,9.742377889206304,0.4561889446031524,-0.29444444444444445,-0.5788888888888889,0.3233333333333333,-0.06446206946194351,-0.15645780443611637,-0.009973811222175829
1592291026.3413818,-0.2212521318931211,9.74187535531552,0.5574957362137578,-0.29444444444444445,-0.596040916556124,0.31701416524540454,-0.06831320023601917,-0.1456262195345624,-0.008726646259971648
1592291026.3513818,-0.31420030787597,9.748683358989664,0.5713166410103359,-0.29444444444444445,-0.6,0.31555555555555553,-0.07298477317390357,-0.12173028637825864,-0.006832231203693049
1592291026.3613818,-0.3457909897839558,9.695871378328588,0.5199196114553676,-0.29444444444444445,-0.6,0.31555555555555553,-0.0715444688839203,-0.08747410592033035,-0.0034889046980077568
1592291026.3713818,-0.32862052460271873,9.714482098410876,0.5272410492054375,-0.29444444444444445,-0.6,0.31555555555555553,-0.06887281671998181,-0.08241421837805457,-0.006093552426863458
1592291026.3813818,-0.34697138093914975,9.72,0.53339427618783,-0.29444444444444445,-0.6,0.31555555555555553,-0.06983311358227061,-0.08329334106722605,-0.005434210409984845
1592291026.3913817,-0.3585371712080643,9.712845723736022,0.6186970389037644,-0.2904698465200119,-0.5904609649813619,0.3107860380462365,-0.07277524212228925,-0.07759111656446528,-0.0032724923474893677
1592291026.4013817,-0.35,9.701751372157673,0.7077403948962863,-0.28888888888888886,-0.5866666666666667,0.3088888888888889,-0.07308566242726255,-0.07057735034425212,-0.005971849496619525
1592291026.4113817,-0.35,9.7,0.6206551724137931,-0.28888888888888886,-0.5866666666666667,0.3088888888888889,-0.06391602891848398,-0.06731236094101539,-0.007378587741231332
1592291026.4213817,-0.36529003397785326,9.692354983011073,0.5747099660221466,-0.28888888888888886,-0.5866666666666667,0.3088888888888889,-0.05358104594199494,-0.06070308382732313,-0.006801873491052237
1592291026.4313817,-0.33980918741122823,9.696038162517754,0.49150388726919336,-0.28888888888888886,-0.5866666666666667,0.3088888888888889,-0.044682433233250676,-0.05561155548276724,-0.006544984694978735
1592291026.4413817,-0.40051232291868816,10.10256161459344,0.09379701144964103,-0.28888888888888886,-0.5804045971063243,0.30352140069430966,-0.03948248575026887,-0.03764215070452635,-0.004788478290778737
1592291026.4513817,-0.4308796967331921,9.976966216969561,0.2765525699632066,-0.28888888888888886,-0.5788888888888889,0.3022222222222222,-0.05944535194121895,-0.01126672886588518,-0.0037699277249462195
1592291026.4613817,-0.3744548890634204,9.629778617710583,0.7403320734341252,-0.28888888888888886,-0.5788888888888889,0.3022222222222222,-0.13911805863574667,-0.005869480290080638,-9.477569629976054e-05
1592291026.4713817,-0.42046614253106773,9.538681714430636,0.9239548567080902,-0.28888888888888886,-0.5788888888888889,0.3022222222222222,-0.1608256390942681,-0.035676446541669786,0.001090830782496456
1592291026.4813817,-0.3913471172237909,9.627305765552418,0.8344494034065033,-0.28888888888888886,-0.5788888888888889,0.3022222222222222,-0.1285088877132907,-0.06775163005736504,0.0004274300051279491
1592291026.4913816,-0.40220967464279567,9.69,0.6685457049406094,-0.29436051337962166,-0.5890504772288212,0.31160214992062124,-0.0780638993944601,-0.08706354441352855,-0.00230218062097608
1592291026.5013816,-0.39046021840873635,9.698439937597504,0.63,-0.2966666666666667,-0.5933333333333334,0.31555555555555553,-0.06544984694978735,-0.08835729338221293,-0.0032724923474893677
1592291026.5113816,-0.31595410840258076,9.74404589159742,0.54148068184671,-0.2966666666666667,-0.5933333333333334,0.31555555555555553,-0.07064920986986768,-0.08018686593637242,-0.0032724923474893677
1592291026.5213816,-0.3072037949728931,9.709573435189748,0.5864455396747166,-0.2966666666666667,-0.5933333333333334,0.31555555555555553,-0.08644446864954498,-0.03392429971573712,-0.000915055955321879
1592291026.5313816,-0.3258075293631385,9.69526917645438,0.704306823270072,-0.2966666666666667,-0.5933333333333334,0.31555555555555553,-0.09048022975473377,-0.012855068620069143,0.000574777987484269
1592291026.5413816,-0.34,9.7,0.797859081934847,-0.2920365343131878,-0.5893646484589229,0.31555555555555553,-0.0842531278122674,-0.0035316499075296577,0.001090830782496456
1592291026.5513816,-0.38450441291992055,9.692582597846679,0.7580781849267594,-0.28888888888888886,-0.5866666666666667,0.31555555555555553,-0.07505768648823981,0.004045565297498523,-0.0005273953365029535
1592291026.5613816,-0.3855617608409987,9.69,0.675027923784494,-0.28888888888888886,-0.5866666666666667,0.31555555555555553,-0.06993572728332567,0.0007292511965769676,-0.0003033469965122372
1592291026.5713816,-0.366130801493294,9.731607595520117,0.670803797760059,-0.28888888888888886,-0.5866666666666667,0.31555555555555553,-0.06720944443130984,0.00042206408347042197,0.0
1592291026.5813816,-0.34448651283717907,9.73448651283718,0.7265404614884629,-0.28888888888888886,-0.5866666666666667,0.31555555555555553,-0.06654067773228381,-0.001165514462979368,0.000564086311368956
1592291026.5913815,-0.3571141083279812,9.709154356668808,0.8133825733247698,-0.28527367444515805,-0.5866666666666667,0.31555555555555553,-0.06713221581236592,-0.0056386446678177975,-0.0006837834577498659
1592291026.6013815,-0.3726660621174337,9.670664248469734,0.9086715030605306,-0.2822222222222222,-0.5866666666666667,0.31555555555555553,-0.06043143183548208,-0.010035841037241255,-0.0005816445251488698
1592291026.6113815,-0.41203525390406825,9.638982373047966,0.8669471191438975,-0.2822222222222222,-0.5866666666666667,0.31555555555555553,-0.04405802679972856,-0.014729420234015559,0.0007642224818102
1592291026.6213815,-0.4094777335698193,9.691566799290543,0.8331592445232731,-0.2822222222222222,-0.5866666666666667,0.31555555555555553,-0.01952381076351364,-0.023824568386991766,-0.00040159054741252987
1592291026.6313815,-0.3651526585433398,9.724978191636666,0.83,-0.2822222222222222,-0.5866666666666667,0.31555555555555553,-0.007107052550055575,-0.0299859519016321,-0.001090830782496456
1592291026.6413815,-0.3394659003550902,9.71106819928982,0.83,-0.2822222222222222,-0.5866666666666667,0.31240025543719213,-0.0006910684746452272,-0.024980651856361256,-0.0005745460079276277
1592291026.6513815,-0.34340079032451204,9.670202370973536,0.8695952580529278,-0.2822222222222222,-0.5866666666666667,0.3088888888888889,0.011539868935414848,-0.00916384068327612,0.001439724210834144
1592291026.6613815,-0.35355565327860844,9.673555653278608,0.7679991204925242,-0.2822222222222222,-0.5866666666666667,0.3088888888888889,0.024495269867682128,-0.0017574229441935105,0.002181661564992912
1592291026.6713815,-0.3469118550718041,9.719264434784588,0.7230881449281958,-0.2822222222222222,-0.5866666666666667,0.3088888888888889,0.03478622846296078,-0.0028553902746901927,0.00289550913366546
1592291026.6813815,-0.3350162969585219,9.749967406082956,0.7349837030414781,-0.2822222222222222,-0.5866666666666667,0.3088888888888889,0.036004526711989754,-0.0032760477922927217,0.0027288546786428166
1592291026.6913815,-0.3503981789766936,9.72940273153496,0.7756968132092139,-0.2856219187183378,-0.5827003540878651,0.3088888888888889,0.03270320618065766,4.343458847203387e-05,0.001069113488260439
1592291026.7013814,-0.37,9.693329374121296,0.7966587482425947,-0.28888888888888886,-0.5788888888888889,0.3088888888888889,0.03527235471590039,0.0036369663743941807,0.0014553048094012688
1592291026.7113814,-0.3638457510635977,9.708462746809207,0.70999476382677,-0.28888888888888886,-0.5788888888888889,0.3088888888888889,0.0417875175329611,0.0050346475482831955,0.0015103371466955403
1592291026.7213814,-0.3724931281629717,9.713753435918514,0.6475068718370283,-0.28888888888888886,-0.5788888888888889,0.3088888888888889,0.04404266764386255,0.009542520543435164,0.00040943634400430855
1592291026.7313814,-0.3563674408148443,9.724179535511094,0.6494530236740623,-0.28888888888888886,-0.5788888888888889,0.3088888888888889,0.04053973653645777,0.01251472106802776,-0.0005155824605667446
1592291026.7413814,-0.342543004273036,9.735818998575654,0.6892670099704175,-0.3000382260204765,-0.5788888888888889,0.3116762231717858,0.035720017088278266,0.016282504928693674,0.00027739873410477425
1592291026.7513814,-0.35396001207533145,9.723960012075333,0.754159951698674,-0.31555555555555553,-0.5788888888888889,0.31555555555555553,0.032498033306563076,0.02402008724450031,0.0015228010895793824
1592291026.7613814,-0.387244681647006,9.707585106117664,0.751377659176497,-0.31555555555555553,-0.5788888888888889,0.31555555555555553,0.036373984635294634,0.02685706620032886,0.001090830782496456
1592291026.7713814,-0.3781600571632726,9.693632011432653,0.7782079314040729,-0.31555555555555553,-0.5788888888888889,0.31555555555555553,0.042048467350610796,0.019629731815380847,0.002480110372865647
1592291026.7813814,-0.37372301048735346,9.685425663170882,0.8091486736582356,-0.31555555555555553,-0.5788888888888889,0.31555555555555553,0.04912204146483809,0.00978282078997053,0.0017755441206766804
1592291026.7913814,-0.3642104603035244,9.68,0.82,-0.30409353791267746,-0.5788888888888889,0.312690051144836,0.062196508786362896,-9.577092032453903e-06,0.0
1592291026.8013813,-0.33204455790206544,9.694311905314457,0.7934207472731492,-0.28888888888888886,-0.5788888888888889,0.3088888888888889,0.07335729422805594,-0.004363323129985824,-0.0006690800088508083
1592291026.8113813,-0.33450725941153797,9.760985481176924,0.6131016317615315,-0.28888888888888886,-0.5788888888888889,0.3088888888888889,0.0858989647268117,-0.0013674978729047824,-0.0008758321418245343
1592291026.8213813,-0.3701497203027312,9.747057302684153,0.578678371644808,-0.28888888888888886,-0.5788888888888889,0.3088888888888889,0.08710596335893173,0.0067218158872618654,-0.0007861642524253473
1592291026.8313813,-0.39575401851818814,9.721508037036378,0.6084919629636237,-0.28888888888888886,-0.5788888888888889,0.3088888888888889,0.08432297289631191,0.009518813634283472,-0.002181661564992912
1592291026.8413813,-0.39393199155981173,9.721795974679436,0.6160680084401883,-0.28888888888888886,-0.5788888888888889,0.3062675611823477,0.08138339494423831,0.005491246762495752,-0.0013238340790011362
1592291026.8513813,-0.3742059111652689,9.765794088834731,0.5842059111652689,-0.28888888888888886,-0.5788888888888889,0.3022222222222222,0.07579750533594751,0.001478236912308592,0.0
1592291026.8613813,-0.34796836469464376,9.767968364694644,0.5158576411258969,-0.28888888888888886,-0.5788888888888889,0.3022222222222222,0.065867199442093,0.002403278597981828,-0.0006562239077426862
1592291026.8713813,-0.3456185060376299,9.74876298792474,0.5361850603762988,-0.28888888888888886,-0.5788888888888889,0.3022222222222222,0.0580221041510571,0.0038853762812382543,-0.00047794684874756966
1592291026.8813813,-0.35829063643666875,9.731709363563331,0.6090172275283406,-0.28888888888888886,-0.5788888888888889,0.3022222222222222,0.05382363362099825,0.002554586843664824,-0.0009043681431605001
1592291026.8913813,-0.37,9.71642670208195,0.65,-0.29603548472498903,-0.5788888888888889,0.3046044208342556,0.05126904677733343,-0.0003897863364039522,-0.0014020888921850074
1592291026.9013813,-0.3638183581908573,9.703818358190857,0.6561816418091427,-0.3088888888888889,-0.5788888888888889,0.3088888888888889,0.05396629684604541,0.003629356837749516,-0.000674312517177996
1592291026.9113812,-0.3541106914845787,9.75300377663879,0.5245459041453107,-0.3088888888888889,-0.5788888888888889,0.3088888888888889,0.05498994600569525,0.007829832498226741,-0.00044840688087245293
1592291026.9213812,-0.33888847138395056,9.773332707075925,0.44666729292407414,-0.3088888888888889,-0.5788888888888889,0.3088888888888889,0.04908718027008317,0.012968925369213576,0.0012120797454976942
1592291026.9313812,-0.34215107685810814,9.76,0.4681007179054054,-0.3088888888888889,-0.5788888888888889,0.3088888888888889,0.0407476314791633,0.018129764227754124,0.0026234871875697335
1592291026.9413812,-0.3885932004689332,9.750468933177022,0.5085932004689332,-0.3050058616647128,-0.5771238765142634,0.3110069037384395,0.03213411008507731,0.018992988020676865,0.003965611086191688
1592291026.9513812,-0.4096209033291709,9.741536884763095,0.546926230473812,-0.2966666666666667,-0.5733333333333334,0.31555555555555553,0.024292220424860348,0.011496194244841194,0.00797111171922174
1592291026.9613812,-0.3462496481846327,9.75,0.46812435500516,-0.2966666666666667,-0.5733333333333334,0.31555555555555553,0.018612255453058668,0.006885850125957258,0.010431075753806232
1592291026.9713812,-0.32549629489781473,9.75,0.41450370510218526,-0.2966666666666667,-0.5733333333333334,0.31555555555555553,0.010475208823578795,0.012049234343118213,0.01030875505854311
1592291026.9813812,-0.3379100991400938,9.757910099140094,0.44164039656037507,-0.2966666666666667,-0.5733333333333334,0.31555555555555553,0.0035249818228641726,0.018316150483404597,0.0089546190790068
