time,acc_x,acc_y,acc_z,mag_x,mag_y,mag_z,gyr_x,gyr_y,gyr_z
1592239659.4819884,-9.48,-0.25,0.14,0.5244444444444445,-0.36777777777777776,-0.12,-0.01090830782496456,-0.002181661564992912,0.00545415391248228
1592239659.4919884,-10.190559646134403,-0.5123199076872356,0.1625600307709215,0.5244444444444445,-0.36777777777777776,-0.12,-0.018916464684980986,0.0014631721650376936,-0.011234106534688142
1592239659.5019884,-9.53,-0.34,0.22,0.5244444444444445,-0.36777777777777776,-0.12,-0.0272707695624114,0.009817477042468103,-0.01854412330243975
1592239659.5119884,-9.545051006590233,-0.27227047034395596,0.242576509885348,0.5244444444444445,-0.36777777777777776,-0.12,-0.014136288525465718,-0.011526054642568628,0.0027994083825969816
1592239659.5219884,-9.750322671419191,-0.07818684926367134,0.1894437670012194,0.5111111111111111,-0.3477777777777778,-0.11333333333333333,0.00024873929577421284,-0.026093785556121487,-0.010547937689334458
1592239659.5319884,-9.499464671615145,-0.1413957530771399,0.34709362961570983,0.5111111111111111,-0.3477777777777778,-0.11333333333333333,0.010872845319022271,-0.03481272726585003,0.002181661564992912
1592239659.5419884,-9.610818199106209,-0.04639393363126367,0.20927878672625272,0.5111111111111111,-0.3477777777777778,-0.11333333333333333,-0.00014676481479818245,-0.03381575425739013,0.000922906941395214
1592239659.5519884,-9.741543451007468,0.0005285343120332855,0.20687094605643272,0.5111111111111111,-0.3477777777777778,-0.11333333333333333,0.01159555955944097,-0.03346982935908724,-0.014983360206364637
1592239659.5619884,-9.619613910136449,0.008149130616471956,0.3059386980141354,0.5111111111111111,-0.3477777777777778,-0.11333333333333333,0.005776612838538664,-0.028482160741170975,-0.010826969691434419
1592239659.5719883,-9.618999805409612,0.19849970811441917,0.22749951352403192,0.5311111111111111,-0.3477777777777778,-0.12777777777777777,-0.0041996666728337,-0.010744651367812434,0.004145326785634031
1592239659.5819883,-9.616680918923915,0.16132592215956365,0.1739948691873902,0.5311111111111111,-0.3477777777777778,-0.12777777777777777,-0.002109810133678432,-0.006762404605033498,0.020580216388692382
1592239659.5919883,-9.845523927786799,0.03888098194669978,0.09149202407106696,0.5311111111111111,-0.3477777777777778,-0.12777777777777777,-0.01615901851432865,0.0057796630694713835,0.018625500591687025
1592239659.6019883,-9.732173366115845,0.015278174852764594,0.13248384698953627,0.5311111111111111,-0.3477777777777778,-0.12777777777777777,-0.010942176034404526,0.01374051344973436,0.02136928084679203
1592239659.6119883,-9.788132540454,0.1511790268168563,0.19643718909028532,0.5311111111111111,-0.3477777777777778,-0.12777777777777777,-0.011814204461992321,0.002404143891093025,0.03793782097096014
1592239659.6219883,-9.67205904182728,0.2534603873871717,0.1709342303732612,0.5188888888888888,-0.35333333333333333,-0.12777777777777777,-0.009338098609429522,-0.0147922525219118,0.06222830896475281
1592239659.6319883,-9.51,0.10792328132452135,0.19193227498807658,0.5188888888888888,-0.35333333333333333,-0.12777777777777777,-0.022607035038894833,-0.02721807493648035,0.0621089036143114
1592239659.6419883,-9.510310262529833,-0.12989657915672237,0.23015983221233818,0.5188888888888888,-0.35333333333333333,-0.12777777777777777,-0.03819753796473216,-0.02617993877991494,0.039250422004885314
1592239659.6519883,-9.838299292786422,-0.02066138613861386,0.40103932107496465,0.5188888888888888,-0.35333333333333333,-0.12777777777777777,-0.05757698021145961,-0.02628300454550301,0.01869872195082185
1592239659.6619883,-9.695918528995756,-0.07603168316831684,0.48804978783592645,0.5188888888888888,-0.35333333333333333,-0.12777777777777777,-0.0377313893253545,-0.03491152232207045,0.03164149861567301
1592239659.6719882,-9.640951451573555,0.11571846791900463,0.3452329836545499,0.5188888888888888,-0.3411111111111111,-0.12,-0.04581489286485115,0.001090830782496456,0.05235987755982988
1592239659.6819882,-9.659555989265675,0.031998048304464496,0.44755794096121004,0.5188888888888888,-0.3411111111111111,-0.12,-0.04581489286485115,0.001090830782496456,0.05235987755982988
1592239659.6919882,-9.66990684056428,0.06962736225712005,0.22214266702155974,0.5188888888888888,-0.3411111111111111,-0.12,-0.052298904851731866,0.02054286674313861,0.06748923886255156
1592239659.7019882,-9.825455076800786,0.0797159423000491,0.31715942300049094,0.5188888888888888,-0.3411111111111111,-0.12,-0.059778791819126965,0.03450376849184153,0.07611026766826265
1592239659.7119882,-9.799254345405476,0.018508690810953625,0.23544944986506125,0.5188888888888888,-0.3411111111111111,-0.12,-0.06418798134476876,0.03574504270137932,0.09061193502012845
1592239659.7219882,-9.465636831110396,-0.03816037281054154,0.4962027960790616,0.5241889406681308,-0.34747117324620136,-0.12,-0.05712454508313145,0.02871277668905913,0.1021869172105156
1592239659.7319882,-9.507104731475826,-0.13517455245970963,0.31965089508058075,0.5244444444444445,-0.3477777777777778,-0.12,-0.05983778063581696,0.02005605382223785,0.10461448018533435
1592239659.7419882,-9.742713306432009,-0.16908916330400117,0.18394695901599495,0.5244444444444445,-0.3477777777777778,-0.12,-0.05364942208349091,0.02809664869002175,0.09837348416584561
1592239659.7519882,-9.769163644925829,-0.217909112314575,0.35247280433246997,0.5244444444444445,-0.3477777777777778,-0.12,-0.03777248799988081,0.008502521244476851,0.11176256138813381
1592239659.7619882,-9.709463084719578,-0.1443288558994744,0.25406039825926413,0.5244444444444445,-0.3477777777777778,-0.12,-0.0370882466048795,0.0026831506775804852,0.11153012646381917
1592239659.7719882,-9.586221551152684,0.028011342711939308,0.23039773145761214,0.5311111111111111,-0.3411111111111111,-0.10666666666666667,-0.03499335658331269,0.010229641873742083,0.11028237346142468
1592239659.7819881,-9.4,-0.07,0.25,0.5311111111111111,-0.3411111111111111,-0.10666666666666667,-0.039269908169872414,0.030543261909900768,0.11562806294462433
1592239659.7919881,-9.56653568564555,-0.0949803528468324,0.09179109863672816,0.5311111111111111,-0.3411111111111111,-0.10666666666666667,-0.03472835186271445,0.03235988443276395,0.10109508276171886
1592239659.8019881,-9.656523582670292,-0.1565235826702916,0.13536477689372212,0.5311111111111111,-0.3411111111111111,-0.10666666666666667,-0.019428966010851437,0.022448646155937467,0.07967747125055985
1592239659.811988,-9.560883922615076,-0.07740326884589727,0.18955803869246166,0.5311111111111111,-0.3411111111111111,-0.10666666666666667,-0.031157991265146852,0.02542057792498829,0.06502495780827293
1592239659.821988,-10.1,-0.05,0.2,0.5311111111111111,-0.3477777777777778,-0.12777777777777777,-0.02617993877991494,0.017453292519943295,0.05235987755982988
1592239659.831988,-9.87633911965282,-0.012723186608803477,0.3118304401735896,0.5311111111111111,-0.3477777777777778,-0.12777777777777777,-0.008898293183705299,-0.008977459568377331,0.05642614711187921
1592239659.841988,-9.6,0.19,0.19,0.5311111111111111,-0.3477777777777778,-0.12777777777777777,0.004363323129985824,-0.04363323129985824,0.06654067773228381
1592239659.851988,-9.460178899644651,0.15892864436547807,0.24437487236041336,0.5311111111111111,-0.3477777777777778,-0.12777777777777777,0.006058002688987384,-0.050411949535864475,0.061456639055279136
1592239659.861988,-9.569191062510763,0.07147838815223007,0.3620780954021009,0.5311111111111111,-0.3477777777777778,-0.12777777777777777,0.0176799775633009,-0.06263833251520419,0.04971723808193078
1592239659.871988,-9.42,0.19,0.1,0.5244444444444445,-0.3477777777777778,-0.13444444444444445,0.022907446432425576,-0.07199483164476608,0.03599741582238304
1592239659.881988,-9.648021394708051,0.04643097370233801,0.15067142104623366,0.5244444444444445,-0.3477777777777778,-0.13444444444444445,0.008167727533740128,-0.04988525329673792,0.030470021235376003
1592239659.891988,-9.754564554388343,-0.044564554388342933,0.15077649223023673,0.5244444444444445,-0.3477777777777778,-0.13444444444444445,0.001429639433341073,-0.04279650700549525,0.027440173887833708
1592239659.901988,-9.886469833718138,-0.05,0.24033559551295508,0.5244444444444445,-0.3477777777777778,-0.13444444444444445,0.01587195803359847,-0.047469442934395784,0.023329135628784196
1592239659.911988,-9.734863617368841,0.07923716901568968,0.2715395281692816,0.5244444444444445,-0.3477777777777778,-0.13444444444444445,0.03390047877719464,-0.05269575050334445,0.03308903792500974
1592239659.921988,-9.89569872493112,0.08659639905170757,0.3581264817069264,0.5360187380306558,-0.3419906309846721,-0.14119611570306773,0.04130765863208067,-0.05075386040597561,0.04182284500343848
1592239659.931988,-9.67418130086989,0.12410667226381213,0.48467734788591155,0.5377777777777778,-0.3411111111111111,-0.14222222222222222,0.04530060300037324,-0.05883854084222978,0.04350465883373876
1592239659.941988,-9.613507528786537,0.19181576616474758,0.2262444641275465,0.5377777777777778,-0.3411111111111111,-0.14222222222222222,0.041961719117644895,-0.052289345542892565,0.037853470679048845
1592239659.951988,-9.892947127314372,0.1557895113571292,0.3314735636571865,0.5377777777777778,-0.3411111111111111,-0.14222222222222222,0.03855800001961412,-0.04837547706208222,0.030336583935960025
1592239659.961988,-9.590830398661401,0.1644327489931319,0.4149473704690935,0.5377777777777778,-0.3411111111111111,-0.14222222222222222,0.04290218345070186,-0.06137868827593411,0.024729325064078413
1592239659.971988,-9.65393036155851,0.19770433736550158,0.3384174296598276,0.5316212583632218,-0.347267630525667,-0.12888309682401775,0.03364312261313754,-0.05747445453019705,0.015855939497469204
1592239659.981988,-9.705684845212383,0.13755152087832972,0.33892121130309577,0.5311111111111111,-0.3477777777777778,-0.12777777777777777,0.04148330219080863,-0.06450842621507344,0.009432711811007083
1592239659.991988,-9.718710577531832,0.10386826740450678,0.22676249208619598,0.5311111111111111,-0.3477777777777778,-0.12777777777777777,0.04824346018038779,-0.06640002356029169,0.009676822870475981
1592239660.001988,-9.773035168566578,0.14419597380548144,0.34258792141644434,0.5311111111111111,-0.3477777777777778,-0.12777777777777777,0.05198000493370609,-0.05111337255166743,-0.003681414990571232
1592239660.011988,-9.475010021570236,0.18546395098020502,0.338721629411877,0.5311111111111111,-0.3477777777777778,-0.12777777777777777,0.05622839449964518,-0.04444516488456216,-0.0015856369726669809
1592239660.021988,-9.677766871165643,0.18127046450482032,0.2925409290096406,0.5425569383581653,-0.33008877203233034,-0.12049406952965235,0.04862019223531127,-0.03437009897336099,0.0010215376930000992
1592239660.031988,-9.489182852254364,0.11148442698266847,0.37432685909825414,0.5433333333333333,-0.3288888888888889,-0.12,0.04914638360103927,-0.029216437572609284,-0.004658315073479606
1592239660.041988,-9.794368835680169,0.15054959369766147,0.35782953911047705,0.5433333333333333,-0.3288888888888889,-0.12,0.05657636719325735,-0.032401280795613205,-0.023527801039083196
1592239660.051988,-9.796865516764285,0.13613291518701287,0.15373103352857076,0.5433333333333333,-0.3288888888888889,-0.12,0.04488389095271356,-0.03104500986033329,-0.03726291636814232
1592239660.0619879,-9.720145845110231,0.11004861503674393,0.292912003014886,0.5433333333333333,-0.3288888888888889,-0.12,0.04834602314972356,-0.029092356251810322,-0.03854445534082719
1592239660.0719879,-9.749478588003656,0.04052141199634344,0.5754296462977286,0.5433333333333333,-0.33266530717483533,-0.1266087320004063,0.054976536759837026,-0.027434727849281956,-0.030764097422368755
1592239660.0819879,-9.939508196721313,0.1018032786885246,0.38561475409836066,0.5433333333333333,-0.3333333333333333,-0.12777777777777777,0.05563236990731925,-0.017480116227709598,-0.02847336579393413
1592239660.0919878,-9.500648558257254,0.16954555726294857,0.23240237729368163,0.5433333333333333,-0.3333333333333333,-0.12777777777777777,0.05284862161489083,-0.016362461737446838,-0.02279410376005102
1592239660.1019878,-9.665940380184333,0.027347350230414735,0.3880947580645161,0.5433333333333333,-0.3333333333333333,-0.12777777777777777,0.045884169416562114,-0.008036551267531132,-0.036618234263112594
1592239660.1119878,-9.703242443217396,0.0878482381738487,0.2443035236523026,0.5433333333333333,-0.3333333333333333,-0.12777777777777777,0.043986926987061505,-0.009493525076151487,-0.040007043265165604
1592239660.1219878,-9.840737101555474,-0.060409019751523824,0.3918022849148986,0.5332149796267306,-0.3397722856920805,-0.14525493418009155,0.051760779908942754,-0.0018776982593150873,-0.03584543416954414
1592239660.1319878,-9.740236414961187,-0.022141848976711356,0.3361891319689485,0.5311111111111111,-0.3411111111111111,-0.14888888888888888,0.05439437576237591,-0.014155011300743531,-0.029244580519589176
1592239660.1419878,-9.53252892710819,0.07150916212687407,0.1895853405970015,0.5311111111111111,-0.3411111111111111,-0.14888888888888888,0.05987630131103211,-0.00836031845813287,-0.019470330034559002
1592239660.1519878,-9.58916891262802,0.12305630420933994,0.26743298868035476,0.5311111111111111,-0.3411111111111111,-0.14888888888888888,0.06649534894786881,-0.008347926404334495,0.0005761245736142888
1592239660.1619878,-9.768933090163,0.11013336372962498,0.34297769672100004,0.5311111111111111,-0.3411111111111111,-0.14888888888888888,0.06618676595555456,-0.010893760098810212,0.004363323129985824
1592239660.1719878,-9.584180418041804,0.17476175742574257,0.3450794141914192,0.5634155741963085,-0.3411111111111111,-0.13689008831438698,0.06001301852621849,-0.01652982896043507,0.014330841906528745
1592239660.1819878,-9.64142984807864,0.1157134346142389,0.45607275841525174,0.57,-0.3411111111111111,-0.13444444444444445,0.053840232739263374,-0.02049207022927044,0.006739665657910874
1592239660.1919878,-9.762372252671206,0.13678846260311134,0.28489010684825333,0.57,-0.3411111111111111,-0.13444444444444445,0.05964536865213861,-0.023166219056186706,-0.006027439447456473
1592239660.2019877,-9.735941607593416,0.17801946413552805,0.2461362489486964,0.57,-0.3411111111111111,-0.13444444444444445,0.06064382188334635,-0.020283082930977477,0.007451620646077797
1592239660.2119877,-9.717582992520542,0.16758299252054087,0.29104251869864783,0.57,-0.3411111111111111,-0.13444444444444445,0.06676812002984645,-0.02098943948344448,0.021066948313776614
1592239660.2219877,-9.893219634492315,0.12476545490532427,0.3875159992082866,0.5566891718531225,-0.3411111111111111,-0.12974650509848767,0.06629180969468582,-0.0033678509795938595,0.02880816661827267
1592239660.2319877,-9.898837359792926,0.0704651998849583,0.33302343974690823,0.5511111111111111,-0.3411111111111111,-0.12777777777777777,0.06780907832291745,0.0060883542077991,0.043252679749910525
1592239660.2419877,-9.762270224280954,0.12278921371682462,0.1687242691371446,0.5511111111111111,-0.3411111111111111,-0.12777777777777777,0.0627292536733089,0.009113449962393523,0.05717958471700676
1592239660.2519877,-9.752873859441387,0.04087994242065428,0.30536625571730397,0.5511111111111111,-0.3411111111111111,-0.12777777777777777,0.05526450482139691,0.006490609043379751,0.05417367403890046
1592239660.2619877,-9.675991522858007,0.10600968816227671,0.2759915228580079,0.5511111111111111,-0.3411111111111111,-0.12777777777777777,0.0599963535464074,-0.008946265536496061,0.05825095824350284
1592239660.2719877,-9.844341790491592,0.0788611476127902,0.38124566191583276,0.5698062603187438,-0.33254250105761274,-0.13167260052936794,0.05059357630593211,-0.013190896689689108,0.051470901376796704
1592239660.2819877,-9.862417716470782,0.148615196940906,0.33362657470617213,0.5777777777777777,-0.3288888888888889,-0.13333333333333333,0.054033267817859026,-0.011754599255464952,0.05706122081335233
1592239660.2919877,-9.474767409078094,0.17239098768912697,0.3760901231087304,0.5777777777777777,-0.3288888888888889,-0.13333333333333333,0.05008308480733986,-0.002038964783747252,0.05833566406668612
1592239660.3019876,-9.556716922710491,0.18513207097773016,0.34703775157794453,0.5777777777777777,-0.3288888888888889,-0.13333333333333333,0.04799655442984406,-0.014590371601661363,0.0454341348532402
1592239660.3119876,-9.656305098323447,0.21420339888229797,0.28159320223540407,0.5777777777777777,-0.3288888888888889,-0.13333333333333333,0.044696327862112695,-0.03151576972876913,0.032210935345217497
1592239660.3219876,-9.5838382923674,0.1681817593790427,0.27747477360931433,0.5777777777777777,-0.33728395860284605,-0.13333333333333333,0.024560203240264967,-0.03552361707047724,0.023182905900398808
1592239660.3319876,-9.415943087867719,0.10898577196692945,0.2977535570082676,0.5777777777777777,-0.3411111111111111,-0.13333333333333333,0.011287770542371157,-0.03550731798908202,0.00997566952808586
1592239660.3419876,-9.742822796081924,0.15805164737310773,0.20566607301869994,0.5777777777777777,-0.3411111111111111,-0.13333333333333333,0.013775259788044069,-0.03520585927326785,-0.007703033189094742
1592239660.3519876,-9.6029552503323,0.23832521045635802,0.21374390784226852,0.5777777777777777,-0.3411111111111111,-0.13333333333333333,0.023224497825122817,-0.05796989896338665,-0.017861689512060932
1592239660.3619876,-9.587480441134886,0.25416797059100765,0.294152323498916,0.5777777777777777,-0.3411111111111111,-0.13333333333333333,0.017909654415035413,-0.055089514765527536,-0.0221796569664376
1592239660.3719876,-9.517481793278545,0.30300728268858157,0.33337408966392734,0.5718880797012686,-0.3278592904389657,-0.13333333333333333,0.009830814520466157,-0.04618294895168266,-0.013879431475612687
1592239660.3819876,-9.727977027337468,0.2934240753503331,0.3373151849299334,0.5688888888888889,-0.3211111111111111,-0.13333333333333333,0.00314090602911379,-0.03703730107350309,-0.012716460710584403
1592239660.3919876,-9.646141728602814,0.33657177581451875,0.34,0.5688888888888889,-0.3211111111111111,-0.13333333333333333,-0.0004519250794776837,-0.04075815563627376,-0.018037689827389278
1592239660.4019876,-9.528258709997871,0.4017412900021287,0.26347430166276403,0.5688888888888889,-0.3211111111111111,-0.13333333333333333,-0.00792073338781149,-0.05349864617420218,-0.02494710055573679
1592239660.4119875,-9.5271188868828,0.34011186121359605,0.41830775571080936,0.5688888888888889,-0.3211111111111111,-0.13333333333333333,-0.022112593089264936,-0.05096696825523971,-0.02415846810010574
1592239660.4219875,-9.572576716999512,0.29303068679980515,0.48833122260107165,0.5688888888888889,-0.3290743085998809,-0.11451123017805921,-0.024857552198581684,-0.041550610581361835,-0.017552333366439805
1592239660.4319875,-10.033352272727273,0.20450874125874124,0.47046241258741256,0.5688888888888889,-0.3333333333333333,-0.10444444444444445,-0.03446519905280826,-0.028109393402626113,-0.007831287776786183
1592239660.4419875,-9.771477258644195,0.16679018465733053,0.37814723014004215,0.5688888888888889,-0.3333333333333333,-0.10444444444444445,-0.038879350463758615,-0.028092306142561474,0.0023029250687603333
1592239660.4519875,-9.625157420936041,0.12900504312579536,0.3504974784371023,0.5688888888888889,-0.3333333333333333,-0.10444444444444445,-0.0396696960835592,-0.04023228343509181,-0.0005083208722506697
1592239660.4619875,-9.66575844512688,0.08696621949248425,0.42910134152254725,0.5688888888888889,-0.3333333333333333,-0.10444444444444445,-0.03973259003199724,-0.04849295560458445,-0.0076695347900907485
1592239660.4719875,-9.463457206780175,0.08588790717075576,0.416448371316977,0.5900727651165631,-0.3333333333333333,-0.12739364369109166,-0.040136459080437746,-0.05733490315129072,-0.01437451146722587
1592239660.4819875,-9.448022997780916,0.07098850110954207,0.4522816219487593,0.5955555555555555,-0.3333333333333333,-0.13333333333333333,-0.04139765536292431,-0.055275654817864596,-0.014753172749672664
1592239660.4919875,-9.699421514613876,0.022977869082080497,0.43568913997572134,0.5955555555555555,-0.3333333333333333,-0.13333333333333333,-0.044016229128057575,-0.04389990372385448,-0.011233142951062347
1592239660.5019875,-9.759413892908828,0.02352870236372407,0.4541148094548963,0.5955555555555555,-0.3333333333333333,-0.13333333333333333,-0.0506270720765878,-0.03740923395525231,-0.01940986828309691
1592239660.5119874,-9.68724169178703,0.04055166164259427,0.4958274924638914,0.5955555555555555,-0.3333333333333333,-0.13333333333333333,-0.05460171607494923,-0.04232795835180896,-0.02169626174967624
1592239660.5219874,-9.750483762296186,0.01133068319633472,0.5762902573777119,0.5881899714024764,-0.3413127161658357,-0.11737456766832863,-0.06105572890686082,-0.049804340763024584,-0.026866099417658298
1592239660.5319874,-9.635194987731376,-0.006346332515425114,0.5549048288348382,0.5822222222222222,-0.3477777777777778,-0.10444444444444445,-0.06098169471394378,-0.0676522716420932,-0.028256771239050106
1592239660.5419874,-9.479654946239076,0.08046007168122934,0.39930989247815596,0.5822222222222222,-0.3477777777777778,-0.10444444444444445,-0.055979251489750075,-0.06941610246213838,-0.031299757618767396
1592239660.5519874,-9.564260406230076,0.09460879861553875,0.3273043993077694,0.5822222222222222,-0.3477777777777778,-0.10444444444444445,-0.05869616473603334,-0.05546167610238903,-0.033123316655521706
1592239660.5619874,-9.735825227608746,0.05480351723601276,0.3804715586335694,0.5822222222222222,-0.3477777777777778,-0.10444444444444445,-0.06053682183960956,-0.039742451549076976,-0.03107581753431776
1592239660.5719874,-9.818641293758525,0.04601902968110671,0.40796194063778657,0.5893417909693808,-0.34006491163502267,-0.11215731058719954,-0.053006072764554844,-0.03345560369021336,-0.031199836195591867
1592239660.5819874,-9.741715251373046,0.040571750457682014,0.41885649908463596,0.5955555555555555,-0.3333333333333333,-0.11888888888888889,-0.05891505214945805,-0.030345967115507542,-0.024247750414580424
1592239660.5919874,-9.647804004896413,-0.025976395593228167,0.45865879853107605,0.5955555555555555,-0.3333333333333333,-0.11888888888888889,-0.06952056531020684,-0.029306128742621142,-0.01488578266444681
1592239660.6019874,-9.634375134027497,-0.035624865972503514,0.4456248659725035,0.5955555555555555,-0.3333333333333333,-0.11888888888888889,-0.07066537431853259,-0.042508377846002254,-0.013993324596811265
1592239660.6119874,-9.674330063803447,-0.058928102085515674,0.5029901914103418,0.5955555555555555,-0.3333333333333333,-0.11888888888888889,-0.06556677287386868,-0.0581402107559079,-0.01898722851011682
1592239660.6219873,-9.645027510087031,-0.1249874954149855,0.5999899963319884,0.5955555555555555,-0.3311122226297791,-0.11500194515766893,-0.06054138123627843,-0.06708582031580691,-0.020181733514810053
1592239660.6319873,-9.539142735788952,-0.156357158026381,0.588214209868095,0.5955555555555555,-0.3288888888888889,-0.1111111111111111,-0.05722185957155675,-0.0662445917819061,-0.011905625588446656
1592239660.6419873,-9.571401070262006,-0.2766620334978108,0.655961498366808,0.5955555555555555,-0.3288888888888889,-0.1111111111111111,-0.05295324280651831,-0.06277071984898641,-0.016764027562374474
1592239660.6519873,-9.688876088991288,-0.24078695370437037,0.5765173878608971,0.5955555555555555,-0.3288888888888889,-0.1111111111111111,-0.035384653077402316,-0.058439124869813015,-0.01652181774995208
1592239660.6619873,-9.754634383768204,-0.25780630260922677,0.6265875818365749,0.5955555555555555,-0.3288888888888889,-0.1111111111111111,-0.026685471627140876,-0.04342017044212912,-0.000319060352178345
1592239660.6719873,-9.685674619785125,-0.26040428352169664,0.6804042835216967,0.6096097855913678,-0.3353304109886362,-0.12282296947428802,-0.02663688683583094,-0.019679054575968486,0.010215446874829288
1592239660.6819873,-9.599709976798144,-0.19029002320185615,0.6360150812064965,0.6222222222222222,-0.3411111111111111,-0.13333333333333333,-0.01947677096682477,-0.014836943746380159,0.0037071795560595913
1592239660.6919873,-9.677803249702771,-0.2231061183428345,0.6422726579885987,0.6222222222222222,-0.3411111111111111,-0.13333333333333333,-0.016197189384643516,-0.01501544218110797,0.0025204865152369865
1592239660.7019873,-9.503031236358344,-0.1616057137313867,0.5510704758209245,0.6222222222222222,-0.3411111111111111,-0.13333333333333333,-0.007616159677130939,-0.020550628670825275,-0.0009740599847581971
1592239660.7119873,-9.305164826666152,-0.1,0.5535165600046402,0.6222222222222222,-0.3411111111111111,-0.13333333333333333,0.001054871182253683,-0.016194622148747728,-0.015475430143892268
1592239660.7219872,-9.453070134112252,-0.07608279154496059,0.561732466471937,0.6126553388402065,-0.3342016953352108,-0.12642391755743307,0.002181661564992912,0.0008546023128424762,-0.027745316412763434
1592239660.7319872,-9.914581395348836,-0.1588670374115268,0.5776354903943377,0.6022222222222222,-0.32666666666666666,-0.11888888888888889,-0.00969388999577576,0.0037507372689155193,-0.03154811669695172
1592239660.7419872,-10.022297375133713,-0.17260141528840617,0.5914527277215502,0.6022222222222222,-0.32666666666666666,-0.11888888888888889,-0.012765673198304406,-0.007259908350255974,-0.03362412060967929
1592239660.7519872,-9.775925797964227,-0.0802782576341457,0.6403710101788609,0.6022222222222222,-0.32666666666666666,-0.11888888888888889,0.0024038748147294127,-0.07580281008956569,-0.03774476862099598
1592239660.7619872,-9.829713592426112,-0.0917367437050002,0.698549663868889,0.6022222222222222,-0.32666666666666666,-0.11888888888888889,0.002687525173821572,-0.08772446486349984,-0.02472483239301665
1592239660.7719872,-9.70642462426525,-0.04344373658090177,0.6341061560663124,0.627718802185382,-0.3405076672180963,-0.11888888888888889,3.612937828056592e-05,-0.060320857441830175,0.01766265861958615
1592239660.7819872,-9.607340294335279,-0.08787470196497574,0.6259582339883253,0.6411111111111111,-0.3477777777777778,-0.11888888888888889,-0.005152635118537275,-0.04408550949077574,0.03990846076145136
1592239660.7919872,-9.415651308740243,-0.22,0.4979412214908924,0.6411111111111111,-0.3477777777777778,-0.11888888888888889,-0.013681218708925778,-0.009842689877024503,0.058734132961206505
1592239660.8019872,-9.396058908940054,-0.22192117817880108,0.413054138145613,0.6411111111111111,-0.3477777777777778,-0.11888888888888889,-0.012418274666680355,0.0071683036411768755,0.056852172593160034
1592239660.8119872,-9.79572157587067,-0.19149418283603406,0.5784547860692728,0.6411111111111111,-0.3477777777777778,-0.11888888888888889,-0.013247392824284273,0.033191627148978504,0.05436741580380926
1592239660.8219872,-9.724209070796459,-0.10516950806871422,0.6506497267048412,0.6286409349875643,-0.33960766238648854,-0.1180288767424374,-0.011999138607461015,0.02579476222856037,0.06872233929727672
1592239660.8319871,-9.598273810923283,-0.04456845273082077,0.641726189076717,0.6088888888888889,-0.32666666666666666,-0.11666666666666667,-0.009036689128558383,0.0160524188688601,0.08116462710866779
1592239660.8419871,-9.755838636311424,-0.05034344919478968,0.5824241310390774,0.6088888888888889,-0.32666666666666666,-0.11666666666666667,-0.002595951222376068,0.010646056357234415,0.10065614795279411
1592239660.8519871,-9.974858436606292,-0.12981982840800763,0.6147297426120114,0.6088888888888889,-0.32666666666666666,-0.11666666666666667,0.007074957915473796,-0.009783785033552104,0.11397918226753614
1592239660.861987,-9.935632346304036,-0.09332352190891073,0.6461470536292458,0.6088888888888889,-0.32666666666666666,-0.11666666666666667,0.02069851463300044,-0.03364892206966271,0.12069080123165321
1592239660.871987,-9.667785437448376,0.03355708748967533,0.5475551178600928,0.611826990278925,-0.33212314067673365,-0.11666666666666667,0.02957375391060274,-0.0507356562377761,0.12697248822932958
1592239660.881987,-9.658047756315682,-0.10641237487799894,0.5092566448010533,0.6166666666666667,-0.3411111111111111,-0.11666666666666667,0.016216504285445646,-0.04902251523367332,0.13031373477165947
1592239660.891987,-9.850259605899478,-0.20974039410052212,0.3918172412963453,0.6166666666666667,-0.3411111111111111,-0.11666666666666667,0.013982569897926206,-0.04525531816827951,0.13187725023948388
1592239660.901987,-9.711974212034384,-0.19537965616045846,0.3593925501432665,0.6166666666666667,-0.3411111111111111,-0.11666666666666667,0.016445289862765337,-0.037757904184105476,0.13527958265462423
1592239660.911987,-9.634746015842108,-0.13480613267293043,0.42737300792105415,0.6166666666666667,-0.3411111111111111,-0.11666666666666667,0.014320801499228005,-0.019214950104613972,0.1371581182120446
1592239660.921987,-9.80206428035982,-0.09823650674662669,0.5186306846576711,0.6183552321061692,-0.3431373896385141,-0.11666666666666667,0.021624248377378676,-0.0072510809323743045,0.1401502564808372
1592239660.931987,-9.860552432915501,-0.06140683427012536,0.5837687260412502,0.6222222222222222,-0.3477777777777778,-0.11666666666666667,0.03475312322711423,-0.03149161076191616,0.12374622362499922
1592239660.941987,-9.682237850421963,0.039254049859346204,0.5253729750703269,0.6222222222222222,-0.3477777777777778,-0.11666666666666667,0.047752442817154246,-0.05817252741673917,0.10151212641264672
1592239660.951987,-9.660247287604546,0.1268546570341024,0.5251236438022735,0.6222222222222222,-0.3477777777777778,-0.11666666666666667,0.05015124110172001,-0.07598807618876396,0.0804247540804511
1592239660.961987,-9.56521394971001,0.20436608542874957,0.5911251960024937,0.6222222222222222,-0.3477777777777778,-0.11666666666666667,0.044800990866120195,-0.08052180927738603,0.058720752489429304
1592239660.971987,-9.4722437528317,0.26491687868121144,0.6235318718851288,0.6086103463097852,-0.3529409031238746,-0.12276854207569017,0.040191523889012246,-0.07606656197853863,0.045354085005281236
1592239660.981987,-9.530642857142857,0.33956285714285717,0.5604885714285714,0.59,-0.36,-0.13111111111111112,0.04139827485949193,-0.07414002829502983,0.04469881714138835
1592239660.991987,-9.80177038252997,0.09598069939809979,0.684688852410088,0.59,-0.36,-0.13111111111111112,0.022150653072057568,-0.0642702976511798,0.03585649717630319
1592239661.001987,-9.71738617477001,0.0585591891195955,0.5909908939816007,0.59,-0.36,-0.13111111111111112,0.02203279518139322,-0.06588220601271556,0.03561413507973289
1592239661.011987,-9.62236603131512,0.13,0.5941220104383734,0.59,-0.36,-0.13111111111111112,0.02271589882431901,-0.06378235046676149,0.03651158090435009
1592239661.021987,-9.575035128003016,0.18831694026525927,0.62,0.598948101945463,-0.36,-0.12709989299762767,0.027452830150874255,-0.06902526269528793,0.04145156973486533
1592239661.031987,-9.471877242882586,0.3843754485765172,0.5867184135676121,0.6222222222222222,-0.36,-0.11666666666666667,0.020248497467983136,-0.05831672007236423,0.043266798683403586
1592239661.041987,-9.626381066506891,0.42629838226482925,0.5568508088675854,0.6222222222222222,-0.36,-0.11666666666666667,0.015503653080646154,-0.04719800616737901,0.04266292130603305
1592239661.051987,-9.509991525423729,0.48060708782742684,0.5975716486902928,0.6222222222222222,-0.36,-0.11666666666666667,-0.0035364599505572697,-0.020329371246397547,0.007966930522393221
1592239661.061987,-9.678586002066115,0.4591751678719008,0.6817674974173554,0.6222222222222222,-0.36,-0.11666666666666667,-0.01321850542934642,-0.015451581410094912,-0.003478150010511685
1592239661.071987,-9.583313674393088,0.35891510080921685,0.8144575504046084,0.6200635486673067,-0.3574095917341014,-0.12227921790944696,-0.024845986337624665,-0.033934098400711314,-0.018182657499324757
1592239661.081987,-9.62,0.31,0.79,0.6166666666666667,-0.35333333333333333,-0.13111111111111112,-0.02617993877991494,-0.039269908169872414,-0.014180800172453926
1592239661.091987,-9.769549774615761,0.118774235594417,0.8934834084614132,0.6166666666666667,-0.35333333333333333,-0.13111111111111112,-0.03325976409317304,-0.026313648934484783,-0.02107063502682613
1592239661.101987,-10.14,0.13,0.77,0.6166666666666667,-0.35333333333333333,-0.13111111111111112,-0.028361600344907853,-0.025089107997418484,-0.022907446432425576
1592239661.1119869,-9.614881468210983,0.13960878260144988,0.8195702441463212,0.6166666666666667,-0.35333333333333333,-0.13111111111111112,-0.041306728567303615,-0.021675978375683833,-0.0025182229915314287
1592239661.1219869,-9.226140885984023,-0.07630936819172113,0.7884226579520698,0.6136651335431292,-0.35590607601065116,-0.1255368353102558,-0.050848082741154335,-0.020323199389099548,0.01737645113584587
1592239661.1319869,-9.240411233291093,-0.13639251113927153,0.7592274046519233,0.6088888888888889,-0.36,-0.11666666666666667,-0.049992672648314966,-0.027557579176645843,0.01905589474873464
1592239661.1419868,-9.505828153025872,0.06218555738470233,0.5939072213076488,0.6088888888888889,-0.36,-0.11666666666666667,-0.04791708532077254,-0.010641034315466667,0.005938098004689854
1592239661.1519868,-9.463999076257384,0.04466635875246129,0.6148887862508204,0.6088888888888889,-0.36,-0.11666666666666667,-0.06455261695351758,-0.003345281576114517,0.020241027166705394
1592239661.1619868,-9.51,0.06,0.62,0.6088888888888889,-0.36,-0.11666666666666667,-0.08072147790473774,0.0,0.017453292519943295
1592239661.1719868,-9.518524766566003,-0.1613231976118574,0.7152927904474295,0.6099180425870002,-0.3610291536981113,-0.1157845349254284,-0.08333615487563262,0.004346738594502695,0.013395230862708572
1592239661.1819868,-9.72068179113005,-0.16193182088699504,0.7782386268955174,0.6166666666666667,-0.36777777777777776,-0.11,-0.07825471549557532,0.021624479649746023,-0.005069881912116089
1592239661.1919868,-9.735750522515675,-0.13797121413642408,0.7438176895306859,0.6166666666666667,-0.36777777777777776,-0.11,-0.06172950877039998,0.023993043797240474,-0.018554590137802862
1592239661.2019868,-9.618065426730713,-0.169485054749926,0.6566457987114986,0.6166666666666667,-0.36777777777777776,-0.11,-0.05205016277121933,0.022801931828768884,-0.021352043467013287
1592239661.2119868,-9.665962088016766,-0.25280758239664697,0.694384835206706,0.6166666666666667,-0.36777777777777776,-0.11,-0.04309639874559174,0.031692613924698805,-0.016190410145747694
1592239661.2219868,-9.624303195105371,-0.2671210061182869,0.6970904146838885,0.6191985799531687,-0.36777777777777776,-0.11094946748243825,-0.02898969937466618,0.04597024911837461,-0.022272673387002756
1592239661.2319868,-9.601643444336073,-0.24402048209558314,0.718495889647485,0.6344444444444445,-0.36777777777777776,-0.11666666666666667,-0.014554543086506982,0.04013184231610864,-0.049381105497581484
1592239661.2419868,-9.666441547730864,-0.08998602552060664,0.5078341847838537,0.6344444444444445,-0.36777777777777776,-0.11666666666666667,-0.009272823840834457,0.037246257258420665,-0.055554126770163255
1592239661.2519867,-9.71720513910538,-0.085266638326012,0.504297387936328,0.6344444444444445,-0.36777777777777776,-0.11666666666666667,-0.013465327297023112,0.05413093827905669,-0.04915787108974144
1592239661.2619867,-9.59845896627496,-0.1826884494124391,0.6891867774911627,0.6344444444444445,-0.36777777777777776,-0.11666666666666667,-0.008625785838523279,0.056903452999112154,-0.039517400760134436
1592239661.2719867,-9.481690117584884,0.03693321442726913,0.3822671422909235,0.6351259523494958,-0.3669826852218846,-0.11519006620572217,0.0015368766633032378,0.04855411178085254,-0.03753429248568628
1592239661.2819867,-9.815247005988024,-0.07977638473053893,0.5797763847305389,0.6411111111111111,-0.36,-0.10222222222222223,0.00545415391248228,0.05119076578835749,-0.04823139739677187
1592239661.2919867,-9.884444367224964,-0.16595941344082285,0.6497977621794426,0.6411111111111111,-0.36,-0.10222222222222223,0.007569709115508626,0.04655313111350989,-0.0649650416920165
1592239661.3019867,-9.800815796435701,-0.026736814257197136,0.5073508261381948,0.6411111111111111,-0.36,-0.10222222222222223,0.014336768064946326,0.04414515753807593,-0.06974619177371211
1592239661.3119867,-9.790060897128038,-0.15527403707616944,0.7077892613581789,0.6411111111111111,-0.36,-0.10222222222222223,0.021006796120785414,0.04090947576670856,-0.06053114415927894
1592239661.3219867,-9.809780278002867,-0.2649152278252197,0.8109792432836751,0.6411111111111111,-0.36134198369659315,-0.10160284513148692,0.023974309263115633,0.04233970983839763,-0.0567471686416221
1592239661.3319867,-9.782272471383,-0.03505676487145806,0.5203405892287484,0.6411111111111111,-0.37444444444444447,-0.09555555555555556,0.01965972243259657,0.04036073895236887,-0.06467511964559267
1592239661.3419867,-9.746829757752401,-0.10192675235319414,0.6690489273257203,0.6411111111111111,-0.37444444444444447,-0.09555555555555556,0.03490658503988659,0.04954231934607936,-0.056231000369948284
1592239661.3519866,-9.333171812363739,-0.16852802588086363,0.52,0.6411111111111111,-0.37444444444444447,-0.09555555555555556,0.031778089413597436,0.06479929170430103,-0.05986826706292385
1592239661.3619866,-9.581903861193458,-0.11695287634359712,0.49485768328392415,0.6411111111111111,-0.37444444444444447,-0.09555555555555556,0.025598127974256993,0.04462022256258338,-0.08288226840079686
1592239661.3719866,-9.734471018314752,-0.03304093992688649,0.40331738901114894,0.6411111111111111,-0.37444444444444447,-0.09555555555555556,0.03142300127276275,0.036298974993289435,-0.09869263878245535
1592239661.3819866,-9.946083636074354,-0.2831773222667126,0.6382758346371086,0.6166666666666667,-0.36777777777777776,-0.0811111111111111,0.023117015762838103,0.042542400517361786,-0.09216445508834208
1592239661.3919866,-9.694374638100753,-0.24986103068905616,0.4952084539664158,0.6166666666666667,-0.36777777777777776,-0.0811111111111111,0.024144105562871578,0.0392850673700924,-0.09965760865036617
1592239661.4019866,-9.889973906297751,-0.3112597851383436,0.44251957027668726,0.6166666666666667,-0.36777777777777776,-0.0811111111111111,0.022772871572966223,0.03094983286964315,-0.10417291653772938
1592239661.4119866,-9.71631362364431,-0.27377891983832325,0.49124421603233537,0.6166666666666667,-0.36777777777777776,-0.0811111111111111,0.02648657720424273,0.02311355453663705,-0.09807424010456472
1592239661.4219866,-9.428424212397633,-0.1315364439133856,0.5184635560866144,0.6166666666666667,-0.3698263696622919,-0.08042824714960639,0.02819256973637658,0.013595630638650056,-0.08827492394329915
1592239661.4319866,-9.786711704378968,-0.16909909071882048,0.5405855677774936,0.6166666666666667,-0.39444444444444443,-0.07222222222222222,0.037967790915261056,-0.00706583159682328,-0.07469734011160355
1592239661.4419866,-9.80725794981205,-0.17153205323580212,0.5764512851772834,0.6166666666666667,-0.39444444444444443,-0.07222222222222222,0.03687712879113819,-0.009747104437887667,-0.07482746750787789
1592239661.4519866,-9.725227499881013,-0.016439722050354575,0.3316672219313693,0.6166666666666667,-0.39444444444444443,-0.07222222222222222,0.04048463917903242,-0.008197714556955423,-0.06430938339264587
1592239661.4619865,-9.762738922760281,-0.11681526930992972,0.5308916158595782,0.6166666666666667,-0.39444444444444443,-0.07222222222222222,0.027963240177201875,0.0068414249814107275,-0.04893916506912452
1592239661.4719865,-9.672710555467637,-0.13390125019781612,0.6652565279316348,0.6161396142146262,-0.39301387350319145,-0.070339892036363,0.0415254886684094,0.01475419842014189,-0.04361527807919363
1592239661.4819865,-9.662871698113209,-0.044108962264150946,0.6235641509433962,0.6088888888888889,-0.37333333333333335,-0.044444444444444446,0.04575546316891797,0.012776715719965092,-0.02707637528428538
1592239661.4919865,-9.538843505876354,-0.03557824706182341,0.6465305176290596,0.6088888888888889,-0.37333333333333335,-0.044444444444444446,0.05223372362084486,0.023872123275937008,-0.025215261936403506
1592239661.5019865,-9.607146180126481,-0.07888129679435923,0.5731278621792543,0.6088888888888889,-0.37333333333333335,-0.044444444444444446,0.04765535759499037,0.018434540679672425,-0.030080033485728033
1592239661.5119865,-9.841921482375383,-0.12640130797827823,0.6055201743971037,0.6088888888888889,-0.37333333333333335,-0.044444444444444446,0.042167211799501746,0.01517551419156674,-0.038327297207385064
1592239661.5219865,-9.70566939272664,-0.014330607273360014,0.5950523751522533,0.6107334068016164,-0.3722907797304874,-0.04540680161630223,0.0372457119289023,0.025943740793880735,-0.04868229541662032
1592239661.5319865,-9.65,-0.07,0.66,0.6344444444444445,-0.35888888888888887,-0.057777777777777775,0.039269908169872414,0.022907446432425576,-0.02945243112740431
1592239661.5419865,-9.808764735181803,-0.15111738336377223,0.6190004980906525,0.6344444444444445,-0.35888888888888887,-0.057777777777777775,0.027405516051233807,0.02033440427288263,-0.026853671224026984
1592239661.5519865,-9.736845018450184,-0.20660926609266095,0.5004079540795408,0.6344444444444445,-0.35888888888888887,-0.057777777777777775,0.029382213647760214,0.005735023831058653,-0.03290985932096268
1592239661.5619864,-9.614777259906782,-0.12501310235842453,0.609973795283151,0.6344444444444445,-0.35888888888888887,-0.057777777777777775,0.032724923474893676,-0.008361130338353794,-0.0360002743135616
1592239661.5719864,-10.034535341830821,-0.09777365778292778,0.6603035921205099,0.6344444444444445,-0.35903506287283804,-0.05792395176172696,0.03265868994881857,-0.01214264458062374,-0.03053222298888825
1592239661.5819864,-9.5,0.12,0.69,0.6344444444444445,-0.37333333333333335,-0.07222222222222222,0.02617993877991494,-0.02617993877991494,-0.02945243112740431
1592239661.5919864,-9.643013960360728,0.31534264024048503,0.7020558414429102,0.6344444444444445,-0.37333333333333335,-0.07222222222222222,0.02378924809315257,-0.02574665214515964,-0.009817477042468103
1592239661.6019864,-9.617133372104293,0.2598672094601144,0.6415329068527673,0.6344444444444445,-0.37333333333333335,-0.07222222222222222,0.005912340904432304,-0.020725784867432664,-0.008566674662228395
1592239661.6119864,-9.61,0.16,0.72,0.6344444444444445,-0.37333333333333335,-0.07222222222222222,-0.001090830782496456,-0.020725784867432664,-0.00545415391248228
1592239661.6219864,-10.037531896871196,-0.01,0.7642969453120864,0.6315295498261775,-0.3747274133681567,-0.06981426579843647,-0.02499364803217593,-0.033940175609546874,0.000841988078182981
1592239661.6319864,-9.619848579232356,-0.024211989074704107,0.6936063060041209,0.6088888888888889,-0.38555555555555554,-0.051111111111111114,-0.03316786276527055,-0.03534952433026346,0.00378150141164915
1592239661.6419864,-9.575581407188677,-0.0976743712452907,0.5988371856226453,0.6088888888888889,-0.38555555555555554,-0.051111111111111114,-0.03803954412492701,-0.038293230868356586,0.02146146531625308
1592239661.6519864,-9.554677120255393,-0.14935424051078613,0.6007241614046619,0.6088888888888889,-0.38555555555555554,-0.051111111111111114,-0.051990565750812574,-0.0434133546789034,0.01403991730666919
1592239661.6619864,-9.568016789087093,-0.15232706433126159,0.5695681653079345,0.6088888888888889,-0.38555555555555554,-0.051111111111111114,-0.060700960174910744,-0.04299382431442848,0.004579657881183967
1592239661.6719863,-9.663829860612157,-0.2603040666762466,0.7526443454519327,0.6100641535341924,-0.38486998451246185,-0.04856470437962032,-0.06374894095454824,-0.03484024798181035,-0.008179553632141625
1592239661.6819863,-9.560767458147888,-0.11153627182974493,0.7199972889320652,0.6222222222222222,-0.37777777777777777,-0.022222222222222223,-0.06444273286449037,-0.05999584090312291,-0.027103040436376766
1592239661.6919863,-9.54716685119314,0.02768250453463994,0.5516164519092601,0.6222222222222222,-0.37777777777777777,-0.022222222222222223,-0.05119257478824696,-0.07333846196645362,-0.029758319083750165
1592239661.7019863,-9.975435133051421,-0.07690325444478191,0.7020806952783682,0.6222222222222222,-0.37777777777777777,-0.022222222222222223,-0.05582062696851359,-0.07947580078356295,-0.012752166852238374
1592239661.7119863,-9.574309104113025,-0.10569089588697432,0.7413272155102221,0.6222222222222222,-0.37777777777777777,-0.022222222222222223,-0.05640983379571767,-0.05953754938985135,-0.01965281412547619
1592239661.7219863,-9.636686247199176,-0.0891715617997941,0.6483431235995882,0.6233431908866415,-0.37777777777777777,-0.022222222222222223,-0.05214042986047464,-0.07001326251846886,-0.039570046827915935
1592239661.7319863,-10.0,-0.18,0.83,0.6344444444444445,-0.37777777777777777,-0.022222222222222223,-0.028361600344907853,-0.07199483164476608,-0.042542400517361786
1592239661.7419863,-9.408320795701382,-0.04083960214930833,0.46735589344918255,0.6344444444444445,-0.37777777777777777,-0.022222222222222223,-0.02608151833249912,-0.06933473596362257,-0.04406245519230094
1592239661.7519863,-9.591380110863694,0.004456341498081204,0.42072487800255837,0.6344444444444445,-0.37777777777777777,-0.022222222222222223,-0.015723271178963105,-0.05837921484452902,-0.05247342070803403
1592239661.7619863,-9.61965637225029,-0.263619689791425,0.7868957518331401,0.6344444444444445,-0.37777777777777777,-0.022222222222222223,-0.015923461800761086,-0.07039003298016315,-0.06094866085609732
1592239661.7719862,-9.76807171361733,-0.13994023865222435,0.6879521909217795,0.6344444444444445,-0.37777777777777777,-0.022222222222222223,0.0038638298940918622,-0.08298194587688774,-0.06814403965422566
1592239661.7819862,-9.72,-0.21,0.79,0.6344444444444445,-0.37333333333333335,-0.03666666666666667,-0.016362461737446838,-0.09272061651219875,-0.05999569303730508
1592239661.7919862,-9.954113564338282,-0.2592983421073309,0.8685966842146617,0.6344444444444445,-0.37333333333333335,-0.03666666666666667,-0.008886152513309112,-0.10687161818523822,-0.07010238408703365
1592239661.8019862,-9.595006846592163,-0.18,0.6879972613631343,0.6344444444444445,-0.37333333333333335,-0.03666666666666667,0.01158066317365291,-0.12609944097871129,-0.04799655442984406
1592239661.8119862,-9.81840007906701,-0.17803637082427357,0.6007999604664953,0.6344444444444445,-0.37333333333333335,-0.03666666666666667,0.0012851922901743183,-0.10214937053931113,-0.05013854158013459
1592239661.8219862,-9.636003162680371,-0.16145483297094287,0.6919984186598142,0.6344444444444445,-0.37333333333333335,-0.03666666666666667,0.012137783437100315,-0.08044418824545914,-0.06822619349167793
1592239661.8319862,-9.521605626598465,-0.036751150895140666,0.6719342710997442,0.6088888888888889,-0.37333333333333335,-0.03666666666666667,0.019531506500754702,-0.09127539126857565,-0.07146529049175931
1592239661.8419862,-9.57,-0.19,0.68,0.6088888888888889,-0.37333333333333335,-0.03666666666666667,0.00545415391248228,-0.10799224746714915,-0.08290313946973066
1592239661.8519862,-9.342044366871235,-0.11172062383874781,0.6925809357581216,0.6088888888888889,-0.37333333333333335,-0.03666666666666667,0.020420787082067123,-0.13303443272835755,-0.09281446198461892
1592239661.8619862,-9.842022198159178,-0.19907688142934488,0.8268570655116405,0.6088888888888889,-0.37333333333333335,-0.03666666666666667,0.007110775647675868,-0.13118258937592328,-0.09680104416583601
1592239661.8719862,-9.561948023822415,-0.25206388738494856,0.9252615051434758,0.6088888888888889,-0.37333333333333335,-0.03666666666666667,0.010413624628744185,-0.13283401386645743,-0.09514961967530185
1592239661.8819861,-9.52,-0.13,1.05,0.6222222222222222,-0.3655555555555556,-0.024444444444444446,-0.001090830782496456,-0.11344640137963141,-0.07963064712224129
1592239661.8919861,-9.668265821700778,-0.2481073905968999,1.0247006936713197,0.6222222222222222,-0.3655555555555556,-0.024444444444444446,-0.010536694837658667,-0.05939362021096358,-0.07234243645265077
1592239661.9019861,-9.37,-0.2,0.89,0.6222222222222222,-0.3655555555555556,-0.024444444444444446,-0.001090830782496456,-0.016362461737446838,-0.053450708342326333
1592239661.911986,-9.818673216678171,-0.1586732166781698,0.7926535666436605,0.6222222222222222,-0.3655555555555556,-0.024444444444444446,-0.01192677380300325,0.016000637715158014,-0.053088884320037506
1592239661.921986,-9.801644675409038,-0.1416446754090374,0.8267106491819252,0.6222222222222222,-0.3655555555555556,-0.024444444444444446,-0.010998010953134206,0.011356823465812793,-0.04844507007069229
1592239661.931986,-9.58,-0.19,0.8,0.62,-0.37777777777777777,-0.01,-0.028361600344907853,0.014180800172453926,-0.04799655442984406
1592239661.941986,-10.157639414377364,-0.07545319953939794,0.6661802928113176,0.62,-0.37777777777777777,-0.01,-0.016640059240411474,0.002658081326060207,-0.05349036512846414
1592239661.951986,-9.83,-0.22,0.83,0.62,-0.37777777777777777,-0.01,-0.02399827721492203,-0.042542400517361786,-0.0545415391248228
1592239661.961986,-9.479312571038873,-0.3590070470561491,0.9798472380086383,0.62,-0.37777777777777777,-0.01,-0.029419103630889756,-0.05889653038067998,-0.053375721475168586
1592239661.971986,-9.39350056831098,-0.23505637644919303,0.9607779040691066,0.62,-0.37777777777777777,-0.01,-0.025258820338300632,-0.0578564595575327,-0.04401508406684307
1592239661.981986,-9.63,-0.47,1.05,0.6,-0.37333333333333335,-0.024444444444444446,-0.042542400517361786,-0.01854412330243975,-0.061086523819801536
1592239661.991986,-9.321535986106145,-0.41566736476477495,1.006599581141135,0.6,-0.37333333333333335,-0.024444444444444446,-0.037666592526467174,0.014471992983881953,-0.05867953050405949
1592239662.001986,-9.654420608483234,-0.48664490339773486,0.9455514101709971,0.6,-0.37333333333333335,-0.024444444444444446,-0.06387273286442983,0.055389736971110395,-0.07393487770399353
1592239662.011986,-9.453708565802428,-0.3018542829012143,0.9044371512963572,0.6,-0.37333333333333335,-0.024444444444444446,-0.05167358855095371,0.05361252505177445,-0.08108556550099599
1592239662.021986,-9.534681171451187,-0.3423405857255931,0.7829782428232206,0.6,-0.37333333333333335,-0.024444444444444446,-0.06050632962901484,0.057145621482998905,-0.08903503247125101
1592239662.031986,-9.657766052625542,-0.505584868436145,0.7518616228120484,0.6,-0.37777777777777777,-0.01,-0.056723200689815706,0.0741358789003834,-0.09110755527846423
1592239662.041986,-9.600034410772865,-0.6499139730678352,0.7999713243559451,0.6,-0.37777777777777777,-0.01,-0.056723200689815706,0.07308628803276741,-0.10580182742508816
1592239662.051986,-9.691728441754917,-0.5591357791225416,0.5817284417549168,0.6,-0.37777777777777777,-0.01,-0.04682323575794693,0.049765776547833596,-0.1144783122411274
1592239662.061986,-9.85,-0.4798871384904773,0.7401128615095227,0.6,-0.37777777777777777,-0.01,-0.039292478851475916,0.011976567925857514,-0.10907487072906251
1592239662.071986,-9.85,-0.4305772395955796,0.7894227604044204,0.6,-0.37777777777777777,-0.01,-0.049153750710805355,0.002115296066528074,-0.10548895368930634
1592239662.081986,-9.717789750657813,-0.31108257110637766,0.7699097857411352,0.6077777777777778,-0.37333333333333335,0.017777777777777778,-0.053406424521560907,-0.022936968979602526,-0.09708393964218458
1592239662.091986,-9.323255144943571,-0.5674512551941187,0.7401836689533082,0.6077777777777778,-0.37333333333333335,0.017777777777777778,-0.04274090162678265,-0.028619590099200433,-0.09803575796013186
1592239662.101986,-10.765556978876246,-0.8279232913872353,0.577012784768794,0.6077777777777778,-0.37333333333333335,0.017777777777777778,-0.027175147543701112,-0.012842091910509917,-0.10650498259046383
1592239662.111986,-8.95,-0.39,0.65,0.6077777777777778,-0.37333333333333335,0.017777777777777778,-0.02617993877991494,0.001090830782496456,-0.022907446432425576
1592239662.121986,-9.581502272371102,-0.4120291490362012,0.5618834038551952,0.6077777777777778,-0.37333333333333335,0.017777777777777778,-0.02698094124261129,-0.002914181530985282,0.0011226274484648566
1592239662.131986,-9.64,-0.52,0.94,0.5933333333333334,-0.37333333333333335,0.0033333333333333335,0.0032724923474893677,-0.028361600344907853,-0.02399827721492203
1592239662.141986,-9.300168106958052,-0.060126080218539046,0.6899894933151217,0.5933333333333334,-0.37333333333333335,0.0033333333333333335,0.009808308230238353,-0.04690171229199709,0.0
1592239662.151986,-9.62,-0.3,0.67,0.5933333333333334,-0.37333333333333335,0.0033333333333333335,-0.007635815477475192,-0.039269908169872414,0.0
1592239662.1619859,-9.47872716558633,-0.12105440974268314,0.6888363779218227,0.5933333333333334,-0.37333333333333335,0.0033333333333333335,-0.007635815477475192,-0.012558417041653173,0.011301015477323526
1592239662.1719859,-9.957766045317557,-0.13709811362875324,0.7803270454291774,0.5933333333333334,-0.37333333333333335,0.0033333333333333335,-0.021430228507929538,-0.009922992608503534,0.01298445382392204
1592239662.1819859,-9.55,-0.17,0.73,0.5877777777777777,-0.3655555555555556,0.03111111111111111,-0.015271630954950384,-0.04690572364734761,0.011999138607461015
1592239662.1919858,-9.530831849813886,-0.28500890111668553,0.8066726007444571,0.5877777777777777,-0.3655555555555556,0.03111111111111111,-0.030953537154846836,-0.055269406953959044,0.003635455300849572
1592239662.2019858,-9.645903779419749,-0.1644375722952716,0.7037548688652298,0.5877777777777777,-0.3655555555555556,0.03111111111111111,-0.024258927085803954,-0.05036439447403834,0.0043260874341455495
1592239662.2119858,-9.583026437026012,-0.3609206889219647,0.8339471259479765,0.5877777777777777,-0.3655555555555556,0.03111111111111111,-0.032347628541263884,-0.07105159431069161,-0.0018986903647705703
1592239662.2219858,-9.58,-0.440802918276491,0.9894728274725921,0.5877777777777777,-0.3655555555555556,0.03111111111111111,-0.031008612302747516,-0.06427143137010835,-0.02363555121681994
1592239662.2319858,-9.48,-0.24,0.89,0.5933333333333334,-0.35888888888888887,0.04555555555555556,-0.009817477042468103,-0.0545415391248228,-0.030543261909900768
1592239662.2419858,-9.503364917957015,-0.3490362837993991,0.8977883059856714,0.5933333333333334,-0.35888888888888887,0.04555555555555556,-0.030207214432880245,-0.033302229343143475,-0.0262953999535649
1592239662.2519858,-9.18,-0.61,0.82,0.5933333333333334,-0.35888888888888887,0.04555555555555556,-0.038179077387375956,-0.025089107997418484,-0.0032724923474893677
1592239662.2619858,-9.188914021743459,-0.5030317390784915,0.6684616303611963,0.5933333333333334,-0.35888888888888887,0.04555555555555556,-0.023593543416964187,-0.03189569051694398,0.008395934828840053
1592239662.2719858,-9.96333859199369,-0.8422986919082365,1.0710399000854531,0.5933333333333334,-0.35888888888888887,0.04555555555555556,-0.03775093365489148,-0.023351795236680524,-0.015489969200707415
1592239662.2819858,-9.33,-0.55,0.84,0.5877777777777777,-0.37666666666666665,0.03111111111111111,-0.031634092692397225,-0.031634092692397225,0.01854412330243975
1592239662.2919858,-9.92537754855347,-0.5409791280522201,0.9302087194777984,0.5877777777777777,-0.37666666666666665,0.03111111111111111,-0.06804299847310614,-0.005065431717285303,-0.004088439750433364
1592239662.3019857,-9.525118388156281,-0.33661429481837346,0.6881891269179863,0.5877777777777777,-0.37666666666666665,0.03111111111111111,-0.05614773250677557,-0.02859349346164377,0.014584480822341948
1592239662.3119857,-9.529862237420614,-0.26048216902784566,0.6502066438690767,0.5877777777777777,-0.37666666666666665,0.03111111111111111,-0.08921519688819293,-0.007786091139743878,0.005521777960503189
1592239662.3219857,-9.672170587762967,-0.16800726674160912,0.691814878753814,0.5877777777777777,-0.37666666666666665,0.03111111111111111,-0.07576423709140417,-0.006723556339254843,0.002717376497821236
1592239662.3319857,-9.92959229496573,-0.38957456865989126,0.919610021271567,0.5933234853856457,-0.3711209590587988,0.045529950891567535,-0.0741745595697522,-0.004367190409999402,0.02287070727229659
1592239662.3419857,-9.743185595567867,-0.3277285318559557,0.7721052631578947,0.5933333333333334,-0.3711111111111111,0.04555555555555556,-0.06993101606458582,-0.01540156370743611,0.04753121387443006
1592239662.3519857,-9.788811995955312,-0.5255898093570425,0.7928803610624707,0.5933333333333334,-0.3711111111111111,0.04555555555555556,-0.07362175597309348,-0.026383189983746565,0.05356165578965944
1592239662.3619857,-9.657485103276102,-0.32732047386890883,0.7821856379095128,0.5933333333333334,-0.3711111111111111,0.04555555555555556,-0.06640351139422242,-0.038930242285716274,0.04956421743455805
1592239662.3719857,-9.740967055912149,-0.23509260691361844,0.8449073930863815,0.5933333333333334,-0.3711111111111111,0.04555555555555556,-0.07489024460181704,-0.0324937409090108,0.050660784821012134
1592239662.3819857,-9.613553069247052,-0.43192924100393104,0.9717175687934684,0.573811779726506,-0.3577542586432819,0.06096730840305077,-0.09266157245109599,-0.04155679350856245,0.05328644050752644
1592239662.3919857,-9.545285159749177,-0.47735742012541055,0.9435234398327859,0.5722222222222222,-0.3566666666666667,0.06222222222222222,-0.08485875249394943,-0.0564688146518552,0.0554401960758254
1592239662.4019856,-9.742627149990753,-0.6209580173848714,0.8430913630479009,0.5722222222222222,-0.3566666666666667,0.06222222222222222,-0.08783800386230431,-0.048203947447119144,0.060437411919915765
1592239662.4119856,-9.726519427112876,-0.5182543959160522,0.8995689166193988,0.5722222222222222,-0.3566666666666667,0.06222222222222222,-0.07792270496612463,-0.047854322594264725,0.06582951855438712
1592239662.4219856,-9.784035080865694,-0.34346980232830693,0.8317349011641535,0.5722222222222222,-0.3566666666666667,0.06222222222222222,-0.07014913811982326,-0.04411591902051366,0.08128709228773935
1592239662.4319856,-9.583286276865573,-0.19838305967160594,0.7637258042984916,0.5722222222222222,-0.3566666666666667,0.06826792150580696,-0.07158840944293086,-0.04155317528532413,0.11100786816862011
1592239662.4419856,-9.550971520811716,-0.5691961259079903,0.8683417502594258,0.5722222222222222,-0.3566666666666667,0.06888888888888889,-0.09267677198195798,-0.05425467565788887,0.0779916465158739
1592239662.4519856,-9.610263314014512,-0.3603376990827363,0.7680824168301921,0.5722222222222222,-0.3566666666666667,0.06888888888888889,-0.07236385134041005,-0.07253618995990546,0.049759864244912265
1592239662.4619856,-9.87742908438061,-0.6632387791741472,1.1018197486535009,0.5722222222222222,-0.3566666666666667,0.06888888888888889,-0.08089084064454079,-0.06965109260121051,0.033646391517587096
1592239662.4719856,-9.725792970630717,-0.43562542128069326,0.9033692826191622,0.5722222222222222,-0.3566666666666667,0.06888888888888889,-0.06852780693240591,-0.06342616415194656,0.038443460736393154
1592239662.4819856,-9.657256968612243,-0.5688545291836531,1.126510887938749,0.5549652536099786,-0.3633777100158725,0.05546680219047724,-0.05276513831489279,-0.05543919404735841,0.05651111579471365
1592239662.4919856,-9.66,-0.40082609636989097,1.0162986841155668,0.5522222222222222,-0.36444444444444446,0.05333333333333334,-0.017539075815860464,-0.04065272755245158,0.07279367382717983
1592239662.5019855,-9.531916935050992,-0.26899467704419394,0.9316890320271963,0.5522222222222222,-0.36444444444444446,0.05333333333333334,-0.01604369283862552,-0.034612676504443426,0.06579347621198682
1592239662.5119855,-9.33736934477379,-0.04284321372854916,0.7905270085803432,0.5522222222222222,-0.36444444444444446,0.05333333333333334,-0.0003560409559679109,-0.014043116821445576,0.07000834114898935
1592239662.5219855,-9.36991547611685,-0.30208794606963946,1.0246407734966088,0.5522222222222222,-0.36444444444444446,0.05333333333333334,-0.025595337855887943,0.02013657388072581,0.05129670715341257
1592239662.5319855,-9.32,-0.41,1.14,0.5788888888888889,-0.3711111111111111,0.07444444444444444,-0.022907446432425576,0.03381575425739013,0.011999138607461015
1592239662.5419855,-9.513897073501816,-0.25339082524853274,0.9983059847486724,0.5788888888888889,-0.3711111111111111,0.07444444444444444,-0.02453443794328526,0.036256241523679664,-0.02379467463145211
1592239662.5519855,-9.647726429013375,-0.3777818761601066,0.9246025891199848,0.5788888888888889,-0.3711111111111111,0.07444444444444444,-0.014930872883420446,0.046323005799423174,-0.041538271339109256
1592239662.5619855,-9.66,-0.30331997595672205,0.937780004007213,0.5788888888888889,-0.3711111111111111,0.07444444444444444,0.0033957599414240498,0.057694042271833196,-0.03478441024377048
1592239662.5719855,-9.783687556101047,-0.2762569382109949,1.0362014325230358,0.5788888888888889,-0.3711111111111111,0.07444444444444444,0.006203721654742159,0.03941610095605176,-0.04206099942224881
1592239662.5819855,-9.82080219271155,-0.19320877084620136,1.032005481778876,0.5532918125042893,-0.36471184201496126,0.08084371354059433,0.04423979115899501,-0.002963232724780364,-0.03429703533417951
1592239662.5919855,-9.738138541957623,-0.1081385419576234,1.1433466342125214,0.5522222222222222,-0.36444444444444446,0.0811111111111111,0.04581489286485115,-0.013979922950426826,-0.0166432545780312
1592239662.6019855,-9.648638723565911,-0.07654451057363557,1.0528271495504622,0.5522222222222222,-0.36444444444444446,0.0811111111111111,0.04310780365259219,-0.010611323377406324,0.014209365932339992
1592239662.6119854,-9.51722076560042,-0.185239343771069,1.098929507828302,0.5522222222222222,-0.36444444444444446,0.0811111111111111,0.051152274196002434,-0.002030077843251139,0.024284039088200184
1592239662.6219854,-9.311412663755458,-0.3212347161572052,1.2042936681222707,0.5522222222222222,-0.36444444444444446,0.0811111111111111,0.053829283785291,0.0018479816684257645,0.011129748855537937
1592239662.6319854,-9.503900477110523,-0.3516099522889476,1.1837565553408778,0.5595826049621248,-0.36234147794732946,0.10844967557360602,0.0597029954514493,0.029079773980621875,-0.03383145368705029
1592239662.6419854,-9.565757850241546,-0.1931159420289855,1.0296527777777778,0.56,-0.3622222222222222,0.11,0.05928263487181449,0.03482161090284429,-0.043127997477288925
1592239662.6519854,-9.59785477994055,-0.12570955988110077,0.9657095598811007,0.56,-0.3622222222222222,0.11,0.036627449307699705,0.05251107095287798,-0.05290348867156924
1592239662.6619854,-9.454171861914952,-0.17605099097422539,0.9239490090257747,0.56,-0.3622222222222222,0.11,0.02049649420607047,0.049188124911942986,-0.06542553747063895
1592239662.6719854,-9.553512489502568,-0.1962396734566334,1.003595101849501,0.56,-0.3622222222222222,0.11,0.013369435792410228,0.047586366435269783,-0.08301583784364246
1592239662.6819854,-9.647403093187158,-0.1851938136256852,1.0674030931871574,0.5542420386322109,-0.35728682676411727,0.12069335682589402,0.015753620985509212,0.040728584689027084,-0.09647509889024695
1592239662.6919854,-9.577743154811122,-0.26028538354319736,1.0298573082284013,0.5522222222222222,-0.35555555555555557,0.12444444444444444,0.015701737164874215,0.032924411322168716,-0.10342943648988827
1592239662.7019854,-9.50671937654335,-0.25716544709000705,0.9362733059966925,0.5522222222222222,-0.35555555555555557,0.12444444444444444,0.012780767633073946,0.033294668240314844,-0.11302263285924789
1592239662.7119853,-9.580119237091345,-0.3892751845957158,1.0083118950087406,0.5522222222222222,-0.35555555555555557,0.12444444444444444,-0.004087107596703072,0.04007151667012061,-0.12992694845943684
1592239662.7219853,-10.336850795192424,-0.7104892557970135,1.022914896200073,0.5522222222222222,-0.35555555555555557,0.12444444444444444,-0.030821763443904658,0.04840735412479417,-0.15549443849878278
1592239662.7319853,-9.92286915915826,-1.0113434310174514,1.1683718981051876,0.5366523316803198,-0.3445650445848009,0.11803331304483758,-0.04665485248555755,0.05576484215818249,-0.09817767652039876
1592239662.7419853,-9.916041447421678,-0.723840767424917,0.8981810086618636,0.5333333333333333,-0.3422222222222222,0.11666666666666667,-0.04003122911144881,0.034420289798308995,-0.029298736399246364
1592239662.7519853,-9.690053038674034,-0.40425193370165746,0.6850917127071823,0.5333333333333333,-0.3422222222222222,0.11666666666666667,-0.019288539977876006,0.009144657437175813,0.0027886697219710495
1592239662.7619853,-9.39211060678452,-0.42847905717470935,0.820874343048256,0.5333333333333333,-0.3422222222222222,0.11666666666666667,0.0012753721105274902,0.01981328467869837,0.003782641191700364
1592239662.7719853,-9.636685193419298,-0.47528234771009337,0.785664739884393,0.5333333333333333,-0.3422222222222222,0.11666666666666667,0.017679801179536825,0.051340588591659006,0.0023465715098789936
1592239662.7819853,-10.004014497548651,-0.6656666766926339,0.5296086864980298,0.5333333333333333,-0.3464653786640733,0.12769887341547945,0.026102474603373477,0.07300819825072108,-0.0016062087092704306
1592239662.7919853,-10.061083526965879,-0.7910480616362969,0.5688100770453712,0.5333333333333333,-0.3477777777777778,0.13111111111111112,0.021217906031261627,0.07635815477475191,0.0008467045342429992
1592239662.8019853,-9.524332569464338,-0.6448682325981094,0.38000429676310515,0.5333333333333333,-0.3477777777777778,0.13111111111111112,0.01179275254849828,0.033020363321599605,0.0218458315416975
1592239662.8119853,-9.539793477394149,-0.7444745235627143,0.5206470775855195,0.5333333333333333,-0.3477777777777778,0.13111111111111112,-0.0012770574554352102,0.011673742071513385,0.010350628089538676
1592239662.8219852,-9.574927138616534,-0.958592246109562,0.7857281640730414,0.5333333333333333,-0.3477777777777778,0.13111111111111112,-0.005136432398249706,-0.004598964950995561,-0.010442322812274476
1592239662.8319852,-9.614480401379744,-0.9718228284728755,0.8490630291627469,0.5369676317898331,-0.34323490470715307,0.15019117800773493,0.008226759114929214,-0.022600823442952438,0.0004887359742963109
1592239662.8419852,-9.760215286572164,-0.9988516687773193,0.8792344458515462,0.5377777777777778,-0.3422222222222222,0.15444444444444444,0.019783701711553844,-0.02827809134182773,-0.0045955797596835875
1592239662.8519852,-9.31086276554151,-0.7023302489248013,0.7399752378469959,0.5377777777777778,-0.3422222222222222,0.15444444444444444,0.04799925556171783,-0.02056840839457673,-0.0006214024958024252
1592239662.8619852,-9.574018944519622,-0.7647167052250207,0.7616159587934873,0.5377777777777778,-0.3422222222222222,0.15444444444444444,0.037826529868339606,0.007545393038435478,-0.008445641508000683
1592239662.8719852,-9.505920072296416,-0.7544514509488904,0.6853943166984637,0.5377777777777778,-0.3422222222222222,0.15444444444444444,0.02656266605375761,0.021890790828752955,0.0014903821961314186
1592239662.8819852,-9.57471179883946,-0.8694158607350096,0.7856905222437137,0.5259256393724479,-0.33803911454975283,0.15444444444444444,0.00374258344679345,0.03877829584429858,0.0010477883299569446
1592239662.8919852,-9.779806228686285,-0.903548634793017,0.7836778156688272,0.5188888888888888,-0.33555555555555555,0.15444444444444444,0.0025123917814615527,0.03675751638841086,-0.009078513647816831
1592239662.9019852,-9.730129736104969,-0.876655855324586,0.6700973020787262,0.5188888888888888,-0.33555555555555555,0.15444444444444444,0.007635815477475192,0.025825763194876165,-0.002921854765873106
1592239662.9119852,-9.683313746312685,-0.8532549852507374,0.7001762831858407,0.5188888888888888,-0.33555555555555555,0.15444444444444444,0.02514038669756558,0.002485446675653459,0.00036147364832602325
1592239662.9219851,-9.74014089198934,-0.8454673538172127,0.7682714767204891,0.5188888888888888,-0.33555555555555555,0.15444444444444444,0.05349681513802012,-0.018967335378443972,-0.008349540979661207
1592239662.9319851,-9.689464911987708,-0.6929139249807943,0.8439841010053776,0.5188888888888888,-0.33555555555555555,0.1495573221105136,0.0924319411292628,-0.037957442608327695,-0.007732040605120508
1592239662.9419851,-9.6157971148085,-0.5360870166382449,0.8273913444254967,0.5188888888888888,-0.33555555555555555,0.14666666666666667,0.1259514135794545,-0.055252939575222614,-0.007920375657635119
1592239662.9519851,-9.646188750862663,-0.5968530020703934,0.81,0.5188888888888888,-0.33555555555555555,0.14666666666666667,0.138119766589173,-0.06078520910572686,-0.02244973413721657
1592239662.961985,-9.66,-0.4177600781008167,0.7441324380312879,0.5188888888888888,-0.33555555555555555,0.14666666666666667,0.14361802705751658,-0.061884861199395576,-0.020085733146065002
1592239662.971985,-9.672218306353663,-0.37054576588415666,0.81163729765247,0.5188888888888888,-0.33555555555555555,0.14666666666666667,0.13974925219980971,-0.05351408655994227,-0.01612048205188857
1592239662.981985,-9.50132146503318,-0.23276288922919858,0.8199700102092905,0.5188888888888888,-0.3268201605127332,0.16254920310816176,0.13089642252088804,-0.045657657876485944,-0.011373470032686855
1592239662.991985,-9.576550710436061,-0.3200400130654908,0.8383823289237302,0.5188888888888888,-0.3233333333333333,0.1688888888888889,0.1249117936169537,-0.04396281433882908,-0.013623715760096192
1592239663.001985,-9.868614936630308,-0.5813850633696923,0.8355402534787694,0.5188888888888888,-0.3233333333333333,0.1688888888888889,0.12660888106219345,-0.05269527346264201,-0.022756359456488708
1592239663.011985,-9.73926010338346,-0.6005956296992481,0.838953007518797,0.5188888888888888,-0.3233333333333333,0.1688888888888889,0.13332551086950328,-0.05423241059879626,-0.020660811746341767
1592239663.021985,-9.564661006910168,-0.579840473840079,0.9001196446199408,0.5188888888888888,-0.3233333333333333,0.1688888888888889,0.14129086394074253,-0.058935315062833296,-0.015258579751511233
1592239663.031985,-9.557592653981303,-0.684100643108135,0.9743386594178877,0.5078042240344169,-0.32210170390505866,0.1645781858899276,0.13747064214629487,-0.056867482822752155,-0.016835736062226846
1592239663.041985,-9.524030175800984,-0.6656422461213768,0.9908060351601967,0.4988888888888889,-0.3211111111111111,0.16111111111111112,0.1294159445907622,-0.04001452588199527,-0.013746662305628625
1592239663.051985,-9.560809218830348,-0.6081618437660699,0.9497302603898836,0.4988888888888889,-0.3211111111111111,0.16111111111111112,0.11990311399361808,-0.02434045264152907,-0.010477860317365448
1592239663.061985,-9.602065979676542,-0.6439120270979438,0.9479340203234579,0.4988888888888889,-0.3211111111111111,0.16111111111111112,0.10301281128750081,-0.004411304904780049,-0.01090830782496456
1592239663.071985,-9.570463830201538,-0.6648840424496154,0.9893042546976926,0.4988888888888889,-0.3211111111111111,0.16111111111111112,0.09279651055145219,0.009690986977045724,-0.01037554144025857
1592239663.081985,-9.519814107297654,-0.5995662503611905,1.02,0.5028018749799339,-0.3250240972021561,0.16111111111111112,0.09054571419660457,0.021857171146321415,-0.007073501962730173
1592239663.091985,-9.586891817682591,-0.687449203734212,1.092668863261944,0.5066666666666667,-0.3288888888888889,0.16111111111111112,0.08304226382406057,0.04157317250743357,-0.006345058954364682
1592239663.101985,-9.590610125486803,-0.7840610125486802,1.0449762007788836,0.5066666666666667,-0.3288888888888889,0.16111111111111112,0.07420977039286847,0.06313507665235653,-0.0011573851487154093
1592239663.111985,-9.504800876401598,-0.8445701765691456,1.038113158912231,0.5066666666666667,-0.3288888888888889,0.16111111111111112,0.06565566938380911,0.08749056161599425,0.001159438260503708
1592239663.121985,-9.475035563380283,-1.0041109154929577,1.0799288732394368,0.5066666666666667,-0.3288888888888889,0.16111111111111112,0.05730353034801074,0.10628229339651675,0.0032492161695248305
1592239663.131985,-9.504176395242451,-1.2667055809698078,1.0948823421774931,0.5028692894175053,-0.32617647656805937,0.1714182779302633,0.04383858293920542,0.13482664479594778,0.004947241953611648
1592239663.141985,-9.554988487174308,-1.350046051302767,1.0775172692385377,0.4988888888888889,-0.3233333333333333,0.18222222222222223,0.0356218933045711,0.15544213065127918,0.003681239927309086
1592239663.151985,-9.61939494111744,-0.40151973082258496,0.8024249579410289,0.4988888888888889,-0.3233333333333333,0.18222222222222223,0.0362619376992164,0.17000434028831451,0.012660185731991496
1592239663.161985,-9.645389545411227,-0.2876422376822644,0.7337262937196226,0.4988888888888889,-0.3233333333333333,0.18222222222222223,0.018020513091466815,0.1733777964240866,0.019944982685060106
1592239663.171985,-9.693197256887213,-0.3721315045914763,0.7242630091829526,0.4988888888888889,-0.3233333333333333,0.18222222222222223,0.009396985791044862,0.1753912448997879,0.021235337944575387
1592239663.181985,-9.72,-0.37076281386179705,0.7696185930691015,0.5031638191418228,-0.32600516474141705,0.17901602453252174,-0.0011740408666727781,0.16399906275326184,0.016887074607650987
1592239663.191985,-9.714806537438237,-0.3396130748764728,0.7514359559103003,0.5077777777777778,-0.3288888888888889,0.17555555555555555,0.00024105245797926243,0.15069128647543725,0.01632025475392037
1592239663.201985,-9.70544302570688,-0.33177210282751435,0.6210127686380927,0.5077777777777778,-0.3288888888888889,0.17555555555555555,-0.004556629561385989,0.13408935573626177,0.012496227390859201
1592239663.2119849,-9.721240950391138,-0.35,0.5968614255867062,0.5077777777777778,-0.3288888888888889,0.17555555555555555,-0.005318787223861904,0.11597832557647544,0.011999138607461015
1592239663.2219849,-9.713125066149233,-0.3415625330746163,0.6015625330746163,0.5077777777777778,-0.3288888888888889,0.17555555555555555,-0.0020623609678597664,0.09769756803614844,0.01015836887776017
1592239663.2319849,-9.711121050408876,-0.3370403501362921,0.6216815756133144,0.5077777777777778,-0.3269332360732522,0.17555555555555555,-0.00044513534714764953,0.07663698732168099,0.006099849347831086
1592239663.2419848,-9.719708505547095,-0.33182510332825754,0.6678834022188385,0.5077777777777778,-0.3233333333333333,0.17555555555555555,-0.0026116344555484,0.04588679230515927,0.0026116344555484
1592239663.2519848,-9.693204818289834,-0.32,0.655922890973901,0.5077777777777778,-0.3233333333333333,0.17555555555555555,-0.002181661564992912,0.03407019354303574,0.0023299094326350123
1592239663.2619848,-9.628896928603957,-0.33582730354703233,0.6985849820371401,0.5077777777777778,-0.3233333333333333,0.17555555555555555,-0.005059146550495948,0.017788136670224868,0.002121498353288154
1592239663.2719848,-9.61,-0.35426104630935157,0.7855662778561096,0.5077777777777778,-0.3233333333333333,0.17555555555555555,-0.007635815477475192,0.013251184076477199,0.001090830782496456
1592239663.2819848,-9.598948959382925,-0.36,0.8384184010284562,0.5008197151670276,-0.3180124619251126,0.18333221376757042,-0.006832161125227013,0.016017410368701912,0.0014926579586205457
1592239663.2919848,-9.59129977889256,-0.35435011055371957,0.8474004422148783,0.4888888888888889,-0.3088888888888889,0.19666666666666666,-0.002988924582200472,0.032768363753552805,0.002181661564992912
1592239663.3019848,-9.6,-0.35,0.7822002605453483,0.4888888888888889,-0.3088888888888889,0.19666666666666666,-0.002249529164550775,0.04905097681777626,0.003919709138074391
1592239663.3119848,-9.619995254365984,-0.3450011864085042,0.7300023728170083,0.4888888888888889,-0.3088888888888889,0.19666666666666666,-0.002181920399176306,0.06217606043138101,0.007090011834951873
1592239663.3219848,-9.655175272727273,-0.3286185454545455,0.7162061818181817,0.4888888888888889,-0.3088888888888889,0.19666666666666666,-0.0015046721480886569,0.07094223943951787,0.007898963528787245
1592239663.3319848,-9.674204608705333,-0.3157953912946677,0.7042046087053323,0.4866351256076292,-0.31243051690229695,0.19666666666666666,-0.0018655720039511359,0.07762251301891902,0.007177163817062288
1592239663.3419847,-9.68167740095539,-0.33541935023884784,0.6954193502388478,0.4811111111111111,-0.3211111111111111,0.19666666666666666,-0.003455468407162348,0.07776568087390538,0.008135486853805175
1592239663.3519847,-9.684540350079564,-0.32969356671970906,0.6381614003182541,0.4811111111111111,-0.3211111111111111,0.19666666666666666,-0.0037677677104991816,0.07526732399225547,0.00651155800948646
1592239663.3619847,-9.679965929684668,-0.3150170351576658,0.5999318593693367,0.4811111111111111,-0.3211111111111111,0.19666666666666666,-0.0005509901335581952,0.0687446382665166,0.006541268200105425
1592239663.3719847,-9.686237275488994,-0.32128817353301714,0.6350508980440228,0.4811111111111111,-0.3211111111111111,0.19666666666666666,0.00026993163796466694,0.0609460058855003,0.006814916332943403
1592239663.3819847,-9.682755756280494,-0.3317327311585145,0.6627557562804952,0.48662262367210146,-0.3201925256842794,0.1926861298170625,-0.0007902244045142478,0.05529758571902212,0.004852941156517863
1592239663.3919847,-9.69,-0.31,0.67,0.5011111111111111,-0.31777777777777777,0.18222222222222223,0.0,0.04581489286485115,0.0032724923474893677
1592239663.4019847,-9.683630274816037,-0.3145210992641538,0.5663697251839616,0.5011111111111111,-0.31777777777777777,0.18222222222222223,-0.001389658461341633,0.0361018957552673,0.003571320026334545
1592239663.4119847,-9.69491280860541,-0.34,0.5796512344216462,0.5011111111111111,-0.31777777777777777,0.18222222222222223,-0.001607712856588922,0.026791931911193282,0.0016457572794632714
1592239663.4219847,-9.689323041618858,-0.34,0.607117972254094,0.5011111111111111,-0.31777777777777777,0.18222222222222223,-0.0044371678340475946,0.01980164513493697,0.001090830782496456
