time,acc_x,acc_y,acc_z,mag_x,mag_y,mag_z,gyr_x,gyr_y,gyr_z
1592239738.4319131,-9.583217938954865,-0.4135641220902711,1.356955152612839,0.4922222222222222,-0.18777777777777777,0.16444444444444445,-0.0018117575171527158,0.031671855414445484,0.0018117575171527158
1592239738.4419131,-9.57,-0.4314165987661506,1.3985834012338494,0.4941296447186332,-0.18777777777777777,0.17080251943248104,-0.0014029320586431547,0.03849422603155663,0.0004666282302030585
1592239738.451913,-9.57,-0.41811777321894816,1.3956466803431555,0.4988888888888889,-0.18777777777777777,0.18666666666666668,-0.0017389057193652126,0.04738059715612089,-0.0006480749368687565
1592239738.461913,-9.581454621380846,-0.4261817928730512,1.325636135857461,0.4988888888888889,-0.18777777777777777,0.18666666666666668,-0.0015073325692987636,0.054184559284949585,0.0
1592239738.471913,-9.596305697104354,-0.42,1.2884715144782284,0.4988888888888889,-0.18777777777777777,0.18666666666666668,-0.002181661564992912,0.05850187632296501,0.0012089577955308247
1592239738.481913,-9.59,-0.42321599772505686,1.3328639909002276,0.4988888888888889,-0.18777777777777777,0.18666666666666668,-0.0011292287705137285,0.05991889706127053,0.0022200595530101844
1592239738.491913,-9.5926468401487,-0.4273531598513011,1.362646840148699,0.4956538620404791,-0.1898364312267658,0.18078479966955804,0.0005133798403868079,0.06378156522518125,0.00028872547105482404
1592239738.501913,-9.6,-0.42,1.37,0.4866666666666667,-0.19555555555555557,0.16444444444444445,-0.001090830782496456,0.062177354602297986,0.001090830782496456
1592239738.511913,-9.6,-0.41,1.328697497279652,0.4866666666666667,-0.19555555555555557,0.16444444444444445,-0.001897113785521788,0.06786869595886336,0.002181661564992912
1592239738.521913,-9.614376642335767,-0.4135941605839416,1.2507824817518247,0.4866666666666667,-0.19555555555555557,0.16444444444444445,-0.00148289288271635,0.06544984694978735,0.002573723665212806
1592239738.531913,-9.64,-0.40762727308743707,1.2669068182718592,0.4866666666666667,-0.19555555555555557,0.16444444444444445,-0.002181661564992912,0.06410019181182276,0.0032724923474893677
1592239738.541913,-9.64,-0.3889025886201365,1.26,0.4851829018966439,-0.19382449665719567,0.16617550334280431,-0.0014533202366868456,0.06060096293426416,0.00278693146195199
1592239738.551913,-9.64,-0.42,1.26,0.48,-0.18777777777777777,0.17222222222222222,0.001090830782496456,0.05890486225480862,0.001090830782496456
1592239738.561913,-9.605002898070712,-0.42,1.2825033810824984,0.48,-0.18777777777777777,0.17222222222222222,-0.0008181757752847337,0.048814940958778356,0.002181661564992912
1592239738.571913,-9.563411096225805,-0.4302332886774149,1.2538776735806347,0.48,-0.18777777777777777,0.17222222222222222,-0.0003720928765165534,0.04807289797100368,0.0018095686884763585
1592239738.581913,-9.575423310899573,-0.44457668910042647,1.3054233108995736,0.48,-0.18777777777777777,0.17222222222222222,-0.001090830782496456,0.05661210919012898,0.001090830782496456
1592239738.591913,-9.59344199929767,-0.43,1.3217209996488353,0.47866144471757255,-0.18663044467855422,0.17222222222222222,-0.0012785627218579701,0.06330374623846707,0.001466294661219484
1592239738.601913,-9.616068634423897,-0.4360686344238976,1.3087597795163586,0.4722222222222222,-0.1811111111111111,0.17222222222222222,-0.002181661564992912,0.06971531728287249,0.0032724923474893677
1592239738.611913,-9.653054385345039,-0.59985350474275,1.2081276329736634,0.4722222222222222,-0.1811111111111111,0.17222222222222222,-0.0031247278102142792,0.07105176539954472,0.003586847762563157
1592239738.621913,-9.71,-0.97,1.08,0.4722222222222222,-0.1811111111111111,0.17222222222222222,-0.00545415391248228,0.06872233929727672,0.004363323129985824
1592239738.631913,-9.93062093007959,-1.2746786818391107,1.2084332039729,0.4722222222222222,-0.1811111111111111,0.17222222222222222,0.006750551372072228,0.025189918182869225,0.010294764838637702
1592239738.641913,-9.903394071602719,-0.8485063518542282,1.1085974592583088,0.4737971398833711,-0.1799861699245762,0.16929737513723142,0.046739152541076495,-0.03591231058489327,0.012440901978378353
1592239738.651913,-10.35,-0.37,1.3,0.48,-0.17555555555555555,0.15777777777777777,0.06326818538479445,-0.07853981633974483,0.014180800172453926
1592239738.661913,-9.29638275048273,-0.43506329113924047,0.955181291568333,0.48,-0.17555555555555555,0.15777777777777777,0.06848549725653731,-0.15040312108046394,0.04018966036365294
1592239738.671913,-9.135863276167948,-0.7807900650502662,1.0712028385570669,0.48,-0.17555555555555555,0.15777777777777777,0.029653360738363506,-0.12777487333371107,-0.005027601016788635
1592239738.681913,-9.697443233785341,-0.499091740565475,1.1681244283612358,0.48,-0.17555555555555555,0.15777777777777777,0.036301084685184434,-0.1121014396018172,-0.029148762264602925
1592239738.691913,-9.677107721639656,-0.3441881156657134,1.2528649507467429,0.4817508032341207,-0.17555555555555555,0.1587327613600254,0.04036073895236887,-0.11406845569239538,-0.023057743295244276
1592239738.7019129,-9.6,-0.13,1.27,0.4922222222222222,-0.17555555555555555,0.16444444444444445,0.04036073895236887,-0.1112647398146385,-0.01090830782496456
1592239738.7119129,-9.413881212185261,-0.07487569024280695,1.415124309757193,0.4922222222222222,-0.17555555555555555,0.16444444444444445,0.018945651862289168,-0.08423805188970664,-0.006783792163175138
1592239738.7219129,-9.55,-0.09,1.4,0.4922222222222222,-0.17555555555555555,0.16444444444444445,0.0032724923474893677,-0.0545415391248228,-0.01090830782496456
1592239738.7319129,-9.565743769562046,-0.19584025604217165,1.4636638975831313,0.4922222222222222,-0.17555555555555555,0.16444444444444445,-0.012290630936438665,-0.013479113574455241,-0.00022687883782514012
1592239738.7419128,-9.496603985255623,-0.31301992627811315,1.4233960147443774,0.4913050020478302,-0.17665621976482598,0.163343780235174,-0.021075720165733385,0.01105763491936849,0.004363323129985824
1592239738.7519128,-9.596469002695418,-0.4750763701707098,1.3801527403414195,0.4866666666666667,-0.18222222222222223,0.15777777777777777,-0.02863014269387823,0.02997285443873011,0.004363323129985824
1592239738.7619128,-9.740508911931954,-0.4577966263678502,1.3081359009891529,0.4866666666666667,-0.18222222222222223,0.15777777777777777,-0.0292120803490753,0.032983778813254525,0.006526480134946899
1592239738.7719128,-9.551886091718966,-0.43249112662482664,1.1753202642032765,0.4866666666666667,-0.18222222222222223,0.15777777777777777,-0.029077821021575544,0.025463718103247254,0.012270878368006756
1592239738.7819128,-9.631036505556747,-0.3772555388972181,1.2445110777944361,0.4866666666666667,-0.18222222222222223,0.15777777777777777,-0.032651679643171116,0.02256825078216761,0.00545415391248228
1592239738.7919128,-9.636027224482998,-0.4121905713809762,1.3143811427619525,0.4866666666666667,-0.18222222222222223,0.15777777777777777,-0.0375513064915593,0.020935041832704882,0.00545415391248228
1592239738.8019128,-9.604114932885906,-0.4633252936241611,1.377177013422819,0.48885964299030576,-0.17982988441461598,0.16156564597315434,-0.04380024188526563,0.022375071593736553,0.0058455992708823295
1592239738.8119128,-9.448142879370513,-0.5693736246638067,1.3999779946209072,0.4988888888888889,-0.1688888888888889,0.17888888888888888,-0.05447321217501118,0.035453200638379555,0.007772469377098434
1592239738.8219128,-9.56934117228656,-0.5600506790548802,1.2508108648780814,0.4988888888888889,-0.1688888888888889,0.17888888888888888,-0.05345623656963543,0.04358900548138542,0.0098064205878499
1592239738.8319128,-9.671158484160403,-0.6243735808293468,1.2775886774982914,0.4988888888888889,-0.1688888888888889,0.17888888888888888,-0.05646016620867671,0.04864899441044218,0.010820629664584892
1592239738.8419127,-9.616359935191724,-0.63,1.28,0.4988888888888889,-0.1688888888888889,0.17888888888888888,-0.056723200689815706,0.0456163581276937,0.016114848451934786
1592239738.8519127,-9.622589907804914,-0.7203596312196495,1.3025899078049124,0.4988888888888889,-0.18311216417346335,0.16299228710024682,-0.05425902400908016,0.039795708720883616,0.013346331385384068
1592239738.8619127,-9.673710489088842,-0.75,1.2735745924259643,0.4988888888888889,-0.18777777777777777,0.15777777777777777,-0.05265602922539158,0.02784824886722411,0.008025743022787229
1592239738.8719127,-9.59179242231471,-0.7913443167360318,1.1615683695253702,0.4988888888888889,-0.18777777777777777,0.15777777777777777,-0.05352402944618076,0.015002786907484142,0.0044122038658887764
1592239738.8819127,-9.664150044206758,-0.8456125331550687,1.2248812886809135,0.4988888888888889,-0.18777777777777777,0.15777777777777777,-0.056483901495234023,0.004149922727622209,0.006385451898590946
1592239738.8919127,-9.679155070054618,-0.6302783186891474,1.23,0.4988888888888889,-0.18777777777777777,0.15777777777777777,-0.05073122135092185,-0.006714139884000389,0.0075436479181277116
1592239738.9019127,-9.65,-0.49951474276253316,1.2226863236833776,0.48,-0.17555555555555555,0.1511111111111111,-0.04730462281031696,-0.01987505318828816,-0.0032724923474893677
1592239738.9119127,-9.66746069275328,-0.5569842771013123,1.286507861449344,0.48,-0.17555555555555555,0.1511111111111111,-0.04210949840873894,-0.03424865636601297,-0.0017487594563700718
1592239738.9219127,-9.715841852074563,-0.5786139506915213,1.2911455201443176,0.48,-0.17555555555555555,0.1511111111111111,-0.033309695358595175,-0.04216129848210596,0.005099289538861965
1592239738.9319127,-9.553556999409333,-0.5098322504430006,1.3966107501476668,0.48,-0.17555555555555555,0.1511111111111111,-0.024349688383719172,-0.04335016081918679,0.0024098361315068387
1592239738.9419127,-9.65265445953928,-0.43550915534554047,1.3718363851151802,0.48,-0.17555555555555555,0.1511111111111111,-0.018944760384871112,-0.025333734156359904,-0.0038959132004825685
1592239738.9519126,-9.603970897818492,-0.6045719110740971,1.4381421333888542,0.4988888888888889,-0.18777777777777777,0.13444444444444445,-0.025544119213537893,0.0011345376998232162,0.013270777740215114
1592239738.9619126,-9.514853030119752,-0.6912132575299382,1.2990806822305552,0.4988888888888889,-0.18777777777777777,0.13444444444444445,-0.02141957805170342,0.014445491904604391,0.01940232620668034
1592239738.9719126,-9.544602999400121,-0.69865074985003,1.22,0.4988888888888889,-0.18777777777777777,0.13444444444444445,-0.017661041144314604,0.014449117061509023,0.006726689489030095
1592239738.9819126,-9.545292355619459,-0.6805887051681444,1.2341169422477833,0.4988888888888889,-0.18777777777777777,0.13444444444444445,-0.011485832102174121,0.0011550485544191246,-0.014886542158461599
1592239738.9919126,-9.796568416007668,-0.6135817557312884,1.3346273664030674,0.4988888888888889,-0.18777777777777777,0.13444444444444445,-0.007831169947828818,-0.006154275754271483,-0.027677859698670156
1592239739.0019126,-9.462954606763617,-0.39175319420261423,1.3962770679549745,0.5044444444444445,-0.18777777777777777,0.17222222222222222,0.0034436728212170775,-0.02538778435140659,-0.004876864551168953
1592239739.0119126,-9.64,-0.24,1.43,0.5044444444444445,-0.18777777777777777,0.17222222222222222,0.004363323129985824,-0.015271630954950384,-0.007635815477475192
1592239739.0219126,-9.536361533647174,-0.36733788674521756,1.273905412392174,0.5044444444444445,-0.18777777777777777,0.17222222222222222,-0.001516845188069101,-0.000771319978316972,0.0010101219496681379
1592239739.0319126,-9.78,-0.62,1.31,0.5044444444444445,-0.18777777777777777,0.17222222222222222,-0.00545415391248228,0.002181661564992912,-0.009817477042468103
1592239739.0419126,-9.729958043634621,-0.6283403260608966,1.36004195636538,0.5044444444444445,-0.18777777777777777,0.17222222222222222,0.005463307371457916,-0.006916222838290584,-0.012546842363453152
1592239739.0519125,-9.625769176702121,-0.5471154116489387,1.3443268825265922,0.4922222222222222,-0.19555555555555557,0.1511111111111111,0.03181237945353061,-0.028067897440815982,-0.006387654806570315
1592239739.0619125,-9.647699818346958,-0.5447602179836513,1.3613898728428702,0.4922222222222222,-0.19555555555555557,0.1511111111111111,0.04715663454259486,-0.04007495317651864,-0.005319979744707909
1592239739.0719125,-9.570215626405359,-0.6460709129210159,1.3015716348315938,0.4922222222222222,-0.19555555555555557,0.1511111111111111,0.057494675133731396,-0.045300576568907354,-0.005220516956558816
1592239739.0819125,-9.68181423139598,-0.6011693955148599,1.3159071156979902,0.4922222222222222,-0.19555555555555557,0.1511111111111111,0.06711470341331893,-0.039652591957229165,-0.014888947167593631
1592239739.0919125,-9.567900597501358,-0.6174427717855203,1.2589502987506789,0.4922222222222222,-0.19555555555555557,0.1511111111111111,0.0751028783103516,-0.04497804188858428,-0.009563497236238522
1592239739.1019125,-9.526787180078395,-0.7367871800783952,1.2532128199216048,0.4922222222222222,-0.19555555555555557,0.14333333333333334,0.06567691682076679,-0.050197934955719545,-0.02181661564992912
1592239739.1119125,-9.594421389586165,-0.7875964350689727,1.198397623379315,0.4922222222222222,-0.19555555555555557,0.14333333333333334,0.05829308964476012,-0.059953615300606056,-0.02225359608567805
1592239739.1219125,-9.750478685401285,-0.7619042629197428,1.1852367230292926,0.4922222222222222,-0.19555555555555557,0.14333333333333334,0.05126904677733343,-0.0728257230890949,-0.02753042313876415
1592239739.1319125,-9.555834481153124,-0.7909115952431762,1.2926507847207402,0.4922222222222222,-0.19555555555555557,0.14333333333333334,0.051764742360959966,-0.08977858788712707,-0.03202268806475608
1592239739.1419125,-9.46632917531573,-0.5956272915979592,1.349608706617262,0.4922222222222222,-0.19555555555555557,0.14333333333333334,0.06241584884868934,-0.09687932554561333,-0.016933620540472802
1592239739.1519125,-9.47671012918025,-0.5526840516720996,1.4033550645901243,0.4922222222222222,-0.20222222222222222,0.11555555555555555,0.07643846246655035,-0.09591991270504469,-0.012365119380678165
1592239739.1619124,-9.590545477137177,-0.5924654572564612,1.4590400099403578,0.4922222222222222,-0.20222222222222222,0.11555555555555555,0.09325849584585419,-0.09400581252109927,-0.017184352853115578
1592239739.1719124,-9.785109744969022,-0.6272186734546852,1.5768435713942655,0.4922222222222222,-0.20222222222222222,0.11555555555555555,0.10005303632849355,-0.08189414326205094,-0.011031059687189678
1592239739.1819124,-9.53,-0.68,1.7,0.4922222222222222,-0.20222222222222222,0.11555555555555555,0.10581058590215622,-0.06654067773228381,0.011999138607461015
1592239739.1919124,-9.2960855736717,-0.9139144263283002,1.5960380327429777,0.4922222222222222,-0.20222222222222222,0.11555555555555555,0.10770066780370371,-0.036299367307524186,0.04413053093376812
1592239739.2019124,-9.24,-1.34,1.59,0.5255555555555556,-0.20222222222222222,0.14222222222222222,0.09272061651219875,0.01308996938995747,0.03599741582238304
1592239739.2119124,-9.708484017354012,-0.839621004338503,1.228484017354012,0.5255555555555556,-0.20222222222222222,0.14222222222222222,0.11143010786823593,0.02840294235830721,0.0002480520803961422
1592239739.2219124,-9.656705937677895,-0.8167059376778951,1.191661757790263,0.5255555555555556,-0.20222222222222222,0.14222222222222222,0.11463107984175458,0.02854608285206817,0.006907524005113191
1592239739.2319124,-9.51,-0.67,1.21,0.5255555555555556,-0.20222222222222222,0.14222222222222222,0.10362892433716332,0.01854412330243975,0.01090830782496456
1592239739.2419124,-9.476993386703795,-0.49671528019491823,1.2182516533240515,0.5255555555555556,-0.20222222222222222,0.14222222222222222,0.09282753539432581,0.01764400755720329,0.00730784484401872
1592239739.2519124,-9.59,-0.48,1.51,0.5188888888888888,-0.20222222222222222,0.10666666666666667,0.05781403147231216,0.008726646259971648,-0.011999138607461015
1592239739.2619123,-9.785451608946314,-0.151285930408472,1.5277683280860286,0.5188888888888888,-0.20222222222222222,0.10666666666666667,0.050061135780417654,-0.00774825708530418,-0.0323504897986841
1592239739.2719123,-9.76,0.05,1.41,0.5188888888888888,-0.20222222222222222,0.10666666666666667,0.056723200689815706,-0.006544984694978735,-0.008726646259971648
1592239739.2819123,-9.45273782571111,-0.19004857366319516,1.4196019429465276,0.5188888888888888,-0.20222222222222222,0.10666666666666667,0.03891723929547537,0.006023929230437967,0.025837867034924293
1592239739.2919123,-9.650944658944658,-0.2703148863148863,1.4551574431574432,0.5188888888888888,-0.20222222222222222,0.10666666666666667,0.02571506048762323,0.02859670690223356,0.0272707695624114
1592239739.3019123,-9.73,-0.46,1.54,0.5377777777777778,-0.20555555555555555,0.10666666666666667,0.02399827721492203,0.04145156973486533,0.028361600344907853
1592239739.3119123,-9.841470151946437,-0.5343134346309586,1.5585783586577397,0.5377777777777778,-0.20555555555555555,0.10666666666666667,0.02703815404174032,0.03435852380562265,0.051667322683848084
1592239739.3219123,-9.4,-0.97,1.31,0.5377777777777778,-0.20555555555555555,0.10666666666666667,0.02399827721492203,0.031634092692397225,0.07963064712224129
1592239739.3319123,-9.591359734369938,-0.9352073210236476,1.3273963394881763,0.5377777777777778,-0.20555555555555555,0.10666666666666667,0.019254161560806712,0.014555276337582083,0.06539830015989534
1592239739.3419123,-9.93436444210434,-0.5051831863454873,1.3384963362730904,0.5377777777777778,-0.20555555555555555,0.10666666666666667,0.01854412330243975,0.011999138607461015,0.06419499189930725
1592239739.3519123,-9.59,-0.51,1.3,0.5044444444444445,-0.20555555555555555,0.10666666666666667,-0.001090830782496456,0.022907446432425576,0.09817477042468103
1592239739.3619123,-9.53033982388689,-0.5014771176981272,1.2914771176981272,0.5044444444444445,-0.20555555555555555,0.10666666666666667,-0.0280521956568799,0.006172806165566886,0.09445596147649023
1592239739.3719122,-9.83,-0.42,1.42,0.5044444444444445,-0.20555555555555555,0.10666666666666667,-0.04908738521234052,-0.0272707695624114,0.06654067773228381
1592239739.3819122,-9.88633006993007,-0.37976423576423574,1.3636699300699302,0.5044444444444445,-0.20555555555555555,0.10666666666666667,-0.04908738521234052,-0.029026385969837063,0.08058560899168912
1592239739.3919122,-9.73084718331777,-0.6852393401805166,1.4576427015250544,0.5044444444444445,-0.20555555555555555,0.10666666666666667,-0.055797097917175235,-0.04706542697759545,0.11083282107156597
1592239739.4019122,-9.949122905550876,-0.6166039502012544,1.3362154825423571,0.5247354571645502,-0.20555555555555555,0.07249232945385711,-0.020069632231626028,-0.09429809893837002,0.13672429937799327
1592239739.4119122,-9.875082765335929,-0.5062122687439143,1.2356475170399221,0.5255555555555556,-0.20555555555555555,0.07111111111111111,0.013361880471086093,-0.11143149778236192,0.1662630045835445
1592239739.4219122,-9.544134517945938,-0.5558626540664107,1.1648269035891876,0.5255555555555556,-0.20555555555555555,0.07111111111111111,0.022380912930502723,-0.12657413454823965,0.1913470098526976
1592239739.4319122,-9.298973198817896,-0.6708401100580863,1.2499066544379904,0.5255555555555556,-0.20555555555555555,0.07111111111111111,0.020440677072574118,-0.1132529353759774,0.19602370336952374
1592239739.4419122,-9.20494018139203,-0.747776215224702,1.2413581983083664,0.5255555555555556,-0.20555555555555555,0.07111111111111111,-0.00566909637666603,-0.09553558910685016,0.16618396228467786
1592239739.4519122,-9.18,-0.92,1.25,0.5377777777777778,-0.20555555555555555,0.08444444444444445,-0.01854412330243975,-0.07853981633974483,0.08835729338221293
1592239739.4619122,-9.339284941313576,-0.5343627736618664,1.3003005077832348,0.5377777777777778,-0.20555555555555555,0.08444444444444445,-0.01488616715142941,-0.050190656169414684,0.05726466609862503
1592239739.4719121,-9.291934259781549,-0.5868568278549817,1.2612089123634687,0.5377777777777778,-0.20555555555555555,0.08444444444444445,-0.0014073232991553431,-0.023434933960190387,0.05233350318344164
1592239739.4819121,-9.64,-0.43,1.5,0.5377777777777778,-0.20555555555555555,0.08444444444444445,0.007635815477475192,-0.011999138607461015,0.042542400517361786
1592239739.4919121,-9.316453570779574,-0.3385629656550972,1.507033618026531,0.5377777777777778,-0.20555555555555555,0.08444444444444445,0.02067904347210054,0.0002768406815981377,0.015688695822544885
1592239739.501912,-9.52,-0.14,1.41,0.5522222222222222,-0.21333333333333335,0.06333333333333334,0.039269908169872414,0.02399827721492203,-0.020725784867432664
1592239739.511912,-9.585189299571166,-0.025918725750459462,1.4262973248927915,0.5522222222222222,-0.21333333333333335,0.06333333333333334,0.04815872000257378,0.03110932668108312,-0.033170121433214565
1592239739.521912,-9.146510368307027,-0.22192045806251937,1.246674404209223,0.5522222222222222,-0.21333333333333335,0.06333333333333334,0.051230727590142675,0.032724923474893676,-0.05494262453788556
1592239739.531912,-9.294739719965865,-0.22450867600113783,1.3717917759726919,0.5522222222222222,-0.21333333333333335,0.06333333333333334,0.05126904677733343,0.035120965576741825,-0.06521653831471186
1592239739.541912,-9.68123951938466,-0.35884289229152233,1.6254544585911186,0.5522222222222222,-0.21333333333333335,0.06333333333333334,0.06136598683349559,0.010403476456450924,-0.07597050244330888
1592239739.551912,-9.7506372968349,-0.16286783575705727,1.7,0.5643146247188163,-0.22542573582992745,0.06333333333333334,0.07517463292490903,0.0010444852488232397,-0.07313200796093577
1592239739.561912,-9.381718774303936,-0.20509566028931406,1.6473883963291336,0.5644444444444444,-0.22555555555555556,0.06333333333333334,0.09330429327247063,0.007649728702574695,-0.05504869314704739
1592239739.571912,-9.882696032904338,-0.09734775109459996,1.5639564813586309,0.5644444444444444,-0.22555555555555556,0.06333333333333334,0.0941197224130072,0.0396635740486558,-0.04805820945350646
1592239739.581912,-9.690519237235218,0.024740381382391097,1.4261362217205438,0.5644444444444444,-0.22555555555555556,0.06333333333333334,0.12197297379633668,0.04145156973486533,-0.02713616442862815
1592239739.591912,-9.589016077170418,-0.01043729903536978,1.3997813504823151,0.5644444444444444,-0.22555555555555556,0.06333333333333334,0.12050698776279979,0.035386410284405936,-0.012395485483416317
1592239739.601912,-9.5,-0.06806822433085061,1.3438635513382988,0.5644444444444444,-0.22555555555555556,0.05028406020549679,0.10401316181001696,0.02945243112740431,0.013901924717839574
1592239739.611912,-9.702820773270515,-0.15450865552938126,1.3569017311058764,0.5644444444444444,-0.22555555555555556,0.04888888888888889,0.08686670427206433,0.02484319898546239,-0.006852683326370835
1592239739.621912,-9.588851809818173,-0.34633955521213144,1.3264115132929275,0.5644444444444444,-0.22555555555555556,0.04888888888888889,0.07391814756190143,0.010258519000841577,-0.005412404539332378
1592239739.631912,-9.874958543240975,-0.352209540302267,1.468215785054576,0.5644444444444444,-0.22555555555555556,0.04888888888888889,0.059868956085560365,-0.0014585911919291015,0.01584646946869038
1592239739.641912,-9.634141970247159,-0.39525243059622817,1.5139393229471712,0.5644444444444444,-0.22555555555555556,0.04888888888888889,0.06137299946866613,0.007073852986972742,0.028559909982302078
1592239739.651912,-9.420228598604947,-0.6547422320862397,1.5204571972098921,0.5644444444444444,-0.22555555555555556,0.03586035369548369,0.059004607212853,0.025905640145292896,0.05627434837861599
1592239739.661912,-9.585756445727576,-0.7127406872769557,1.512465616103292,0.5644444444444444,-0.22555555555555556,0.035555555555555556,0.059726736042976084,0.03111118150891973,0.056723200689815706
1592239739.671912,-9.984661463612406,-0.5123190756132171,1.3830194607743767,0.5644444444444444,-0.22555555555555556,0.035555555555555556,0.07384712113383594,0.04162941296552067,0.04386116031446562
1592239739.681912,-9.984982189689593,-0.46665479312639446,1.3641636982815988,0.5644444444444444,-0.22555555555555556,0.035555555555555556,0.0835436668337354,0.03171949064773417,0.05463859390106324
1592239739.691912,-9.413133566245634,-0.33081116187404824,1.2267889456239363,0.5644444444444444,-0.22555555555555556,0.035555555555555556,0.09556647021448705,0.01940951767758878,0.06632735840968328
1592239739.701912,-9.533039005320243,-0.31362276241145176,1.3801422650715733,0.5644444444444444,-0.21808383057523295,0.035555555555555556,0.0954240146073578,0.006450269250650393,0.045625461976194465
1592239739.711912,-9.582369469186762,-0.2582931421536679,1.3406626113404303,0.5644444444444444,-0.21666666666666667,0.035555555555555556,0.09394068179105007,-0.0023678508730053784,0.008757296006050921
1592239739.721912,-9.57421912523129,-0.2442191252312901,1.382027872918389,0.5644444444444444,-0.21666666666666667,0.035555555555555556,0.08750549114722939,-0.003903087962235951,-0.005095611091212922
1592239739.731912,-9.578524241100677,-0.205903035597292,1.33475758899323,0.5644444444444444,-0.21666666666666667,0.035555555555555556,0.07918373763371467,0.008654583296070103,-0.020367792738496968
1592239739.741912,-9.559862764550266,-0.30068617724867724,1.4945227072310407,0.5644444444444444,-0.21666666666666667,0.035555555555555556,0.07780760579631316,-0.0015392714133739376,-0.02694208945395085
1592239739.7519119,-9.807043222660164,-0.5106520141626028,1.6040978021243906,0.5644444444444444,-0.210419088338121,0.022167887708671997,0.07569654393406214,0.004631275884828463,-0.03032865193899743
1592239739.7619119,-9.50155770164278,-0.4394673104928336,1.3244572187731536,0.5644444444444444,-0.2088888888888889,0.01888888888888889,0.07627209449380996,0.02572168450545621,-0.03456234391611877
1592239739.7719119,-9.387078799612778,-0.5839965150048403,1.3769982575024202,0.5644444444444444,-0.2088888888888889,0.01888888888888889,0.08217299035429082,0.034377790826292276,-0.023923006722979777
1592239739.7819118,-9.664895125396445,-0.4890629247621332,1.1704562778177554,0.5644444444444444,-0.2088888888888889,0.01888888888888889,0.09256862527180294,0.058448888533621166,-0.014535892178994576
1592239739.7919118,-9.536002613403024,-0.24262348329288783,1.2404121709912266,0.5644444444444444,-0.2088888888888889,0.01888888888888889,0.08724398215947238,0.06801510138916272,-0.01199164512737965
1592239739.8019118,-9.618545615458368,-0.06858175381665314,1.4339092115937753,0.5713878850456031,-0.22178385000532652,0.005993927772451264,0.0830201549851183,0.05921821765696392,0.0007774753803411558
1592239739.8119118,-9.515757457594074,-0.1407576525638526,1.4003029830376292,0.5722222222222222,-0.22333333333333333,0.0044444444444444444,0.07680439793089036,0.05781403147231216,0.004892213360033043
1592239739.8219118,-9.348515947563996,-0.25653385631709336,1.2868326796036333,0.5722222222222222,-0.22333333333333333,0.0044444444444444444,0.06492072984051336,0.056906816740451144,0.0011016963038126106
1592239739.8319118,-9.703566001102615,-0.43131259138522016,1.2530197272226085,0.5722222222222222,-0.22333333333333333,0.0044444444444444444,0.05956366453664138,0.053018679841662635,0.004630651060191336
1592239739.8419118,-9.797735368956742,-0.46346692111959287,1.2708015267175572,0.5722222222222222,-0.22333333333333333,0.0044444444444444444,0.058526679827034724,0.05009078299318649,0.007345066051351773
1592239739.8519118,-9.791217322937824,-0.28630413418069844,1.2071303151411912,0.5722222222222222,-0.23639615045826146,0.010975853006908502,0.0666308000946456,0.04421184402442689,0.013312881085600952
1592239739.8619118,-9.638851939645347,-0.3357188767835164,1.1237124492865935,0.5722222222222222,-0.2411111111111111,0.013333333333333334,0.06981317007977318,0.023436477234038366,0.020913051527727218
1592239739.8719118,-9.538457385268028,-0.27768607790204397,1.1253856536829927,0.5722222222222222,-0.2411111111111111,0.013333333333333334,0.06477822668590168,0.00738340573220027,-0.0005889560723081541
1592239739.8819118,-9.490115398818316,-0.26494230059084195,1.1748269017725257,0.5722222222222222,-0.2411111111111111,0.013333333333333334,0.06163823324021391,0.0027333709854052857,-0.01904548048953896
1592239739.8919117,-9.461323609185703,-0.23887268197617184,1.2958328812810158,0.5722222222222222,-0.2411111111111111,0.013333333333333334,0.049541947349639036,-0.002571987569779882,-0.014758333629957928
1592239739.9019117,-9.534761004178995,-0.27650733611933015,1.3670634170149163,0.5769311668988331,-0.22227533240466774,-0.0023631489220361495,0.04023090270451782,-0.011618148080066192,-0.004423982145832178
1592239739.9119117,-9.496671204901293,-0.3366643975493533,1.37,0.5788888888888889,-0.21444444444444444,-0.008888888888888889,0.029671191337427086,-0.002982297201267709,-0.010180592258697352
1592239739.9219117,-9.645038291498564,-0.41563935931196094,1.2460145435218515,0.5788888888888889,-0.21444444444444444,-0.008888888888888889,0.023793224323887197,0.017797831974690686,-0.02900139909680912
1592239739.9319117,-9.329852809233977,-0.42509226702878344,1.2298154659424332,0.5788888888888889,-0.21444444444444444,-0.008888888888888889,0.02534671853576163,0.0142411888015778,-0.012953136109862071
1592239739.9419117,-9.453971972052825,-0.4961915916158475,1.3034929930132062,0.5788888888888889,-0.21444444444444444,-0.008888888888888889,0.022716933217333053,0.003982296699800781,0.006320065000296142
1592239739.9519117,-10.127783696227768,-0.242657072547737,1.392035012304146,0.5830186517701703,-0.21361849186818815,-0.013844604346426606,0.02153666191298901,0.001621754091112695,0.005792075979950343
1592239739.9619117,-9.839549361493123,-0.19085952848722987,1.3337107072691552,0.5844444444444444,-0.21333333333333335,-0.015555555555555555,0.026902203415165644,-0.009838818607384333,0.008358080112725895
1592239739.9719117,-8.997915926879893,-0.4899577383780539,1.243936832628973,0.5844444444444444,-0.21333333333333335,-0.015555555555555555,0.022413709725751595,-0.027700211384133415,0.02135272137182427
1592239739.9819117,-9.832842016419857,-0.5518660323793447,1.2805071740965241,0.5844444444444444,-0.21333333333333335,-0.015555555555555555,0.002478118453783094,-0.013386426278747652,-0.00512011680261169
1592239739.9919116,-10.01032422385902,-0.5929469264128864,1.308909616576031,0.5844444444444444,-0.21333333333333335,-0.015555555555555555,-0.003006749238846499,-0.007489014749191267,-0.02614457144333094
1592239740.0019116,-9.907179429162492,-0.40987199793127976,1.4171794291624915,0.5801566983798616,-0.21847862861083278,-0.026703695323470996,0.005739440522728226,-0.031552960015326904,-0.030660747385780077
1592239740.0119116,-9.6598755186722,-0.3779253112033195,1.44,0.5788888888888889,-0.22,-0.03,0.013003970282623725,-0.05875549538417632,-0.0024170275429589543
1592239740.0219116,-9.399362514922403,-0.7751094309590132,1.4623406287306009,0.5788888888888889,-0.22,-0.03,0.019356451486428557,-0.09211725209211516,0.05923007133648246
1592239740.0319116,-9.59164262560778,-0.7108824959481361,1.4437876823338736,0.5788888888888889,-0.22,-0.03,0.022970827767194616,-0.08918363747903439,0.055993121967559775
1592239740.0419116,-9.83834052692225,-0.5950215807667519,1.41547721813175,0.5788888888888889,-0.22,-0.03,0.03742779040136464,-0.0662780415217763,0.03100941561870308
1592239740.0519116,-9.900746693727903,-0.69,1.4568960324734843,0.5952871255437708,-0.21590044083627952,-0.03409955916372048,0.049168836862689955,-0.06619569553411377,0.05124987118056112
1592239740.0619116,-9.483419375254282,-0.4853528321504453,1.445892138691741,0.6055555555555555,-0.21333333333333335,-0.03666666666666667,0.05945434588617059,-0.08682650092341643,0.07135209901879716
1592239740.0719116,-9.546449349680667,-0.44199011701086194,1.3520148244837071,0.6055555555555555,-0.21333333333333335,-0.03666666666666667,0.0661038063858465,-0.08846718501062069,0.06812332567542147
1592239740.0819116,-9.554580708519964,-0.4635514623104745,1.426073678411459,0.6055555555555555,-0.21333333333333335,-0.03666666666666667,0.07255549290445637,-0.08898933718274922,0.05419502548767058
1592239740.0919116,-9.581420106695013,-0.46533790035236916,1.5220274021142148,0.6055555555555555,-0.21333333333333335,-0.03666666666666667,0.07759642239956065,-0.09170350415085843,0.042173808411581123
1592239740.1019115,-9.62005299688857,-0.4200529968885698,1.5437566246110712,0.5965373466604362,-0.21610816683952389,-0.041522625302500164,0.08507901997098072,-0.0913585233000139,0.03776929321097193
1592239740.1119115,-9.430100648174243,-0.3742352751721084,1.5580168283747333,0.5911111111111111,-0.21777777777777776,-0.044444444444444446,0.09081395725647726,-0.08439729526154502,0.04039007487421385
1592239740.1219115,-9.281071200973292,-0.36602456404611555,1.567400498233011,0.5911111111111111,-0.21777777777777776,-0.044444444444444446,0.10930660344967398,-0.053944397588190564,0.04727933998395146
1592239740.1319115,-9.648601048774601,-0.38339162296772494,1.5003497378063497,0.5911111111111111,-0.21777777777777776,-0.044444444444444446,0.11453723216212788,-0.03899531568753303,0.038976240449284584
1592239740.1419115,-9.68867127001775,-0.3954982737433437,1.640148828681218,0.5911111111111111,-0.21777777777777776,-0.044444444444444446,0.11115603334716871,-0.02761688976329832,0.02701712113831519
1592239740.1519115,-9.393319747223572,-0.4420850315970534,1.7129959241670718,0.583268103387387,-0.21777777777777776,-0.0636954634026765,0.11429212868936786,-0.024616562859804104,-0.008364518013813643
1592239740.1619115,-9.446134854349154,-0.42588959054797315,1.6785276023630067,0.5788888888888889,-0.21777777777777776,-0.07444444444444444,0.1246313166924859,-0.023389287432377767,-0.024928494330767756
1592239740.1719115,-9.304017571884984,-0.24265575079872204,1.5507388178913737,0.5788888888888889,-0.21777777777777776,-0.07444444444444444,0.14534753850879795,-0.01494664702374337,-0.026562862205559666
1592239740.1819115,-9.330196735645584,-0.09221218303701544,1.4560303118624307,0.5788888888888889,-0.21777777777777776,-0.07444444444444444,0.1518337253897224,0.012486690051634233,-0.02237029731933092
1592239740.1919115,-9.60869836384254,-0.04328122468815811,1.4925522436416652,0.5788888888888889,-0.21777777777777776,-0.07444444444444444,0.1506312199953054,0.020578055313865994,-0.014129642629681739
1592239740.2019114,-9.618122589325758,-0.06768037075796082,1.6195655553894455,0.6053779837544226,-0.21172312752279862,-0.058550987525124165,0.11956487107557574,0.00946966363345204,0.023586993729579522
1592239740.2119114,-9.51729725297253,-0.0297949979499795,1.61,0.6177777777777778,-0.2088888888888889,-0.051111111111111114,0.10360656208249959,0.0032501300928256443,0.03349856803723988
1592239740.2219114,-9.624028527370855,0.0012323310203032622,1.5972038036494476,0.6177777777777778,-0.2088888888888889,-0.051111111111111114,0.07788842972367427,-0.014092911339168747,0.05292337534261526
1592239740.2319114,-9.709789320410438,-0.009167519850749664,1.6471865401679067,0.6177777777777778,-0.2088888888888889,-0.051111111111111114,0.06367738653014975,-0.005567944987897979,0.06900625857813945
1592239740.2419114,-9.420720568399854,0.06923725754668592,1.6455339197173198,0.6177777777777778,-0.2088888888888889,-0.051111111111111114,0.04977424450461136,-0.004833856455986784,0.074176493209759
1592239740.2519114,-9.27214176782773,0.05500030500823523,1.6053571646434455,0.6053968834936321,-0.21817455960199816,-0.06349200539525679,0.03884137463487106,-0.002727110227478329,0.06506030730477215
1592239740.2619114,-9.511200236266982,-0.0660796219728293,1.5481604252805672,0.5911111111111111,-0.2288888888888889,-0.07777777777777778,0.02263703895292285,0.006082467288654308,0.05077165886779063
1592239740.2719114,-9.632292279184682,0.05414996911673875,1.5870749845583694,0.5911111111111111,-0.2288888888888889,-0.07777777777777778,-0.007402961173317828,-0.004449538514129274,0.037648767880095343
1592239740.2819114,-9.637235553936524,0.055639998178589334,1.5124488866627201,0.5911111111111111,-0.2288888888888889,-0.07777777777777778,-0.027682618905932613,-0.014528896439642815,0.02611618570358262
1592239740.2919114,-9.478009870353688,-0.0016019740707375364,1.442997532411578,0.5911111111111111,-0.2288888888888889,-0.07777777777777778,-0.05379751314674151,-0.024891843271290008,0.037959296198031164
1592239740.3019114,-9.403975248305217,-0.11023845183667032,1.6795140312155132,0.59929033755496,-0.23203474521344616,-0.06645269500937166,-0.08842281545822289,-0.0071106500191670495,0.09516436638123149
1592239740.3119113,-9.509806267394369,-0.2731799616872086,1.7535432103227673,0.6055555555555555,-0.23444444444444446,-0.057777777777777775,-0.09599310885968812,0.014180800172453926,0.12544553998709243
1592239740.3219113,-9.518279606028488,-0.12690329085127838,1.4707613163405113,0.6055555555555555,-0.23444444444444446,-0.057777777777777775,-0.0946690986510752,0.014842805276760388,0.1194874940483343
1592239740.3319113,-9.402310830778731,0.05,1.447171117923384,0.6055555555555555,-0.23444444444444446,-0.057777777777777775,-0.07451555699134613,0.022346790732845047,0.1182008483184042
1592239740.3419113,-9.414957754914333,0.04500844901713333,1.4001351842741332,0.6055555555555555,-0.23444444444444446,-0.057777777777777775,-0.06054203007335039,0.025637288323057974,0.11890239858170787
1592239740.3519113,-9.38287652227532,0.06284939108987206,1.29143826113766,0.6055555555555555,-0.22619327543976844,-0.09141715910453385,-0.06498065686973162,0.019013313382495494,0.10036235109612436
1592239740.3619113,-9.376189748129073,0.06952402027842601,1.2842854268930555,0.6055555555555555,-0.22,-0.11666666666666667,-0.07069618386077609,0.012362807387688168,0.08414986592050695
1592239740.3719113,-9.650583348199495,0.039416651800504604,1.3257916868421722,0.6055555555555555,-0.22,-0.11666666666666667,-0.08620290328177388,-0.02446642345660098,0.06049111074353789
1592239740.3819113,-9.637832926048068,-0.10555908799734275,1.3719535457543477,0.6055555555555555,-0.22,-0.11666666666666667,-0.08462366499632355,-0.04471241592581187,0.061952609661369396
1592239740.3919113,-9.650745803119102,-0.29127684513757823,1.5261694645872654,0.6055555555555555,-0.22,-0.11666666666666667,-0.07237817734282072,-0.057396184878146794,0.06304754868673948
1592239740.4019113,-9.705414648729446,-0.23540149476831093,1.5113470852017938,0.5924913469523335,-0.2177475502408238,-0.11621617671483142,-0.04127351484480761,-0.04206902235177976,0.07246677493577622
1592239740.4119112,-9.675847493963397,-0.18990837903098415,1.4947480423352064,0.5733333333333334,-0.21444444444444444,-0.11555555555555555,-0.008243695227051331,-0.006579964735642366,0.07852982204241236
1592239740.4219112,-9.58825550924655,-0.003663430582245636,1.4075295115925028,0.5733333333333334,-0.21444444444444444,-0.11555555555555555,0.017243968656442454,-0.006411778600023654,0.08286508058545777
1592239740.4319112,-9.309587744626242,0.08895973692653192,1.150487381028767,0.5733333333333334,-0.21444444444444444,-0.11555555555555555,0.02819496022376614,-0.018581948335187528,0.07376756290198001
1592239740.4419112,-9.16097581486091,0.0324733425274984,1.084071781761916,0.5733333333333334,-0.21444444444444444,-0.11555555555555555,0.026916540346015934,-0.023469685326441288,0.06332447165141455
1592239740.4519112,-9.69635385067032,0.2949662393580585,1.210067521283883,0.5906718422111318,-0.21388513770645096,-0.11891139598351654,0.027292865850891364,-0.06069946516265972,0.030440145896994262
1592239740.4619112,-9.191459656218402,0.297303134479272,1.2261795753286147,0.6077777777777778,-0.21333333333333335,-0.12222222222222222,0.03091094578214851,-0.0870580025209583,0.01349449223908629
1592239740.4719112,-9.4763399263402,0.47076251534579183,1.3452287546037376,0.6077777777777778,-0.21333333333333335,-0.12222222222222222,0.03874944603496366,-0.1457340402407479,-0.025222192031228993
1592239740.4819112,-9.246243259436788,0.4919053325344518,1.4172298781705612,0.6077777777777778,-0.21333333333333335,-0.12222222222222222,0.040020221973530855,-0.15498642274175728,-0.03426977689584083
1592239740.4919112,-9.443143609217227,0.34683244152930004,1.7921170277034606,0.6077777777777778,-0.21333333333333335,-0.12222222222222222,0.04122150865566228,-0.1713181658266019,-0.03312731265864145
1592239740.5019112,-9.282985150886157,0.37868497525147693,1.7554376496886475,0.6008090194617418,-0.21333333333333335,-0.12222222222222222,0.040064161169128414,-0.1384783117355088,-0.033021501258134134
1592239740.5119112,-8.963082900527297,0.26542877532410897,1.8881715101296435,0.5933333333333334,-0.21333333333333335,-0.12222222222222222,0.032026822912269964,-0.1001136839746816,-0.03976236704154855
1592239740.5219111,-9.579792644652485,0.20468896697872796,1.7934448348936398,0.5933333333333334,-0.21333333333333335,-0.12222222222222222,0.017294959802754306,0.008803252257680166,-0.03214557964424781
1592239740.5319111,-9.547909867595255,0.1851977973033162,1.716158237842653,0.5933333333333334,-0.21333333333333335,-0.12222222222222222,0.008455495505882255,0.04079827265004105,-0.03001942285736775
1592239740.5419111,-9.474554183813442,0.12369040196200691,1.7003869975474912,0.5933333333333334,-0.21333333333333335,-0.12222222222222222,-0.01370360421472883,0.07790355506277802,-0.02820253502566615
1592239740.551911,-9.593587450651992,0.12815199186505563,1.7702171312357937,0.5960144754157196,-0.21020533423721605,-0.12803136340072577,-0.03560608566219507,0.10476712580682883,-0.03447972686432182
1592239740.561911,-9.367658353171514,0.06742719202616415,1.8544220971366276,0.6,-0.20555555555555555,-0.13666666666666666,-0.055455859522174605,0.1258018371085428,-0.03389140156530927
1592239740.571911,-9.352896737334152,-0.004209830492468952,1.777103262665848,0.6,-0.20555555555555555,-0.13666666666666666,-0.062292159919554925,0.1429564154342198,-0.03151928737514029
1592239740.581911,-9.387520967473687,0.017981182731830168,1.5971548385563923,0.6,-0.20555555555555555,-0.13666666666666666,-0.06589028455385837,0.15716977284584008,-0.035607179915327775
1592239740.591911,-9.394608507475736,-0.05421592200751946,1.5219607414531784,0.6,-0.20555555555555555,-0.13666666666666666,-0.08120277587065299,0.16407379701687175,-0.048477852395759316
1592239740.601911,-9.598128593181888,-0.10640355511358339,1.5145321482954721,0.6060428643939629,-0.20908055978536727,-0.14321310309345983,-0.10281236907165553,0.15216775851552647,-0.07107620697106985
1592239740.611911,-9.609297066752504,-0.08304309338912808,1.5119728000643786,0.6133333333333333,-0.21333333333333335,-0.1511111111111111,-0.11358145494731908,0.13308135546456762,-0.08128692968001243
1592239740.621911,-9.467495036485058,-0.016994043782069458,1.3130059562179306,0.6133333333333333,-0.21333333333333335,-0.1511111111111111,-0.14562482659229922,0.12945472211760908,-0.06474156495084901
1592239740.631911,-9.52,-0.08,1.25,0.6133333333333333,-0.21333333333333335,-0.1511111111111111,-0.15707963267948966,0.12544553998709243,-0.056723200689815706
1592239740.641911,-10.073922238407153,-0.14966848573129926,1.3783424286564963,0.6133701682520778,-0.21297726245213627,-0.1515162952173009,-0.15329476265132908,0.14185011719654259,-0.03326736242859702
1592239740.651911,-10.057311854977899,-0.14876246481697628,1.3738123240848812,0.6134708372425581,-0.21200412887749304,-0.15262365411258455,-0.14891323058834338,0.1389840022380482,-0.03474983568299068
1592239740.661911,-10.040701471548644,-0.14785644390265326,1.3692822195132663,0.6135715062330385,-0.21103099530284983,-0.1537310130078682,-0.1445316985253577,0.1361178872795538,-0.036232308937384335
1592239740.671911,-10.02409108811939,-0.14695042298833028,1.3647521149416513,0.6136721752235188,-0.21005786172820662,-0.15483837190315186,-0.140150166462372,0.1332517723210594,-0.03771478219177799
1592239740.681911,-10.007480704690133,-0.1460444020740073,1.3602220103700364,0.6137728442139991,-0.2090847281535634,-0.15594573079843552,-0.1357686343993863,0.130385657362565,-0.03919725544617164
1592239740.691911,-9.990870321260878,-0.1451383811596843,1.3556919057984214,0.6138735132044795,-0.2081115945789202,-0.15705308969371917,-0.1313871023364006,0.1275195424040706,-0.0406797287005653
1592239740.701911,-9.974259937831624,-0.14423236024536132,1.3511618012268065,0.6139741821949598,-0.20713846100427696,-0.15816044858900283,-0.12700557027341491,0.12465342744557618,-0.042162201954958956
1592239740.711911,-9.95764955440237,-0.1433263393310383,1.3466316966551914,0.6140748511854401,-0.20616532742963375,-0.15926780748428648,-0.12262403821042922,0.12178731248708179,-0.04364467520935261
1592239740.721911,-9.941039170973115,-0.14242031841671532,1.3421015920835766,0.6141755201759205,-0.20519219385499055,-0.16037516637957014,-0.11824250614744353,0.11892119752858737,-0.04512714846374627
1592239740.731911,-9.92442878754386,-0.14151429750239233,1.3375714875119615,0.6142761891664008,-0.20421906028034734,-0.1614825252748538,-0.11386097408445783,0.11605508257009298,-0.046609621718139926
1592239740.741911,-9.907818404114604,-0.14060827658806935,1.3330413829403467,0.6143768581568811,-0.20324592670570413,-0.16258988417013748,-0.10947944202147214,0.11318896761159858,-0.048092094972533576
1592239740.751911,-9.89120802068535,-0.13970225567374636,1.3285112783687316,0.6144775271473615,-0.20227279313106092,-0.1636972430654211,-0.10509790995848645,0.11032285265310418,-0.04957456822692723
1592239740.761911,-9.874597637256095,-0.13879623475942335,1.3239811737971168,0.6145781961378418,-0.20129965955641768,-0.1648046019607048,-0.10071637789550075,0.10745673769460978,-0.05105704148132089
1592239740.771911,-9.85798725382684,-0.13789021384510036,1.3194510692255017,0.6146788651283221,-0.20032652598177447,-0.16591196085598844,-0.09633484583251506,0.10459062273611539,-0.05253951473571455
1592239740.781911,-9.841376870397585,-0.13698419293077738,1.3149209646538869,0.6147795341188025,-0.19935339240713126,-0.1670193197512721,-0.09195331376952938,0.10172450777762099,-0.0540219879901082
1592239740.791911,-9.82476648696833,-0.1360781720164544,1.3103908600822718,0.6148802031092828,-0.19838025883248805,-0.16812667864655576,-0.08757178170654369,0.09885839281912658,-0.055504461244501854
1592239740.8019109,-9.808156103539075,-0.13517215110213138,1.305860755510657,0.6149808720997632,-0.19740712525784485,-0.1692340375418394,-0.08319024964355799,0.09599227786063218,-0.05698693449889551
1592239740.8119109,-9.79154572010982,-0.1342661301878084,1.3013306509390419,0.6150815410902435,-0.19643399168320164,-0.17034139643712307,-0.0788087175805723,0.09312616290213778,-0.05846940775328917
1592239740.8219109,-9.774935336680565,-0.1333601092734854,1.296800546367427,0.6151822100807238,-0.1954608581085584,-0.17144875533240672,-0.0744271855175866,0.09026004794364337,-0.059951881007682825
1592239740.8319108,-9.75832495325131,-0.13245408835916242,1.292270441795812,0.6152828790712042,-0.1944877245339152,-0.17255611422769038,-0.07004565345460091,0.08739393298514897,-0.06143435426207648
1592239740.8419108,-9.741714569822056,-0.13154806744483943,1.2877403372241971,0.6153835480616845,-0.19351459095927198,-0.17366347312297403,-0.06566412139161522,0.08452781802665457,-0.06291682751647014
1592239740.8519108,-9.725104186392802,-0.13064204653051642,1.283210232652582,0.6154842170521648,-0.19254145738462877,-0.1747708320182577,-0.061282589328629525,0.08166170306816017,-0.06439930077086378
1592239740.8619108,-9.708493802963545,-0.12973602561619343,1.2786801280809672,0.6155848860426452,-0.19156832380998556,-0.17587819091354134,-0.05690105726564383,0.07879558810966578,-0.06588177402525744
1592239740.8719108,-9.69188341953429,-0.12883000470187045,1.2741500235093521,0.6156855550331255,-0.19059519023534233,-0.176985549808825,-0.05251952520265814,0.07592947315117138,-0.0673642472796511
1592239740.8819108,-9.675273036105036,-0.12792398378754746,1.2696199189377373,0.6157862240236058,-0.18962205666069912,-0.17809290870410865,-0.048137993139672444,0.07306335819267697,-0.06884672053404475
1592239740.8919108,-9.658662652675782,-0.12701796287322448,1.2650898143661222,0.6158868930140862,-0.1886489230860559,-0.1792002675993923,-0.04375646107668675,0.07019724323418257,-0.07032919378843841
1592239740.9019108,-9.642052269246527,-0.12611194195890146,1.2605597097945074,0.6159875620045665,-0.1876757895114127,-0.18030762649467597,-0.03937492901370106,0.06733112827568817,-0.07181166704283207
1592239740.9119108,-9.625441885817272,-0.12520592104457848,1.2560296052228923,0.6160882309950468,-0.1867026559367695,-0.18141498538995962,-0.03499339695071538,0.06446501331719377,-0.07329414029722572
1592239740.9219108,-9.608831502388018,-0.12429990013025549,1.2514995006512775,0.6161888999855272,-0.18572952236212628,-0.18252234428524328,-0.030611864887729684,0.061598898358699375,-0.07477661355161938
1592239740.9319108,-9.592221118958761,-0.1233938792159325,1.2469693960796624,0.6162895689760075,-0.18475638878748307,-0.18362970318052693,-0.02623033282474399,0.05873278340020498,-0.07625908680601304
1592239740.9419107,-9.575610735529507,-0.1224878583016095,1.2424392915080475,0.6163902379664878,-0.18378325521283984,-0.1847370620758106,-0.021848800761758297,0.055866668441710565,-0.0777415600604067
1592239740.9519107,-9.559000352100252,-0.1215818373872865,1.2379091869364325,0.6164909069569682,-0.18281012163819663,-0.18584442097109424,-0.017467268698772603,0.05300055348321617,-0.07922403331480035
1592239740.9619107,-9.542389968670998,-0.12067581647296352,1.2333790823648176,0.6165915759474485,-0.18183698806355342,-0.1869517798663779,-0.01308573663578691,0.05013443852472177,-0.08070650656919401
1592239740.9719107,-9.615890579813207,-0.12505238704783578,1.2325261935239178,0.6166666666666667,-0.1811111111111111,-0.18777777777777777,-0.005684002554818861,0.044965339805567946,-0.08263900358476405
1592239740.9819107,-9.948365986723642,-0.10081700663817894,1.307170845763122,0.6166666666666667,-0.1811111111111111,-0.18777777777777777,0.010819186225921606,0.036302715931736104,-0.07958939906636844
1592239740.9919107,-9.984638667804617,0.08719052061211122,1.458954012266042,0.6166666666666667,-0.1811111111111111,-0.18777777777777777,0.02739203552935983,0.03676028072961887,-0.0516752801888409
1592239741.0019107,-9.635318688390324,0.2330976687044783,1.40018925322491,0.6144865007166467,-0.1811111111111111,-0.18603364501776176,0.03822036603605968,0.03920797519684683,-0.014069984502532315
1592239741.0119107,-9.78,0.04737967664194296,1.332925899061747,0.6055555555555555,-0.1811111111111111,-0.17888888888888888,0.03055992847909916,0.06269651950898182,0.00023583323031112734
1592239741.0219107,-9.691679850264043,0.16131865683281713,1.1977708950734196,0.6055555555555555,-0.1811111111111111,-0.17888888888888888,0.03239270851611203,0.08257092451094901,-0.007392657850342356
1592239741.0319107,-9.540852918877938,0.1794882486732373,1.0227132297194845,0.6055555555555555,-0.1811111111111111,-0.17888888888888888,0.02331330329861977,0.0812575893943157,0.018082443026223947
1592239741.0419106,-9.548283509918118,0.05175904235885753,1.1072388300272937,0.6055555555555555,-0.1811111111111111,-0.17888888888888888,-0.006489166679180147,0.07398693232116288,0.029534997717762402
1592239741.0519106,-9.094281187014337,-0.08372621597981923,1.2714904863919276,0.6058039699542102,-0.18053147751425033,-0.17731559769740965,-0.02695885670020631,0.05486671281226416,0.016186614068489882
1592239741.0619106,-9.33885608528655,-0.11031044405288577,1.2821241776211543,0.6075762518257479,-0.17639615314732887,-0.1660911458443371,-0.04029834808326972,0.05718662435714475,-0.0006327446318944233
1592239741.0719106,-9.653198890471549,-0.10553489766849089,1.2682532423719919,0.6088888888888889,-0.17333333333333334,-0.15777777777777777,-0.05225389385084754,0.05060215083076633,-0.01872395214198617
1592239741.0819106,-9.828310496208594,-0.01728881202607423,1.241227883464148,0.6088888888888889,-0.17333333333333334,-0.15777777777777777,-0.05874305883290047,0.019690678312750315,-0.034125430044252905
1592239741.0919106,-9.368076462845519,0.04,1.3065352399186312,0.6088888888888889,-0.17333333333333334,-0.15777777777777777,-0.0648633801906924,-0.0023914869189312934,-0.032808331500502774
1592239741.1019106,-9.369391412165852,0.041280647113525325,1.2502134411855876,0.6079165457101012,-0.17293016664944574,-0.15853667977097796,-0.08095430612022919,-0.002946532845801348,-0.023812014642528877
1592239741.1119106,-9.641800817748388,0.07842738423841647,1.256404564039736,0.5797125415967579,-0.16123582348049853,-0.18054956103017272,-0.0877077735077517,0.006508321496730186,-0.018409240732510858
1592239741.1219106,-9.673867304243872,-0.01912532376967524,1.3020442319187089,0.5633333333333334,-0.15444444444444444,-0.19333333333333333,-0.09468732855659215,0.028051238448632713,1.6083179498851616e-05
1592239741.1319106,-9.752828713395717,0.0006338436703912029,1.1448297475218805,0.5633333333333334,-0.15444444444444444,-0.19333333333333333,-0.09205548954795277,0.049922793703886685,0.041297287352519904
1592239741.1419106,-9.636458496229222,-0.0628408202386057,1.2453312987111258,0.5633333333333334,-0.15444444444444444,-0.19333333333333333,-0.09494049443547571,0.04819179077137292,0.04764429810507038
1592239741.1519105,-9.407042458959875,-0.19577452462407513,1.3342957541040126,0.57095773552214,-0.16048042951058306,-0.18920344881439638,-0.09521262980590575,0.051272113265331536,0.04643406307828026
1592239741.1619105,-9.05,-0.41,1.37,0.59,-0.17555555555555555,-0.17888888888888888,-0.09053895494720585,0.062177354602297986,0.031634092692397225
1592239741.1719105,-9.103279777927323,-0.4038046769851951,1.3415015141318978,0.59,-0.17555555555555555,-0.17888888888888888,-0.0878357353263827,0.0624476765643803,0.025281526583462825
1592239741.1819105,-9.55920280855942,-0.32934084829957966,1.1195605655330532,0.59,-0.17555555555555555,-0.17888888888888888,-0.06705014197527437,0.06268681884528854,-0.022700649175273854
1592239741.1919105,-9.714818770165474,-0.24812770052265137,1.0965746523519313,0.59,-0.17555555555555555,-0.17888888888888888,-0.06173405730624695,0.05781403147231216,-0.03828355213316271
1592239741.2019105,-9.422003622709862,-0.27978339213947434,1.2390252646276345,0.59,-0.17555555555555555,-0.17888888888888888,-0.06000750716340468,0.05781403147231216,-0.06418180427579681
1592239741.2119105,-9.53,-0.1,1.25,0.5633333333333334,-0.16333333333333333,-0.19333333333333333,-0.044724062082354694,0.0370882466048795,-0.08944812416470939
1592239741.2219105,-9.37076837806301,-0.1403144690781797,1.4080175029171529,0.5633333333333334,-0.16333333333333333,-0.19333333333333333,-0.02222437252410968,0.030169808290782377,-0.11048830250154301
1592239741.2319105,-9.755442441054091,0.057751964863615356,1.3118448913546001,0.5633333333333334,-0.16333333333333333,-0.19333333333333333,-0.0003331749220787253,0.02992088823043758,-0.0841258987463099
1592239741.2419105,-9.044822147375339,0.0028472849749445472,1.4061882855499876,0.5633333333333334,-0.16333333333333333,-0.19333333333333333,0.010181923669627644,0.04748057614629732,-0.06456691294009889
1592239741.2519104,-9.535825160686803,-0.08985756963094843,1.3678511723347113,0.5644365316461638,-0.16375764037672966,-0.1911269367076724,0.01694564918949698,0.07483522478341298,-0.06494997199088723
1592239741.2619104,-10.09,-0.33,1.1,0.5777777777777777,-0.1688888888888889,-0.16444444444444445,0.02399827721492203,0.09599310885968812,-0.05890486225480862
1592239741.2719104,-10.058212009936279,-0.3128880008640242,0.9974786694027433,0.5777777777777777,-0.1688888888888889,-0.16444444444444445,0.023683245190686635,0.09360928014675655,-0.020006418547319976
1592239741.2819104,-9.38043183354253,-0.2981502848315149,0.854685478420392,0.5777777777777777,-0.1688888888888889,-0.16444444444444445,0.0282284456846036,0.08154599936662568,-0.011930520643301853
1592239741.2919104,-9.237067785208342,-0.3969969530291639,0.9535894899291678,0.5777777777777777,-0.1688888888888889,-0.16444444444444445,0.026539505889178347,0.07393273865201466,-0.03266095247178103
1592239741.3019104,-9.648979365226243,-0.25738101847567935,1.0114965608710405,0.5764890725832708,-0.1686810332123555,-0.16477701352689786,0.03680256003832765,0.07691842479079494,-0.04141075736821506
1592239741.3119104,-9.88,-0.19,1.05,0.5433333333333333,-0.16333333333333333,-0.17333333333333334,0.02945243112740431,0.06326818538479445,-0.04036073895236887
1592239741.3219104,-9.485746997445142,-0.13255294763735345,1.1421293665385257,0.5433333333333333,-0.16333333333333333,-0.17333333333333334,0.026458422166807615,0.042403158823915446,-0.049249729670861095
1592239741.3319104,-9.394582461479931,-0.15257180901654935,1.0212859045082747,0.5433333333333333,-0.16333333333333333,-0.17333333333333334,0.028221329922810155,0.03527967116256657,-0.059216735693289155
1592239741.3419104,-9.906400596341365,-0.17960089451204772,1.0374673623982593,0.5433333333333333,-0.16333333333333333,-0.17333333333333334,0.027852600188702673,-0.010268700703242888,-0.07011873280037578
1592239741.3519104,-9.957101297445403,-0.2556519461681038,1.0966181803529698,0.5433333333333333,-0.16333333333333333,-0.17333333333333334,0.03246142397690567,-0.03976517294774211,-0.08117990989206299
1592239741.3619103,-9.761658130601793,-0.3485147247119078,1.1532757148954331,0.5555555555555556,-0.1511111111111111,-0.16444444444444445,0.04239481479049393,-0.06357778951213551,-0.07381916814549692
1592239741.3719103,-9.531821046280363,-0.21728418512145523,1.2370989295850188,0.5555555555555556,-0.1511111111111111,-0.16444444444444445,0.05975663121505334,-0.0603525672167448,-0.058608612807900765
1592239741.3819103,-9.49,-0.063885314398503,1.133885314398503,0.5555555555555556,-0.1511111111111111,-0.16444444444444445,0.0767819768293083,-0.06041025962573635,-0.04099184430114088
1592239741.3919103,-9.491484834586316,-0.18484834586316232,1.2414848345863163,0.5555555555555556,-0.1511111111111111,-0.16444444444444445,0.08981502632851515,-0.046095872010513045,-0.045652922537484236
1592239741.4019103,-9.499848844397471,-0.26848844397471433,1.2498488443974713,0.5555555555555556,-0.1511111111111111,-0.16444444444444445,0.09802637375891457,-0.04153401232695781,-0.04474055060077319
1592239741.4119103,-9.27,-0.21,1.28,0.5433333333333333,-0.15555555555555556,-0.16444444444444445,0.10035643198967394,-0.001090830782496456,-0.04799655442984406
1592239741.4219103,-9.661650279907795,-0.2133273745119255,1.1366547490238508,0.5433333333333333,-0.15555555555555556,-0.16444444444444445,0.09571918240172293,-0.004456256965762325,-0.059814700415116384
1592239741.4319103,-9.479905089953908,-0.13852554889230312,1.0003211577538782,0.5433333333333333,-0.15555555555555556,-0.16444444444444445,0.07935435774751025,-0.029613268792960487,-0.07077819607311024
1592239741.4419103,-9.719599498661198,-0.11566645777549896,1.1456007520082037,0.5433333333333333,-0.15555555555555556,-0.16444444444444445,0.060853749450692496,-0.03191772236774126,-0.0823358801190426
1592239741.4519103,-9.62401925596764,-0.0758413566531837,1.2889711160485389,0.5433333333333333,-0.15555555555555556,-0.16444444444444445,0.048689864509020915,-0.0345242691409566,-0.0771227865726119
1592239741.4619102,-9.87,0.03,1.41,0.5555555555555556,-0.16333333333333333,-0.16333333333333333,0.04799655442984406,-0.030543261909900768,-0.08072147790473774
1592239741.4719102,-9.621298231180585,0.048701768819415875,1.4896407514054573,0.5555555555555556,-0.16333333333333333,-0.16333333333333333,0.037907872893364905,-0.021641825460374017,-0.05418594593926033
1592239741.4819102,-9.42,0.25,1.25,0.5555555555555556,-0.16333333333333333,-0.16333333333333333,0.031634092692397225,0.007635815477475192,-0.020725784867432664
1592239741.4919102,-9.480459869848156,0.15522169197396962,1.1826026030368764,0.5555555555555556,-0.16333333333333333,-0.16333333333333333,0.022385314717749506,0.01598362874769048,0.010860841305448553
1592239741.5019102,-10.117338394793926,0.2644008676789588,1.027932104121475,0.5555555555555556,-0.16333333333333333,-0.16333333333333333,0.01146818086497863,0.030870629456014403,0.009868374591560291
1592239741.5119102,-9.56,0.59,1.11,0.5366666666666666,-0.1688888888888889,-0.16333333333333333,-0.009817477042468103,0.00545415391248228,0.030543261909900768
1592239741.5219102,-9.64086959028919,0.6789565493181097,1.126173918057838,0.5366666666666666,-0.1688888888888889,-0.16333333333333333,-0.03716413896361906,0.0010434019897159969,0.054361322292838694
1592239741.5319102,-9.47,0.41,1.14,0.5366666666666666,-0.1688888888888889,-0.16333333333333333,-0.08290313946973066,0.04363323129985824,0.11453723216212788
1592239741.5419102,-9.58374919302776,0.10666881859264044,1.2347909941897999,0.5366666666666666,-0.1688888888888889,-0.16333333333333333,-0.11082139174846327,0.08706162373344233,0.13211539100429287
1592239741.5519102,-9.449130916903458,-0.041477810890105576,1.2869563610321806,0.5366666666666666,-0.1688888888888889,-0.16333333333333333,-0.12362428828767727,0.11915656171250277,0.13205692658360924
1592239741.5619102,-9.697636986301369,0.12683219178082192,1.2420804794520548,0.5166666666666667,-0.16111111111111112,-0.19111111111111112,-0.13319996463355482,0.1418182749596484,0.1275627603500372
1592239741.5719101,-9.24903045369795,0.09903045369794904,1.1670913610938471,0.5166666666666667,-0.16111111111111112,-0.19111111111111112,-0.14058361366165015,0.15710742886474904,0.11239726487502404
1592239741.5819101,-9.219543726235742,0.035839730253246285,0.9146050649257479,0.5166666666666667,-0.16111111111111112,-0.19111111111111112,-0.15019125423506013,0.13545959977765087,0.07919021411815992
1592239741.5919101,-9.69,0.24,1.03,0.5166666666666667,-0.16111111111111112,-0.19111111111111112,-0.16471544815696484,0.10253809355466686,0.02399827721492203
1592239741.60191,-9.654559325821177,0.34632202253647015,1.0016474606569412,0.5166666666666667,-0.16111111111111112,-0.19111111111111112,-0.16471544815696484,0.07547624871198536,-0.00847593659629576
1592239741.61191,-9.71,0.38,1.08,0.5244444444444445,-0.16111111111111112,-0.17777777777777778,-0.17016960206944715,0.04690572364734761,-0.028361600344907853
1592239741.62191,-9.829478733774563,0.21778461854189113,1.1398696834436406,0.5244444444444445,-0.16111111111111112,-0.17777777777777778,-0.17117514086525618,0.02295009242576929,-0.03167673868574094
1592239741.63191,-9.771853243294654,0.043401179379874456,1.1283502948449686,0.5244444444444445,-0.16111111111111112,-0.17777777777777778,-0.16345576374135892,0.024740299447793882,-0.03391683299905336
1592239741.64191,-9.57,-0.03,1.11,0.5244444444444445,-0.16111111111111112,-0.17777777777777778,-0.14944381720201447,0.008726646259971648,-0.022907446432425576
1592239741.65191,-9.680952702051826,0.036571621231095267,1.2061590084449154,0.5244444444444445,-0.16111111111111112,-0.17777777777777778,-0.1349201424660998,0.015181612809267055,-0.014031867427144391
1592239741.66191,-10.0,0.2,1.28,0.49777777777777776,-0.1811111111111111,-0.18666666666666668,-0.11017390903214205,0.014180800172453926,-0.011999138607461015
1592239741.67191,-9.452672086720868,0.1687241192411924,1.131439566395664,0.49777777777777776,-0.1811111111111111,-0.18666666666666668,-0.0871451409321998,0.006504544139139841,-0.018822477303740204
1592239741.68191,-9.531826325558873,-0.013869744169155013,1.1382971511580986,0.49777777777777776,-0.1811111111111111,-0.18666666666666668,-0.08177515828854051,0.00541700351378859,-0.03547731024067139
1592239741.69191,-9.46217534796958,-0.07836848902281532,1.0524472664657771,0.49777777777777776,-0.1811111111111111,-0.18666666666666668,-0.05740541994157504,-0.012585720377787529,-0.054037290112652854
1592239741.70191,-10.003422319654161,0.02868446393083242,1.2673689278616649,0.49777777777777776,-0.1811111111111111,-0.18666666666666668,-0.042131648833215365,0.004237498439755438,-0.06913309098142313
1592239741.71191,-9.677021462222998,0.25994743500261736,1.2018615861106263,0.5022222222222222,-0.17333333333333334,-0.17222222222222222,-0.010136651160143683,0.001334511834545154,-0.06204978012455096
1592239741.72191,-9.603835281800732,0.012944076077473388,1.247602948874542,0.5022222222222222,-0.17333333333333334,-0.17222222222222222,0.008823861723618496,0.007322042218891104,-0.03211212820282121
1592239741.73191,-9.540153221046896,-0.06039837472193217,1.1600306442093793,0.5022222222222222,-0.17333333333333334,-0.17222222222222222,0.026233423014949044,0.018614321360922007,-0.027264084033032137
1592239741.74191,-9.587757297861716,-0.18416897444045943,1.1695514595723429,0.5022222222222222,-0.17333333333333334,-0.17222222222222222,0.04285038057076648,0.040424078152932405,-0.025186964338554954
1592239741.75191,-9.902626865087901,-0.025870895828851936,1.1387373134912098,0.5022222222222222,-0.17333333333333334,-0.17222222222222222,0.055569036575421955,0.04571435733328094,-0.030204453115517227
1592239741.76191,-9.29580165521111,0.017626595595455184,1.131318558002525,0.49,-0.17333333333333334,-0.16111111111111112,0.06682834246381605,0.04156663562747823,-0.01673642588843875
1592239741.77191,-9.512534186594813,-0.0683994610980128,1.1797999326372515,0.49,-0.17333333333333334,-0.16111111111111112,0.07755083072158249,0.04577124493727938,-0.030739677583973724
1592239741.78191,-9.870417649040082,0.15763219939373527,1.151545975075783,0.49,-0.17333333333333334,-0.16111111111111112,0.09193363115143505,0.03960718761019971,-0.058477935555832236
1592239741.79191,-9.608881614710123,0.0762938715700409,0.9719583559830777,0.49,-0.17333333333333334,-0.16111111111111112,0.11520847298019121,0.03620338228787344,-0.05897351774330542
1592239741.80191,-9.597646635130136,0.20763943234246335,1.0594062566917792,0.49,-0.17333333333333334,-0.16111111111111112,0.11505065673062638,0.02765623083991097,-0.038886018296875643
1592239741.81191,-9.39173011760016,0.13098863862866256,1.0503295462095543,0.49,-0.16672159103492568,-0.15449936881270346,0.10912801314335019,0.04023492124999602,-0.029479392063627066
1592239741.82191,-9.6341044915929,0.12023582033628401,1.040235820336284,0.49,-0.16666666666666666,-0.15444444444444444,0.09949711728093903,0.06059776766408273,-0.03051753790170504
1592239741.83191,-9.278104046242774,0.008647398843930634,0.9657649325626204,0.49,-0.16666666666666666,-0.15444444444444444,0.08610669299320098,0.07323320832501062,-0.03661660416250531
1592239741.84191,-9.663409171702808,0.02756061144685389,0.9508131295177153,0.49,-0.16666666666666666,-0.15444444444444444,0.08608693314641197,0.07217222898638216,-0.03408185026981426
1592239741.8519099,-9.787921922264712,0.051980480566177725,1.1331706713848144,0.49,-0.16666666666666666,-0.15444444444444444,0.07978176919971287,0.07199483164476608,-0.038611151220520494
1592239741.8619099,-9.513862459269422,0.14610118333047506,1.1043320185216945,0.4974408430038682,-0.17304453209855372,-0.1693261304521809,0.08788474346683203,0.0657333768990159,-0.053927224234827625
1592239741.8719099,-9.5,0.11168589592653638,0.9659006357428773,0.49777777777777776,-0.17333333333333334,-0.17,0.10298526482670038,0.05082187550529991,-0.0629003799502442
1592239741.8819098,-9.732113747026258,0.16356471085221336,0.9332176445738933,0.49777777777777776,-0.17333333333333334,-0.17,0.11726259927622378,0.05017821599483697,-0.07300652462698048
1592239741.8919098,-9.636202205969935,0.04620220596993592,0.876943802558544,0.49777777777777776,-0.17333333333333334,-0.17,0.11504219973402371,0.06464704933767446,-0.06260142653548902
1592239741.9019098,-9.663335410742803,-0.035003116114205576,1.0072288006855452,0.49777777777777776,-0.17333333333333334,-0.17,0.1003557521590145,0.07678285773453236,-0.05242006381789892
1592239741.9119098,-9.808941974980037,-0.06,0.949478307159968,0.4854975896844409,-0.18049677638777986,-0.15567311389110697,0.09490227807719166,0.08976351275600211,-0.0541107379074874
1592239741.9219098,-9.82,0.12557827595910329,1.0142313103836413,0.48444444444444446,-0.1811111111111111,-0.15444444444444444,0.08579272575814514,0.08446592006784148,-0.059602401524293094
1592239741.9319098,-9.548605986891006,0.18377322792080547,0.9412081897425502,0.48444444444444446,-0.1811111111111111,-0.15444444444444444,0.08508480103472357,0.07348914966987255,-0.06477061148382987
1592239741.9419098,-9.739680946123523,0.2474202365308804,0.9969902759526938,0.48444444444444446,-0.1811111111111111,-0.15444444444444444,0.09134837718933475,0.05529196189913626,-0.07171342310439853
1592239741.9519098,-9.645491361247553,0.40023116820664306,0.9085549410916085,0.48444444444444446,-0.1811111111111111,-0.15444444444444444,0.09234229348087712,0.0545415391248228,-0.08481997116591289
1592239741.9619098,-9.45,0.42,1.02,0.4777777777777778,-0.19333333333333333,-0.15444444444444444,0.09490227807719166,0.05781403147231216,-0.09817477042468103
1592239741.9719098,-9.255287461519261,0.20835593643397954,0.8422189866045429,0.4777777777777778,-0.19333333333333333,-0.15444444444444444,0.08105020650896456,0.05873750291019397,-0.10279212761409008
1592239741.9819098,-9.581501571026955,0.36882586406482554,0.7105870679675872,0.4777777777777778,-0.19333333333333333,-0.15444444444444444,0.05882296425989322,0.07172081610671217,-0.14109094328888136
1592239741.9919097,-9.491214319722493,0.24404289568549212,0.8201999682590064,0.4777777777777778,-0.19333333333333333,-0.15444444444444444,0.04642108583444261,0.08432433317857865,-0.16287505609494582
1592239742.0019097,-9.56212212427435,0.20464631262094174,0.9397989679638787,0.4777777777777778,-0.19333333333333333,-0.15444444444444444,0.018764236114603358,0.09538718296706727,-0.16748110642125172
1592239742.0119097,-9.876704315266098,0.3911362101773986,0.9604431894911301,0.5085719449730254,-0.19970454033924662,-0.14701136960421227,0.004653389973627998,0.11485455136157853,-0.16694545419589812
1592239742.0219097,-9.393969311288211,0.24184528765711114,1.1109658617818483,0.51,-0.2,-0.14666666666666667,0.027888781578235187,0.11092297125497445,-0.07357945787723527
1592239742.0319097,-9.992859272042674,0.37137982428616256,0.9603935257818219,0.51,-0.2,-0.14666666666666667,0.03609413706449802,0.12001828319384178,0.006652573171905228
1592239742.0419097,-9.378062316031302,0.3807741642137507,0.764709120061263,0.51,-0.2,-0.14666666666666667,0.06618889283207748,0.1422162507638927,0.012921072958944187
1592239742.0519097,-9.697904082618225,0.21883502358928636,0.5777201976299269,0.51,-0.2,-0.14666666666666667,0.06326636186292467,0.15126429986866824,0.01733350739445351
1592239742.0619097,-9.625144217889567,-0.09742789105521654,0.5381765143622563,0.4871913148451324,-0.2069417737427858,-0.140716574887136,0.0598784437455773,0.14831739926257156,0.01293713294128324
1592239742.0719097,-9.883447487684728,-0.04265064039408867,0.5797497536945813,0.48444444444444446,-0.20777777777777778,-0.14,0.05545242044306191,0.12324771478173621,0.01459529437559997
1592239742.0819097,-9.55100425531915,0.09363727072633896,0.5814139398385914,0.48444444444444446,-0.20777777777777778,-0.14,0.04425017894007164,0.054188375656224086,0.00014306449793034803
1592239742.0919096,-9.715483756224804,0.2120820488498933,0.7854837562248044,0.48444444444444446,-0.20777777777777778,-0.14,0.02869003086032395,0.03659348832253307,-0.0024493035497268455
1592239742.1019096,-9.54662278570482,0.21560012369130185,0.91,0.48444444444444446,-0.20777777777777778,-0.14,0.001682337954610428,0.05333915322188286,0.0021913473443489124
1592239742.1119096,-9.672920600526234,0.18100294072125056,0.9549852963937471,0.48444444444444446,-0.20078006500541712,-0.15299575229152693,-0.026064119260213257,0.07995244304724333,0.021047580792434715
1592239742.1219096,-9.686628682264516,0.13988604679355074,0.7728015517032367,0.48444444444444446,-0.2,-0.15444444444444444,-0.038571691836791884,0.09785673817448053,0.019260985185324136
1592239742.1319096,-9.719663563267034,0.09620186203977993,0.5689420228523064,0.48444444444444446,-0.2,-0.15444444444444444,-0.05661310202641097,0.09975331289643162,0.01658796780483978
1592239742.1419096,-9.859058631160945,0.021168730047496684,0.5830195437203145,0.48444444444444446,-0.2,-0.15444444444444444,-0.0721967240974636,0.0812810351106154,0.006038512378851167
1592239742.1519096,-9.804634192786686,0.01,0.5947103629508321,0.48444444444444446,-0.2,-0.15444444444444444,-0.07571795588080857,0.06158372695819958,0.005904785801035392
1592239742.1619096,-9.627337477104165,-0.31010689727652163,0.8021727772272768,0.4956762654015154,-0.1990640149202441,-0.13666072792908213,-0.08388129398006582,0.014975364419572777,0.008554716680734825
1592239742.1719096,-9.709633699633699,-0.37,0.963076923076923,0.49777777777777776,-0.1988888888888889,-0.13333333333333333,-0.08188822731312223,-0.0016901883552967057,-0.001502389649152629
1592239742.1819096,-9.67688699360341,-0.2754797441364606,0.7836247334754798,0.49777777777777776,-0.1988888888888889,-0.13333333333333333,-0.06182149722549211,-0.016378742793902012,-0.008726646259971648
1592239742.1919096,-9.737824004433536,-0.4156480088670731,0.7579593856385084,0.49777777777777776,-0.1988888888888889,-0.13333333333333333,-0.052374645358405365,-0.016147249140662644,-0.0015434076739280671
1592239742.2019095,-9.663023843850503,-0.52,0.8193796162803593,0.49777777777777776,-0.1988888888888889,-0.13333333333333333,-0.04953554887174346,-0.006807161524503669,0.0032724923474893677
1592239742.2119095,-9.63764378717248,-0.5384291914483202,0.84921459572416,0.46091939488113737,-0.21629423636785797,-0.15278636875100465,-0.045152433662749944,-0.007293118213158993,0.0032724923474893677
1592239742.2219095,-9.669328004966244,-0.49307519205400796,0.9086560099324901,0.4577777777777778,-0.21777777777777776,-0.15444444444444444,-0.037046008336821326,-0.006356139853219631,0.0019928167232338063
