time,acc_x,acc_y,acc_z,mag_x,mag_y,mag_z,gyr_x,gyr_y,gyr_z
1592240054.8316114,-9.615409095610799,-0.4,1.2878636692755923,0.6,0.41888888888888887,0.057777777777777775,0.01173138615631485,0.0018246582967980226,0.0
1592240054.8416114,-9.592015640273704,-0.39067188009123494,1.4132811990876506,0.6207291553528113,0.42614409326237285,0.029793418051482567,0.0016038660224623686,-0.00014658149713311789,0.0
1592240054.8516114,-9.59,-0.4113919799295917,1.3914773600938777,0.6222222222222222,0.4266666666666667,0.027777777777777776,0.00031299644230495575,0.0,-0.0015556686803830004
1592240054.8616114,-9.571592415559723,-0.42,1.3339810388993054,0.6222222222222222,0.4266666666666667,0.027777777777777776,0.0,0.0040159119477715674,0.0018342503827786555
1592240054.8716114,-9.524871319267332,-0.4290257361465337,1.4202573614653373,0.6222222222222222,0.4266666666666667,0.027777777777777776,0.0,0.01027065362398379,0.003166216647325906
1592240054.8816113,-9.53516921221865,-0.43,1.4679230305466238,0.6222222222222222,0.4266666666666667,0.027777777777777776,-0.0016547043634324253,0.024973294914140173,0.005754548892638006
1592240054.8916113,-9.54,-0.3932575129692728,1.4340718912115908,0.6018097294273738,0.4266666666666667,0.03594277489571716,-0.002181661564992912,0.04748835727277163,0.006544984694978735
1592240054.9016113,-9.54565603536749,-0.4295922475724323,1.4526241414699612,0.6,0.4266666666666667,0.03666666666666667,-0.003415617062142333,0.0595760069381106,0.007778940192128157
1592240054.9116113,-9.56657762893503,-0.40197829872739455,1.3125125251172136,0.6,0.4266666666666667,0.03666666666666667,-0.005267492527142564,0.07757737188350441,0.01143915445144187
1592240054.9216113,-9.62153043478261,-0.3728231884057971,1.2370579710144927,0.6,0.4266666666666667,0.03666666666666667,-0.004517304170877353,0.09180969376310534,0.012935988349065942
1592240054.9316113,-9.615876207989357,-0.38412379201064206,1.2653094800266051,0.6,0.4266666666666667,0.03666666666666667,-0.005903989839064408,0.08995978052199875,0.011549302680878885
1592240054.9416113,-9.61,-0.39,1.3066653461424187,0.6069132378887752,0.4138277963017985,0.04357990455544185,-0.007514564041581178,0.08350939664920072,0.012847466518169443
1592240054.9516113,-9.598321550560012,-0.39,1.292482325840019,0.6077777777777778,0.4122222222222222,0.044444444444444446,-0.008272776084523523,0.08481402129087565,0.011816048175860808
1592240054.9616113,-9.598328348728264,-0.4649551385543763,1.255014953815208,0.6077777777777778,0.4122222222222222,0.044444444444444446,-0.015994501588096142,0.09435196906136008,0.014542235489026807
1592240054.9716113,-9.608393685946519,-0.3792757686417717,1.1576694545882906,0.6077777777777778,0.4122222222222222,0.044444444444444446,-0.007381592409965358,0.0969087179605952,0.014356021854043298
1592240054.9816113,-9.603369513921661,-0.3334780556866446,1.1598914582350164,0.6077777777777778,0.4122222222222222,0.044444444444444446,-0.00545415391248228,0.09636066581046795,0.013457526340737306
1592240054.9916112,-9.652220937793512,-0.4418488548515281,1.309255834116032,0.635822355481701,0.4122222222222222,0.044444444444444446,-0.00355534703128243,0.09314489853788835,0.01308996938995747
1592240055.0016112,-9.643796645120355,-0.42219217194749575,1.2705876987746363,0.64,0.4122222222222222,0.044444444444444446,-0.0015049805192463097,0.09095310468395569,0.012500798780543118
1592240055.0116112,-9.621876104299405,-0.3981238957005943,1.171256625796434,0.64,0.4122222222222222,0.044444444444444446,0.001772359100799778,0.08324486731191016,0.00934059995626135
1592240055.0216112,-9.670850294752674,-0.4254251473763373,1.1854251473763373,0.64,0.4122222222222222,0.044444444444444446,0.00033269267115172956,0.07718988645263124,0.009651130706892238
1592240055.0316112,-9.620960887482523,-0.3447212819191993,1.183440098609169,0.64,0.4122222222222222,0.044444444444444446,-0.0007155742367259572,0.07063356088094426,0.01053305127919406
1592240055.0416112,-9.881606137613794,-0.4719728503876218,0.8958709428378422,0.615907185211396,0.40806828863798017,0.05441388504662542,-0.001906453734481132,0.06192214785088754,0.0051989471610718275
1592240055.0516112,-9.67851057559339,-0.3521985445807168,1.024184443789531,0.6077777777777778,0.4066666666666667,0.057777777777777775,0.013840402409513532,0.006869901963941605,0.0007426927725672976
1592240055.0616112,-9.536363679992322,-0.41493497144502567,1.3045452800307147,0.6077777777777778,0.4066666666666667,0.057777777777777775,0.002663340023012297,-0.03714489002315763,-0.003343322795668938
1592240055.0716112,-9.427514295412413,-0.4331844173477114,1.512932452544453,0.6077777777777778,0.4066666666666667,0.057777777777777775,-0.0030988093241294005,-0.03480911975521328,0.00022241566569661947
1592240055.0816112,-9.434816573154942,-0.4250366853690116,1.5350366853690116,0.6077777777777778,0.4066666666666667,0.057777777777777775,-0.002731078709219655,-0.007819896114486892,0.0021736580590358814
1592240055.0916111,-9.557956588257793,-0.3932845668387837,1.271750812774909,0.6245986060644696,0.41161396910392894,0.05184101485306305,-0.004124462688991668,0.06796612174391094,0.0071580945954868806
1592240055.1016111,-9.618331261653202,-0.3718757768800497,1.1554202921068988,0.6266666666666667,0.4122222222222222,0.051111111111111114,-0.0010682463819732036,0.08406172345379687,0.00895384617668024
1592240055.1116111,-9.717410434690304,-0.39370521734515157,1.0073106523008333,0.6266666666666667,0.4122222222222222,0.051111111111111114,-0.0025858380785860205,0.08502395165558213,0.010736644257738723
1592240055.121611,-9.718569572982627,-0.3828543594739406,1.0185760675434323,0.6266666666666667,0.4122222222222222,0.051111111111111114,-0.0026490592651078897,0.06778471011030866,0.009038008577820125
1592240055.131611,-9.683625477921096,-0.3568127389605479,1.0795617831183564,0.6266666666666667,0.4122222222222222,0.051111111111111114,-0.0014624080510603826,0.03621252503114096,0.004758801421745074
1592240055.141611,-9.641167455803659,-0.3716244081472558,1.1360406802454261,0.61305129857395,0.42263397429312316,0.051111111111111114,0.0004817405548564603,0.01045422540638578,0.0040587780161658255
1592240055.151611,-9.63,-0.3046920848738902,1.1725923745378328,0.6077777777777778,0.4266666666666667,0.051111111111111114,0.0027337946222002764,-0.00385149606853328,0.002720359290282003
1592240055.161611,-9.67155175146616,-0.16365509589475352,1.0719654461879855,0.6077777777777778,0.4266666666666667,0.051111111111111114,0.0032724923474893677,-0.005638466103660156,0.0030881801563114914
1592240055.171611,-9.703366728405456,-0.04185974069708705,1.0733667284054556,0.6077777777777778,0.4266666666666667,0.051111111111111114,0.004292058212725574,-0.004944370979864177,0.004292058212725574
1592240055.181611,-9.73,0.4885878935964224,1.1067514176386521,0.6077777777777778,0.4266666666666667,0.051111111111111114,0.01502820435393272,-0.008045650222851378,0.014291738935359607
1592240055.191611,-9.293613979126444,1.2432751336075434,0.9853182797504128,0.6077777777777778,0.41541067803302334,0.039855122477467815,0.021335037315721974,-0.0021671025039321423,0.028744622687154366
1592240055.201611,-9.412804843705999,1.099384479221145,0.9962485416582854,0.6077777777777778,0.4122222222222222,0.03666666666666667,0.0041593491396795315,0.022281788691505433,0.02112381500772485
1592240055.211611,-9.860994424588993,0.33790078627591136,0.9098896354538957,0.6077777777777778,0.4122222222222222,0.03666666666666667,-0.022334912317363745,0.07860609269179072,-0.006448548704143023
1592240055.221611,-9.719683503579185,0.2460898415507118,0.8560898415507118,0.6077777777777778,0.4122222222222222,0.03666666666666667,-0.022243147770021336,0.07186230531186488,-0.0012868346406237855
1592240055.231611,-9.696729020280591,-0.11898761544426956,1.0200467652104435,0.6077777777777778,0.4122222222222222,0.03666666666666667,-0.0483267542115125,0.04233793863873532,-0.00036701112290559584
1592240055.241611,-9.269389188700291,-0.08522626548886009,1.1831674153577134,0.5919859239383494,0.41748617350203165,0.042807943159777706,-0.050348505174244454,-0.007699978125027138,0.0078678007751848
1592240055.251611,-9.461128515485937,-0.1421324314702741,1.322132431470274,0.5877777777777777,0.41888888888888887,0.044444444444444446,-0.061606503320607076,-0.00814996996520225,0.009702141783514223
1592240055.261611,-9.493753993610223,-0.12096006389776356,1.1628154952076677,0.5877777777777777,0.41888888888888887,0.044444444444444446,-0.07229489723701192,0.01001516834003076,0.008131219936682447
1592240055.271611,-9.35299187463726,-0.11131166569936159,1.1243035403366222,0.5877777777777777,0.41888888888888887,0.044444444444444446,-0.08209846975147586,0.015924356745289237,0.013742695180296326
1592240055.281611,-9.578704550249666,-0.3316182572614108,1.2354314649412756,0.5877777777777777,0.41888888888888887,0.044444444444444446,-0.08244798094715161,0.012607346388854355,0.010798449910868285
1592240055.291611,-9.496057175205209,-0.4424662704028682,1.2758401736012832,0.6129343439108511,0.4140198760889392,0.05986298497761844,-0.06889380114119022,-0.014254695492940056,0.009351874772441312
1592240055.301611,-9.485392943063353,-0.4109923817161187,1.2759362469927826,0.6222222222222222,0.4122222222222222,0.06555555555555556,-0.06198534389118494,-0.014803850874004128,0.005621671229922593
1592240055.311611,-9.42117249517271,-0.27470285346492174,1.1341149967818065,0.6222222222222222,0.4122222222222222,0.06555555555555556,-0.030767524642646364,-0.0041387093467845845,0.0015400583488989331
1592240055.321611,-9.421576634685158,-0.2602519551721358,1.1509142949286464,0.6222222222222222,0.4122222222222222,0.06555555555555556,-0.01911192170055288,0.0003337662516789525,0.004174056997281447
1592240055.331611,-9.88499539565264,-0.43624884891315985,1.2624041117892708,0.6222222222222222,0.4122222222222222,0.06555555555555556,-0.006314367252323098,0.010572590313983585,-0.0054225234407079955
1592240055.341611,-9.663040177987174,-0.11969506609082581,1.205563407930899,0.6255138216347482,0.4171596213410112,0.07049295467434454,0.020197001040922143,-0.003592560743557561,0.003067631442780246
1592240055.351611,-9.623186150712831,-0.006169450101832995,1.157661099796334,0.6266666666666667,0.41888888888888887,0.07222222222222222,0.023302189433309424,-0.005407943565688133,0.003435206087835682
1592240055.361611,-9.30664289544236,0.15308981233243968,0.9195865951742628,0.6266666666666667,0.41888888888888887,0.07222222222222222,0.02224657259803268,-0.005300209321622727,0.0012288369611184605
1592240055.3716109,-9.483122802763972,-0.02026912353012486,0.9628536792338465,0.6266666666666667,0.41888888888888887,0.07222222222222222,0.012084961031735496,-0.004856041701398334,-0.007846602756818064
1592240055.3816109,-9.868040059286097,-0.35908374161142903,1.1006614105150478,0.6266666666666667,0.41888888888888887,0.07222222222222222,0.003042146467320388,-0.02177226654549027,-0.01491353719875476
1592240055.3916109,-9.412251295109316,-0.28427225100242925,1.307748704890684,0.6266666666666667,0.4233438047758884,0.043583477234368444,0.0005939595480306745,-0.03723673649188717,0.0006350808067848946
1592240055.4016109,-9.525470793576915,-0.13362857807772865,1.347264603211543,0.6266666666666667,0.4266666666666667,0.022222222222222223,0.0058515950744735395,-0.03351818110327276,-0.0004960906481625725
1592240055.4116108,-10.169660457612203,-0.17224039307714872,1.2278314755060136,0.6266666666666667,0.4266666666666667,0.022222222222222223,0.009268141828079487,-0.01798694844177036,-0.0004652590078468308
1592240055.4216108,-9.587835676867934,-0.09544940722360079,1.2351392335263303,0.6266666666666667,0.4266666666666667,0.022222222222222223,0.005173852206034334,0.013491775269586712,-0.004393699173281148
1592240055.4316108,-9.328065767596526,-0.12638770860274648,1.244709649608966,0.6266666666666667,0.4266666666666667,0.022222222222222223,0.013596726420756985,0.023808243328372215,0.004483026341661955
1592240055.4416108,-9.566720579445168,-0.263400724306459,1.3669227523645442,0.6355735264817224,0.4266666666666667,0.04152041848817631,0.007242800357463898,0.03894305398301419,0.004341269485601467
1592240055.4516108,-9.553515749154476,-0.2724330711869932,1.3694645694959455,0.64,0.4266666666666667,0.051111111111111114,0.0061906791586403935,0.04386943499075047,0.002210864768778421
1592240055.4616108,-9.661746891146876,-0.26,1.1842300180474177,0.64,0.4266666666666667,0.051111111111111114,0.004847318780149334,0.04212612164869716,0.0011585475639953472
1592240055.4716108,-9.641867629306342,-0.12261468102887918,1.0287833132138546,0.64,0.4266666666666667,0.051111111111111114,0.006045556598303207,0.022601261201875743,0.015659306887006244
1592240055.4816108,-9.700393563057547,-0.11833887236895808,1.0015410180164421,0.64,0.4266666666666667,0.051111111111111114,-0.0005042969666150306,0.028111264506769783,0.0107533107625808
1592240055.4916108,-9.555854082956307,-0.20774385420951055,1.1465241876799444,0.6369173495322766,0.43036584722793475,0.05419376157883451,0.003498617044136211,0.03758046126049264,0.004476385478309246
1592240055.5016108,-9.465003377617654,-0.25977707723485705,1.2415672145913084,0.6344444444444445,0.43333333333333335,0.056666666666666664,0.01093262492639828,0.035118315761460996,0.00913365067487744
1592240055.5116107,-9.801934413429631,-0.36569866986419786,1.0870960095925937,0.6344444444444445,0.43333333333333335,0.056666666666666664,-0.001213964075141548,0.045627211932138645,0.009600503283466759
1592240055.5216107,-9.711050195385187,-0.2665028377372535,0.9975530331224414,0.6344444444444445,0.43333333333333335,0.056666666666666664,-0.0038599505980276175,0.051414078149513126,0.009199545965130024
1592240055.5316107,-9.683331295240725,-0.2783343523796375,1.0541671761898188,0.6344444444444445,0.43333333333333335,0.056666666666666664,-0.0055631702943072835,0.05197798674131916,0.007599476683533523
1592240055.5416107,-9.700824781816438,-0.39041239090821905,1.0900687318180367,0.6344444444444445,0.4361302032827879,0.04603856085873924,-0.002730825695383698,0.04965154429930154,0.010923302781534793
1592240055.5516107,-9.785865322476411,-0.34190685450863817,1.0431088707940201,0.6344444444444445,0.4388888888888889,0.035555555555555556,0.0066568828507292035,0.04118933046183399,0.006263523941182205
1592240055.5616107,-9.864125393572891,-0.24903943225548503,0.9725985806387125,0.6344444444444445,0.4388888888888889,0.035555555555555556,0.013582993937986192,0.0225622174889422,-0.0024960066243099478
1592240055.5716107,-9.622516546550964,-0.2283041623768201,0.9383041623768201,0.6344444444444445,0.4388888888888889,0.035555555555555556,0.02202069518446883,0.005250074377942568,0.0002870269554178786
1592240055.5816107,-9.564656577415601,-0.3734860831834057,1.0623155889512117,0.6344444444444445,0.4388888888888889,0.035555555555555556,0.02547492199626526,-0.005709516140324607,-0.003719376246213443
1592240055.5916107,-9.395403624382208,-0.31269632070291054,1.0845304777594729,0.6266654463359571,0.4480822502898285,0.03979864543291232,0.03957002141645711,-0.01745449057681589,-0.007436938036624657
1592240055.6016107,-9.32771538773853,-0.28168006496142917,1.0828518067397483,0.6222222222222222,0.4533333333333333,0.042222222222222223,0.049611497736906617,-0.02286484069906132,-0.0028335912896517764
1592240055.6116107,-9.76181479510378,-0.5090926024481107,1.1881852048962214,0.6222222222222222,0.4533333333333333,0.042222222222222223,0.04385180383291301,-0.014042632143590618,-0.014100395668262461
1592240055.6216106,-9.71082932790224,-0.435722199592668,1.1247995926680243,0.6222222222222222,0.4533333333333333,0.042222222222222223,0.045190697718924054,-0.010351206547940504,-0.020893519539690264
1592240055.6316106,-9.273799533799533,-0.1791064491064491,1.0111732711732713,0.6222222222222222,0.4533333333333333,0.042222222222222223,0.06211039606941748,-0.015588624515675848,-0.0027605562226813967
1592240055.6416106,-9.52595062373457,-0.3488341715106786,1.11349683234276,0.6242399436860936,0.4498023207715586,0.055337411737385614,0.06474046140336209,-0.007133895102405795,-0.00515969870876875
1592240055.6516106,-9.750216683694077,-0.4142239064838794,1.2380144455796052,0.6266666666666667,0.44555555555555554,0.07111111111111111,0.06851756717124606,-0.0058991529510782105,-0.010679899174577491
1592240055.6616106,-9.8585797212694,-0.45842716304061015,1.236015255822879,0.6266666666666667,0.44555555555555554,0.07111111111111111,0.07945907722512624,-0.014214083214871243,-0.0019268840618345724
1592240055.6716106,-9.668712214002253,-0.2907645387291166,1.0786639557101563,0.6266666666666667,0.44555555555555554,0.07111111111111111,0.07335386752656971,-0.010046615104295232,-0.0038712441319045856
1592240055.6816106,-9.466421789993955,-0.14247626497884294,1.0121089499697755,0.6266666666666667,0.44555555555555554,0.07111111111111111,0.06404537759006705,-0.0019481586915217793,-0.010091047767815595
1592240055.6916106,-9.714169729816748,-0.3254844248879826,1.1896884977596522,0.6211476304186454,0.44254517214754396,0.0550557329350493,0.07963064712224129,0.001970291333145379,-0.004750210847348402
1592240055.7016106,-9.87679921018588,-0.2467992101858787,1.0653598420371757,0.6144444444444445,0.4388888888888889,0.035555555555555556,0.08495395877772773,0.0027663296333398923,-0.007077315860527379
1592240055.7116106,-9.77608861914983,-0.14608861914982854,0.9687013051094171,0.6144444444444445,0.4388888888888889,0.035555555555555556,0.09001728954153858,0.008394146461838182,-0.005549153854806126
1592240055.7216105,-9.680422629465664,-0.023662102337074026,0.9709857922372079,0.6144444444444445,0.4388888888888889,0.035555555555555556,0.08419370695012374,0.0169462858724008,-0.0032724923474893677
1592240055.7316105,-9.615249960323757,0.056987779717505155,1.050579273131249,0.6144444444444445,0.4388888888888889,0.035555555555555556,0.0796053715637197,0.017415379182160923,-0.003158752334142253
1592240055.7416105,-9.82655122701352,-0.41279201640289614,1.19821169987826,0.6356630215786364,0.44677007468158875,0.04707421171411688,0.06554539162074735,0.015371159566104029,-0.001192351363746927
1592240055.7516105,-10.248250128058631,-0.5411332203790535,1.2540706883643957,0.6533333333333333,0.4533333333333333,0.056666666666666664,0.05541479689731109,0.016362461737446838,-0.009050040042528223
1592240055.7616105,-9.36376104457098,-0.06719394266640488,1.0528060573335951,0.6533333333333333,0.4533333333333333,0.056666666666666664,0.05907420018675663,0.011250196424328385,-0.006479819710573759
1592240055.7716105,-9.383951332278867,-0.11395133227886604,0.9961720403942086,0.6533333333333333,0.4533333333333333,0.056666666666666664,0.049289253276603454,0.03077241733380372,0.00767618909032778
1592240055.7816105,-9.625549187786792,-0.33508218939379275,1.1087633836085886,0.6533333333333333,0.4533333333333333,0.056666666666666664,0.028259717100415936,0.05583015941492016,0.005702885042329146
1592240055.7916105,-9.696323947623362,-0.34058533079158726,1.2348807775242976,0.6509507588778816,0.4549217163036345,0.05388699646863965,0.02025722431537123,0.05688062612665963,0.0060764241429173025
1592240055.8016105,-9.503617969911089,-0.23413031575104948,1.187577503715485,0.6466666666666666,0.4577777777777778,0.04888888888888889,0.011372422150018066,0.05561374048686883,0.009353362717414595
1592240055.8116105,-9.592424022863584,-0.4099682002978706,1.3881978827033772,0.6466666666666666,0.4577777777777778,0.04888888888888889,0.006223131873833986,0.05165527016270713,0.013730206222851277
1592240055.8216105,-9.610935366047324,-0.18611825737123497,1.0673225345402573,0.6466666666666666,0.4577777777777778,0.04888888888888889,0.002698927043241986,0.0637103844283791,0.006544984694978735
1592240055.8316104,-9.26,-0.12,0.93,0.6466666666666666,0.4577777777777778,0.04888888888888889,0.004363323129985824,0.06981317007977318,0.006544984694978735
1592240055.8416104,-9.687245773648213,-0.06813524325719447,1.128262679055362,0.6466666666666666,0.4565536771769834,0.05286721584147059,0.006813082155975574,0.0759467881140021,0.02478866850876923
1592240055.8516104,-9.84500599872968,-0.23124750052929965,1.0491630007763062,0.6466666666666666,0.4533333333333333,0.06333333333333334,-0.009590529632733725,0.06549506193576111,0.008498826370371715
1592240055.8616104,-9.843035422730177,-0.06047064669553488,0.9210470646695536,0.6466666666666666,0.4533333333333333,0.06333333333333334,-0.011333737250607743,0.04316482529408546,-0.007864249552037877
1592240055.8716104,-9.604472121372412,0.058944242744824606,0.9055278786275878,0.6466666666666666,0.4533333333333333,0.06333333333333334,-0.00304216184493151,0.018259449278895796,0.004790334165301753
1592240055.8816104,-9.683715873309872,0.020856084460085203,0.9526541952213373,0.6466666666666666,0.4533333333333333,0.06333333333333334,-0.01043201138365003,0.007902916476634353,0.010943786596108545
1592240055.8916104,-9.75465228600333,-0.03394608882942271,1.0567601083444833,0.6466666666666666,0.4533333333333333,0.061831087034559286,-0.01570208247151035,0.004117518654146708,-0.0025656576375311514
1592240055.9016104,-9.490854139290407,0.11609724047306175,1.0191064388961892,0.6466666666666666,0.4533333333333333,0.056666666666666664,0.0011395669804003714,0.0027980311267188987,0.0018534089379341895
1592240055.9116104,-9.737295638674622,0.01688254984718382,0.94,0.6466666666666666,0.4533333333333333,0.056666666666666664,-0.0008382192877966627,0.006537919934416795,0.009824541803030043
1592240055.9216104,-9.9008886652468,-0.03877056662063799,0.7753804385985442,0.6466666666666666,0.4533333333333333,0.056666666666666664,-0.009211976219371035,0.008601828891665303,-0.0053432760580019245
1592240055.9316103,-9.57341313504685,-0.00575560904323906,0.7110074787243188,0.6466666666666666,0.4533333333333333,0.056666666666666664,-0.008962947607164208,-0.005891030093660908,-0.005489880425688775
1592240055.9416103,-9.812957339791357,-0.2335106184798808,0.9003617113760557,0.6414917273831208,0.4561560274879947,0.050550829331567036,-0.02102982075710202,-0.018583579892777813,0.006162035624633249
1592240055.9516103,-10.266262988468277,-0.31824294038547735,0.86239599038344,0.6344444444444445,0.46,0.042222222222222223,-0.03902597029715571,-0.01487776552307307,-0.003307340615020325
1592240055.9616103,-9.53245418158837,-0.17251527280387613,1.0016700606230835,0.6344444444444445,0.46,0.042222222222222223,-0.028087226644823427,-0.06871789661871588,-0.0045454984836153026
1592240055.9716103,-9.68139424900736,-0.1372115019852811,0.99,0.6344444444444445,0.46,0.042222222222222223,-0.028652674308290674,-0.08258585753883635,-0.010313055914443175
1592240055.9816103,-9.682194958546186,-0.139675069089691,1.1241445440080395,0.6344444444444445,0.46,0.042222222222222223,-0.022260036855710694,-0.06963594776019834,-0.0160875844386836
1592240055.9916103,-9.610639378547953,0.03622647146698536,1.0275470570660292,0.6529484115127976,0.45729210238024104,0.042222222222222223,-0.021135131584736382,-0.04104450440850199,-0.007806756841508472
1592240056.0016103,-9.48,0.25,0.6,0.68,0.4533333333333333,0.042222222222222223,-0.01854412330243975,-0.022907446432425576,-0.0032724923474893677
1592240056.0116103,-9.778648827659293,0.06112465227182409,0.9244416479003842,0.68,0.4533333333333333,0.042222222222222223,-0.010522637225086026,-0.020750494373831772,0.0024852561436159142
1592240056.0216103,-9.57,0.36,0.4,0.68,0.4533333333333333,0.042222222222222223,-0.028361600344907853,-0.01090830782496456,-0.009817477042468103
1592240056.0316103,-9.830309246212357,-0.17343641540411914,0.9732431365213957,0.68,0.4533333333333333,0.042222222222222223,-0.038124260403106854,-0.032737573548186544,0.015309581174828992
1592240056.0416102,-9.673255188444296,-0.12976556533289058,1.0167448115557032,0.6756597487409375,0.46129046064161455,0.044392347851753465,-0.06405507590177778,-0.04180372171452432,-0.005073495081558977
1592240056.0516102,-9.68,-0.15,1.01,0.6666666666666666,0.4777777777777778,0.04888888888888889,-0.05890486225480862,-0.074176493209759,-0.006544984694978735
1592240056.0616102,-9.62149348073312,-0.047013038533760015,1.21520298325884,0.6666666666666666,0.4777777777777778,0.04888888888888889,-0.05289290206427051,-0.06558797865184741,-0.006974410422874315
1592240056.0716102,-9.67,0.05,1.1,0.6666666666666666,0.4777777777777778,0.04888888888888889,-0.04363323129985824,-0.05235987755982988,-0.007635815477475192
1592240056.0816102,-9.701207798577618,-0.14299517698029918,1.1886231913676122,0.6666666666666666,0.4777777777777778,0.04888888888888889,-0.04299296008870642,-0.019634954084936207,-0.006681996180085071
1592240056.0916102,-10.074492158327109,-0.2,1.2232113517550411,0.6713151052471441,0.4750865764943435,0.04595303294332421,-0.03767873989254157,-0.01675268425037873,0.00613480299297204
1592240056.1016102,-9.71853374373005,-0.1076169630642955,1.2315070679434563,0.6877777777777778,0.46555555555555556,0.035555555555555556,-0.03943430378027601,-0.004865413687145843,0.019379456943381577
1592240056.1116102,-9.784463191289927,0.0687759271276468,1.1052541639627946,0.6877777777777778,0.46555555555555556,0.035555555555555556,-0.03311729431371507,0.00213441766204248,0.0202389262227104
1592240056.1216102,-9.699115711763762,0.10245867437008506,1.0110495907558978,0.6877777777777778,0.46555555555555556,0.035555555555555556,-0.03343306189813203,0.009817477042468103,0.0433258169435649
1592240056.1316102,-9.718584500655043,0.039785750277133936,1.1241622493197623,0.6877777777777778,0.46555555555555556,0.035555555555555556,-0.03452266712949753,0.0035253742513546155,0.05560899888803489
1592240056.1416101,-9.544497216052575,-0.009193415888276994,1.2692597438159856,0.6877777777777778,0.4677704080080324,0.039381209791651876,-0.0376885072168073,-0.01348531962822375,0.047696424123880164
1592240056.1516101,-9.603400939461785,0.08710610650160236,1.1455849686114403,0.6877777777777778,0.4777777777777778,0.056666666666666664,-0.03450241401375419,-0.00663348091017929,0.05450835304412259
1592240056.1616101,-9.616148462947882,0.0,1.3106084588762215,0.6877777777777778,0.4777777777777778,0.056666666666666664,-0.03969004568750993,0.005837454794116824,0.06330502202079742
1592240056.17161,-9.643961982855012,-0.01638091688408498,1.186723816623183,0.6877777777777778,0.4777777777777778,0.056666666666666664,-0.03058066646897258,-0.0058302323596717024,0.0680075869619697
1592240056.18161,-9.57,-0.05511998434135839,1.2055999217067919,0.6877777777777778,0.4777777777777778,0.056666666666666664,-0.027296946085005658,-0.0026878121723497525,0.0693331959950106
1592240056.19161,-9.592848657024794,-0.03953512396694216,1.2609594524793388,0.6890471476124885,0.4777777777777778,0.05285855716253443,-0.029712461295855818,0.0034278624860603376,0.08021832093739821
1592240056.20161,-9.695583199054678,0.17960296487270386,1.0787841873455795,0.6977777777777778,0.4777777777777778,0.02666666666666667,-0.02295075624628428,0.010253270326398098,0.09961477486339007
1592240056.21161,-9.557469914667056,0.20250334281477161,0.9674966571852284,0.6977777777777778,0.4777777777777778,0.02666666666666667,-0.0212719295477315,0.004087333633633974,0.1011756490101222
1592240056.22161,-9.52158762886598,0.1547216494845361,1.007381443298969,0.6977777777777778,0.4777777777777778,0.02666666666666667,-0.02463028432807977,-0.008153866385176258,0.10104466749368203
1592240056.23161,-9.648963447464453,0.0021646359702474725,1.1226829122380202,0.6977777777777778,0.4777777777777778,0.02666666666666667,-0.030633056902026824,-0.024177867199174145,0.09026956997082768
1592240056.24161,-9.765063661101218,0.013562334128397219,1.0706870023851918,0.697184055423045,0.4766892867941009,0.0286457411824429,-0.03325507595684941,-0.03389069459233169,0.07822616630220705
1592240056.25161,-9.57928350503994,0.017007854742885117,1.2624803631427872,0.6911111111111111,0.46555555555555556,0.04888888888888889,-0.016362461737446838,-0.040416565720792844,0.08509596638840836
1592240056.26161,-9.706341592961227,-0.022683185922453414,1.3589762833983787,0.6911111111111111,0.46555555555555556,0.04888888888888889,-0.014276600220160415,-0.030346371777669922,0.08111525816919943
1592240056.27161,-9.640202794051374,0.06986480396575034,1.1848986029743127,0.6911111111111111,0.46555555555555556,0.04888888888888889,-0.00683059654023806,-0.029474552526778955,0.07635815477475191
1592240056.28161,-9.527322620867187,0.10526104094602204,1.2568005389751429,0.6911111111111111,0.46555555555555556,0.04888888888888889,-0.00176548123407142,-0.02053448802036949,0.07658303825861024
1592240056.29161,-9.45135632183908,0.008377668308702792,1.3494548440065683,0.6916518883415436,0.46555555555555556,0.04780733442802409,-0.004009385260328517,-0.02417524614975068,0.07647565641569078
1592240056.30161,-9.560209765431225,-0.0067016275718706445,1.2497902345687761,0.6977777777777778,0.46555555555555556,0.035555555555555556,-0.0025185763237187565,-0.025820142162240833,0.06077249092002395
1592240056.31161,-9.523002211900021,-0.03302433090024331,1.2809933642999336,0.6977777777777778,0.46555555555555556,0.035555555555555556,-0.008945777539923712,-0.021486712325685053,0.04897661316804852
1592240056.32161,-9.62232807600726,-0.1124296862107174,1.2502812551571303,0.6977777777777778,0.46555555555555556,0.035555555555555556,-0.0130592892116441,-0.009644479926362446,0.041777967742537836
1592240056.33161,-9.826425015179113,-0.10607083586318558,1.2538279700465493,0.6977777777777778,0.46555555555555556,0.035555555555555556,-0.016145399437234226,-0.0004286053189918274,0.03686566502323349
1592240056.34161,-9.50257059331606,-0.046071689588731646,1.3790007308484484,0.6989126230076997,0.4665158092116434,0.036079330277058,-0.014157499255799047,-0.006459282256582479,0.04181768040510524
1592240056.35161,-9.65,0.0,1.25,0.7122222222222222,0.4777777777777778,0.042222222222222223,-0.001090830782496456,-0.00545415391248228,0.05890486225480862
1592240056.36161,-9.507690941385436,-0.1816573302363711,1.4413034567563874,0.7122222222222222,0.4777777777777778,0.042222222222222223,0.0015770023923479986,0.0186538174486233,0.06515936611974424
1592240056.37161,-9.786160987837713,-0.08647943552130721,1.0815590474422059,0.7122222222222222,0.4777777777777778,0.042222222222222223,0.020725784867432664,0.02950911969211533,0.07090400086226964
1592240056.38161,-9.559420366383687,-0.18707746049798935,1.2758938218449165,0.7122222222222222,0.4777777777777778,0.042222222222222223,0.02264921653680068,0.03497247176857468,0.07090400086226964
1592240056.39161,-9.52281923615873,-0.08951104618228437,1.2149622849646702,0.7124519576372532,0.4775480423627468,0.041946539724184995,0.031137899816557256,0.02432226446202944,0.07000183199710605
1592240056.40161,-9.822362951698167,-0.2674668694329785,1.278015062640307,0.7177777777777777,0.4722222222222222,0.035555555555555556,0.022212534534849986,0.0001010335701942906,0.048314111077366384
1592240056.41161,-9.747475117263471,-0.0969900469053884,1.1170735613774168,0.7177777777777777,0.4722222222222222,0.035555555555555556,0.029514454110918867,-0.01943977511870529,0.0442716811663783
1592240056.4216099,-9.551523741179285,-0.04108838655663198,1.1645224255471833,0.7177777777777777,0.4722222222222222,0.035555555555555556,0.027517429612332195,-0.015271630954950384,0.04328238066712418
1592240056.4316099,-9.744410506181847,-0.22288210123636937,1.2445938911127323,0.7177777777777777,0.4722222222222222,0.035555555555555556,0.035712560419377884,-0.014524721718829332,0.05853140763674809
1592240056.4416099,-9.330877487034883,-0.14017549740697652,1.170157947666279,0.7177777777777777,0.4722222222222222,0.035555555555555556,0.05014758591903244,-0.01091596534391569,0.05672702944929127
1592240056.4516098,-9.614493211662586,-0.2678230580903628,1.279522813265079,0.7055555555555556,0.4666666666666667,0.042222222222222223,0.05691621437156169,0.0012762453092252666,0.06042617424372494
1592240056.4616098,-9.97674987810824,-0.26165626523647,1.1451560214529497,0.7055555555555556,0.4666666666666667,0.042222222222222223,0.06490783541861127,-0.013972898781484711,0.068548476507029
1592240056.4716098,-9.82113625681519,-0.2518645422071818,1.0254406373378455,0.7055555555555556,0.4666666666666667,0.042222222222222223,0.06178170028999656,-0.03866530100675014,0.062177354602297986
1592240056.4816098,-9.443209038072226,-0.1854726920481508,1.0639254228433357,0.7055555555555556,0.4666666666666667,0.042222222222222223,0.05830788415988397,-0.05563236990731925,0.05964564128616633
1592240056.4916098,-9.545492489426863,-0.27816917019104564,1.1409076855767828,0.7066649490382901,0.46606154294881147,0.04081026688056001,0.04879034580194568,-0.05642447500170548,0.045715879728052876
1592240056.5016098,-9.3,-0.36,1.15,0.7177777777777777,0.46,0.02666666666666667,0.04581489286485115,-0.0643590161672909,0.044724062082354694
1592240056.5116098,-9.525443277254192,-0.32440495800815533,1.2202276471064784,0.7177777777777777,0.46,0.02666666666666667,0.05204229913456202,-0.049079107729964086,0.030998935841861492
1592240056.5216098,-9.681657024245904,-0.21878019697036613,1.051219803029634,0.7177777777777777,0.46,0.02666666666666667,0.05941576012383547,-0.05661148242878098,0.04158462960419604
1592240056.5316098,-9.51214441825584,-0.1712333404756803,1.0870777801585603,0.7177777777777777,0.46,0.02666666666666667,0.0696786335041561,-0.0566486633132273,0.04693056943954375
1592240056.5416098,-9.714557624759758,-0.11376101796010338,1.07,0.7182399245955479,0.4610013181051686,0.028746327346632204,0.07443551943374237,-0.03655891643128025,0.05458498728575329
1592240056.5516098,-9.91,-0.03,1.07,0.7244444444444444,0.47444444444444445,0.056666666666666664,0.06326818538479445,-0.02945243112740431,0.06981317007977318
1592240056.5616097,-9.748499016988456,-0.04832762010384635,0.9799314412461562,0.7244444444444444,0.47444444444444445,0.056666666666666664,0.05271725565407017,-0.048004033029754305,0.07781010295144378
1592240056.5716097,-9.874485349913103,-0.016025261302719505,0.9214109122953027,0.7244444444444444,0.47444444444444445,0.056666666666666664,0.04220673768313264,-0.06104460267989701,0.07465199108200087
1592240056.5816097,-9.46,0.07,1.07,0.7244444444444444,0.47444444444444445,0.056666666666666664,0.0370882466048795,-0.06872233929727672,0.07635815477475191
1592240056.5916097,-9.463763453648095,0.010779568293988226,1.0727284890289588,0.7240979696471164,0.47340502005246016,0.0561036451210085,0.03612497238620413,-0.06557740351360844,0.07173971851712391
1592240056.6016097,-9.31,0.03,1.14,0.7155555555555555,0.4477777777777778,0.042222222222222223,0.039269908169872414,-0.06872233929727672,0.06544984694978735
1592240056.6116097,-9.689868901908463,-0.1734871512268693,1.1419087534079702,0.7155555555555555,0.4477777777777778,0.042222222222222223,0.03568166400356192,-0.04603740614558952,0.0644236535386187
1592240056.6216097,-9.56,-0.09,0.91,0.7155555555555555,0.4477777777777778,0.042222222222222223,0.031634092692397225,-0.03490658503988659,0.05126904677733343
1592240056.6316097,-9.416547313024997,-0.15784070438214756,1.0271940087035725,0.7155555555555555,0.4477777777777778,0.042222222222222223,0.01029613548865251,-0.03992113889408521,0.04523420569594807
1592240056.6416097,-9.475974698917113,-0.0474755591539318,1.0017251290355227,0.7155555555555555,0.4477777777777778,0.042222222222222223,0.004739687901131145,-0.026030019925281787,0.0498645786855492
1592240056.6516097,-9.23781755196305,0.09625404157043879,1.1753094688221708,0.7388888888888889,0.45444444444444443,0.042222222222222223,-0.023010483335437364,-0.01240775928395276,0.017211697434397315
1592240056.6616096,-9.28,0.13,1.15,0.7388888888888889,0.45444444444444443,0.042222222222222223,-0.02945243112740431,-0.008726646259971648,-0.007635815477475192
1592240056.6716096,-9.513406802721088,0.264945850340136,1.1117575510204083,0.7388888888888889,0.45444444444444443,0.042222222222222223,-0.04362120989939808,-0.02065386424196358,-0.033587970980522706
1592240056.6816096,-9.455279512312623,-0.06742111211992069,1.3988322926124257,0.7388888888888889,0.45444444444444443,0.042222222222222223,-0.0593666699910735,-0.02009676182120108,-0.04812393154617552
1592240056.6916096,-9.649571605921919,0.05692582779002761,1.282257036446849,0.7388888888888889,0.45444444444444443,0.042222222222222223,-0.06190994754912991,-0.022640039379257494,-0.06084031933645759
1592240056.7016096,-9.39,0.03,1.29,0.7122222222222222,0.44,0.042222222222222223,-0.07308566242726255,-0.0370882466048795,-0.06763150851478027
1592240056.7116096,-9.444011657307108,-0.3755417454022836,1.2532504724137012,0.7122222222222222,0.44,0.042222222222222223,-0.09557626302956851,-0.01729358581208092,-0.09601386695751063
1592240056.7216096,-9.616042702754399,-0.34557431140015304,0.8923402830910482,0.7122222222222222,0.44,0.042222222222222223,-0.09315229067729772,0.005676941702843908,-0.11447223717575686
1592240056.7316096,-9.44,-0.53,1.06,0.7122222222222222,0.44,0.042222222222222223,-0.11235557059713495,0.02945243112740431,-0.12544553998709243
1592240056.7416096,-9.161927651139743,-0.27046580773042617,0.9858473736372646,0.7122222222222222,0.44,0.042222222222222223,-0.10831117222516348,0.03248572990638293,-0.14870083062592857
1592240056.7516096,-9.8,-0.52,1.13,0.7644444444444445,0.4477777777777778,0.04888888888888889,-0.1308996938995747,0.0272707695624114,-0.17998707911191522
1592240056.7616096,-9.628785973397823,-0.4960532043530834,1.1350665054413542,0.7644444444444445,0.4477777777777778,0.04888888888888889,-0.10766935100335819,0.009103358801061112,-0.19640335692666056
1592240056.7716095,-9.237463107279059,-0.41812895279152945,1.0431184120141175,0.7644444444444445,0.4477777777777778,0.04888888888888889,-0.10144726277217041,0.016702627719197456,-0.19839283638076025
1592240056.7816095,-9.482339683602907,-0.39,1.1044071002186806,0.7644444444444445,0.4477777777777778,0.04888888888888889,-0.10124447943791172,0.02136035314784708,-0.21352313592384362
1592240056.7916095,-9.168339407789752,-0.39,1.3605652199609921,0.7644444444444445,0.4477777777777778,0.04888888888888889,-0.09763899347402363,0.013248009729098884,-0.227945079779396
1592240056.8016095,-10.1,-0.53,1.32,0.7388888888888889,0.4488888888888889,0.057777777777777775,-0.08072147790473774,0.017453292519943295,-0.2530727415391778
1592240056.8116095,-9.947595297470608,-0.43951905949412184,1.4282686141788385,0.7388888888888889,0.4488888888888889,0.057777777777777775,-0.0543421817356455,-0.0010383683116603243,-0.2419965538075376
1592240056.8216095,-9.695851444094938,-0.4024456677151845,1.2375543322848155,0.7388888888888889,0.4488888888888889,0.057777777777777775,-0.030798839267957796,0.004212477380514207,-0.22139253470589434
1592240056.8316095,-9.67,-0.48,1.16,0.7388888888888889,0.4488888888888889,0.057777777777777775,-0.011999138607461015,0.0032724923474893677,-0.20071286397934787
1592240056.8416095,-9.74214173167826,-0.5882125975173897,1.1509822835402175,0.7388888888888889,0.4488888888888889,0.057777777777777775,-0.007080737256383167,0.012125614779429495,-0.1741534966835275
1592240056.8516095,-9.825672295040428,-0.502289972587593,1.084579945175186,0.7622222222222222,0.45666666666666667,0.057777777777777775,0.006544984694978735,0.029864932063237665,-0.12796864055769594
1592240056.8616095,-9.876247597807778,-0.6181237989038886,1.308117393057961,0.7622222222222222,0.45666666666666667,0.057777777777777775,0.0066132052919718,0.032724224705501105,-0.0873332856579244
1592240056.8716094,-9.821137134701328,-0.58829429794801,1.1356856735066332,0.7622222222222222,0.45666666666666667,0.057777777777777775,0.007821878707882996,0.016238419583841635,-0.05408184298725421
1592240056.8816094,-9.834533396308103,-0.5628940843074743,1.235466603691896,0.7622222222222222,0.45666666666666667,0.057777777777777775,0.01090830782496456,0.01449649579742722,-0.027519745344979075
1592240056.8916094,-9.694211634588893,-0.6371820758058803,1.3757883654111072,0.7622222222222222,0.45666666666666667,0.057777777777777775,0.01090830782496456,0.02260005858705684,-0.0059102445726334114
1592240056.9016094,-9.783319187421732,-0.6842514261861695,1.2460734659802422,0.7622222222222222,0.4477777777777778,0.07222222222222222,0.0231724513783333,0.028626605290815576,0.02307538914299081
1592240056.9116094,-9.685724976613658,-0.7466323666978485,1.3379794200187092,0.7622222222222222,0.4477777777777778,0.07222222222222222,0.027932002815037875,0.03235757166787897,0.043240368950689737
1592240056.9216094,-9.847516414970453,-0.6472242284963887,1.2788312541037425,0.7622222222222222,0.4477777777777778,0.07222222222222222,0.04704915034740993,0.02157757114982525,0.0635550387849191
1592240056.9316094,-9.680310946440295,-0.4603475283744489,1.20014632773661,0.7622222222222222,0.4477777777777778,0.07222222222222222,0.05670524357488013,0.005484082437374898,0.08286722523985951
1592240056.9416094,-9.418899608255861,-0.38656551482196105,1.102087353095948,0.7622222222222222,0.4477777777777778,0.07222222222222222,0.06206350715174802,-0.007896612242348486,0.09447380347058398
1592240056.9516094,-9.6183247264372,-0.5694016880132856,1.1889230384239142,0.7688888888888888,0.4622222222222222,0.057777777777777775,0.05567152933527792,-0.020869369436614466,0.0848890038949302
1592240056.9616094,-9.484739176922902,-0.5216925631867507,1.1030466137361512,0.7688888888888888,0.4622222222222222,0.057777777777777775,0.05879408425328295,-0.03231873746929953,0.06927622930490511
1592240056.9716094,-9.499448116722352,-0.47137970819412056,0.9833112996658895,0.7688888888888888,0.4622222222222222,0.057777777777777775,0.04829756006364593,-0.03590711413224248,0.04114335360025374
1592240056.9816093,-9.529847816013461,-0.5296956320269249,1.129239080067312,0.7688888888888888,0.4622222222222222,0.057777777777777775,0.042570068346881484,-0.04359449633853066,0.028422469569851196
1592240056.9916093,-9.572206872838333,-0.5806482474059991,1.2397378693796646,0.7688888888888888,0.4622222222222222,0.057777777777777775,0.03333428929236844,-0.044554042422357575,0.016391055752416506
1592240057.0016093,-9.638191552647234,-0.4348225262740432,1.395780289510212,0.7559574327450591,0.42881596051732873,0.07178685526692664,0.03374999725602608,-0.03626044382783926,0.002543325072495207
1592240057.0116093,-9.67821717384191,-0.26757701117187865,1.0655997288832797,0.7555555555555555,0.42777777777777776,0.07222222222222222,0.053617777339608146,-0.03912405104589115,0.008434932012009125
1592240057.0216093,-9.480244976603359,-0.3997754381135884,1.0097958528305349,0.7555555555555555,0.42777777777777776,0.07222222222222222,0.03599073512188468,-0.03274273867622264,0.007609092675481747
1592240057.0316093,-9.595695017891549,-0.2939462335994128,0.9135874850903754,0.7555555555555555,0.42777777777777776,0.07222222222222222,0.03284232364994353,-0.041138502601399056,-0.004984553212282871
1592240057.0416093,-9.502176730664406,-0.37151939111299537,1.1301023560050876,0.7555555555555555,0.42777777777777776,0.07222222222222222,0.018497105683465936,-0.05123319446647189,-0.03124207365944506
1592240057.0516093,-9.519429890050224,-0.34551106284783495,1.0351309895479843,0.7688888888888888,0.44555555555555554,0.08666666666666667,0.011563813169624775,-0.0533470594285558,-0.050572081867165
1592240057.0616093,-9.49096307859373,-0.6206902402606217,1.291332292656441,0.7688888888888888,0.44555555555555554,0.08666666666666667,-0.010172918781762623,-0.048171647059177855,-0.07023864887080122
1592240057.0716093,-9.632329305984827,-0.4971593144141613,1.2905113796010115,0.7688888888888888,0.44555555555555554,0.08666666666666667,0.004617410996996096,-0.04592645858691598,-0.07607924046958985
1592240057.0816092,-9.828342018000948,-0.3769947891994315,1.1581605873993368,0.7688888888888888,0.44555555555555554,0.08666666666666667,0.0013451684950235784,-0.03656967567556907,-0.06094945945928179
1592240057.0916092,-9.600395679087267,-0.5536966460330947,1.3257098353360037,0.7688888888888888,0.44555555555555554,0.08666666666666667,0.0071894120561476985,-0.033383738133675366,-0.05476833765988972
1592240057.1016092,-9.591160665326266,-0.5502031164320965,1.2994486839700239,0.7477777777777778,0.4266666666666667,0.08,0.022923272550751415,-0.032724923474893676,-0.056701044124159536
1592240057.1116092,-9.974481813196856,-0.6172843173094498,1.1173711387314933,0.7477777777777778,0.4266666666666667,0.08,0.02815000389674036,-0.032724923474893676,-0.04938362023977501
1592240057.1216092,-9.55018396247894,-0.5558601611948455,1.1374885023450663,0.7477777777777778,0.4266666666666667,0.08,0.028361600344907853,-0.039721494530196015,-0.034094732950978375
1592240057.1316092,-9.658134814062084,-0.7259100916987249,1.177033703515521,0.7477777777777778,0.4266666666666667,0.08,0.031391413128751176,-0.05449986527697101,-0.03575473625873699
1592240057.1416092,-9.549070743988025,-0.43011878146931315,1.1875580785007485,0.7477777777777778,0.4266666666666667,0.08,0.0390542189090242,-0.05893020378137569,-0.026928372668727853
1592240057.1516092,-9.67,-0.44,1.51,0.76,0.44555555555555554,0.09333333333333334,0.038179077387375956,-0.04145156973486533,0.00545415391248228
1592240057.1616092,-9.555312450055936,-0.15328112513984338,1.3523046188269139,0.76,0.44555555555555554,0.09333333333333334,0.04208859957012856,-0.025813481003854923,0.0179646248972906
1592240057.1716092,-9.46,-0.48,1.44,0.76,0.44555555555555554,0.09333333333333334,0.02399827721492203,-0.02181661564992912,0.01854412330243975
1592240057.1816092,-9.50695704681776,-0.29999798719858295,1.3069550340163438,0.76,0.44555555555555554,0.09333333333333334,0.032535309235578846,-0.013279583629272302,0.010007091281782933
1592240057.1916091,-9.476315275647028,-0.22815763782351417,1.1753497639018946,0.76,0.44555555555555554,0.09333333333333334,0.019816581724340143,-0.008525675722509857,0.013989501084021064
1592240057.2016091,-9.590099929497594,-0.3414266008644208,1.4001998589951874,0.754217780911218,0.4397733364667736,0.10007925560357893,0.006611893084635586,-0.013312495793338947,0.0002785341758328626
1592240057.2116091,-9.49247290119451,-0.5860136515490182,1.5304054606196074,0.7533333333333333,0.4388888888888889,0.10111111111111111,0.010385006879964217,-0.034890382635878056,-0.011057196906460398
1592240057.221609,-9.645333501478916,-0.30543828674936374,1.1745259440992366,0.7533333333333333,0.4388888888888889,0.10111111111111111,0.004263801985291503,-0.03993589196473939,-0.02813579564666701
1592240057.231609,-9.592048986607463,-0.26,1.249918355654229,0.7533333333333333,0.4388888888888889,0.10111111111111111,0.013665214728479438,-0.03469198129001065,-0.022984918360089805
1592240057.241609,-9.667541911779468,-0.2818854779448672,1.2408193627401771,0.7533333333333333,0.4388888888888889,0.10111111111111111,0.0033349544389961808,-0.01471707183186341,-0.010675717568371865
1592240057.251609,-9.572533130372493,-0.1370397564469914,1.3234757043935053,0.7589985275390003,0.43416789371749975,0.10677630531677809,-0.01128744835929393,-0.013197606883001086,-0.010252845631995999
1592240057.261609,-9.750077775159085,-0.12739806740513787,1.479184539241103,0.76,0.43333333333333335,0.10777777777777778,-0.015936721512178363,-0.01607863492060119,-0.009959390450890927
1592240057.271609,-9.513957022690324,-0.1986562522089489,1.2597031172686788,0.76,0.43333333333333335,0.10777777777777778,-0.024787851485987535,-0.013553998487933273,-0.0023282417104319286
1592240057.281609,-9.584458495698845,-0.18358650099257406,1.4048944930519813,0.76,0.43333333333333335,0.10777777777777778,-0.04346753345435882,-0.025575454432611378,-0.02318053508873029
1592240057.291609,-9.822470376394053,-0.26611756505576206,1.4012941449814125,0.76,0.43333333333333335,0.10777777777777778,-0.02937544696146953,-0.03588190789275415,-0.02148295423609162
1592240057.301609,-9.652623588945115,-0.3798754379135851,1.540875827170105,0.76,0.42051381860646164,0.12256952553955279,-0.044206034229242325,-0.012162614610287458,-0.006081307305143729
1592240057.311609,-9.574011379120748,-0.3164182065931964,1.3760455164829912,0.76,0.41888888888888887,0.12444444444444444,-0.03185598265745334,-0.01073327839195755,0.014699682123880248
1592240057.321609,-9.69030509531445,-0.17250846249777302,1.1881355781222163,0.76,0.41888888888888887,0.12444444444444444,-0.03148063691890199,0.0003401922830500708,0.019174586764450496
1592240057.331609,-9.810047272471976,-0.07496454564601811,1.16,0.76,0.41888888888888887,0.12444444444444444,-0.03527191417630527,0.008547849161832002,0.03782406150447647
1592240057.341609,-9.721031220065294,-0.019136707524485368,1.2485371336969484,0.76,0.41888888888888887,0.12444444444444444,-0.049369897014317196,0.01650371763843518,0.06299612276631479
1592240057.351609,-9.57551097704039,-0.025769733534439412,1.3157697335344394,0.7542733925479024,0.4312965383684338,0.12444444444444444,-0.05656938386052251,0.029942107570172037,0.0936999693977342
1592240057.361609,-9.542541753411982,-0.33551931529030765,1.3374582465880176,0.7533333333333333,0.43333333333333335,0.12444444444444444,-0.05957979960780921,0.007829101709118096,0.09517954036352225
1592240057.371609,-9.567201422920968,-0.40720142292096817,1.321865718052688,0.7533333333333333,0.43333333333333335,0.12444444444444444,-0.052083119850665945,-0.02333068302325115,0.05039405390234654
1592240057.381609,-9.482712098492621,-0.45073435403677686,1.1977969378896693,0.7533333333333333,0.43333333333333335,0.12444444444444444,-0.039843087188881285,-0.03633634730298351,0.030580280080248292
1592240057.391609,-9.552933776238604,-0.5316964685372347,1.0878443706268994,0.7533333333333333,0.43333333333333335,0.12444444444444444,-0.028411687022295788,-0.03235481145450321,0.009162135657106543
1592240057.401609,-9.465590935972859,-0.665207769166122,1.492827839511937,0.7511998561265533,0.43866702635028343,0.1159105356173243,-0.024128965037682602,-0.027314332169998255,-0.011302136886071304
1592240057.411609,-9.69896271376507,-0.5786319035604149,1.3061788617886179,0.7511111111111111,0.4388888888888889,0.11555555555555555,-0.010964883012730705,-0.0272707695624114,-0.01429914934902419
1592240057.421609,-9.750100455301006,-0.5233668184336682,1.303165907831659,0.7511111111111111,0.4388888888888889,0.11555555555555555,0.0027106399960510333,-0.02636357023924103,-0.011642833662268912
1592240057.431609,-9.460859169485156,-0.5610501221345359,1.221479706877114,0.7511111111111111,0.4388888888888889,0.11555555555555555,0.021379243132830354,-0.020806490357964037,-0.007326008876997289
1592240057.441609,-9.613437229110918,-0.5247254362491991,1.2970169223231447,0.7511111111111111,0.4388888888888889,0.11555555555555555,0.034260958589491824,-0.009757576524241843,-0.012189200443946942
1592240057.451609,-9.753029350451673,-0.3848532477416366,1.1043535951821581,0.7417287831493186,0.4295065609270963,0.13261433366790568,0.0493183579193057,-0.015249143691871886,-0.019458485017214255
1592240057.461609,-9.430910385938766,-0.5260246772885664,1.2060246772885665,0.7388888888888889,0.4266666666666667,0.13777777777777778,0.04234180087467998,-0.03774543694897706,-0.03241354100010754
1592240057.4716089,-9.406021612675541,-0.6104086450702169,1.3056129676053254,0.7388888888888889,0.4266666666666667,0.13777777777777778,0.04341624393194762,-0.06021857434815906,-0.05341202602309891
1592240057.4816089,-9.813048055575448,-0.62,1.365965766669054,0.7388888888888889,0.4266666666666667,0.13777777777777778,0.04555974330274892,-0.05792871596623931,-0.06976871811993357
1592240057.4916089,-9.76750879120879,-0.49283296703296703,1.3941296703296702,0.7388888888888889,0.4266666666666667,0.13777777777777778,0.05583339443723646,-0.023264903288843647,-0.06075519895355755
1592240057.5016088,-9.649914445060881,-0.7488609221245657,1.608689812246328,0.7388888888888889,0.4266666666666667,0.14241532916102953,0.06363801737637229,0.0029306581442671304,-0.028314937364315184
1592240057.5116088,-9.680264724559455,-0.48213010001587553,1.3796511351008096,0.7388888888888889,0.4266666666666667,0.14333333333333334,0.0643590161672909,0.006709068226716375,-0.037338961046117676
1592240057.5216088,-9.552039872869113,-0.4430915920254262,1.195043821631513,0.7388888888888889,0.4266666666666667,0.14333333333333334,0.09389749086696378,0.008456328663577217,-0.039791422568823814
1592240057.5316088,-9.5652547483442,-0.2816083807952993,1.21631368708605,0.7388888888888889,0.4266666666666667,0.14333333333333334,0.09562096191489808,0.02474257110450212,-0.038867793809827335
1592240057.5416088,-9.572926214342354,-0.23707378565764592,1.1775572860541244,0.7388888888888889,0.4266666666666667,0.14333333333333334,0.09458307760910942,0.02681833971607943,-0.0446713203707719
1592240057.5516088,-9.528122815017479,-0.2818771849825201,1.3693859249126006,0.7388888888888889,0.4266666666666667,0.15729239499417338,0.0748026721933699,0.02435270188138569,-0.060610000386316996
1592240057.5616088,-9.596793953858393,-0.3174264120922832,1.3825735879077168,0.7388888888888889,0.4266666666666667,0.16,0.06013367401933924,0.009637841424348162,-0.07164510626262921
1592240057.5716088,-9.549932121270267,-0.3693514343279286,1.2866214141801784,0.7388888888888889,0.4266666666666667,0.16,0.03846206754720234,-0.010986459785708034,-0.08414286975292717
1592240057.5816088,-9.666194747883962,-0.439502761098652,1.3418162965106466,0.7388888888888889,0.4266666666666667,0.16,0.045174556861130026,-0.013369457129329649,-0.07725085834285296
1592240057.5916088,-9.774572595790818,-0.3326639431547561,1.2911729171910395,0.7388888888888889,0.4266666666666667,0.16,0.04511875405438308,-0.003829830021390101,-0.0675621079464966
1592240057.6016088,-9.71412320172381,-0.3116350846061221,1.3016350846061222,0.7464981585933484,0.4266666666666667,0.16,0.043289438823696576,-0.0067827981110246075,-0.05056853417710296
1592240057.6116087,-9.499135381114902,-0.5405802047781569,1.33,0.75,0.4266666666666667,0.16,0.035529562346841334,-0.01414977540617132,-0.02932709107162258
1592240057.6216087,-9.593770192376118,-0.5587432692079607,1.3080328296605546,0.75,0.4266666666666667,0.16,0.016749946401153563,-0.000894151588584283,-0.024797026068609035
1592240057.6316087,-9.672242242484339,-0.384304302609621,1.1813747067501874,0.75,0.4266666666666667,0.16,0.008482055547597723,0.016494584516820007,-0.02347160647917393
1592240057.6416087,-9.535090227597665,-0.3843411646508752,1.24264442211832,0.75,0.4266666666666667,0.16,-0.009488655568135447,0.011504915842873092,-0.019614278923654298
1592240057.6516087,-9.561577313432837,-0.3624107462686567,1.4507737313432836,0.733647495854063,0.4266666666666667,0.16426587064676618,-0.02840380084323966,-0.0036198649680168954,-0.021641301234019836
1592240057.6616087,-9.601130006280497,-0.33721749842987586,1.5155650031402483,0.7244444444444444,0.4266666666666667,0.16666666666666666,-0.043747220718793445,0.0022956509839281176,-0.025572891106907712
1592240057.6716087,-9.782913077939234,-0.5972174372523118,1.5823424042272127,0.7244444444444444,0.4266666666666667,0.16666666666666666,-0.05413425720624314,0.0188203902477769,-0.01565816259180223
1592240057.6816087,-9.712380250259026,-0.5188563003108313,1.5731154857734917,0.7244444444444444,0.4266666666666667,0.16666666666666666,-0.05086682085757414,0.02035029286539216,-0.006124936163406915
1592240057.6916087,-9.600742955626156,-0.19800245021698953,1.4255055129882266,0.7244444444444444,0.4266666666666667,0.16666666666666666,-0.038015653227910194,0.027188389289649513,0.013934995740226275
1592240057.7016087,-9.687373313817794,-0.25050674472882634,1.34,0.7194162919595096,0.4208004887675761,0.17085679373744567,-0.03902023267212628,0.045870170139758304,0.025394060770071773
1592240057.7116086,-9.639325756116355,-0.3432710460412252,1.2179772683490657,0.7177777777777777,0.41888888888888887,0.17222222222222222,-0.0457835821758525,0.04366454198885688,0.030228684047947926
1592240057.7216086,-9.582648915291996,-0.3905956611679839,0.9597337293799396,0.7177777777777777,0.41888888888888887,0.17222222222222222,-0.06438806178617454,0.02987133606907271,0.02980635951527525
1592240057.7316086,-9.600270763244295,-0.4124332211908719,0.9686498317863078,0.7177777777777777,0.41888888888888887,0.17222222222222222,-0.07314473380359165,0.017099262197887072,0.02261248748669845
1592240057.7416086,-9.719002741156507,-0.4125318713831963,1.1112021929252056,0.7177777777777777,0.41888888888888887,0.17222222222222222,-0.08998658629878337,-0.011410508604218574,0.0018831224003102026
1592240057.7516086,-9.590653898356205,-0.42908973005579853,1.2792179158497965,0.7224529901640443,0.41888888888888887,0.1932606779604216,-0.10090883883142077,-0.03373044211083567,-0.0057800048571314995
1592240057.7616086,-9.448043218720153,-0.4871740687679083,1.3630436166825852,0.7244444444444444,0.41888888888888887,0.20222222222222222,-0.09938415655845885,-0.04197328273805071,-0.00545415391248228
1592240057.7716086,-9.651554316652819,-0.6128885791632046,1.3735557104183977,0.7244444444444444,0.41888888888888887,0.20222222222222222,-0.07979554796689753,-0.04183943757266848,-0.014200155555284148
1592240057.7816086,-9.710927187008906,-0.594702018777451,1.2958278599347222,0.7244444444444444,0.41888888888888887,0.20222222222222222,-0.06388223648007088,-0.03336064437618095,-0.01704152225075577
1592240057.7916086,-9.682520566954109,-0.6775617008623253,1.3055452472990385,0.7244444444444444,0.41888888888888887,0.20222222222222222,-0.04404117108996223,-0.030983183833562335,-0.005477162019382394
1592240057.8016086,-9.333441126838173,-0.4482260564107862,1.2365054929917,0.7189366823171968,0.41888888888888887,0.20222222222222222,-0.04415518614684676,-0.031159058933928105,0.0003078985120136702
1592240057.8116086,-9.291173261754265,-0.3317629231968136,1.2045086154645424,0.7155555555555555,0.41888888888888887,0.20222222222222222,-0.047034037234499865,-0.01845869110547308,0.00025662717430451716
1592240057.8216085,-9.685649882162135,-0.791293175540407,1.3091312941891995,0.7155555555555555,0.41888888888888887,0.20222222222222222,-0.07185161190162441,-0.01911268992605261,0.002086900461057435
1592240057.8316085,-9.016798777576163,-0.5598261866106389,1.142779104192532,0.7155555555555555,0.41888888888888887,0.20222222222222222,-0.08960782654170939,-0.03522328120823624,0.0026499343533914954
1592240057.8416085,-9.38972353619271,-0.6703521882577413,1.2826660571610287,0.7155555555555555,0.41888888888888887,0.20222222222222222,-0.08751886654235319,-0.039269908169872414,0.006523586078642845
1592240057.8516085,-9.950202932795886,-0.9226395162971714,1.2922843839043714,0.7013649315449302,0.4339142554883746,0.21307387587740637,-0.0823549570117258,-0.007309149980096831,0.004629113158718367
1592240057.8616085,-9.99,-0.9154583333333333,1.2802239583333335,0.6966666666666667,0.4388888888888889,0.21666666666666667,-0.07427648603148784,0.0023305145155210743,0.007982381507330836
1592240057.8716085,-9.410996523754346,-0.6912952233809708,1.1127024591219261,0.6966666666666667,0.4388888888888889,0.21666666666666667,-0.046424842406293416,0.00031108409723569594,0.011061813431410886
1592240057.8816085,-9.188272671190623,-0.5896668723010488,1.043787785317705,0.6966666666666667,0.4388888888888889,0.21666666666666667,-0.0317498378463697,-0.009024084388203252,0.011321491107168645
1592240057.8916085,-8.97578268752938,-0.5263407427305083,1.0418716002954804,0.6966666666666667,0.4388888888888889,0.21666666666666667,-0.015564135643319757,-0.017870769158815587,-0.011465846813990179
1592240057.9016085,-9.647237025831975,-0.8919222713521062,1.2425200721433558,0.713424870064386,0.42632023634059935,0.22015795904119154,0.0006502590294076502,-0.03904432299321523,-0.015992399234960403
1592240057.9116085,-9.506026521656173,-0.8634564014501049,1.3173855180309102,0.7233333333333334,0.41888888888888887,0.2222222222222222,-0.00014340439021943638,-0.06042268012951868,-0.010766516473967477
1592240057.9216084,-9.426878007699711,-0.8222858517805582,1.272204042348412,0.7233333333333334,0.41888888888888887,0.2222222222222222,0.008377165704896088,-0.07249129613588545,-0.011876695739310246
1592240057.9316084,-9.743446689445506,-0.8458252845112864,1.228203879577067,0.7233333333333334,0.41888888888888887,0.2222222222222222,0.05076599502875877,-0.09117439491337692,-0.012269197658297261
1592240057.9416084,-9.709284644119938,-0.8182648474799736,1.4310705367666154,0.7233333333333334,0.41888888888888887,0.2222222222222222,0.07251230020370542,-0.08102199623953085,-0.018844641637232866
1592240057.9516084,-9.666828939383723,-0.6927368350077541,1.3956907828197695,0.7139777043579889,0.41457090628488374,0.22797953236089571,0.10723548407148425,-0.07410257473248782,-0.016870917890059473
1592240057.9616084,-9.332676858874041,-0.5018289795754585,1.2866012599815417,0.7088888888888889,0.4122222222222222,0.2311111111111111,0.1134249970919768,-0.07131755446096257,-0.01455154519583762
1592240057.9716084,-9.55229816913688,-0.7944986922406277,1.5212992900734836,0.7088888888888889,0.4122222222222222,0.2311111111111111,0.11472811735946346,-0.07220210172096196,-0.01457895544598539
1592240057.9816084,-9.549619198540181,-0.6044382818314966,1.378247737040505,0.7088888888888889,0.4122222222222222,0.2311111111111111,0.09813530052170084,-0.05694760555294398,-0.017754568096573147
1592240057.9916084,-9.342002787605875,-0.40763053500589685,1.2872638576176691,0.7088888888888889,0.4122222222222222,0.2311111111111111,0.09210520409904378,-0.049642800178146845,-0.01588704336810535
1592240058.0016084,-9.374967063941911,-0.5659180734703881,1.5118361469407764,0.7126757696144013,0.41727139652290546,0.2468897808007462,0.09515444016101579,-0.0016729592352530756,-0.008500418937850305
1592240058.0116084,-9.492667545253692,-0.5966688631342301,1.5098685995581225,0.7155555555555555,0.4211111111111111,0.2588888888888889,0.08834295981752956,0.024565192953195314,-0.01844235076499764
1592240058.0216084,-9.700513093148043,-0.7410575900694839,1.4787923147301008,0.7155555555555555,0.4211111111111111,0.2588888888888889,0.11046060917277048,-0.005052088591548273,-0.022409814397948754
1592240058.0316083,-9.688925275240104,-0.7495305692199579,1.4420815179198876,0.7155555555555555,0.4211111111111111,0.2588888888888889,0.11884934833760157,-0.004744002375655353,-0.01990580923355327
1592240058.0416083,-9.607863902304944,-0.7542721953901127,1.55,0.7155555555555555,0.4211111111111111,0.2588888888888889,0.13154563859723983,-0.0022981676210022716,-0.011607344161020716
1592240058.0516083,-9.625292909937038,-0.6346865589926088,1.3758376676704078,0.6930661252547373,0.4279102412020561,0.25575082884691425,0.13821375460887583,0.0004495608385021667,-0.008471034119315483
1592240058.0616083,-9.637506618722092,-0.5653182913818311,1.2139190737740546,0.6677777777777778,0.43555555555555553,0.25222222222222224,0.1341721862470641,0.002181661564992912,-0.01308996938995747
1592240058.0716083,-9.83503828997241,-0.677491297733543,1.4874982595467086,0.6677777777777778,0.43555555555555553,0.25222222222222224,0.11643384552132933,0.00627512480939324,-0.012544174290704094
1592240058.0816083,-9.954000979810742,-0.6504543227702859,1.4820908645540571,0.6677777777777778,0.43555555555555553,0.25222222222222224,0.07809325159917045,0.015122954176045289,-0.01136446370848382
1592240058.0916083,-9.957664774129844,-0.47595099975314736,1.4217890644285363,0.6677777777777778,0.43555555555555553,0.25222222222222224,0.06673172795202739,0.022007665869672694,-0.006290251068653964
1592240058.1016083,-9.463395162654338,-0.2870254270733495,1.488180075548289,0.6743433375304605,0.4277962576660214,0.26356273452231055,0.060437572677167345,0.030362881536384268,0.0007482126233214121
1592240058.1116083,-9.139030083635003,-0.23619398327299962,1.5692909749094994,0.68,0.4211111111111111,0.2733333333333333,0.05123037545761941,0.034530084339149766,0.0012644886102263038
1592240058.1216083,-9.619769193391642,-0.09093159486016629,1.3430255911888564,0.68,0.4211111111111111,0.2733333333333333,0.02853966571964482,0.0322429072488197,-0.005048581826116776
1592240058.1316082,-9.605235678027556,-0.07472081218274111,1.3015663524292966,0.68,0.4211111111111111,0.2733333333333333,0.014700507078980522,0.03180732832790609,0.0017228639914991161
1592240058.1416082,-9.811352500328702,-0.30809374589122146,1.3827050006574046,0.68,0.4211111111111111,0.2733333333333333,-0.016273013326435274,0.02116838956499817,0.0030064657932008317
1592240058.1516082,-9.706614483940873,-0.49669275802956303,1.4689497687356472,0.6776941847886636,0.4239933801252817,0.2762156023475039,-0.03806451492818632,0.015189563729796365,0.010949341437541569
1592240058.1616082,-9.610171483010479,-0.5105144490314386,1.5385487456335345,0.6755555555555556,0.4266666666666667,0.2788888888888889,-0.050266722588970934,0.013197181878742054,0.012535201051383933
1592240058.1716082,-9.448571580204325,-0.24510202998540534,1.3520405997081066,0.6755555555555556,0.4266666666666667,0.2788888888888889,-0.0788959681759618,0.024198612622794075,0.014114021703163246
1592240058.1816082,-9.379707344909107,-0.2538045161816255,1.4470734490910573,0.6755555555555556,0.4266666666666667,0.2788888888888889,-0.09626446046421962,0.03365613566648925,0.011195621288586149
1592240058.1916082,-9.511924755861573,-0.6459326762971964,1.3299603978218801,0.6755555555555556,0.4266666666666667,0.2788888888888889,-0.12631237271097176,0.030757540131654833,0.024437633477166903
1592240058.2016082,-9.585303495336571,-0.7362525701004201,1.3044032897285378,0.6689834818280243,0.43526091692574603,0.2788888888888889,-0.1434933464976749,0.04204608372550451,0.015271630954950384
1592240058.2116082,-9.452543138203517,-0.6185095145944203,1.145524109014675,0.6611111111111111,0.44555555555555554,0.2788888888888889,-0.14400606709060745,0.04053972948957096,0.016183471200244753
1592240058.2216082,-9.9346095344092,-0.7570413652383603,1.2913170098312001,0.6611111111111111,0.44555555555555554,0.2788888888888889,-0.17436052901566612,0.0186446877429704,0.026237404174503886
1592240058.2316082,-9.890550410540387,-0.5455174718350201,1.179103494367004,0.6611111111111111,0.44555555555555554,0.2788888888888889,-0.19237739209583765,-0.008109682200824331,0.022410927838235024
1592240058.2416081,-10.15,-0.5,1.17,0.6611111111111111,0.44555555555555554,0.2788888888888889,-0.19634954084936207,-0.02399827721492203,0.022907446432425576
1592240058.2516081,-9.470457056755398,-0.49887493721747866,1.277292817679558,0.6562615101289134,0.44070595457335787,0.2846202355042134,-0.21449590265100202,-0.03357304303858254,0.01878683452124735
1592240058.2616081,-9.670663053561837,-0.7993369464381622,1.4572960304672622,0.6488888888888888,0.43333333333333335,0.29333333333333333,-0.20209865208196864,-0.028433928268477515,0.017047020501541704
1592240058.271608,-9.427537595341786,-0.6904605278987512,1.4295996246481077,0.6488888888888888,0.43333333333333335,0.29333333333333333,-0.17322044272525,-0.017272034191608547,0.026132983791587277
1592240058.281608,-9.304584450402144,-0.5253594930538631,1.3640336339263954,0.6488888888888888,0.43333333333333335,0.29333333333333333,-0.15289709554319078,-0.014873901768839076,0.03152562109618505
1592240058.291608,-9.591759901522108,-0.36164305672248387,1.2006338537290686,0.6488888888888888,0.43333333333333335,0.29333333333333333,-0.15855712129479388,-0.00017922968502730955,0.02758828467929234
1592240058.301608,-9.500648499810103,-0.4255541840739334,1.3101886314723383,0.6523335935631795,0.43333333333333335,0.30116220759308493,-0.16295056432352964,0.010373180684545041,0.022183229527613948
1592240058.311608,-9.82008570160895,-0.6705471358849217,1.4276071270111856,0.6611111111111111,0.43333333333333335,0.3211111111111111,-0.16401435445435994,0.006233628072265379,0.025240112011117644
1592240058.321608,-9.619053792843337,-0.6836231200792042,1.3679538918485692,0.6611111111111111,0.43333333333333335,0.3211111111111111,-0.1519174846688043,-0.0023704522774790973,0.03011363575568949
1592240058.331608,-9.393903168424037,-0.7154193199102838,1.3592902627033436,0.6611111111111111,0.43333333333333335,0.3211111111111111,-0.13384492857566468,0.008058069833070444,0.02030353051183741
1592240058.341608,-9.594049268668206,-0.865981726834407,1.3110123171670516,0.6611111111111111,0.43333333333333335,0.3211111111111111,-0.11702339024979042,0.00915829809082338,0.01780797494891838
1592240058.351608,-9.791330998248686,-1.036507168511977,1.4078642880465433,0.6561669321671102,0.43558068739878825,0.3152679905409283,-0.10169114467587081,0.00486484819722105,0.010075120206002916
1592240058.361608,-9.435939389054566,-0.8392617071008301,1.392030305472717,0.6488888888888888,0.4388888888888889,0.30666666666666664,-0.07672056345416275,-0.015030025168676485,0.01496962372210801
1592240058.371608,-9.50696154937571,-0.7459347805524026,1.325327752553916,0.6488888888888888,0.4388888888888889,0.30666666666666664,-0.08691987722340115,-0.008079262128579442,-0.001998153946125153
1592240058.381608,-9.80788932581608,-0.7230975505756385,1.2597147865636993,0.6488888888888888,0.4388888888888889,0.30666666666666664,-0.06749336521248184,-0.0239366734676943,0.002965093783302656
1592240058.391608,-9.564796364860316,-0.7936530909906878,1.5834690900931223,0.6488888888888888,0.4388888888888889,0.30666666666666664,-0.05850637184441835,-0.025559990016453055,0.00888360693298317
1592240058.401608,-9.397145646231941,-0.7428543537680594,1.6368645060523233,0.6496750401318929,0.43829927545663583,0.30823896915267474,-0.05054111635668273,-0.006997758268502255,0.0029534637430028996
1592240058.411608,-9.704664656567143,-0.716906898073246,1.4091491395793498,0.6533333333333333,0.43555555555555553,0.31555555555555553,-0.00476442284409689,-0.007503693231647006,0.00476442284409689
1592240058.421608,-9.546649819494585,-0.73267457452295,1.337128416709644,0.6533333333333333,0.43555555555555553,0.31555555555555553,0.009331638226705371,-0.00532701221220162,0.0006799268095540054
1592240058.431608,-9.13,-0.5,0.98,0.6533333333333333,0.43555555555555553,0.31555555555555553,0.022907446432425576,-0.014180800172453926,-0.001090830782496456
1592240058.441608,-9.471208114168359,-0.8034665437247218,1.211998155870827,0.6533333333333333,0.43555555555555553,0.31555555555555553,0.03129954443066006,-0.024129056210849487,-0.010733935830394621
1592240058.451608,-9.36874773249486,-0.8458042084895393,1.3653337767565608,0.6432068905282111,0.43700219024200154,0.32495868101745473,0.03343503861604477,-0.028412916486447476,-0.007152467553050592
1592240058.461608,-10.05,-0.92,1.48,0.6222222222222222,0.44,0.34444444444444444,0.03490658503988659,-0.02399827721492203,-0.017453292519943295
1592240058.471608,-9.40771760952669,-0.43565220978520947,1.2023912983691316,0.6222222222222222,0.44,0.34444444444444444,0.03621083597547784,-0.025456668261084132,-0.008833356336519044
1592240058.481608,-9.86,-0.51,1.19,0.6222222222222222,0.44,0.34444444444444444,0.02945243112740431,-0.020725784867432664,-0.00545415391248228
1592240058.491608,-9.397588842350705,-0.3380236625070167,1.275296429034069,0.6222222222222222,0.44,0.34444444444444444,0.029267038409242642,-0.04409026014750119,-0.004083067369553426
1592240058.501608,-9.750014259325274,-0.5832858022490846,1.3200142593252746,0.6322079628969476,0.44554763370818073,0.3462936556805047,0.005457264814671724,-0.04072383072950278,-0.010551437852209538
1592240058.511608,-9.73,-0.65,1.3,0.6522222222222223,0.45666666666666667,0.35,0.001090830782496456,-0.04145156973486533,-0.001090830782496456
1592240058.5216079,-9.486678853465927,-0.6633357706931852,1.3333269961977186,0.6522222222222223,0.45666666666666667,0.35,-0.008726646259971648,-0.021089182428492465,-0.0018182640039331097
1592240058.5316079,-9.652102979600642,-0.7020171632667738,1.2299570918330656,0.6522222222222223,0.45666666666666667,0.35,-0.008345089513844451,-0.016416301193331973,-0.003438691270076023
1592240058.5416079,-9.372884434005881,-0.6417788914985297,1.4175477595102917,0.6522222222222223,0.45666666666666667,0.35,-0.007934743418130094,-0.013761276251961328,0.002868683426711317
1592240058.5516078,-9.46349113578804,-0.6147632963179427,1.558653808688876,0.6488280624282963,0.45666666666666667,0.350581855964673,-0.007298556866171495,-0.00032918310580304117,-0.0001387711866296875
1592240058.5616078,-9.561850378877018,-0.5925528309879042,1.495339812679437,0.6133333333333333,0.45666666666666667,0.3566666666666667,0.007635815477475192,0.013317356293316852,0.008041995537517584
1592240058.5716078,-9.683518920633372,-0.5887081269670872,1.5387081269670873,0.6133333333333333,0.45666666666666667,0.3566666666666667,0.008696279609013332,0.025089107997418484,0.004363323129985824
1592240058.5816078,-9.63646647353918,-0.39975976824701476,1.3363463576626864,0.6133333333333333,0.45666666666666667,0.3566666666666667,0.010542513795873329,0.024723313968327255,0.005094911188168284
1592240058.5916078,-9.608351748681734,-0.40181706385436655,1.2760220984180812,0.6133333333333333,0.45666666666666667,0.3566666666666667,0.004797244879515661,0.025113884362244796,0.005987181121317353
1592240058.6016078,-9.697270110397621,-0.6185328820421978,1.4030547559548285,0.6150170288594354,0.45666666666666667,0.3557546649233614,-0.009197615460942582,0.02760399174526555,0.004501070148102607
1592240058.6116078,-9.433270916926734,-0.4068534205181552,1.3427413682072622,0.64,0.45666666666666667,0.3422222222222222,-0.0006660514303785266,0.011700101724797154,0.0012165732519505224
1592240058.6216078,-9.5307673143996,-0.7226943198804185,1.44346163428002,0.64,0.45666666666666667,0.3422222222222222,-0.0025592672880319816,0.00788773379719971,-0.004866616256339445
1592240058.6316078,-9.459065368986105,-0.8757507650629609,1.4657507650629609,0.64,0.45666666666666667,0.3422222222222222,0.006177288310711758,0.027168817134387974,0.0052563782415876725
1592240058.6416078,-9.62765553944834,-0.8611722302758306,1.4758808110093928,0.64,0.45666666666666667,0.3422222222222222,0.026886443257368366,0.04055361694921833,0.0017323277500054426
1592240058.6516078,-9.692022953753124,-0.7322392250023139,1.3777990312528923,0.6358283884723893,0.4621218509720037,0.3422222222222222,0.04195951127067562,0.043440325920989585,-0.001090830782496456
1592240058.6616077,-9.5,-0.59,1.2,0.6255555555555555,0.47555555555555556,0.3422222222222222,0.05126904677733343,0.03490658503988659,-0.001090830782496456
1592240058.6716077,-9.67287940489765,-0.7249220828582288,1.2327235706141066,0.6255555555555555,0.47555555555555556,0.3422222222222222,0.041063201518498425,0.028898516294483267,-0.006156616478611833
1592240058.6816077,-9.7,-0.63,1.07,0.6255555555555555,0.47555555555555556,0.3422222222222222,0.042542400517361786,0.01854412330243975,-0.007635815477475192
1592240058.6916077,-9.569407925616325,-1.479000469368141,1.1529603719183747,0.6255555555555555,0.47555555555555556,0.3422222222222222,0.04045258221822489,-0.009844735012000099,-0.03849193451173604
1592240058.7016077,-9.574056719728992,-0.775865935186018,1.3059432802710076,0.6268906076685553,0.4735529773860559,0.34756243067422127,0.07026131424871318,-0.024869254432927566,-0.07503200252117459
1592240058.7116077,-9.75,-0.36,1.13,0.6322222222222222,0.46555555555555556,0.3688888888888889,0.10690141668465267,-0.019634954084936207,-0.02181661564992912
1592240058.7216077,-9.706733982713677,-0.4524211826039237,1.2463177390588558,0.6322222222222222,0.46555555555555556,0.3688888888888889,0.10471975511965977,-0.04524126762280026,0.04464291947702206
1592240058.7316077,-9.543394643280397,-0.4701839298411946,1.32265892391562,0.6322222222222222,0.46555555555555556,0.3688888888888889,0.10546035139683038,-0.0738061950711737,-0.007035664633120896
1592240058.7416077,-9.561292069477316,-0.6057437121424847,1.3318675037105379,0.6322222222222222,0.46555555555555556,0.3688888888888889,0.0976631139466943,-0.07031417160587504,-0.020417841442834053
1592240058.7516077,-9.56969543147208,-0.8979695431472081,1.5501522842639595,0.6283869148336153,0.4639763113367174,0.3661816130851664,0.07306905079098087,-0.061274789030993815,-0.019413465601180582
1592240058.7616076,-9.49,-0.89,1.59,0.6133333333333333,0.4577777777777778,0.35555555555555557,0.06872233929727672,-0.053450708342326333,-0.01854412330243975
1592240058.7716076,-9.461250738096515,-1.0,1.5581238928552257,0.6133333333333333,0.4577777777777778,0.35555555555555557,0.04741703044818281,-0.018867671828323274,-0.008879973889150185
1592240058.7816076,-9.52,-1.0,1.47,0.6133333333333333,0.4577777777777778,0.35555555555555557,0.04581489286485115,0.004363323129985824,-0.0032724923474893677
1592240058.7916076,-9.546065507234612,-0.8508188404326562,1.4339344927653874,0.6133333333333333,0.4577777777777778,0.35555555555555557,0.055417776616219536,0.02723504090841563,-0.003057899056389653
1592240058.8016076,-9.533083959490362,-0.6384351519111402,1.4507709898725907,0.6147896475371156,0.4583774365675705,0.3565835420523431,0.05336411184440192,0.03658612946259348,-0.0018452537705869482
1592240058.8116076,-9.57,-0.5,1.46,0.6322222222222222,0.46555555555555556,0.3688888888888889,0.039269908169872414,0.04363323129985824,0.002181661564992912
1592240058.8216076,-9.56839017777367,-0.4567803555473396,1.4422919555103675,0.6322222222222222,0.46555555555555556,0.3688888888888889,0.020800194065831997,0.04883737165005839,0.00235726592887571
1592240058.8316076,-9.56,-0.44,1.35,0.6322222222222222,0.46555555555555556,0.3688888888888889,0.009817477042468103,0.05890486225480862,0.0032724923474893677
1592240058.8416076,-9.573938611086785,-0.4380306944566074,1.3980306944566072,0.6322222222222222,0.46555555555555556,0.3688888888888889,0.0061153488736040255,0.06475516953054625,0.004363323129985824
1592240058.8516076,-9.588412430230804,-0.4252372906924121,1.39,0.6292234793248521,0.4664375387606644,0.3688888888888889,0.0038437921379059006,0.0769990939658552,0.004709677124705772
1592240058.8616076,-9.58,-0.4,1.39,0.6133333333333333,0.4711111111111111,0.3688888888888889,0.001090830782496456,0.08617563181722002,0.006544984694978735
1592240058.8716075,-9.638460178351783,-0.4015398216482165,1.2499823185731858,0.6133333333333333,0.4711111111111111,0.3688888888888889,-0.0053711340420432045,0.08693052562903068,0.009649508557125206
1592240058.8816075,-9.638462559241706,-0.41423127962085304,1.1526938388625592,0.6133333333333333,0.4711111111111111,0.3688888888888889,-0.01090830782496456,0.08393089851977946,0.008957426762960472
1592240058.8916075,-9.678789125851443,-0.43,1.1964843496594226,0.6133333333333333,0.4711111111111111,0.3688888888888889,-0.01033306088316517,0.07617916547144495,0.009050481120068917
1592240058.9016075,-9.72,-0.428822595904416,1.178822595904416,0.613813016483386,0.4705878204019627,0.3691941418025588,-0.0075501922354151655,0.05896821413258476,0.005411342291452266
1592240058.9116075,-9.712909682374734,-0.3976365607915782,1.1594537568336871,0.6255555555555555,0.4577777777777778,0.37666666666666665,-0.005711965136592837,0.026597039982294533,0.0038477006817647097
1592240058.9216075,-9.682122722543491,-0.39590795809238066,1.186061361271746,0.6255555555555555,0.4577777777777778,0.37666666666666665,-0.006544984694978735,-0.0016683542733093222,0.0019668421466973165
1592240058.9316075,-9.635374755334894,-0.4220893206664439,1.203429130663102,0.6255555555555555,0.4577777777777778,0.37666666666666665,-0.007000803754471335,-0.02295616329866062,0.0004071021932575568
1592240058.9416075,-9.576610574146098,-0.4283052870730486,1.3401682775617083,0.6255555555555555,0.4577777777777778,0.37666666666666665,-0.008726646259971648,-0.027085905059590076,-0.002181661564992912
1592240058.9516075,-9.56045939389272,-0.4202296969463591,1.3886218183218453,0.6255555555555555,0.4577777777777778,0.37666666666666665,-0.008726646259971648,-0.026204994829888337,-0.002181661564992912
1592240058.9616075,-9.55,-0.42355538869465237,1.4517776943473262,0.6077777777777778,0.48333333333333334,0.3622222222222222,-0.007829731849068527,-0.01692012488262952,-0.0015999124502129075
1592240058.9716074,-9.548307047021021,-0.43661409404204177,1.4329127523363339,0.6077777777777778,0.48333333333333334,0.3622222222222222,-0.008726646259971648,-0.002147252862638416,0.001090830782496456
1592240058.9816074,-9.54951416050139,-0.42380566420055604,1.303805664200556,0.6077777777777778,0.48333333333333334,0.3622222222222222,-0.008934213042862214,0.012047714786220694,0.0023362314798398487
1592240058.9916074,-9.588525818125218,-0.43705163625043775,1.3185258181252189,0.6077777777777778,0.48333333333333334,0.3622222222222222,-0.010460710229671936,0.02730559685752165,0.007153390587072318
1592240059.0016074,-9.580365383867077,-0.4207307677341531,1.3103653838670766,0.6077777777777778,0.48333333333333334,0.3622222222222222,-0.014021371384600053,0.03353675387864585,0.004482894720876229
1592240059.0116074,-9.603335172413793,-0.43166758620689655,1.34,0.6255555555555555,0.4777777777777778,0.37666666666666665,-0.010726402388269633,0.03199730172811397,0.003818208657574146
1592240059.0216074,-9.61587104099727,-0.4386236803324234,1.328989442659387,0.6255555555555555,0.4777777777777778,0.37666666666666665,-0.009367077484483736,0.028211467158913064,0.006094585136994368
1592240059.0316074,-9.58696261000632,-0.4330373899936792,1.2706308649778773,0.6255555555555555,0.4777777777777778,0.37666666666666665,-0.0062136568446235375,0.027933425263121796,0.003769484123022165
1592240059.0416074,-9.572741205493289,-0.44725879450671124,1.3341118082399333,0.6255555555555555,0.4777777777777778,0.37666666666666665,-0.003914794430001655,0.03312918835901112,0.006544984694978735
1592240059.0516074,-9.589035760766107,-0.4309642392338921,1.3585536411491619,0.6255555555555555,0.4777777777777778,0.37666666666666665,-0.0012486040581995033,0.04201648959835163,0.006544984694978735
1592240059.0616074,-9.604614303873687,-0.403076202582458,1.345385696126313,0.62,0.4711111111111111,0.3622222222222222,-0.0004197074884683962,0.05504488159534384,0.006377203871471721
1592240059.0716074,-9.631009542562861,-0.41899045743714025,1.3018282338685248,0.62,0.4711111111111111,0.3622222222222222,0.0030522443267278145,0.05770390746193139,0.005344029902101503
1592240059.0816073,-9.641487801438444,-0.4114878014384431,1.1459512057537724,0.62,0.4711111111111111,0.3622222222222222,0.001090830782496456,0.0552625550432491,0.004525617090715447
1592240059.0916073,-9.648876375836293,-0.42,1.1867417449822442,0.62,0.4711111111111111,0.3622222222222222,0.001090830782496456,0.04592517658676456,0.005209017147336516
1592240059.1016073,-9.640647256175322,-0.42,1.2361164629480665,0.62,0.4711111111111111,0.3622222222222222,0.001090830782496456,0.0387439149555379,0.003413701739529855
1592240059.1116073,-9.63,-0.43,1.25,0.6322222222222222,0.4777777777777778,0.38333333333333336,0.002181661564992912,0.02617993877991494,0.001090830782496456
1592240059.1216073,-9.620585068955812,-0.420585068955812,1.212340275823248,0.6322222222222222,0.4777777777777778,0.38333333333333336,0.00012764224537655574,0.022071900140682228,0.005198869421729168
