time,acc_x,acc_y,acc_z,mag_x,mag_y,mag_z,gyr_x,gyr_y,gyr_z
1592240123.7815456,-9.589605849947533,1.4361089979013641,0.8739900314795384,0.5611549055613851,0.40685824006062726,0.046141206132680426,0.018490397310988095,-0.02712032247849285,0.029210628396237073
1592240123.7915456,-9.392311345434056,1.720184328087898,0.7181768422747213,0.5666666666666667,0.4088888888888889,0.03888888888888889,0.007446993358285057,-0.04608006040726185,0.029286701413397627
1592240123.8015456,-9.523660537108084,0.9948405873792829,0.5864373594390793,0.5666666666666667,0.4088888888888889,0.03888888888888889,-0.06312878301200817,-0.02406263897295794,0.005229032068231124
1592240123.8115456,-9.748454849498328,0.494314381270903,0.7222742474916388,0.5666666666666667,0.4088888888888889,0.03888888888888889,-0.11222204415352502,0.006961616385149622,0.0020131117919115196
1592240123.8215456,-9.724008924291034,0.2928377032857617,0.8032883431058008,0.5666666666666667,0.4088888888888889,0.03888888888888889,-0.13468322781732756,0.01546327154379919,0.006736625283827543
1592240123.8315456,-9.63773349689997,-0.11775305858559067,0.9581907098571002,0.5621206193428601,0.39903911968730776,0.07753029114124568,-0.1913941289046735,0.028361600344907853,0.01889110883101211
1592240123.8415456,-9.574839927633132,-0.2591308109808857,1.003101549594903,0.56,0.39444444444444443,0.09555555555555556,-0.20501929882106223,0.029790757704560255,0.012470204523917047
1592240123.8515456,-10.038215354466248,-0.5442271126294325,1.0628976986838272,0.56,0.39444444444444443,0.09555555555555556,-0.20875030601250352,0.039902087954416056,-0.010765746719283565
1592240123.8615456,-9.558821983901401,-0.3418747462201734,0.9621365275754175,0.56,0.39444444444444443,0.09555555555555556,-0.18910691636571625,-0.013088432164549219,-0.00199297365979695
1592240123.8715456,-9.341551835853132,-0.2735957523398128,0.9448750899928006,0.56,0.39444444444444443,0.09555555555555556,-0.18264437902350208,-0.042430922166335594,-0.0001123029531295847
1592240123.8815455,-9.649547612220841,-0.513672305584759,1.111638472076205,0.555078459899257,0.40639675611767745,0.07727554946708154,-0.17490883767113527,-0.06787803926029717,-0.0209045144451312
1592240123.8915455,-9.523325828240592,-0.4367079446767449,1.123337085879704,0.5522222222222222,0.41333333333333333,0.06666666666666667,-0.16217283703665086,-0.07344906801844,-0.014549117835344136
1592240123.9015455,-9.60813751464819,-0.29645972384979874,1.084161104600805,0.5522222222222222,0.41333333333333333,0.06666666666666667,-0.14003267143028725,-0.06008356196618503,-0.003455510932436677
1592240123.9115455,-9.572772424373172,-0.19243587899707562,1.0565544848746344,0.5522222222222222,0.41333333333333333,0.06666666666666667,-0.12061459094708776,-0.04869318211351228,-0.005811645605715214
1592240123.9215455,-9.556703256494695,-0.1187413099158434,1.0530369557263082,0.5522222222222222,0.41333333333333333,0.06666666666666667,-0.11337775048516037,-0.04326163837687829,-0.005288513672915492
1592240123.9315455,-9.736617117533008,0.0,1.0238042039823962,0.5605631298365118,0.41333333333333333,0.05383450110622117,-0.09745295487504091,-0.02164765152447734,4.5959047832999644e-05
1592240123.9415455,-9.750847534933865,0.038804577683791516,1.0081088029191028,0.5666666666666667,0.41333333333333333,0.044444444444444446,-0.08884578583363566,-0.025805292208143243,0.004401271756536163
1592240123.9515455,-9.61,0.1745925093250217,0.973926217362424,0.5666666666666667,0.41333333333333333,0.044444444444444446,-0.08131134363317062,-0.04840861880953831,0.0036118755488904674
1592240123.9615455,-9.596398159732031,0.1848993098995117,0.9217002300334961,0.5666666666666667,0.41333333333333333,0.044444444444444446,-0.0800015797738138,-0.0543780399712576,0.0005344318051376962
1592240123.9715455,-9.487540386652542,0.16,0.9724596133474577,0.5666666666666667,0.41333333333333333,0.044444444444444446,-0.0854146839401912,-0.055302487001851634,-0.0052694117818131905
1592240123.9815454,-9.543481732397774,0.20901766271473507,1.074464069683039,0.5587996343791166,0.42120036562088337,0.05654757104067532,-0.08885401332720648,-0.040575051702281074,-0.01704419798501237
1592240123.9915454,-9.638786104452391,0.24121389554760875,1.1212551577789132,0.5522222222222222,0.42777777777777776,0.06666666666666667,-0.087535794536936,-0.03218175858924851,-0.024272110163347675
1592240124.0015454,-9.770486856909072,0.119582694077938,1.0746174695714432,0.5522222222222222,0.42777777777777776,0.06666666666666667,-0.0796154734507245,-0.03929266867714758,-0.02233547711602299
1592240124.0115454,-9.685339284023108,0.0546668718628658,1.0679981532342078,0.5522222222222222,0.42777777777777776,0.06666666666666667,-0.073958461353858,-0.043705908585158576,-0.009817812793963805
1592240124.0215454,-9.46291472443104,0.08047984644913628,1.0664573622155196,0.5522222222222222,0.42777777777777776,0.06666666666666667,-0.0694790713728775,-0.041399226607106376,0.004468009385503718
1592240124.0315454,-9.427482667495724,0.08329768381781438,1.0059219648686462,0.5680812477330431,0.42188728258804425,0.06666666666666667,-0.06985573164147171,-0.03263980035149663,0.007751833885898022
1592240124.0415454,-9.491953972066126,-0.028722923030288908,1.0160153426446243,0.5911111111111111,0.41333333333333333,0.06666666666666667,-0.07774433676032504,-0.027344607363180562,-0.004076340041429676
1592240124.0515454,-9.968330219523587,-0.20531060252218586,1.0243040635217189,0.5911111111111111,0.41333333333333333,0.06666666666666667,-0.08429762982549562,-0.033332242621430704,-0.005150494339213766
1592240124.0615454,-10.09995086698309,-0.25161876595034227,1.1228101223555227,0.5911111111111111,0.41333333333333333,0.06666666666666667,-0.08287714810493675,-0.04368521402944604,0.003984171819533826
1592240124.0715454,-9.718062052505966,-0.17458472553699284,1.089077167859984,0.5911111111111111,0.41333333333333333,0.06666666666666667,-0.081271926564513,-0.0391893758734399,0.007075300280645867
1592240124.0815454,-9.651039060882935,-0.23577929566220174,1.1209648422484402,0.5715223526551478,0.41333333333333333,0.06666666666666667,-0.07576821139937535,-0.025598091401652617,-0.0016888701549872681
1592240124.0915453,-9.768534579439251,-0.31773956386292834,1.2460249221183801,0.5522222222222222,0.41333333333333333,0.06666666666666667,-0.06721148769011809,-0.02211334880858205,-0.006732023094569405
1592240124.1015453,-9.888994698605929,-0.14739348124877283,1.2048551934027096,0.5522222222222222,0.41333333333333333,0.06666666666666667,-0.037617866046744435,-0.03606059961991622,0.005770072900148148
1592240124.1115453,-9.627515549412577,-0.0017913910553855605,1.0287543192812716,0.5522222222222222,0.41333333333333333,0.06666666666666667,-0.02914098057720392,-0.05132706682709846,-0.004889272861846527
1592240124.1215453,-9.35252457800037,0.11192951214987942,1.0179491745501763,0.5522222222222222,0.41333333333333333,0.06666666666666667,-0.02571329549470008,-0.06128376771643992,-0.004816733187010134
1592240124.1315453,-9.706537297213382,-0.06026119692618179,1.2440522393852365,0.5603267009926949,0.42233830974496966,0.06396517374317576,-0.028304616015433343,-0.05722221576523625,-0.00545415391248228
1592240124.1415453,-9.571995148574894,-0.07560218314129775,1.2212043662825955,0.5722222222222222,0.43555555555555553,0.06,-0.023038160903390583,-0.06313747091382943,-0.004581621588581233
1592240124.1515453,-9.707425933051173,-0.1194382454790304,1.0537129665255869,0.5722222222222222,0.43555555555555553,0.06,-0.022938085388609586,-0.05909205368574107,-0.001776639746944016
1592240124.1615453,-9.656229712858925,-0.2149063670411985,1.0433957553058677,0.5722222222222222,0.43555555555555553,0.06,-0.017314385229288316,-0.06071610437805492,-0.003504004498581
1592240124.1715453,-9.05754812981298,-0.03338467180051338,1.1075096259625963,0.5722222222222222,0.43555555555555553,0.06,-0.00873084637849611,-0.05190571474366673,-0.002822529649850681
1592240124.1815453,-9.378018964788307,0.04507247689798877,1.2143960258500937,0.5783038057082268,0.4377670404595572,0.048389704253991264,-0.00271917095310654,-0.03824232541245276,-0.0016019868268280831
1592240124.1915452,-9.75338046428716,0.040551391646072195,1.3077251549649558,0.5844444444444444,0.44,0.03666666666666667,-0.004160209315767386,-0.026443200092208075,-0.007914191003097894
1592240124.2015452,-9.740512982900569,-0.06281823939202025,0.9588473717542749,0.5844444444444444,0.44,0.03666666666666667,-0.02002320417978295,-0.03284167483793478,-0.0032096262289287745
1592240124.2115452,-10.275747715980124,-0.3228738579900625,1.1007501202115724,0.5844444444444444,0.44,0.03666666666666667,-0.038656217506855495,-0.019894242761076972,-0.010499180716286614
1592240124.2215452,-9.764918943752871,-0.09294668446039075,1.0494200266905862,0.5844444444444444,0.44,0.03666666666666667,-0.027612440224928668,-0.06052971304255401,0.0029940869588656036
1592240124.2315452,-9.946385699373694,-0.18624869519832982,1.1431928496868475,0.5875231239851543,0.4369213204592902,0.04641581854558107,-0.0328915939924176,-0.06376819693736621,7.959904946648524e-05
1592240124.2415452,-10.345459517249887,-0.361116411036638,1.3829816193100044,0.5911111111111111,0.43333333333333335,0.057777777777777775,-0.02729081978486199,-0.060517716502360944,-0.007208839934953552
1592240124.2515452,-9.742825055074833,-0.1581390384047603,1.2643498898503327,0.5911111111111111,0.43333333333333335,0.057777777777777775,-0.002286827849467428,-0.08844779336741562,-0.0038814906054287267
1592240124.2615452,-9.54676907856035,-0.05759318680143322,1.0948005240921976,0.5911111111111111,0.43333333333333335,0.057777777777777775,0.004408271261859909,-0.08648169330181105,-0.011125902285562012
1592240124.2715452,-9.394877856889973,-0.02540065300342237,1.0778745918728612,0.5911111111111111,0.43333333333333335,0.057777777777777775,0.01021276964182916,-0.08258388448283896,-0.004006049336859452
1592240124.2815452,-9.627035434381336,-0.07411504826459285,1.05,0.5883677456013826,0.44659293329702143,0.06097837087246111,-0.007437929722608903,-0.06891540581607788,-0.00038613303760231003
1592240124.2915452,-9.679148868849865,-0.08042556557506723,1.0495744344249327,0.5844444444444444,0.46555555555555556,0.06555555555555556,-0.01979743109517516,-0.06743421500234725,0.0023209275737691563
1592240124.3015451,-9.624972462627852,-0.13664830841856807,0.9891896144767899,0.5844444444444444,0.46555555555555556,0.06555555555555556,-0.03626862158734676,-0.047725348664880346,0.016633667502410552
1592240124.3115451,-9.604925974207365,-0.17694585409004143,1.0404928069276969,0.5844444444444444,0.46555555555555556,0.06555555555555556,-0.03586844497773712,-0.05136041064798435,0.016233490892800916
1592240124.3215451,-9.53,-0.18966520989535304,1.1982290204883526,0.5844444444444444,0.46555555555555556,0.06555555555555556,-0.02783973703161858,-0.06153534726272598,0.012338402244838226
1592240124.331545,-9.549121557735491,-0.12356193121380452,1.2490252334239451,0.5829268604971831,0.4640379716082943,0.06343093802938975,-0.013478515811272764,-0.06236900097485217,0.010312354002474326
1592240124.341545,-9.549666934547728,-0.05420483971783195,1.1593588713277971,0.5788888888888889,0.46,0.057777777777777775,-0.0004223450551749829,-0.045778561060058655,0.006192575928921751
1592240124.351545,-9.530316337148804,-0.16638839750260145,1.0957557232049948,0.5788888888888889,0.46,0.057777777777777775,-0.001090830782496456,-0.03503215544083734,-0.0035753936943251417
1592240124.361545,-9.7012500873454,-0.24772063447697573,0.96933827125987,0.5788888888888889,0.46,0.057777777777777775,-0.006119887687503176,-0.0352915886233112,-0.017661839303599942
1592240124.371545,-9.775746683782629,-0.28960572162112597,1.0169295189192493,0.5788888888888889,0.46,0.057777777777777775,-0.016869435662461848,-0.05018735126088025,-0.02551006372392378
1592240124.381545,-9.795839503702222,-0.29633580148088856,1.0925475285171102,0.5894963644853579,0.45524492473261735,0.04790185222244458,-0.022920980854781944,-0.0784180065385375,-0.028002501558194493
1592240124.391545,-9.93,-0.35,1.22,0.6111111111111112,0.44555555555555554,0.027777777777777776,-0.020725784867432664,-0.09817477042468103,-0.0272707695624114
1592240124.401545,-9.596809817534261,-0.1500268407876739,1.0701073631506957,0.6111111111111112,0.44555555555555554,0.027777777777777776,-0.012013777986171578,-0.11380610780614074,-0.010572024404392125
1592240124.411545,-9.48225894985194,-0.1532231504441823,1.071281026554638,0.6111111111111112,0.44555555555555554,0.027777777777777776,-0.002779665940567142,-0.10278600367303763,0.0017955100416323436
1592240124.421545,-9.64237889461118,-0.1834951360524083,1.2065048639475917,0.6111111111111112,0.44555555555555554,0.027777777777777776,-0.0008419451229923908,-0.07717362498974552,-0.015520516614454447
1592240124.431545,-9.895121841155234,-0.12338748495788207,1.1687262334536703,0.6098163190266078,0.45177055756117124,0.033215904532691534,0.010506269078984894,-0.07159279289878642,-0.020004471371666353
1592240124.441545,-9.50878601526022,-0.0561746953649926,1.03372053296891,0.6055555555555555,0.4722222222222222,0.051111111111111114,0.017997279309210117,-0.08153602948665657,0.0032667779395637512
1592240124.451545,-9.512328063710923,-0.2,1.09,0.6055555555555555,0.4722222222222222,0.051111111111111114,0.01959867517694352,-0.08986010630286513,0.008545251720008192
1592240124.461545,-9.622494734826729,-0.2722013210798392,1.1587631629331803,0.6055555555555555,0.4722222222222222,0.051111111111111114,0.01632815789750331,-0.09647106525366536,-0.003681841061579556
1592240124.471545,-9.55590435339557,-0.36771306018671274,1.292819129320886,0.6055555555555555,0.4722222222222222,0.051111111111111114,0.01633343530259633,-0.09932365407687851,-0.0019321951303878674
1592240124.481545,-9.523869327073552,-0.2425880281690141,1.3232159624413147,0.6066303686315423,0.473297035298209,0.048316597113545474,0.02456012335152476,-0.080126770277426,0.012560984744063749
1592240124.491545,-9.54,-0.17,1.42,0.6111111111111112,0.4777777777777778,0.03666666666666667,0.03599741582238304,-0.04581489286485115,0.02399827721492203
1592240124.501545,-9.506758661022614,-0.28110393227136016,1.4573106271582934,0.6111111111111112,0.4777777777777778,0.03666666666666667,0.041511779900034865,-0.02915138030155659,0.015602786863382873
1592240124.511545,-9.5,-0.2,1.41,0.6111111111111112,0.4777777777777778,0.03666666666666667,0.0370882466048795,-0.05126904677733343,-0.008726646259971648
1592240124.521545,-9.54022065877838,0.014317236968340263,1.345110329389191,0.6111111111111112,0.4777777777777778,0.03666666666666667,0.0514804453875646,-0.08305209525614765,-0.036852777855859636
1592240124.531545,-9.61007842704076,0.024296918148679993,1.3980989727162265,0.6138570394098949,0.47904512930029336,0.03666666666666667,0.03828703987286329,-0.0775569480427357,-0.035375306098531366
1592240124.541545,-9.44,0.0,1.39,0.6255555555555555,0.48444444444444446,0.03666666666666667,0.02945243112740431,-0.06872233929727672,-0.032724923474893676
1592240124.551545,-9.707628406414715,0.08674722440282605,1.378373612201413,0.6255555555555555,0.48444444444444446,0.03666666666666667,0.013717224614500544,-0.05875491430912677,-0.04893743726665867
1592240124.561545,-9.892543810189675,0.00828999300841246,1.3,0.6255555555555555,0.48444444444444446,0.03666666666666667,0.01567830302321233,-0.0704399813898263,-0.04272893334383257
1592240124.571545,-9.662046685556778,0.10458258640297616,1.3790080764856687,0.6255555555555555,0.48444444444444446,0.03666666666666667,0.021414653158960042,-0.09271376189211945,-0.020634719347299425
1592240124.5815449,-9.164168971238938,-0.024828539823008852,1.5972559457964601,0.6265230149950836,0.4834769850049164,0.03666666666666667,0.0347482848592685,-0.10542490361359934,-0.0033243037929799007
1592240124.5915449,-9.66,-0.23,1.64,0.6322222222222222,0.4777777777777778,0.03666666666666667,0.03381575425739013,-0.07744898555724837,-0.022907446432425576
1592240124.6015449,-9.608190754435618,-0.26101981192367385,1.6272369822575246,0.6322222222222222,0.4777777777777778,0.03666666666666667,0.03285409425229694,-0.04734349672409311,-0.01715189403933569
1592240124.6115448,-9.66,-0.15,1.42,0.6322222222222222,0.4777777777777778,0.03666666666666667,0.042542400517361786,-0.039269908169872414,0.00545415391248228
1592240124.6215448,-9.547581477597516,-0.04689387864207431,1.2655127177019718,0.6322222222222222,0.4777777777777778,0.03666666666666667,0.025390430571227574,-0.01177347190989564,0.002332322851897456
1592240124.6315448,-9.719679559138688,-0.13279926523114602,1.4296795591386875,0.6331141121731999,0.47854225487861574,0.03692149236694599,0.009066953403771184,-0.01290970419482301,-0.005579241185598433
1592240124.6415448,-9.64,0.0,1.35,0.64,0.48444444444444446,0.03888888888888889,0.0032724923474893677,-0.028361600344907853,-0.006544984694978735
1592240124.6515448,-9.661207690506544,0.03791971277675157,1.5233891822983063,0.64,0.48444444444444446,0.03888888888888889,-0.006175282257130274,-0.0595490815945768,-0.011325603030777393
1592240124.6615448,-9.810289729069249,-0.07876636041074325,1.5672429917522381,0.64,0.48444444444444446,0.03888888888888889,-0.0008349442373531865,-0.08461788434571928,-0.008915248203191539
1592240124.6715448,-9.494168294270834,0.10625244140625001,1.5341682942708335,0.64,0.48444444444444446,0.03888888888888889,-0.005091253827940815,-0.09599310885968812,0.0034998375325457987
1592240124.6815448,-9.502429769588128,0.11107442397031772,1.567033018426714,0.6406308525343227,0.48444444444444446,0.036050052484436546,-0.01137980058017138,-0.09516732482330194,0.005189107166372004
1592240124.6915448,-9.502908020251624,-0.06439169074987507,1.6739169074987506,0.6466666666666666,0.48444444444444446,0.008888888888888889,-0.010654212825108797,-0.08237228950547976,0.010031111206059519
1592240124.7015448,-9.707115710892433,-0.07353410247709535,1.495768578215134,0.6466666666666666,0.48444444444444446,0.008888888888888889,-0.026098690949321806,-0.06397868748421826,0.007782764856725646
1592240124.7115448,-9.729422680412371,-0.16225429553264606,1.374508591065292,0.6466666666666666,0.48444444444444446,0.008888888888888889,-0.035782998225273775,-0.040821062045463596,0.03623057621644243
1592240124.7215447,-9.593676791741116,-0.17551518761167362,1.3991919793527892,0.6466666666666666,0.48444444444444446,0.008888888888888889,-0.04374562780097312,-0.033703357756275254,0.06407033690720201
1592240124.7315447,-9.61079570782653,-0.19787811246258677,1.4418566515952365,0.6470497852498107,0.48479809236734667,0.009360419452758496,-0.04891378869413007,-0.028188003826697408,0.06777617227995564
1592240124.7415447,-9.608835796350014,-0.14077613576665676,1.538567186679153,0.6611111111111111,0.49777777777777776,0.02666666666666667,-0.04140923809558204,-0.023799649888043665,0.07705173090349164
1592240124.7515447,-9.52,-0.19551393072289158,1.6132708960843374,0.6611111111111111,0.49777777777777776,0.02666666666666667,-0.036711014649411504,-0.03385661934129766,0.0876232620132307
1592240124.7615447,-9.53691478088869,-0.19268608566651751,1.598457390444345,0.6611111111111111,0.49777777777777776,0.02666666666666667,-0.030250255416954783,-0.046089071115548566,0.08416224285109528
1592240124.7715447,-9.584823191527553,-0.24,1.633372624104988,0.6611111111111111,0.49777777777777776,0.02666666666666667,-0.024537263668691894,-0.0319634152866781,0.08016963357601115
1592240124.7815447,-9.510395528542194,-0.2401582114168779,1.6489716257902933,0.6610495844489919,0.4977162511156586,0.026596350481387594,-0.021773470179010913,-0.01751369617922878,0.07748350193398293
1592240124.7915447,-9.526637280485225,-0.2511032747960599,1.4955340056891648,0.6533333333333333,0.49,0.017777777777777778,-0.015634600108756593,-0.02581696962610873,0.0813270676014407
1592240124.8015447,-9.445947904525415,-0.23797395226270715,1.3695586074089088,0.6533333333333333,0.49,0.017777777777777778,-0.013335051145098505,-0.030567336141177164,0.07938556536710024
1592240124.8115447,-9.553109412611361,-0.2577735315284016,1.2665962726753852,0.6533333333333333,0.49,0.017777777777777778,-0.009881686552259938,-0.038179077387375956,0.0809964526941414
1592240124.8215446,-9.51,-0.15,1.36,0.6533333333333333,0.49,0.017777777777777778,0.001090830782496456,-0.038179077387375956,0.08726646259971647
1592240124.8315446,-9.680692773892774,-0.040990209790209786,1.270759285159285,0.6557756021756022,0.49,0.019677320210653545,0.018785343536082712,-0.023681487072524304,0.08032186259989592
1592240124.8415446,-9.47,-0.12,1.42,0.6733333333333333,0.49,0.03333333333333333,0.028361600344907853,-0.0370882466048795,0.07744898555724837
1592240124.8515446,-9.451699532425291,-0.1160871838062324,1.545256875671594,0.6733333333333333,0.49,0.03333333333333333,0.02638259450307673,-0.04531476375721395,0.03912329402468049
1592240124.8615446,-9.39,-0.31,1.51,0.6733333333333333,0.49,0.03333333333333333,0.03599741582238304,-0.05781403147231216,0.02181661564992912
1592240124.8715446,-9.397874501352652,-0.3609333302764914,1.6690666697235086,0.6733333333333333,0.49,0.03333333333333333,0.034336786136947454,-0.04653526933075537,-0.0025846272305063557
1592240124.8815446,-9.76222307715983,-0.5111375457819088,1.5507137361115386,0.6710582417695157,0.4879776963877176,0.03333333333333333,0.04817254578012095,-0.027368904380583727,-0.00545415391248228
1592240124.8915446,-9.39,-0.52,1.79,0.6533333333333333,0.4722222222222222,0.03333333333333333,0.06654067773228381,-0.019634954084936207,-0.00545415391248228
1592240124.9015446,-9.718085864310332,-0.36384376951724456,1.503460942379311,0.6533333333333333,0.4722222222222222,0.03333333333333333,0.10360719906354648,-0.024669817786395293,-0.004573813527792616
1592240124.9115446,-9.440719368336447,-0.3655826103401811,1.5009675894186898,0.6533333333333333,0.4722222222222222,0.03333333333333333,0.12547261670683005,-0.016974189304700116,0.01686864167242764
1592240124.9215446,-9.335503692762186,-0.017580502215657316,1.3991935007385523,0.6533333333333333,0.4722222222222222,0.03333333333333333,0.1316144539219018,-0.014932941692792695,0.025553154179632637
1592240124.9315445,-9.806355686853767,-0.21583397341211227,1.4652779911373708,0.6533333333333333,0.4722222222222222,0.03333333333333333,0.12891119155792843,-0.020339466420739385,0.02104771690634373
1592240124.9415445,-9.539672335130652,-0.4659016273452558,1.7190162734525583,0.6611111111111111,0.4777777777777778,0.027777777777777776,0.12169915755462168,-0.021396379524923168,0.013313500942454305
1592240124.9515445,-9.73218247932313,-0.5255941629432456,1.56,0.6611111111111111,0.4777777777777778,0.027777777777777776,0.11756830858969598,-0.02327068509802016,0.013695738761186014
1592240124.9615445,-9.523355917748509,-0.7550450108973752,1.5731081209134843,0.6611111111111111,0.4777777777777778,0.027777777777777776,0.1267378328367817,-0.01953422305133981,0.007947828432745309
1592240124.9715445,-9.699525017618042,-0.5903410852713178,1.5659196617336153,0.6611111111111111,0.4777777777777778,0.027777777777777776,0.13742607527888295,-0.014091781000774514,-0.005758418058861488
1592240124.9815445,-9.47566589955327,-0.4143327467172059,1.3356645458237444,0.6619998796684866,0.47696307326685017,0.02748152159198592,0.14777114108999417,-0.008763002363755407,-0.002218017668776671
1592240124.9915445,-9.559165815373117,-0.5135734396412109,1.744919397035007,0.6877777777777778,0.4533333333333333,0.01888888888888889,0.16389034685149512,-0.00795220668562372,-0.004289912542131758
1592240125.0015445,-9.209118355161786,-0.32931553351309706,1.4476914002311247,0.6877777777777778,0.4533333333333333,0.01888888888888889,0.1661884478904168,0.0023929942717231937,-0.01171947140304064
1592240125.0115445,-9.562062380649268,-0.18192375698422802,1.243951481717236,0.6877777777777778,0.4533333333333333,0.01888888888888889,0.1452979041537229,-0.00042347904131289716,-0.023765745637126974
1592240125.0215445,-9.535783979863785,-0.2951073437962689,1.3457839798637845,0.6877777777777778,0.4533333333333333,0.01888888888888889,0.14246590803080214,-0.017527102065042627,-0.041810684665999596
1592240125.0315444,-9.776425266508737,-0.42707192034350017,1.5864252665087357,0.6877777777777778,0.4533333333333333,0.01888888888888889,0.12299018148476046,-0.029381892136546253,-0.04943162114053764
1592240125.0415444,-9.651811650243232,-0.39380217038792564,1.8852086815517026,0.68,0.46,0.035555555555555556,0.11883034590159752,-0.010921315611269494,-0.039684660619817
1592240125.0515444,-9.79,-0.28,1.43,0.68,0.46,0.035555555555555556,0.12326387842209952,0.017453292519943295,-0.0272707695624114
1592240125.0615444,-9.241301753467678,-0.36,1.6630243391782256,0.68,0.46,0.035555555555555556,0.13896007978786612,0.020802522714680777,0.004440060977233939
1592240125.0715444,-9.808635822699062,-0.37364177300939233,1.3404626595140885,0.68,0.46,0.035555555555555556,0.14141074591438826,0.03193171001092671,0.015866865592009363
1592240125.0815444,-9.800956626814845,-0.4504337318515535,1.4556505977773302,0.68,0.46,0.035555555555555556,0.13303404265906527,0.033607050661991315,0.019217546894138574
1592240125.0915444,-9.678798829277504,-0.4268017560837444,1.187604975570609,0.6877777777777778,0.46,0.04888888888888889,0.11128644468752646,0.0008938906013338669,0.020704079994544697
1592240125.1015444,-9.587496425085684,-0.4862430487777198,1.4724988083618948,0.6877777777777778,0.46,0.04888888888888889,0.10171949384676804,-0.03804339514191937,0.025225136876348864
1592240125.1115444,-9.456431150442478,-0.19922265486725663,1.4167962241887906,0.6877777777777778,0.46,0.04888888888888889,0.08045936960910638,-0.06911678885669131,0.012306218734998483
1592240125.1215444,-9.735135483367172,-0.4107480868342964,1.3956126034671246,0.6877777777777778,0.46,0.04888888888888889,0.07681821857736501,-0.0868694754950917,0.02842467704289619
1592240125.1315444,-9.383044861783539,-0.2797376229892238,1.6166927612056847,0.6877777777777778,0.46,0.04888888888888889,0.067886328152906,-0.09669455496199662,0.029317866085342092
1592240125.1415443,-9.55,-0.18,1.35,0.68,0.46,0.06555555555555556,0.08944812416470939,-0.07526732399225547,0.04363323129985824
1592240125.1515443,-9.689598607413474,-0.05037272168748719,1.3200860126971126,0.68,0.46,0.06555555555555556,0.06443094889552432,-0.060039478176229774,0.033843901846698866
1592240125.1615443,-9.445913555512119,-0.06817288897576232,1.3926915559030493,0.68,0.46,0.06555555555555556,0.08786438328419961,-0.06252882023777445,0.04779724753501635
1592240125.1715443,-9.42,-0.12,1.6,0.68,0.46,0.06555555555555556,0.07090400086226964,-0.0370882466048795,0.053450708342326333
1592240125.1815443,-9.287788501762984,-0.011119942628339208,1.7011029104165423,0.68,0.46,0.06555555555555556,0.06496551495322025,-0.031149760695830114,0.05005728782286955
1592240125.1915443,-9.62360740462319,0.08007963728622439,1.5354111069347867,0.7111111111111111,0.43666666666666665,0.057777777777777775,0.04136188011499271,-0.023202576533017844,0.04452730868195985
1592240125.2015443,-9.624782906451172,-0.020733689448933935,1.5819294160617268,0.7111111111111111,0.43666666666666665,0.057777777777777775,0.027851769056024312,-0.02738043533344994,0.042302301206654784
1592240125.2115443,-9.19196462337538,-0.030323368199334594,1.4770896862059886,0.7111111111111111,0.43666666666666665,0.057777777777777775,0.007212527494377642,-0.043212606490599575,0.038423332203677316
1592240125.2215443,-9.542980017376195,-0.042924992759918915,1.3946799884158703,0.7111111111111111,0.43666666666666665,0.057777777777777775,-0.005773221126592161,-0.06374678620595928,0.012388021518915732
1592240125.2315443,-9.348630755864466,-0.12390385172313931,1.524246162757023,0.7111111111111111,0.43666666666666665,0.057777777777777775,-0.014606644335444143,-0.07699692101923725,-0.007045509540558633
1592240125.2415442,-9.479696003750147,-0.16,1.3809119887495604,0.7033333333333334,0.42444444444444446,0.06333333333333334,-0.031998862006211284,-0.0826378526960477,-0.032562596400287566
1592240125.2515442,-9.470414593698177,-0.16345494748479825,1.4148369264787175,0.7033333333333334,0.42444444444444446,0.06333333333333334,-0.043542780986218395,-0.07398051753020601,-0.062448705543217506
1592240125.2615442,-9.502795533943914,-0.40720446605608535,1.757634548201303,0.7033333333333334,0.42444444444444446,0.06333333333333334,-0.037369734710682806,-0.059620375562900674,-0.08207033945088724
1592240125.2715442,-9.62807628133404,-0.281154231199576,1.6507694874663839,0.7033333333333334,0.42444444444444446,0.06333333333333334,-0.05009427793332928,-0.042385016652034875,-0.09411572276766059
1592240125.2815442,-9.463409889484325,-0.37995406630940465,1.7166360442062698,0.7033333333333334,0.42444444444444446,0.06333333333333334,-0.04290935117043761,-0.02891327897161297,-0.12016108228314291
1592240125.2915442,-9.28,-0.34,1.48,0.6966666666666667,0.44222222222222224,0.09222222222222222,-0.044724062082354694,-0.017453292519943295,-0.14180800172453928
1592240125.3015442,-9.007230392156863,-0.4455882352941177,1.5327941176470588,0.6966666666666667,0.44222222222222224,0.09222222222222222,-0.061041072537197524,-0.006895226931515588,-0.1686830777678098
1592240125.3115442,-9.32,-0.58,1.48,0.6966666666666667,0.44222222222222224,0.09222222222222222,-0.06981317007977318,-0.02399827721492203,-0.20289452554434081
1592240125.3215442,-9.7973972878355,-0.6242034525773611,1.4092744758762221,0.6966666666666667,0.44222222222222224,0.09222222222222222,-0.07367064902089379,-0.03074886536188312,-0.20385889527962098
1592240125.3315442,-9.824877829478275,-0.7792692247173332,1.566830309978196,0.6966666666666667,0.44222222222222224,0.09222222222222222,-0.0751343018285887,-0.023013815122929986,-0.1944072701385403
1592240125.3415442,-9.58,-0.78,1.67,0.7033333333333334,0.4477777777777778,0.08444444444444445,-0.04908738521234052,-0.0032724923474893677,-0.19962203319685143
1592240125.3515441,-9.331540313367064,-0.7303080626734128,1.8190758119797619,0.7033333333333334,0.4477777777777778,0.08444444444444445,-0.030657516953913676,0.016241485808491992,-0.17902394514331557
1592240125.3615441,-9.629929875529063,-0.5895484484960805,1.6004340203861855,0.7033333333333334,0.4477777777777778,0.08444444444444445,-0.017500636799691507,0.041686378785318806,-0.16277242033900058
1592240125.3715441,-10.51,-0.8,1.61,0.7033333333333334,0.4477777777777778,0.08444444444444445,-0.01854412330243975,0.07090400086226964,-0.14398966328953217
1592240125.381544,-10.148383905941987,-0.7769181216558716,1.6638577161362995,0.7033333333333334,0.4477777777777778,0.08444444444444445,0.004955738552132941,0.06251119305706511,-0.03991884650499597
1592240125.391544,-9.02,-0.27,1.04,0.6944444444444444,0.43333333333333335,0.06333333333333334,-0.009817477042468103,0.038179077387375956,-0.008726646259971648
1592240125.401544,-9.157056766428106,-0.3339598243331165,1.1587825309043591,0.6944444444444444,0.43333333333333335,0.06333333333333334,0.020083670911373024,0.03120214286481303,-0.0017497117374087184
1592240125.411544,-9.836808761742907,-0.8075791908605958,1.3323660482462352,0.6944444444444444,0.43333333333333335,0.06333333333333334,-0.012132666635550205,0.06056734542443122,0.003754130468090291
1592240125.421544,-9.754228476362124,-0.9897490641896576,1.631756550672397,0.6944444444444444,0.43333333333333335,0.06333333333333334,0.010634579318612336,0.02159763284484734,-0.010306105110989668
1592240125.431544,-9.563166901031867,-0.9814420391752986,1.68990572577291,0.6944444444444444,0.43333333333333335,0.06333333333333334,0.0015730207219814812,0.014348385967542655,0.009629323801598212
1592240125.441544,-9.48,-0.76,1.52,0.7022222222222222,0.45444444444444443,0.11333333333333333,0.02399827721492203,-0.017453292519943295,0.017453292519943295
1592240125.451544,-9.583457830349186,-0.7255140565502713,1.580350401037025,0.7022222222222222,0.45444444444444443,0.11333333333333333,0.02211736078100223,-0.017453292519943295,0.02591741647258239
1592240125.461544,-9.69,-0.7,1.55,0.7022222222222222,0.45444444444444443,0.11333333333333333,0.015271630954950384,-0.02945243112740431,0.02945243112740431
1592240125.471544,-9.442151571463198,-0.6316280197139856,1.6012789852145108,0.7022222222222222,0.45444444444444443,0.11333333333333333,0.01340707443604475,-0.032249265905762756,0.017332813754517694
1592240125.481544,-9.54922678300766,-0.698540412109295,1.688540412109295,0.7022222222222222,0.45444444444444443,0.11333333333333333,0.012233226397969707,-0.03872212441880803,-0.003576714868780421
1592240125.491544,-9.38776397135337,-0.6333274162943012,1.7485211483136438,0.6776114885773942,0.42876367890201517,0.0994229186645175,0.03195866442733725,-0.04561324574707314,-0.016080155772557628
1592240125.501544,-9.640751680307256,-0.7417507201316812,1.6289367198573454,0.6766666666666666,0.42777777777777776,0.09888888888888889,0.026629867200604465,-0.018387139630549686,-0.0072198773260130165
1592240125.511544,-9.603807187184298,-0.721903593592149,1.5263453119738297,0.6766666666666666,0.42777777777777776,0.09888888888888889,0.02720155294615543,-0.015340847571206353,0.0026495428011856477
1592240125.521544,-9.636904370686823,-0.7107739073282944,1.6583913900755833,0.6766666666666666,0.42777777777777776,0.09888888888888889,0.03230282250664209,-0.026342147432257906,0.0072981347028739235
1592240125.531544,-9.456011584773165,-0.6410043442899367,1.5780057923865822,0.6766666666666666,0.42777777777777776,0.09888888888888889,0.028543668746723434,-0.03228827523621569,0.0042908116949389955
1592240125.541544,-9.67,-0.41,1.63,0.7144444444444444,0.43333333333333335,0.09888888888888889,0.007635815477475192,-0.04799655442984406,-0.01854412330243975
1592240125.551544,-9.663316257644349,-0.3698975458660948,1.63,0.7144444444444444,0.43333333333333335,0.09888888888888889,-0.008404014710927346,-0.07132721652206594,-0.028022204777404885
1592240125.561544,-9.492468683075659,-0.39927391674245316,1.6398547833484904,0.7144444444444444,0.43333333333333335,0.09888888888888889,-0.02818735287195062,-0.1065529217387382,-0.037024883887440505
1592240125.571544,-9.499946485565502,-0.45967891339300715,1.7891972834825178,0.7144444444444444,0.43333333333333335,0.09888888888888889,-0.02619161381840678,-0.09062651773589464,-0.030578287025376284
1592240125.581544,-9.546997824769106,-0.5271397496701494,1.897423599472239,0.7144444444444444,0.43333333333333335,0.09888888888888889,-0.010067555532667787,-0.07003228535980037,-0.026148975569742453
1592240125.591544,-9.74,-0.56,2.03,0.6933333333333334,0.41888888888888887,0.10666666666666667,0.028361600344907853,-0.053450708342326333,-0.00545415391248228
1592240125.601544,-9.544805049536594,-0.2884244167465644,1.7499376797698944,0.6933333333333334,0.41888888888888887,0.10666666666666667,0.044099510037981925,-0.045118873798934186,0.013986793355432747
1592240125.611544,-9.386315180142631,-0.5580466796332315,1.5674805501528202,0.6933333333333334,0.41888888888888887,0.10666666666666667,0.03823234593697967,-0.005084885920445176,0.015525875250972643
1592240125.621544,-9.429100128095644,-0.7083502348420153,1.5894000853970967,0.6933333333333334,0.41888888888888887,0.10666666666666667,0.028492481408051107,0.013968118444846137,-0.016962488533156093
1592240125.6315439,-9.416749050791603,-0.696749050791604,1.530370728562218,0.6933333333333334,0.41888888888888887,0.10666666666666667,0.01824342003923706,0.014180800172453926,-0.03118510864906794
1592240125.6415439,-10.159263974778707,-0.9463271492663998,1.7957620953073845,0.682379181655282,0.41888888888888887,0.1274795548549641,0.007712862759008378,0.015256221498643746,-0.02957570677785741
1592240125.6515439,-9.303417012448133,-0.5596473029045643,1.5189460580912861,0.6822222222222222,0.41888888888888887,0.12777777777777777,0.01870684266605281,-0.02390277294309351,0.014831677626906167
1592240125.6615438,-9.758264454839177,-0.9361334812171481,2.023360177460578,0.6822222222222222,0.41888888888888887,0.12777777777777777,-0.007108258843552394,-0.028157447658074236,-0.02672232949208744
1592240125.6715438,-9.322446542754337,-0.2937590814291935,1.6064822496734124,0.6822222222222222,0.41888888888888887,0.12777777777777777,0.03550068818922874,-0.0077789912364502126,-0.00782671648944189
1592240125.6815438,-9.876530935482577,-0.47550362885440467,1.818398893299651,0.6822222222222222,0.41888888888888887,0.12777777777777777,0.023483064263840364,0.0026117346901742104,0.0037025654726706666
1592240125.6915438,-9.33,-0.26,1.59,0.6666666666666666,0.40444444444444444,0.12777777777777777,0.04908738521234052,-0.02181661564992912,0.006544984694978735
1592240125.7015438,-9.409387948823772,-0.559910028889806,1.889910028889806,0.6666666666666666,0.40444444444444444,0.12777777777777777,0.036578667008219275,-0.03336312476142565,-0.011736988064890777
1592240125.7115438,-9.61412162162162,-0.44054295366795365,1.6388175675675676,0.6666666666666666,0.40444444444444444,0.12777777777777777,0.048519331923579094,-0.048519331923579094,-0.01115574530941115
1592240125.7215438,-9.667197648576959,-0.5094099935479246,1.7150146963940067,0.6666666666666666,0.40444444444444444,0.12777777777777777,0.03933426788985195,-0.034861541056037004,-0.014290203876283058
1592240125.7315438,-9.507635090261426,-0.5122972891384411,1.6422634788383748,0.6666666666666666,0.40444444444444444,0.12777777777777777,0.0473295294847783,-0.015433777026707085,-0.00545046578087449
1592240125.7415438,-9.568132807995386,-0.7135546799923121,1.7779281183932347,0.6828019091549747,0.41108836782198305,0.15340433937685521,0.04583722103673965,-0.021771959306152115,-0.010408911529768219
1592240125.7515438,-9.488549162076644,-0.5640067971405133,1.7085491620766435,0.6855555555555556,0.4122222222222222,0.15777777777777777,0.054561012919408555,-0.03076118091539656,-0.01691761402598795
1592240125.7615438,-9.232096317280455,-0.1264589235127479,1.549943342776204,0.6855555555555556,0.4122222222222222,0.15777777777777777,0.05053358579650012,-0.031145845486633936,-0.013933586397383908
1592240125.7715437,-9.381790960451978,-0.17589548022598872,1.5994661016949152,0.6855555555555556,0.4122222222222222,0.15777777777777777,0.04404213877114999,-0.02549801546871024,-0.008044722948766942
1592240125.7815437,-9.831697481951048,-0.22,1.622618418735693,0.6855555555555556,0.4122222222222222,0.15777777777777777,0.02695786881497581,-0.014855390365820287,-0.00545415391248228
1592240125.7915437,-9.969004195385077,-0.4451048846269104,1.6019916092298472,0.6855555555555556,0.4182250191456065,0.147773116238804,0.02181661564992912,-0.030661040253003397,0.003385694235406216
1592240125.8015437,-9.286586959103687,-0.3696824894097153,1.7191270438259632,0.6855555555555556,0.41888888888888887,0.14666666666666667,0.011557606720995053,-0.023149848474555215,-0.0045278179417570326
1592240125.8115437,-10.03901252844258,-0.7646895303890122,1.6473523041916822,0.6855555555555556,0.41888888888888887,0.14666666666666667,0.009344266353479867,-0.0009203146457035516,-0.01370758948346569
1592240125.8215437,-9.631633712406387,-0.660591195466973,1.5981182390933946,0.6855555555555556,0.41888888888888887,0.14666666666666667,0.02094631102554563,0.003177487154323492,0.008076867793701124
1592240125.8315437,-9.536301366747777,-0.6445866781888887,1.6247520069133332,0.6855555555555556,0.41888888888888887,0.14666666666666667,0.015066552882521888,0.024703684263135007,0.01258964041417299
1592240125.8415437,-9.61,-0.8092847442281574,1.7792847442281576,0.6721429505558071,0.41269845581208187,0.16007927166641517,0.0028050498763661693,0.040750257884570415,-0.0074019460983034725
1592240125.8515437,-9.624009069933965,-0.6518911607924258,1.4958095313867452,0.6711111111111111,0.4122222222222222,0.16111111111111112,0.008294271452238546,0.025405968780845535,0.002734497278613919
1592240125.8615437,-9.599175717132812,-0.24093288846093558,1.4547667778847662,0.6711111111111111,0.4122222222222222,0.16111111111111112,-0.002541322814998012,0.0034132888324818547,-0.011698028567471007
1592240125.8715436,-9.369021197490383,-0.3118724019519248,1.6518724019519249,0.6711111111111111,0.4122222222222222,0.16111111111111112,-0.002081086916151032,-0.011804185451682945,-0.004954378739225726
1592240125.8815436,-9.38308963495442,-0.3640199188787599,1.7390697160756596,0.6711111111111111,0.4122222222222222,0.16111111111111112,-0.00720817441491825,-0.0042401167697685115,-0.0014169936109401876
1592240125.8915436,-9.353943636955686,-0.2418711701844232,1.7920322074538941,0.6817885135957424,0.4006550361972049,0.18513526670153177,0.013768182554895543,0.003494171792202022,-0.001090830782496456
1592240125.9015436,-9.372150469724481,-0.3278850556564301,1.7249822373095445,0.6844444444444444,0.3977777777777778,0.19111111111111112,0.01905044205081647,0.01196197957354239,-0.0028443668848556636
1592240125.9115436,-9.619717079562273,-0.6277453716060466,1.6673239026520756,0.6844444444444444,0.3977777777777778,0.19111111111111112,0.020141950994618095,0.0073593294571913485,-0.009156806206520852
1592240125.9215436,-9.617396458328273,-0.6774717613622562,1.5873964583282727,0.6844444444444444,0.3977777777777778,0.19111111111111112,0.02400238435829626,-0.02130200383398762,-0.0018976592250896634
1592240125.9315436,-9.536809026482656,-0.42177545691906004,1.6722920552032823,0.6844444444444444,0.3977777777777778,0.19111111111111112,0.009616480993772374,-0.030741816711041488,-0.0034220187602336605
1592240125.9415436,-9.618194763435922,-0.46012402388608176,1.7893982544786404,0.6807964579186444,0.4109105292706579,0.19111111111111112,-0.012551318452344381,-0.01802476358445281,0.0027666615367727054
1592240125.9515436,-9.469459384657965,-0.5845200424373818,1.6938396605009456,0.6788888888888889,0.4177777777777778,0.19111111111111112,-0.03596692348167578,-0.02595527161612295,0.010803597328245379
1592240125.9615436,-9.685911412609737,-0.7099640861931364,1.9139209896249003,0.6788888888888889,0.4177777777777778,0.19111111111111112,-0.046032014331055957,-0.029889285785550137,0.0006578937129549656
1592240125.9715436,-9.924098531653694,-0.7904918558934446,1.9505464173954905,0.6788888888888889,0.4177777777777778,0.19111111111111112,-0.03497214166799297,-0.028534463282838568,0.00011325804642144067
1592240125.9815435,-9.715770145975382,-0.6019793621013133,1.7400839701642794,0.6788888888888889,0.4177777777777778,0.19111111111111112,-0.007560441181883299,-0.02315188876720273,-0.002219348712788859
1592240125.9915435,-9.44475541869004,-0.5872012317896482,1.7619566504796873,0.6831234948083225,0.41184932949057074,0.19111111111111112,0.008055261425050076,-0.034860654642731845,-0.0037912280565647284
1592240126.0015435,-9.661198115866178,-0.6719513668022062,1.780931196908088,0.6844444444444444,0.41,0.19111111111111112,0.015484492052529204,-0.04509414264131832,-0.0066006263311727455
1592240126.0115435,-9.457491634013099,-0.5727677830849756,1.7347970711895433,0.6844444444444444,0.41,0.19111111111111112,0.015444726203678762,-0.03878690753080175,0.000438728440450337
1592240126.0215435,-9.548879987181541,-0.5901426053517065,1.7222063771831437,0.6844444444444444,0.41,0.19111111111111112,0.006288750449322621,-0.028714840051914,-0.0020128196268593464
1592240126.0315435,-9.284603486543975,-0.47153449551465826,1.7223494867289373,0.6844444444444444,0.41,0.19111111111111112,-0.00638400317077928,-0.018031544813041388,0.006186981759680084
1592240126.0415435,-9.279526896465748,-0.5912148600635792,1.9516368509630366,0.6633361729241553,0.4161565791934177,0.23772521071841649,-0.027495354370401535,-0.014635545311974982,-0.008450453862134548
1592240126.0515435,-9.638841419261405,-0.6000937324000322,1.8394975460616299,0.6577777777777778,0.4177777777777778,0.25,-0.020158077174410025,0.00240743694418449,-0.0032074585064860803
1592240126.0615435,-9.437652497371896,-0.6530868756570257,1.7938585945712824,0.6577777777777778,0.4177777777777778,0.25,-0.011328333101332166,0.015103268005529247,0.008390802458314608
1592240126.0715435,-9.373328438570729,-0.659300048947626,1.747900146842878,0.6577777777777778,0.4177777777777778,0.25,-0.005913872612300903,0.010219530678894844,0.007157409025631421
1592240126.0815434,-9.354524809788396,-0.680009873579463,1.6900098735794629,0.6577777777777778,0.4177777777777778,0.25,0.003867588868891177,0.020232204687220343,-0.0017863666046465882
1592240126.0915434,-9.573635383319292,-0.73,1.783566301600674,0.6529370775999251,0.4129370775999251,0.23547789946644201,0.011831295865999219,0.03299190591712693,0.0014569529255011645
1592240126.1015434,-9.547200411532257,-0.8378062524843921,1.8315612504968786,0.65,0.41,0.22666666666666666,0.019498418504261775,0.010296078506278134,0.007635815477475192
1592240126.1115434,-9.612993443994979,-0.8869542474543172,1.9721307016320266,0.65,0.41,0.22666666666666666,0.013898468394392528,0.004125193659403183,-0.004501636030151716
1592240126.1215434,-9.342956285325892,-0.6630113758317235,1.6791993990126637,0.65,0.41,0.22666666666666666,0.01766120360276297,-0.023058072704888775,-0.004565224770847119
1592240126.1315434,-9.552551487189556,-0.8319136153921665,1.9335352900755867,0.65,0.41,0.22666666666666666,0.002187551001827829,-0.019313005343338692,-0.002799602693846406
1592240126.1415434,-9.463434224125203,-0.6221150155027314,1.751470544810276,0.6451124563216694,0.41,0.24947520383220959,0.023188649820324415,-0.0033460948379073333,0.00552445475945699
1592240126.1515434,-9.214475952630307,-0.47,1.5892540078949489,0.6433333333333333,0.41,0.2577777777777778,0.029696556472911046,0.001598854044690286,0.0007455577506404517
1592240126.1615434,-9.366722258029863,-0.7135863143194758,1.713135943710388,0.6433333333333333,0.41,0.2577777777777778,0.039172560691887785,0.008417319741753256,0.0028494424138221838
1592240126.1715434,-9.559859618511322,-0.7933723281912995,1.7732787405321806,0.6433333333333333,0.41,0.2577777777777778,0.04545468554733329,0.007275608159957327,0.0025597343349107867
1592240126.1815434,-9.70195824680293,-0.9576242212263636,1.924301672313914,0.6433333333333333,0.41,0.2577777777777778,0.052123493134277644,-0.006415406064044519,-0.0008352027141094853
1592240126.1915433,-9.43133974069535,-0.9275598271302329,1.9275256401986711,0.6418060303740495,0.41381825739820965,0.26617794405383904,0.0539979883414399,-0.018270483302882973,-0.0144469817405494
1592240126.2015433,-9.27702415693904,-0.8268709468223087,1.8834354734111542,0.6411111111111111,0.41555555555555557,0.27,0.05377532246380368,-0.010683969490399587,-0.020059843993325915
1592240126.2115433,-9.516276830732293,-0.9644569027611045,1.8517270108043218,0.6411111111111111,0.41555555555555557,0.27,0.04362309560927417,0.015608911118623598,-0.019307809611847054
1592240126.2215433,-9.662983050847458,-1.0206440677966102,1.8091525423728814,0.6411111111111111,0.41555555555555557,0.27,0.0297778314964202,0.025436694755230915,-0.011884508932012235
1592240126.2315433,-9.537685030387664,-0.8007173062171784,1.636527545581496,0.6411111111111111,0.41555555555555557,0.27,0.014435812950628955,0.02445530920219146,0.00289121756363034
1592240126.2415433,-9.445016271365327,-0.645081356826644,1.715732211439796,0.63163593186549,0.41555555555555557,0.2772457253054749,-0.012592477125378773,0.01634826229250772,0.01091185768619934
1592240126.2515433,-9.751825606897073,-0.67,1.8331034308906198,0.6222222222222222,0.41555555555555557,0.28444444444444444,-0.03755954027956772,0.018858319085565227,0.011313220559650594
1592240126.2615433,-9.553540802213,-0.6565550286504643,1.6826076862280182,0.6222222222222222,0.41555555555555557,0.28444444444444444,-0.04436654073075106,0.02070751813974711,0.01824140213389277
1592240126.2715433,-9.488323961325296,-0.7172822525183058,1.6910417088069905,0.6222222222222222,0.41555555555555557,0.28444444444444444,-0.044724062082354694,0.02672122808684894,0.018526559863326776
1592240126.2815433,-9.552926531442914,-0.7686758021843837,1.610801166813649,0.6222222222222222,0.41555555555555557,0.28444444444444444,-0.03226501483143561,0.04791293467648804,0.00706949514788796
1592240126.2915432,-9.440671452563638,-0.6168096947344156,1.2029479369051932,0.6040630362637804,0.420095352045166,0.2889842409340549,-0.026668364575996358,0.04358642547413977,0.017687321648535665
1592240126.3015432,-9.510219543349832,-0.735385997125978,1.36066222257704,0.5955555555555555,0.4222222222222222,0.2911111111111111,-0.030171668827598964,0.038946212016388516,0.01679392598077102
1592240126.3115432,-9.315111624326406,-0.6085937900949447,1.398242237618681,0.5955555555555555,0.4222222222222222,0.2911111111111111,-0.0267061799580246,0.02881814255847001,0.007883260797394839
1592240126.3215432,-9.427868793040957,-0.5893185936933671,1.2963404615198744,0.5955555555555555,0.4222222222222222,0.2911111111111111,-0.02916947671275892,0.027495604323186915,0.007569129434712934
1592240126.3315432,-9.796061447146487,-1.3511937143711168,2.011879923991716,0.5955555555555555,0.4222222222222222,0.2911111111111111,-0.03666173798733659,0.014900482517820259,-0.0021263013845801166
1592240126.3415432,-9.559774647887323,-1.1969295774647888,1.8248450704225352,0.606037558685446,0.4253051643192488,0.2874115805946792,-0.009590092597666026,0.0012106685304326863,-0.003877826612705711
1592240126.3515432,-9.64074979079498,-1.0322891213389123,1.6291564853556486,0.6144444444444445,0.42777777777777776,0.28444444444444444,0.008925232232132404,0.005153331080372065,-0.004093171355860447
1592240126.3615432,-9.211753167764826,-0.6931439432336544,1.6085210339584388,0.6144444444444445,0.42777777777777776,0.28444444444444444,0.05458427669171939,0.03007851160287263,-0.007246920205094043
1592240126.3715432,-9.23119990400768,-0.5028773698104152,1.4913590912726982,0.6144444444444445,0.42777777777777776,0.28444444444444444,0.07253156471757112,0.03986388346276525,-0.007498818090984556
1592240126.3815432,-9.746284033199847,-0.7105120919931095,1.7786579118101076,0.6144444444444445,0.42777777777777776,0.28444444444444444,0.09381144729469522,0.033545798103651214,-0.004161063447994491
1592240126.3915431,-9.355301824689228,-0.5546981753107724,1.6844760809126642,0.6144444444444445,0.4245855480636422,0.3004055930151223,0.10070616851991351,0.020050538547561163,-0.012137666761669334
1592240126.4015431,-9.327446515397083,-0.6249708265802268,1.695029173419773,0.6144444444444445,0.4222222222222222,0.31222222222222223,0.10444969936272892,0.014314767275442045,-0.012403161467379983
1592240126.4115431,-9.509957543443917,-0.6195329778830964,1.4544268364928912,0.6144444444444445,0.4222222222222222,0.31222222222222223,0.09873639533733188,0.02400290850675135,-0.02232729635245745
1592240126.4215431,-9.72665932310076,-0.7208458819541955,1.5361170290030504,0.6144444444444445,0.4222222222222222,0.31222222222222223,0.0944881923107281,0.015889220861488466,-0.020505722578405813
1592240126.431543,-9.764465320656084,-0.8802886472972461,1.8106451001931891,0.6144444444444445,0.4222222222222222,0.31222222222222223,0.09282247256276331,-0.002550202788110677,-0.018308924665598587
1592240126.441543,-9.503044694970816,-0.729134084912449,1.7814176061405613,0.6077719588141751,0.42838143972708614,0.32556719348276075,0.08624723748384107,-0.015354662129887347,-0.0121709137114929
1592240126.451543,-9.496644166633383,-0.6264652314574429,1.6627515277389464,0.6,0.43555555555555553,0.3411111111111111,0.0713676594949863,-0.01595735950412607,-0.01589880310473017
1592240126.461543,-9.4437949044586,-0.5786417834394905,1.695459363057325,0.6,0.43555555555555553,0.3411111111111111,0.0707224365947015,-0.01312337521417558,-0.009817477042468103
1592240126.471543,-9.384323073466637,-0.526580993035273,1.6177420804313638,0.6,0.43555555555555553,0.3411111111111111,0.06000270219488301,0.004229658985125441,-0.013448906879070998
1592240126.481543,-9.46,-0.6146822349345662,1.7180350286027741,0.6,0.43555555555555553,0.3411111111111111,0.058469803617749165,0.005851365568196205,-0.00690434936934713
1592240126.491543,-9.55226344797857,-0.6559885457400623,1.7959312744403733,0.5893027886401658,0.43466412127556936,0.3326424854512424,0.05255055546580126,-0.006557479354309606,-0.0011095727714927617
1592240126.501543,-9.585621911324564,-0.6395621911324564,1.7547810955662282,0.5733333333333334,0.43333333333333335,0.32,0.03362472410156351,-0.00910491026487158,-0.005215366217699002
1592240126.511543,-9.495137367267825,-0.635137367267824,1.760274734535648,0.5733333333333334,0.43333333333333335,0.32,0.01544243523557388,-0.00545415391248228,-0.002241599342692869
1592240126.521543,-9.474856640769515,-0.5796559378468369,1.7297706252312246,0.5733333333333334,0.43333333333333335,0.32,-0.006046483502200805,-0.002711438890084374,-0.003814780125506243
1592240126.531543,-9.502447948530717,-0.5603445757928598,1.69,0.5733333333333334,0.43333333333333335,0.32,-0.020782165949695855,0.003960819466345157,-0.0010720370884087249
1592240126.541543,-9.496951705804165,-0.5992379264510412,1.6484758529020824,0.5814074730468173,0.43833161029882345,0.3353793137399695,-0.035827773994888026,0.01359212853174472,0.003691522160703558
1592240126.551543,-9.549165805607219,-0.6827712337259765,1.588188330922367,0.5966666666666667,0.4477777777777778,0.36444444444444446,-0.04928696133401239,0.024693863117902653,0.009521043382831228
1592240126.561543,-9.674470625696545,-0.8589683171469511,1.5713755771373985,0.5966666666666667,0.4477777777777778,0.36444444444444446,-0.0681971566374663,0.02576581905361932,0.007823380713121771
1592240126.571543,-9.54,-0.89,1.53,0.5966666666666667,0.4477777777777778,0.36444444444444446,-0.0839939702522271,0.02181661564992912,0.002181661564992912
1592240126.581543,-9.659794769869805,-1.0411217311686283,1.6479617677929388,0.5966666666666667,0.4477777777777778,0.36444444444444446,-0.10161439892971541,-0.0022264358336953945,0.02045867395539636
1592240126.591543,-9.537305134000645,-0.9327617048756861,1.6873051340006457,0.5901039357083916,0.43717644315287196,0.3604058407778137,-0.11651724677104096,-0.014576803094236543,0.020825393180409737
1592240126.601543,-9.45,-0.84,1.6,0.5822222222222222,0.42444444444444446,0.35555555555555557,-0.12544553998709243,-0.016362461737446838,0.019634954084936207
1592240126.611543,-9.563408084449021,-0.9434080844490216,1.801626158599382,0.5822222222222222,0.42444444444444446,0.35555555555555557,-0.1324132637381509,-0.01066295515462756,0.018121384246360023
1592240126.621543,-9.502969411764706,-0.8388282352941177,1.7344141176470589,0.5822222222222222,0.42444444444444446,0.35555555555555557,-0.11728971905894953,0.0056204735235546805,0.021207290408129922
1592240126.631543,-9.556396382931021,-0.8636036170689784,1.7468018085344892,0.5822222222222222,0.42444444444444446,0.35555555555555557,-0.09180175400828211,0.025941632892093947,0.020332691224715534
1592240126.641543,-9.50693084828427,-0.8646239331126981,1.736930848284271,0.5806842787745069,0.42444444444444446,0.35555555555555557,-0.06805275426374294,0.0401922406527838,0.017704937928119276
1592240126.651543,-9.53409516647296,-0.884095166472961,1.637370615984139,0.5755555555555556,0.42444444444444446,0.35555555555555557,-0.04682577761611521,0.05036159966162844,0.014594550714690225
1592240126.661543,-9.638298985300171,-0.9882989853001719,1.5405567529605502,0.5755555555555556,0.42444444444444446,0.35555555555555557,-0.04003124164410649,0.04886022676178747,0.010290919739387713
1592240126.671543,-9.627383409383409,-0.9295790335790336,1.4543458523458523,0.5755555555555556,0.42444444444444446,0.35555555555555557,-0.03486066472684784,0.032918508607793016,0.012330484679476611
1592240126.6815429,-9.615477739160825,-0.8554777391608256,1.5359489738461836,0.5755555555555556,0.42444444444444446,0.35555555555555557,-0.033555897494280236,0.012402129448743271,0.011921323484169324
1592240126.6915429,-9.51750871393151,-0.7988612598368608,1.739075065579072,0.5739145815116925,0.42871097695848853,0.35128902304151144,-0.043458566670629584,-0.011576039413588913,0.007313610977416948
1592240126.7015429,-9.44,-0.82,1.88,0.57,0.4388888888888889,0.3411111111111111,-0.053450708342326333,-0.02617993877991494,0.006544984694978735
1592240126.7115428,-9.40198544555815,-0.7474818069476864,1.9229781683372236,0.57,0.4388888888888889,0.3411111111111111,-0.04182661302463206,-0.00915186506973513,0.004471612386575819
1592240126.7215428,-9.38,-0.72,1.89,0.57,0.4388888888888889,0.3411111111111111,-0.031634092692397225,0.007635815477475192,0.0032724923474893677
1592240126.7315428,-9.536335486745378,-0.6400903217967152,1.6937548350513376,0.57,0.4388888888888889,0.3411111111111111,-0.003682081313208941,0.05299185647851311,0.004002997062359916
1592240126.7415428,-9.619325091061922,-0.6013498178761558,1.5813498178761558,0.567927757541795,0.4409611313470938,0.3483639597148283,0.007223124453640549,0.07451556308908991,0.0032724923474893677
1592240126.7515428,-9.64,-0.56,1.54,0.5633333333333334,0.44555555555555554,0.36444444444444446,0.008726646259971648,0.07526732399225547,0.0032724923474893677
1592240126.7615428,-9.643383557252353,-0.5985929531081514,1.517185906216303,0.5633333333333334,0.44555555555555554,0.36444444444444446,-0.013596107497617135,0.05045593865726489,0.0024429484883554385
1592240126.7715428,-9.6,-0.58,1.48,0.5633333333333334,0.44555555555555554,0.36444444444444446,-0.025089107997418484,0.03490658503988659,0.001090830782496456
1592240126.7815428,-9.59,-0.5812439461038349,1.6162681616884953,0.5633333333333334,0.44555555555555554,0.36444444444444446,-0.029269745493482782,0.01099700913140896,0.003408185817672334
1592240126.7915428,-9.592866710439921,-0.56,1.6670998030203545,0.5660407820821478,0.44459998540891515,0.3663555847377253,-0.024772745583348438,0.0026470731490153654,0.0009344759828779554
1592240126.8015428,-9.613671129435744,-0.5563288705642546,1.5863288705642546,0.5822222222222222,0.4388888888888889,0.37777777777777777,-0.010756048344390954,-0.005495869877040364,-0.0008009161990079834
1592240126.8115427,-9.62,-0.5427884378237064,1.5511537512948257,0.5822222222222222,0.4388888888888889,0.37777777777777777,0.004415785025755273,-0.01977657429997743,-0.002574991265582321
1592240126.8215427,-9.60866053097345,-0.5186605309734513,1.5151192920353982,0.5822222222222222,0.4388888888888889,0.37777777777777777,0.01954089165002784,-0.03864344308614772,-0.004097121805577662
1592240126.8315427,-9.574967301348458,-0.4909803808090746,1.591111175415244,0.5822222222222222,0.4388888888888889,0.37777777777777777,0.030329375996879293,-0.05509765512476557,-0.005782116521144186
1592240126.8415427,-9.536416246851385,-0.4682081234256927,1.7189593828715366,0.5752538133221382,0.4374952071088721,0.37379582983487264,0.0354929752775932,-0.06693160455742155,-0.007131374932685348
1592240126.8515427,-9.52,-0.4489766440591653,1.7489766440591652,0.5433333333333333,0.4311111111111111,0.35555555555555557,0.03978235951893298,-0.06591659556705193,-0.010218297575357358
1592240126.8615427,-9.523481243301179,-0.44392497320471597,1.698668810289389,0.5433333333333333,0.4311111111111111,0.35555555555555557,0.03950444263393328,-0.05880805540723016,-0.011667797295821684
1592240126.8715427,-9.533484685460152,-0.476969370920307,1.6643927982210744,0.5433333333333333,0.4311111111111111,0.35555555555555557,0.03267539360721415,-0.05226081782447083,-0.01194960873978149
1592240126.8815427,-9.54288179803487,-0.4813546058953892,1.71,0.5433333333333333,0.4311111111111111,0.35555555555555557,0.03180068351205048,-0.045796066626082065,-0.009817477042468103
1592240126.8915427,-9.553384265084787,-0.4583078674576068,1.7083078674576069,0.5467175984181197,0.4344953761958975,0.3593158500942071,0.03435283596029465,-0.040176155925838224,-0.009448310989406806
1592240126.9015427,-9.563244932392292,-0.43311233098072766,1.6898673985884365,0.5633333333333334,0.45111111111111113,0.37777777777777777,0.02979193377131382,-0.040375203522522454,-0.006898951909041831
1592240126.9115427,-9.556743161021416,-0.4033715805107076,1.6598852584678772,0.5633333333333334,0.45111111111111113,0.37777777777777777,0.02397324449586795,-0.045484659562757775,-0.005086371531807781
1592240126.9215426,-9.556658876866631,-0.41,1.6666822462667383,0.5633333333333334,0.45111111111111113,0.37777777777777777,0.01636054983287141,-0.0516328694720073,-0.003999500435311957
1592240126.9315426,-9.524612297318992,-0.41538770268100816,1.7388569593835286,0.5633333333333334,0.45111111111111113,0.37777777777777777,0.00805435546305338,-0.051478316770122524,-0.002978638750920247
1592240126.9415426,-9.50499623323791,-0.43333584450806084,1.7950037667620913,0.5633333333333334,0.44907253946729614,0.37555388143907054,0.002726666066237186,-0.04690408008733179,-0.0014538931899900028
1592240126.9515426,-9.486462449699326,-0.44676877515033686,1.8296936745489896,0.5633333333333334,0.4388888888888889,0.36444444444444446,-0.0003524719531180053,-0.033177640197439004,0.0014767176587569012
1592240126.9615426,-9.49417208895795,-0.4458279110420511,1.8266883558317957,0.5633333333333334,0.4388888888888889,0.36444444444444446,-0.0017265572587284877,-0.023456410705019207,0.0
1592240126.9715426,-9.482995093090414,-0.45400981381917216,1.7819803723616556,0.5633333333333334,0.4388888888888889,0.36444444444444446,-0.0026190643995961794,-0.009606804537201608,0.0006534279478931886
1592240126.9815426,-9.492410648507656,-0.4448212970153117,1.8124106485076559,0.5633333333333334,0.4388888888888889,0.36444444444444446,-0.0016167527020824858,0.0047722842195986655,0.0016557396454068818
1592240126.9915426,-9.501339470092052,-0.45732105981589727,1.8186605299079486,0.564226313394701,0.43978186895025645,0.365337424505812,-0.0029802653057607663,0.01840805102954705,0.000584454083457203
1592240127.0015426,-9.51,-0.44,1.81,0.57,0.44555555555555554,0.3711111111111111,-0.001090830782496456,0.031634092692397225,0.004363323129985824
1592240127.0115426,-9.528087062501655,-0.4480870625016559,1.779393000026495,0.57,0.44555555555555554,0.3711111111111111,-0.0008821616716779092,0.04421175340391016,0.0015081690041335496
1592240127.0215425,-9.52,-0.4455170414744318,1.672068165897727,0.57,0.44555555555555554,0.3711111111111111,-0.0006018158668619787,0.05187086264419541,0.0032724923474893677
1592240127.0315425,-9.513187822654114,-0.4554585484360765,1.748165806255694,0.57,0.44555555555555554,0.3711111111111111,-0.0024293593231501315,0.05468919713311243,0.0032724923474893677
1592240127.0415425,-9.48919134963017,-0.4395956748150851,1.8112129755547448,0.5704941752260071,0.4447019801651796,0.3704821608234657,-0.0032724923474893677,0.05934591261265239,0.0031842822759206137
1592240127.0515425,-9.48450465914664,-0.43,1.8254953408533596,0.5822222222222222,0.42444444444444446,0.35555555555555557,-0.0029560497737538827,0.07550913640701191,0.0017237159299674258
1592240127.0615425,-9.522341728120217,-0.43468345624043414,1.7548740781967442,0.5822222222222222,0.42444444444444446,0.35555555555555557,-0.0026925473885469776,0.09353521075314192,0.0032724923474893677
1592240127.0715425,-9.53,-0.45214838010357705,1.635703239792846,0.5822222222222222,0.42444444444444446,0.35555555555555557,-0.0038946193000888763,0.10994799157898283,0.0037411961773863153
1592240127.0815425,-9.539226137597472,-0.4581547724805054,1.6218452275194948,0.5822222222222222,0.42444444444444446,0.35555555555555557,-0.0017790953691980498,0.12208863234659377,0.005252870814584848
1592240127.0915425,-9.580197131503787,-0.4496057369924252,1.6298028684962125,0.5819812837175932,0.4245758654469694,0.355993625563972,0.0,0.12651486705833578,0.004406330552492049
1592240127.1015425,-9.594838950611521,-0.4324194753057604,1.62,0.57,0.4311111111111111,0.37777777777777777,-0.000527847628202701,0.12438984473068702,0.006281060880877385
1592240127.1115425,-9.612232469278487,-0.44,1.584280491544213,0.57,0.4311111111111111,0.37777777777777777,-0.002181661564992912,0.11913401988914586,0.005941203154472465
1592240127.1215425,-9.624252979351033,-0.4421264896755162,1.4685059587020648,0.57,0.4311111111111111,0.37777777777777777,-0.0024136256046643116,0.11026789424009235,0.007403851437803792
1592240127.1315424,-9.641757667643263,-0.45,1.5,0.57,0.4311111111111111,0.37777777777777777,-0.002697296956288743,0.10023731198986437,0.006161521100844986
1592240127.1415424,-9.65,-0.4494983160052716,1.4989966320105432,0.5693868306731097,0.4321144791005678,0.3781679764403443,0.0,0.0886819708823597,0.004418048364439373
1592240127.1515424,-9.640990171699231,-0.44450491415038484,1.4822524570751925,0.5577777777777778,0.45111111111111113,0.38555555555555554,0.0,0.06901668923062816,0.005208448961095097
1592240127.1615424,-9.605408838404776,-0.45846961280159193,1.488469612801592,0.5577777777777778,0.45111111111111113,0.38555555555555554,0.0005008180395486174,0.04893189592610655,0.004029444436953412
1592240127.1715424,-9.584543404361163,-0.45151446812038804,1.481514468120388,0.5577777777777778,0.45111111111111113,0.38555555555555554,0.002776883814040725,0.03831025564514337,0.0025120672539586737
1592240127.1815424,-9.574983920949542,-0.43334405270030596,1.546688105400612,0.5577777777777778,0.45111111111111113,0.38555555555555554,0.002181661564992912,0.025632769436347316,0.0027253230039217423
1592240127.1915424,-9.5504601531895,-0.4496932312070007,1.5793864624140015,0.5577777777777778,0.45111111111111113,0.38555555555555554,0.002181661564992912,0.02295764135880251,5.019492637693473e-05
1592240127.2015424,-9.552136328022984,-0.4321363280229825,1.64290937581614,0.5777777777777777,0.45111111111111113,0.36444444444444446,0.001948624328095001,0.02602125694501013,0.0004660744737958219
1592240127.2115424,-9.55795075493612,-0.44,1.5636060394889664,0.5777777777777777,0.45111111111111113,0.36444444444444446,0.0006437548631847841,0.03057012092568349,0.001958123605337076
1592240127.2215424,-9.56289148286069,-0.4381583595913301,1.50368328081734,0.5777777777777777,0.45111111111111113,0.36444444444444446,-0.0006890471728831571,0.03571015225911319,0.001090830782496456
1592240127.2315423,-9.62,-0.42847886551494496,1.521521134485055,0.5777777777777777,0.45111111111111113,0.36444444444444446,0.0007589707183734695,0.03877211807368793,0.0015886208786809357
1592240127.2415423,-9.62,-0.4202634465467936,1.5297365534532064,0.5777777777777777,0.45111111111111113,0.36444444444444446,-0.0010333556619394875,0.036083628503218494,0.004277110449150371
1592240127.2515423,-9.562179035505125,-0.4243580710102489,1.5965371065153735,0.56,0.44555555555555554,0.37777777777777777,0.0,0.03381575425739013,0.0032724923474893677
1592240127.2615423,-9.568163260473158,-0.438163260473157,1.596122386151041,0.56,0.44555555555555554,0.37777777777777777,-0.00020035720153083365,0.03381575425739013,0.0026714207428968667
1592240127.2715423,-9.561733723142606,-0.43520116942781567,1.496934892570421,0.56,0.44555555555555554,0.37777777777777777,-0.0014690704969525104,0.03438311382907421,0.00018911985722802727
1592240127.2815423,-9.568696800280568,-0.45739360056113715,1.5352127988777258,0.56,0.44555555555555554,0.37777777777777777,-0.0027038641996107457,0.036946089567909846,0.0012329878194661116
1592240127.2915423,-9.560043941988324,-0.4400878839766468,1.5698242320467064,0.56,0.44555555555555554,0.37777777777777777,0.001071657473093552,0.03600220914973377,0.0021768682376421856
1592240127.3015423,-9.571800193272285,-0.44639961345543233,1.6019980672771617,0.5722222222222222,0.4388888888888889,0.3711111111111111,0.0003927412471700461,0.03985902004062748,0.0005891118707550691
1592240127.3115423,-9.584457510486875,-0.43445751048687375,1.503655794881463,0.5722222222222222,0.4388888888888889,0.3711111111111111,0.0018575022548340697,0.04173200224196468,0.0027862533822511043
1592240127.3215423,-9.605924194980604,-0.4572827966537365,1.420868813385054,0.5722222222222222,0.4388888888888889,0.3711111111111111,0.00029640090524065966,0.03679184569963884,0.00014820045262032983
1592240127.3315423,-9.578967933788055,-0.4389679337880552,1.5003206621194476,0.5722222222222222,0.4388888888888889,0.3711111111111111,0.0022942425243492985,0.03501916599924298,0.0012034117418528423
1592240127.3415422,-9.570245799367825,-0.43024579936782564,1.5875420063217436,0.5722222222222222,0.4388888888888889,0.3711111111111111,0.0032456797958151287,0.0359706032707088,0.002154849013318673
1592240127.3515422,-9.58146765108503,-0.43559704674491145,1.5514676510850296,0.5911111111111111,0.45111111111111113,0.36444444444444446,0.0027922046530350136,0.04084102664682322,0.0
1592240127.3615422,-9.59,-0.4138885583977791,1.5522228832044418,0.5911111111111111,0.45111111111111113,0.36444444444444446,0.0001060439799958135,0.04310301139987917,0.0
1592240127.3715422,-9.587351784343822,-0.44735178434382195,1.483972323484267,0.5911111111111111,0.45111111111111113,0.36444444444444446,0.001090830782496456,0.03789020187173115,0.0
1592240127.3815422,-9.572238826246434,-0.43,1.511119413123217,0.5911111111111111,0.45111111111111113,0.36444444444444446,0.001090830782496456,0.03599741582238304,0.00024421805862711037
1592240127.3915422,-9.588518834785646,-0.43,1.519259417392823,0.5911111111111111,0.45111111111111113,0.36444444444444446,0.001090830782496456,0.03599741582238304,0.002020091504014921
1592240127.4015422,-9.57,-0.46,1.54,0.56,0.44555555555555554,0.39222222222222225,0.002181661564992912,0.0370882466048795,0.001090830782496456
1592240127.4115422,-9.58,-0.4399815051540784,1.4899722577311176,0.56,0.44555555555555554,0.39222222222222225,-0.0010918395198588973,0.03490658503988659,0.002181661564992912
1592240127.4215422,-9.581198775914038,-0.4247951036561515,1.46,0.56,0.44555555555555554,0.39222222222222225,-0.0019201292313233446,0.03490658503988659,0.002050895398158128
1592240127.4315422,-9.588488867059594,-0.457733300589391,1.4652889652914212,0.56,0.44555555555555554,0.39222222222222225,-8.241951639196372e-05,0.03515384358906248,0.0011732502988884197
1592240127.4415421,-9.571321627373935,-0.4319824410609037,1.5253743041912247,0.56,0.44555555555555554,0.39222222222222225,-0.0010187471913724985,0.03796282661400408,0.0021095779738689547
1592240127.4515421,-9.57,-0.44,1.53,0.5644444444444444,0.45111111111111113,0.37777777777777777,-0.002181661564992912,0.04363323129985824,0.002181661564992912
1592240127.4615421,-9.590211393487214,-0.43,1.5386259423331001,0.5644444444444444,0.45111111111111113,0.37777777777777777,-0.001090830782496456,0.04363323129985824,0.0011138902348038341
1592240127.4715421,-9.609113370374748,-0.43,1.4135465185010048,0.5644444444444444,0.45111111111111113,0.37777777777777777,-0.0013809796488656516,0.043052933567119846,0.003079059769909904
1592240127.481542,-9.600680730011819,-0.4293192699881804,1.4520421900354588,0.5644444444444444,0.45111111111111113,0.37777777777777777,-0.00421481087969342,0.0370139904797333,0.0012393430327888597
1592240127.491542,-9.609083278241881,-0.42091672175811845,1.4772498347256446,0.5644444444444444,0.45111111111111113,0.37777777777777777,-0.002381659227540893,0.03609741465365703,0.003072494684941387
1592240127.501542,-9.59,-0.43,1.4812373966754473,0.5644444444444444,0.4311111111111111,0.38555555555555554,-0.0034074713858630434,0.03341081714226911,0.004228344091612148
1592240127.511542,-9.59,-0.43,1.480603168677229,0.5644444444444444,0.4311111111111111,0.38555555555555554,-0.00427790352277911,0.030116163873867202,0.0031870727402826546
1592240127.521542,-9.59,-0.4305982361587457,1.3735894169524743,0.5644444444444444,0.4311111111111111,0.38555555555555554,-0.0031419774640569155,0.024958593113986034,0.002116404123276686
