time,acc_x,acc_y,acc_z,mag_x,mag_y,mag_z,gyr_x,gyr_y,gyr_z
1592225627.6743512,-9.66,-0.3,1.398211868563021,0.2808681815704866,-0.007027300964525094,-0.17436346793090293,-0.01682468723822023,-0.03371410744587746,0.029554077938916984
1592225627.6843512,-9.63453288646837,-0.28302192431224693,1.4,0.28444444444444444,-0.0044444444444444444,-0.17555555555555555,-0.013317701832330352,-0.023488735395699765,-0.1111602418511149
1592225627.6943512,-9.680774849613291,-0.28846247493554855,1.3323002005156117,0.28444444444444444,-0.0044444444444444444,-0.17555555555555555,0.03600272780270457,0.22885011127302907,-0.0435394123532972
1592225627.7043512,-9.665823761746948,-0.298058746084351,1.3522349843374042,0.28444444444444444,-0.0044444444444444444,-0.17555555555555555,0.0007704205966903022,0.010076677492624087,0.002617706647840383
1592225627.7143512,-9.64700537048568,-0.30649731475716063,1.3729946295143212,0.28444444444444444,-0.0044444444444444444,-0.17555555555555555,-0.002730006101788784,0.05002636739159172,-0.0029399706507546725
1592225627.7243512,-9.702462822854162,-0.3256157057135403,1.3175371771458388,0.26362350349305735,-0.0044444444444444444,-0.17035032031770878,0.08455788394790067,0.1253997922573021,-0.0030038400493738824
1592225627.7343512,-9.77690903215382,-0.2893506913186991,1.1861819356923573,0.2577777777777778,-0.0044444444444444444,-0.1688888888888889,0.06542439095825621,0.08921866773461706,-0.04188502660351885
1592225627.7443511,-9.798608750953957,-0.24556499618417704,1.0480862375985753,0.2577777777777778,-0.0044444444444444444,-0.1688888888888889,0.044363541260014475,-0.001129291516776279,0.09146944942186044
1592225627.7543511,-9.817297322931735,-0.24864866146586678,1.0213513385341333,0.2577777777777778,-0.0044444444444444444,-0.1688888888888889,-0.002741885023558599,0.0801614613711302,-0.04584461246196517
1592225627.7643511,-9.726976762551578,-0.2571556336498786,1.2203577421966003,0.2577777777777778,-0.0044444444444444444,-0.1688888888888889,0.022965981862462993,0.10114674644003568,-0.08339293758795767
1592225627.7743511,-9.622949412552504,-0.26,1.4424824983259268,0.2801279735936094,0.00021184635052048494,-0.162370081775938,-0.07005680909730405,0.023173995087745522,0.04512474832704841
1592225627.784351,-9.580041272639846,-0.24801650905593844,1.5299174547203078,0.28444444444444444,0.0011111111111111111,-0.16111111111111112,-0.05001587645620131,0.0945643548210817,0.01861615764807023
1592225627.794351,-9.551725388601037,-0.30619689119170984,1.445880829015544,0.28444444444444444,0.0011111111111111111,-0.16111111111111112,0.025834038034377203,0.1924315931891209,-0.01997294206832112
1592225627.804351,-9.592102813775327,-0.32842056275506554,1.352635497959476,0.28444444444444444,0.0011111111111111111,-0.16111111111111112,-0.05953083839297066,0.21357243666218398,-0.05746742110410716
1592225627.814351,-9.69081143612626,-0.34297306230375146,1.2556750950256157,0.28444444444444444,0.0011111111111111111,-0.16111111111111112,0.0003838008157221878,0.19334222980761595,-0.03181076004768503
1592225627.824351,-9.81136485312011,-0.3817177124978272,1.0989880062576047,0.2685855881955308,-0.003294126735809336,-0.18401834791509744,-0.014545383768592317,0.12485509203703266,-0.13787099945868783
1592225627.834351,-9.877477895064853,-0.3187831574027188,0.9275663148054376,0.2644444444444444,-0.0044444444444444444,-0.19,0.021302111308977557,0.09152938323918546,-0.09714520938036711
1592225627.844351,-9.937783764564301,-0.23221623543569828,0.7077298834855861,0.2644444444444444,-0.0044444444444444444,-0.19,0.06386375357253565,0.031846458906220586,0.004015386239622231
1592225627.854351,-9.8839390353576,-0.19796516306148532,0.8101306385194301,0.2644444444444444,-0.0044444444444444444,-0.19,-0.009893479452267637,0.005000721057278803,-0.05308277819814734
1592225627.864351,-9.82334492903431,-0.18333498986204427,1.0066252534488929,0.2644444444444444,-0.0044444444444444444,-0.19,-0.051990123524463736,-0.03380708069334214,-0.016375472083518833
1592225627.874351,-9.678893166506256,-0.134584937439846,1.332213666987488,0.282946877339322,-0.019582798631162444,-0.16308737033472356,-0.08747775200777944,-0.0033802368220357537,0.0444955808032009
1592225627.884351,-9.591122070923351,-0.11185367848722513,1.4588779290766491,0.28888888888888886,-0.024444444444444446,-0.15444444444444444,-0.02203496026115874,-0.04487291432212566,0.06451862817756716
1592225627.894351,-9.62016847341499,-0.005561969121028673,1.4539326106340045,0.28888888888888886,-0.024444444444444446,-0.15444444444444444,0.015578009585258765,-0.008738983310916403,0.01921830986236646
1592225627.904351,-9.606215009567004,1.2885328230930952,1.4262150095670043,0.28888888888888886,-0.024444444444444446,-0.15444444444444444,0.05531965116835964,0.029217892073184606,0.03877029514830948
1592225627.914351,-9.340404318076931,2.079284668017738,1.107153921785019,0.28888888888888886,-0.024444444444444446,-0.15444444444444444,-0.040197892452343315,0.04035395368153447,0.05126226150649903
1592225627.924351,-9.69246750886122,1.7815832045805688,0.7815192826198916,0.2854852380327251,-0.015084404589993975,-0.15954992072869018,-0.07935451085581273,0.09767758634995417,0.01669391778726475
1592225627.934351,-9.962638263985665,1.3530814254429624,0.6867159068285885,0.28444444444444444,-0.012222222222222223,-0.16111111111111112,-0.14372997476679494,0.1035202538765698,0.060932508850471155
1592225627.944351,-9.69902155270981,0.7024079579236222,0.5804013263206037,0.28444444444444444,-0.012222222222222223,-0.16111111111111112,-0.23682062882240482,-0.02416796338912583,-0.04172617946221055
1592225627.954351,-10.383304047990176,0.08923102356997781,0.872535071560153,0.28444444444444444,-0.012222222222222223,-0.16111111111111112,-0.19473753707716498,0.035980824848316446,-0.0446602744242974
1592225627.964351,-9.826419812745394,0.08679613409845968,1.0383980670492299,0.28444444444444444,-0.012222222222222223,-0.16111111111111112,-0.29305267259651147,0.023024820834955745,-0.07212457165145504
1592225627.974351,-9.233207516864761,0.17,1.1991374879537424,0.28797444408751827,-0.001632223293000678,-0.16728861048649035,-0.3804804103301857,0.10938986345686554,0.001684778156840011
1592225627.984351,-9.877177535807672,-0.14076181555633613,1.3087846856340006,0.28888888888888886,0.0011111111111111111,-0.1688888888888889,-0.32960957237817423,0.040522598946711896,-0.030023070623504792
1592225627.994351,-9.784309958970534,-0.3932796930782757,1.3146318005008792,0.28888888888888886,0.0011111111111111111,-0.1688888888888889,-0.24216004528110838,-0.09199632161260433,0.0036025838918916364
1592225628.004351,-9.89070172120295,-0.3173425383014942,1.1138452808776245,0.28888888888888886,0.0011111111111111111,-0.1688888888888889,-0.24686344469801436,-0.05700524451044606,0.05407628029854523
1592225628.014351,-9.845408428875157,-0.4920372762135633,1.2671458660361237,0.28888888888888886,0.0011111111111111111,-0.1688888888888889,-0.15804635320187577,-0.04335460094817839,0.0468583423989017
1592225628.024351,-9.877765986477062,-0.5859270489069464,1.6010942663958037,0.2755977684121161,-0.00827085628425794,-0.17357987258657342,-0.14891498868312977,-0.06710433372195376,-0.034860181486694064
1592225628.0343509,-9.785441743903894,-0.35410716416723015,1.639471339353196,0.27,-0.012222222222222223,-0.17555555555555555,-0.15339782386072898,-0.11732863771676397,-0.02568835112985319
1592225628.0443509,-9.534145208131655,-0.02143272023233303,1.5938586640851886,0.27,-0.012222222222222223,-0.17555555555555555,-0.14600046675132283,-0.121532276953428,0.06211484038901262
1592225628.0543509,-9.710230539415182,-0.19779623138629465,1.63,0.27,-0.012222222222222223,-0.17555555555555555,-0.14074583447174355,-0.03887511103070876,-0.04093508731562927
1592225628.0643508,-9.695094015042407,-0.03528204512722036,1.470685309649544,0.27,-0.012222222222222223,-0.17555555555555555,-0.17813682133001874,0.009275029185753795,-0.13652251723813913
1592225628.0743508,-9.733004289077364,-0.03142345770582733,1.4430042890773647,0.28844539757274773,-0.0029995234358483735,-0.1801669049487425,-0.12719570971493802,0.05577906165368354,0.062389582733189064
1592225628.0843508,-9.662049422080509,0.051685133519330434,1.3720494220805102,0.2966666666666667,0.0011111111111111111,-0.18222222222222223,-0.09127492878084872,0.05255717489306898,0.06568757762809307
1592225628.0943508,-9.736579882591414,0.09007265643509624,1.146670703135283,0.2966666666666667,0.0011111111111111111,-0.18222222222222223,-0.02292858133267875,-0.02870891912012818,-0.14107901996118719
1592225628.1043508,-9.747182395644282,-0.07194240137548955,1.1819424013754896,0.2966666666666667,0.0011111111111111111,-0.18222222222222223,-0.05662895516084751,-0.03885661365284383,-0.09747506640212306
1592225628.1143508,-9.865370086270447,-0.23029606901635752,1.2292283477117412,0.2966666666666667,0.0011111111111111111,-0.18222222222222223,-0.0644950684614956,0.0015244159692989548,-0.04173982238311402
1592225628.1243508,-10.127923818865456,-0.3575847637730914,1.4568857282981855,0.29130296259967664,0.0011111111111111111,-0.18222222222222223,-0.06112350899297298,-0.02004635617995326,0.06488137378182232
1592225628.1343508,-9.93101103681624,-0.2879440908724724,1.5192290340771772,0.28888888888888886,0.0011111111111111111,-0.18222222222222223,-0.09479199106905237,-0.06245830086924725,0.07571339319808419
1592225628.1443508,-9.59375569483249,-0.10319716076417731,1.388624430516751,0.28888888888888886,0.0011111111111111111,-0.18222222222222223,-0.047116262307776574,-0.1981055947232609,0.044935040051412634
1592225628.1543508,-9.815051181599898,-0.06855629975988879,1.243092126879818,0.28888888888888886,0.0011111111111111111,-0.18222222222222223,-0.08002493427049057,-0.19589942323644566,0.12698648838250529
1592225628.1643507,-9.637822185309727,-0.08118401328849816,1.4074845035044363,0.28888888888888886,0.0011111111111111111,-0.18222222222222223,-0.05249579499578044,-0.22568214101348238,0.04757435081275618
1592225628.1743507,-9.523858323916016,-0.04629988699220841,1.4018913935645037,0.2936657480653198,0.00793519564886959,-0.17812777149956713,0.03864271128803139,-0.08988781727200601,-0.03381575425739013
1592225628.1843507,-9.753209242618743,-0.10084724005134788,1.2521822849807445,0.2966666666666667,0.012222222222222223,-0.17555555555555555,0.10558513820513193,-0.018345281234256838,0.06106551937597939
1592225628.1943507,-9.635699691870112,-0.13634415738326616,1.1886022754207157,0.2966666666666667,0.012222222222222223,-0.17555555555555555,0.03874238457529372,-0.05157398297664045,-0.012303712834003042
1592225628.2043507,-9.897321500224232,-0.2482809733991078,1.3116047867444,0.2966666666666667,0.012222222222222223,-0.17555555555555555,0.05705150298423382,0.0019754523989671396,0.00541053818926493
1592225628.2143507,-9.531514914156276,-0.1549586129517116,1.3017791138302601,0.2966666666666667,0.012222222222222223,-0.17555555555555555,0.11441502549148894,-0.04554722515521851,0.04929221763270472
1592225628.2243507,-9.210563672965778,-0.03548217416715371,1.3626112085200337,0.2918719108744435,0.016332012901270645,-0.17144576487650715,0.1034492797586575,-0.06298093823738077,-0.10048181483823675
1592225628.2343507,-9.41,0.019812499999999997,1.3302916666666667,0.28888888888888886,0.01888888888888889,-0.1688888888888889,0.10307555497145938,-0.01963722664906641,-0.12364282849081053
1592225628.2443507,-9.920894528867318,0.006853634603654513,1.2300785000132601,0.28888888888888886,0.01888888888888889,-0.1688888888888889,-0.01572312791897354,0.009152454154727666,-0.037692084378318086
1592225628.2543507,-9.781255969436485,0.2625300859598855,0.9057211079274116,0.28888888888888886,0.01888888888888889,-0.1688888888888889,0.013006724519354335,0.04510559239042557,-0.11322974592478888
1592225628.2643507,-9.594942179791888,0.36363298647865944,0.8222976292716052,0.28888888888888886,0.01888888888888889,-0.1688888888888889,0.03734173311658028,0.029262016678563325,-0.0763610088128295
1592225628.2743506,-9.577516337953872,0.19751633795387274,1.133368988658676,0.2933069255992211,0.010683963569700463,-0.16952003699036494,-0.027360214937361578,-0.013431543311094963,0.06440827825549612
1592225628.2843506,-10.066160567636818,-0.022762849571863475,1.2917013774828636,0.2966666666666667,0.0044444444444444444,-0.17,0.01844995395428914,0.01343733531879003,0.015923673663669494
1592225628.2943506,-9.7722640628647,-0.04864778650898623,1.246918229207189,0.2966666666666667,0.0044444444444444444,-0.17,-0.016312162270881878,-0.007946834788732378,-0.010736786078179739
1592225628.3043506,-9.488240288139954,-0.05912014406997685,1.3696585354444886,0.2966666666666667,0.0044444444444444444,-0.17,-0.016068814795272834,-0.04310249825571871,-0.07155790744566339
1592225628.3143506,-9.734021730300569,-0.11058204711616572,1.3853436230706744,0.2966666666666667,0.0044444444444444444,-0.17,0.04522051857780038,-0.06319321846018096,0.03057844142416974
1592225628.3243506,-9.715433861793537,-0.09730122231635,1.3497228609463874,0.289730929041107,0.013902268479298614,-0.17819678083020696,0.006526634764110167,0.042314940582926175,0.0677380437249309
1592225628.3343506,-9.599551212450235,-0.061958820927333416,1.3831837374834117,0.28444444444444444,0.021111111111111112,-0.18444444444444444,-0.043005456364067565,0.11153140488588939,-0.03434158321101481
1592225628.3443506,-10.117139689578714,-0.0020294083323608436,1.2374448593768235,0.28444444444444444,0.021111111111111112,-0.18444444444444444,0.09301076426117821,-0.005536771391516052,-0.04873186908819335
1592225628.3543506,-10.147902009538173,-0.023879264663922067,1.1605131863204665,0.28444444444444444,0.021111111111111112,-0.18444444444444444,0.15107061481499282,0.043174675971937235,0.0666938111124215
1592225628.3643506,-9.444863713620245,0.12086493065027173,1.3495675346748641,0.28444444444444444,0.021111111111111112,-0.18444444444444444,-0.020254038378412123,-0.04805535679424454,0.008201911264299843
1592225628.3743505,-10.117256318848957,0.08353984006166298,1.3490265600411087,0.28017699557154224,0.01989184000456763,-0.18444444444444444,0.003079388989005241,-0.033429687673483185,0.014895128452477781
1592225628.3843505,-10.235943210570705,0.06558054540342986,1.3547315153219006,0.27666666666666667,0.01888888888888889,-0.18444444444444444,0.039347496077651894,0.011726814251302215,0.026170431961175168
1592225628.3943505,-9.410385137473051,0.10615315003593198,1.3076936999281359,0.27666666666666667,0.01888888888888889,-0.18444444444444444,-0.00861379168459267,-0.04998232460814235,0.048667265401243553
1592225628.4043505,-9.408872153271478,0.14574687713379123,1.2071265614331044,0.27666666666666667,0.01888888888888889,-0.18444444444444444,-0.07466532315072831,-0.06163029619565258,0.08664286158243438
1592225628.4143505,-9.685524601524602,-0.04706930006930007,1.3832739662739664,0.27666666666666667,0.01888888888888889,-0.18444444444444444,0.03930805826931108,-0.13411531387293393,0.08212988180693395
1592225628.4243505,-9.39550377687391,0.03538524113887276,1.48,0.28672593453418554,0.022800826392924013,-0.1877975337336174,-0.0055575958553663145,-0.036925731199515116,0.14535114180249115
1592225628.4343505,-9.522738615096694,0.09560043668122271,1.4699438552713662,0.2966666666666667,0.02666666666666667,-0.19111111111111112,-0.016325715098485634,0.0792070400342163,0.09432930270672255
1592225628.4443505,-9.903920309564535,-0.010169363205563192,1.2647671255923507,0.2966666666666667,0.02666666666666667,-0.19111111111111112,0.02594438686740043,0.0064018060814895195,0.02620303210467127
1592225628.4543505,-9.843947784250371,-0.08993042616919412,1.4096521308459706,0.2966666666666667,0.02666666666666667,-0.19111111111111112,-0.059320320057844766,-0.04096021865552994,0.030389597320295537
1592225628.4643505,-9.7632560078071,0.0681492701175131,1.4249184727361444,0.2966666666666667,0.02666666666666667,-0.19111111111111112,0.028174753491280166,-0.013378766983778254,-0.022120449702712465
1592225628.4743505,-9.906453217460907,0.13332752065406936,1.3789697264229153,0.3055687055512675,0.03242680947434957,-0.17801987745728634,0.11995265614030695,-0.0395611310816741,0.05364435801384239
1592225628.4843504,-9.609806970272539,0.09910950130306108,1.4537492822121119,0.31555555555555553,0.03888888888888889,-0.16333333333333333,0.047606121909389586,-0.06482553074991959,0.09733512126986926
1592225628.4943504,-9.37153810224433,0.16302786146336906,1.4857609939512832,0.31555555555555553,0.03888888888888889,-0.16333333333333333,-0.017983511840247338,0.021422027313207394,0.020561519543965578
1592225628.5043504,-9.905007279155617,0.15500935891436593,1.3399542453075444,0.31555555555555553,0.03888888888888889,-0.16333333333333333,0.048561820638638876,0.06435856243431841,0.046906631113292595
1592225628.5143504,-9.699664665784923,0.310924000406959,1.1754620002034795,0.31555555555555553,0.03888888888888889,-0.16333333333333333,0.12331894712026563,0.023860905117803893,0.034127477271112386
1592225628.5243504,-9.282318121996756,0.36403758454993423,1.3824295289688733,0.31344548845972037,0.03888888888888889,-0.18021387010001463,0.05679875390074796,0.04038504418328301,-0.012749395680403824
1592225628.5343504,-9.13,0.28,1.54,0.3111111111111111,0.03888888888888889,-0.1988888888888889,0.009817477042468103,0.10799224746714915,-0.042542400517361786
1592225628.5443504,-9.911488795483374,0.22910314124406198,1.3103049220285024,0.3111111111111111,0.03888888888888889,-0.1988888888888889,0.050582268593730696,0.05527430328540296,-0.008963385867703233
1592225628.5543504,-9.640143109495405,0.11931082153554698,1.45,0.3111111111111111,0.03888888888888889,-0.1988888888888889,-0.02764241330049959,-0.029686453859984654,-0.09664423941253335
1592225628.5643504,-9.810627940315383,-0.03487976255375856,1.5062291275465907,0.3111111111111111,0.03888888888888889,-0.1988888888888889,-0.052922417366717885,-0.04302441702704206,-0.11073426836681353
1592225628.5743504,-10.010713415377117,-0.124215304008773,1.554708175947362,0.31298457955945463,0.046851129794348995,-0.1988888888888889,-0.05918358433972334,0.1249376065357326,-0.23850004243140147
1592225628.5843503,-9.6,-0.13,1.52,0.31555555555555553,0.057777777777777775,-0.1988888888888889,-0.04908738521234052,0.20507618710933373,-0.1810779098944117
1592225628.5943503,-9.937512444577429,-0.10466800859559885,1.5350545385305878,0.31555555555555553,0.057777777777777775,-0.1988888888888889,0.023504209174790697,-0.018227374979311886,0.062077894145237136
1592225628.6043503,-9.502394608858744,-0.0008324428063594541,1.3639225350576845,0.31555555555555553,0.057777777777777775,-0.1988888888888889,0.06015489395319862,0.05684878670819615,0.005090932217344427
1592225628.6143503,-9.653954786431619,-0.09279255204517048,1.5051170208180682,0.31555555555555553,0.057777777777777775,-0.1988888888888889,0.06608287766637425,-0.04974594591103573,0.015699552008650294
1592225628.6243503,-9.684146937725167,-0.03411927431806485,1.426449433865157,0.3178440412878138,0.05365850345971293,-0.19293882598501744,0.05188941116984943,-0.1513954386676106,0.07165145574289042
1592225628.6343503,-9.79,-0.04,1.35,0.3211111111111111,0.04777777777777778,-0.18444444444444444,-0.025089107997418484,-0.2476185876266955,-0.009817477042468103
1592225628.6443503,-9.413373946593563,-0.12708498324703016,1.6175977256574272,0.3211111111111111,0.04777777777777778,-0.18444444444444444,0.08140162734481396,-0.061953628520397,0.04527595666953918
1592225628.6543503,-9.73347130541004,-0.05805116399257676,1.4957612347013085,0.3211111111111111,0.04777777777777778,-0.18444444444444444,0.14787200510007292,-0.1023720179056885,-0.11850464898495192
1592225628.6643503,-9.674689819724284,-0.025569989395546132,1.5042424443266174,0.3211111111111111,0.04777777777777778,-0.18444444444444444,0.15103205756719754,-0.03913297593882467,-0.007594894863550684
1592225628.6743503,-9.652964299113972,-0.11262662703108314,1.583990591359058,0.3240310607008059,0.05153199867881388,-0.1869472583784685,0.07916587368456646,0.033808387395342046,0.025632681673154693
1592225628.6843503,-9.556270560590802,-0.03713422529132493,1.5943801851052606,0.3288888888888889,0.057777777777777775,-0.19111111111111112,-0.016016584734911635,0.07547682753054243,0.019721423335570008
1592225628.6943502,-8.73,0.24,1.23,0.3288888888888889,0.057777777777777775,-0.19111111111111112,-0.02945243112740431,0.1308996938995747,0.016362461737446838
1592225628.7043502,-9.923293565683647,-0.04182975871313675,1.343244235924933,0.3288888888888889,0.057777777777777775,-0.19111111111111112,0.05655814307757952,0.004288865886762339,-0.08763649696676547
1592225628.7143502,-9.66545270662688,0.07909458674623997,1.32885306310456,0.3288888888888889,0.057777777777777775,-0.19111111111111112,0.09088573659143609,0.03871897669161599,-0.0358964441227716
1592225628.7243502,-9.679213097018486,0.09831705221624717,1.5059563432717091,0.3332835530665422,0.06057438225446626,-0.17792711857815113,0.0909800494705127,0.05979770726763696,-0.027833418462537646
1592225628.7343502,-9.66,0.22,1.57,0.3411111111111111,0.06555555555555556,-0.15444444444444444,0.0839939702522271,-0.03381575425739013,0.02945243112740431
1592225628.7443502,-9.542813398905077,0.15894497541059666,1.405175837431567,0.3411111111111111,0.06555555555555556,-0.15444444444444444,0.03973295708164987,0.045924563009866914,0.047437373335114386
1592225628.7543502,-10.01609217221651,0.01400485116928999,1.3739320836299402,0.3411111111111111,0.06555555555555556,-0.15444444444444444,0.07498936044159954,0.09236842389540287,0.017591023243594725
1592225628.7643502,-10.13,0.02,1.29,0.3411111111111111,0.06555555555555556,-0.15444444444444444,0.001090830782496456,0.19634954084936207,-0.0818123086872342
1592225628.7743502,-9.936933678442973,-0.16574910081011127,1.5042159400315978,0.34751065395288727,0.06555555555555556,-0.15882307902039658,-0.02878346353871678,0.06887062393489196,0.03296440096457348
1592225628.7843502,-9.7,-0.11,1.33,0.3622222222222222,0.06555555555555556,-0.1688888888888889,0.022907446432425576,0.17453292519943295,0.08617563181722002
1592225628.7943501,-9.76802414695687,-0.13962977810267171,1.3730865187351144,0.3622222222222222,0.06555555555555556,-0.1688888888888889,0.06656789255455092,-0.03128379831656218,0.09743423401801964
1592225628.8043501,-9.820043582173485,-0.05347860724495054,1.3134350250714655,0.3622222222222222,0.06555555555555556,-0.1688888888888889,-0.006103724499350566,-0.045463960144393856,0.1293319473391458
1592225628.8143501,-9.724262812296649,0.09327075897698815,1.2359249107723858,0.3622222222222222,0.06555555555555556,-0.1688888888888889,-0.08034421603708634,-0.041922399600936446,0.18219220796110952
1592225628.82435,-9.577650398016443,0.1345902388098656,1.2723496019835574,0.36001210723969435,0.06555555555555556,-0.1721190569402758,-0.07033146772809232,-0.04700081368554512,0.00981697881622006
1592225628.83435,-9.645078350931467,0.10626067657542539,1.276574080301298,0.3477777777777778,0.06555555555555556,-0.19,0.026326004022227838,0.04674256488345817,-0.16785896878371787
1592225628.84435,-9.664906726964386,0.03822993216506501,1.3286334087054834,0.3477777777777778,0.06555555555555556,-0.19,0.029621852132204144,0.024065953121297945,-0.1445958945009747
1592225628.85435,-9.682443009028972,0.04566774322827036,1.3264060916098919,0.3477777777777778,0.06555555555555556,-0.19,0.022746363803849753,-0.04895947573045416,-0.03102056948796524
1592225628.86435,-9.886816851494215,-0.07018217293487566,1.4750910864674378,0.3477777777777778,0.06555555555555556,-0.19,-0.04781770656925397,-0.13024498259352144,0.04777796260023395
1592225628.87435,-9.971871383856588,-0.046392867305321064,1.4472142653893578,0.34692539547040163,0.06555555555555556,-0.19085238230737614,-0.07995945867746974,-0.1267350234398339,0.08008878984299385
1592225628.88435,-9.766270141047094,-0.13462204159694,1.3634324647382263,0.3411111111111111,0.06555555555555556,-0.19666666666666666,-0.06338579587556803,0.01773039431040008,0.05419955598158448
1592225628.89435,-9.743255641296766,-0.23302256518706832,1.3732556412967671,0.3411111111111111,0.06555555555555556,-0.19666666666666666,-0.029450811409713364,-0.024934940322653195,0.04995020391807091
1592225628.90435,-9.66684600268405,-0.24279572469325156,1.365663103911043,0.3411111111111111,0.06555555555555556,-0.19666666666666666,-0.10179131050818545,-0.07204570292311009,0.020037689395402573
1592225628.91435,-9.50012324148355,-0.2047203813510057,1.3252796186489944,0.3411111111111111,0.06555555555555556,-0.19666666666666666,-0.10350070320925912,-0.008692530054822067,0.006320629427656776
1592225628.92435,-9.627308597091531,-0.2271770744225834,1.3279426860564585,0.3430050613059595,0.06445905807432754,-0.19606857713145137,-0.04049907570472566,-0.028225829704314843,0.09624878690451621
1592225628.93435,-9.6,-0.3,1.51,0.3622222222222222,0.05333333333333334,-0.19,-0.08617563181722002,0.09490227807719166,-0.022907446432425576
1592225628.94435,-9.559436834924965,-0.15530095497953614,1.287631105047749,0.3622222222222222,0.05333333333333334,-0.19,-0.08489627928366401,-0.041131731601476325,-0.021479871871670872
1592225628.95435,-9.602824098090073,-0.26047653855222824,1.2855010610705022,0.3622222222222222,0.05333333333333334,-0.19,-0.07747038549148645,-0.025955959660509637,-0.005171324973922246
1592225628.96435,-9.52910807394533,-0.4722321851793332,1.4277678148206667,0.3622222222222222,0.05333333333333334,-0.19,-0.037770339008376064,0.04847427764384067,-0.08070139862109721
1592225628.97435,-9.70165092402464,-0.4717453798767967,1.4266036960985626,0.36368971024412505,0.054342231348391515,-0.18935797399041754,-0.09348218215090265,0.11844540782804125,0.026571025134378763
1592225628.98435,-9.670970893320218,-0.39730439059286415,1.4250143074309218,0.38,0.06555555555555556,-0.18222222222222223,-0.04086660038830078,-0.05874352503632975,-0.035026807604442343
1592225628.99435,-9.631852433281006,-0.42759811616954474,1.242480376766091,0.38,0.06555555555555556,-0.18222222222222223,-0.03362738473451006,0.008855080025571699,-0.10690997893569269
1592225629.00435,-9.835255229344963,-0.3847359093347014,1.2289436373388056,0.38,0.06555555555555556,-0.18222222222222223,-0.08111898770204838,-0.04036073895236887,-0.08008577256496746
1592225629.01435,-9.702044135173582,-0.37994483103302445,1.225691053784937,0.38,0.06555555555555556,-0.18222222222222223,-0.006358112142335462,-0.027776910684011866,-0.032405654905936485
1592225629.02435,-9.66936012006276,-0.4187202401255201,1.4497257657411828,0.37994921587799685,0.06548445778475112,-0.1819683016122064,0.01534537495559531,0.02244876023668861,-0.10481344199838022
1592225629.03435,-9.612272619104278,-0.26465922611965165,1.4077273808957211,0.37444444444444447,0.057777777777777775,-0.15444444444444444,-0.08553113258663075,-0.03262570984273192,-0.056635902038596454
1592225629.04435,-9.614204039635851,-0.25866217818238757,1.3542040396358512,0.37444444444444447,0.057777777777777775,-0.15444444444444444,-0.020587195410645583,-0.02909126895498137,-0.07505292512662375
1592225629.05435,-9.51745089874384,-0.32535012839197724,1.278375320979943,0.37444444444444447,0.057777777777777775,-0.15444444444444444,0.05335895409786901,0.006266920883186835,0.1624725413908449
1592225629.06435,-9.441470113085622,-0.30125830192066055,1.2539867169269432,0.37444444444444447,0.057777777777777775,-0.15444444444444444,-0.0709502108900329,-0.0008770115014901493,-0.003119372679222944
1592225629.0743499,-9.594451965633949,-0.2637099713616246,1.3214839885446499,0.37467116491654373,0.057818999681795824,-0.15495971824467009,-0.11065585119249,0.02141376653121753,0.0467806231631795
1592225629.0843499,-9.754001013381238,-0.43557175430111245,1.4108569980883945,0.38666666666666666,0.06,-0.18222222222222223,-2.763568623768975e-07,0.03945715250580705,-0.06283201888591329
1592225629.0943499,-9.596688136872563,-0.3466559315637187,1.3699677946911561,0.38666666666666666,0.06,-0.18222222222222223,0.017152789155053277,-0.04518473876330081,-0.013607897876471261
1592225629.1043499,-9.82571759978954,-0.3069205749408079,1.2687087747829622,0.38666666666666666,0.06,-0.18222222222222223,-0.04312505698057359,-0.07993514995373625,0.05186386039608643
1592225629.1143498,-9.987284114821138,-0.3248445626712193,1.4648791042998373,0.38666666666666666,0.06,-0.18222222222222223,0.04517339584057921,0.035314471819159705,0.06423844313761408
1592225629.1243498,-9.814922627657543,-0.19344368330558664,1.3829578887039111,0.3844984216224084,0.060637719130664194,-0.18069169630862816,-0.02791137699064094,-0.06345856945875708,-0.02658699451772434
1592225629.1343498,-9.76995086553991,-0.1789063033143013,1.5189063033143013,0.36777777777777776,0.06555555555555556,-0.1688888888888889,0.01635174226113742,0.06140053996030089,0.10204378177790764
1592225629.1443498,-9.350710238916077,-0.10945225294727451,1.4006974613659926,0.36777777777777776,0.06555555555555556,-0.1688888888888889,-0.11982567993992731,-0.04857114788115111,0.13578861658642002
1592225629.1543498,-10.08,-0.46812046598454593,1.570072544247265,0.36777777777777776,0.06555555555555556,-0.1688888888888889,-0.12733512934819424,-0.012719485426800936,-0.053387401543918744
1592225629.1643498,-9.985985703314231,-0.40627754475098954,1.652246706445324,0.36777777777777776,0.06555555555555556,-0.1688888888888889,0.007639424299110437,-0.07823106876020088,0.04599630059526573
1592225629.1743498,-9.46563183080286,-0.10893247474449108,1.3879399775506587,0.36777777777777776,0.06555555555555556,-0.1688888888888889,-0.11309202798369902,-0.05840948704212768,-0.03148806430265674
1592225629.1843498,-9.69,-0.32,1.6,0.39444444444444443,0.05333333333333334,-0.17555555555555555,-0.03381575425739013,-0.1461713248545251,-0.0818123086872342
1592225629.1943498,-9.143830092853845,-0.2231893500230852,1.563830092853845,0.39444444444444443,0.05333333333333334,-0.17555555555555555,-0.05145438672252546,0.03124718436478318,0.07378147066352997
1592225629.2043498,-9.303331344708269,-0.42666626894165377,1.5583331344708269,0.39444444444444443,0.05333333333333334,-0.17555555555555555,-0.07916312962185622,-0.027244087745156687,0.11388788783879238
1592225629.2143497,-9.762481619862601,-0.49017958298180064,1.5856653007111006,0.39444444444444443,0.05333333333333334,-0.17555555555555555,-0.09437066734210375,-0.13198605460293356,0.09177670671312278
1592225629.2243497,-9.653330532885262,-0.37571351416226595,1.5199993999039847,0.394973529097989,0.05343915026404225,-0.17417993545633967,-0.11978394231862531,0.14118488493273754,-0.019790880568607987
1592225629.2343497,-10.54,-0.62,1.71,0.4,0.05444444444444444,-0.16111111111111112,-0.014180800172453926,0.07308566242726255,0.009817477042468103
1592225629.2443497,-9.966204059970812,-0.5644009552872495,1.6632028658617486,0.4,0.05444444444444444,-0.16111111111111112,-0.09394213857724719,-0.07300287680863604,-0.025847349004383978
1592225629.2543497,-9.72791975875798,-0.4626242137253516,1.4903783541828635,0.4,0.05444444444444444,-0.16111111111111112,-0.0573499137741972,0.05454932581710015,-0.13977086939178326
1592225629.2643497,-9.294946540567446,-0.19045037332005973,1.239213738178198,0.4,0.05444444444444444,-0.16111111111111112,0.05646672242778484,-0.05433336365343945,0.08030595227943713
1592225629.2743497,-8.786970364844704,-0.015065780550657805,1.2003848501288485,0.4001688593516886,0.054078582515785824,-0.16052010338020103,-0.11414827324076841,-0.022716184870771934,-0.1458099954799758
1592225629.2843497,-9.44,-0.21,1.6,0.4066666666666667,0.04,-0.13777777777777778,0.06872233929727672,-0.1832595714594046,0.03599741582238304
1592225629.2943497,-9.882840651520743,-0.3659248326392916,1.5276548416003375,0.4066666666666667,0.04,-0.13777777777777778,0.03133773815900485,-0.043243209413944286,0.03133865815755632
1592225629.3043497,-9.585111179521181,-0.5191503469179948,1.452339861232802,0.4066666666666667,0.04,-0.13777777777777778,0.05549262246993485,0.07949753833391562,-0.08011167795014744
1592225629.3143497,-9.304834030241176,-0.42829571352133333,1.5,0.4066666666666667,0.04,-0.13777777777777778,0.0901845176290827,0.19800678823404577,0.03781305319425196
1592225629.3243496,-9.928231307346268,-0.5695990963318206,1.5,0.4066666666666667,0.04,-0.13777777777777778,0.0557301233564869,0.11912435924152384,0.046879999055461384
1592225629.3343496,-10.03,-0.6,1.33,0.4,0.05444444444444444,-0.16,-0.05563236990731925,0.06654067773228381,-0.15707963267948966
1592225629.3443496,-9.884740826065492,-0.7274074378805332,1.3457284295979377,0.4,0.05444444444444444,-0.16,0.17451677006195976,-0.006703903380641102,-0.038179077387375956
1592225629.3543496,-9.5,-0.59,1.19,0.4,0.05444444444444444,-0.16,0.15053464798451094,0.0272707695624114,-0.038179077387375956
1592225629.3643496,-9.858849195860358,-0.8179165565337616,1.3623016082792836,0.4,0.05444444444444444,-0.16,0.20482512059330463,0.055978628780839264,-0.1607090963675699
1592225629.3743496,-9.841793302563893,-0.6388296769208872,1.396413394872212,0.4,0.05444444444444444,-0.16,0.20110410190715297,-0.0035576701975867514,0.07650584487459627
1592225629.3843496,-9.728382872167272,-0.5651724051583824,1.5847800175284839,0.3977777777777778,0.04,-0.13111111111111112,0.23470761445854096,-0.06182455203846365,-0.033986965659535816
1592225629.3943496,-9.584938160173689,-0.30834020442514576,1.4016597955748542,0.3977777777777778,0.04,-0.13111111111111112,0.24339017806895996,-0.04066888474460923,-0.007979938222315632
1592225629.4043496,-9.6766046445227,-0.31291472351765487,1.3804806319596459,0.3977777777777778,0.04,-0.13111111111111112,0.10076231406297459,-0.07176653271160634,-0.05679083905041307
1592225629.4143496,-9.758938575702242,-0.39085667663856405,1.260428338319282,0.3977777777777778,0.04,-0.13111111111111112,0.21253127109483347,0.0985952905862771,-0.15287470653654994
1592225629.4243495,-9.80782509032985,-0.5049252107696491,1.3174626053848246,0.3977777777777778,0.04,-0.13111111111111112,0.31296362768712765,0.15458855134127297,-0.0702179882791751
1592225629.4343495,-9.99,-0.63,1.37,0.42444444444444446,0.05444444444444444,-0.12222222222222222,0.2585268954516601,0.053450708342326333,-0.031634092692397225
1592225629.4443495,-9.684471223691563,-0.36266232073011734,1.2745222574036132,0.42444444444444446,0.05444444444444444,-0.12222222222222222,0.2918549148652318,0.21280030116346615,-0.08370912302610306
1592225629.4543495,-9.81928967726811,-0.5456685160584512,1.351601677476492,0.42444444444444446,0.05444444444444444,-0.12222222222222222,0.19174009815390558,-0.08370835562833989,0.2400587219989667
1592225629.4643495,-9.346453877814543,-0.3138874989912033,1.5062642240335729,0.42444444444444446,0.05444444444444444,-0.12222222222222222,0.2337873709452668,-0.23516299210637484,-0.08514686508941326
1592225629.4743495,-8.982571019288194,-0.068478129287386,1.4808770478573159,0.42444444444444446,0.05444444444444444,-0.12222222222222222,0.33994430508453355,-0.0763891427850367,0.0256255879254738
1592225629.4843495,-9.85,-0.29,1.83,0.41888888888888887,0.027777777777777776,-0.11666666666666667,0.13962634015954636,-0.05126904677733343,0.0032724923474893677
1592225629.4943495,-9.303736924339926,0.04085855777124547,1.5005558645163,0.41888888888888887,0.027777777777777776,-0.11666666666666667,0.3133493969501107,0.013872221098313223,0.015266228943448387
1592225629.5043495,-9.629154976068659,0.04358144908400726,1.2913682125763328,0.41888888888888887,0.027777777777777776,-0.11666666666666667,0.2964798491448925,0.04428945810332408,-0.05900802218852218
1592225629.5143495,-9.743568111921848,-0.09323142173712035,1.304287925385435,0.41888888888888887,0.027777777777777776,-0.11666666666666667,0.15076851803468497,-0.0232949787094531,-0.06256488687932552
1592225629.5243495,-9.692982572514019,-0.35459004201089467,1.3380116183239865,0.41888888888888887,0.027777777777777776,-0.11666666666666667,0.15260786015252645,0.007973837293852714,-0.031296070876019697
1592225629.5343494,-10.5,-0.63,1.56,0.40444444444444444,0.01888888888888889,-0.11,0.19634954084936207,-0.04908738521234052,-0.025089107997418484
1592225629.5443494,-9.660933463459441,-0.12493082266490618,1.3319042424938285,0.40444444444444444,0.01888888888888889,-0.11,0.051504321549125126,0.022002292971824863,0.051332296050559306
1592225629.5543494,-9.688149686165007,0.09384048113410182,1.2504687238968044,0.40444444444444444,0.01888888888888889,-0.11,0.12443635034284825,0.012801127416453301,0.06566157761860299
1592225629.5643494,-9.59,-0.04,1.42,0.40444444444444444,0.01888888888888889,-0.11,0.07090400086226964,-0.07090400086226964,-0.08617563181722002
1592225629.5743494,-9.711189797449363,-0.4035693923480871,1.636410352588147,0.40444444444444444,0.01888888888888889,-0.11,0.13039290357429334,0.0499623411558103,-0.05973611950076503
1592225629.5843494,-9.937806091929271,-0.45662144378245156,1.5253011269829877,0.3977777777777778,0.01888888888888889,-0.08333333333333333,0.049633883786836495,-0.02002262928442942,0.05441231405832506
1592225629.5943494,-9.57,-0.34,1.31,0.3977777777777778,0.01888888888888889,-0.08333333333333333,0.016362461737446838,0.062177354602297986,0.0818123086872342
1592225629.6043494,-9.692055266319583,-0.28366680016019225,1.1879447336804165,0.3977777777777778,0.01888888888888889,-0.08333333333333333,0.06757078545560247,0.09290234883319134,-0.00012100926181478344
1592225629.6143494,-9.65,-0.28,1.32,0.3977777777777778,0.01888888888888889,-0.08333333333333333,0.10799224746714915,0.09053895494720585,0.04036073895236887
1592225629.6243494,-9.692362501472147,-0.025824991167118116,1.235274997055706,0.3977777777777778,0.01888888888888889,-0.08333333333333333,0.011874780558060877,0.08499371647168151,0.06069328002929138
1592225629.6343493,-9.68,0.1,1.24,0.41888888888888887,0.008888888888888889,-0.07555555555555556,0.001090830782496456,0.05781403147231216,0.014180800172453926
1592225629.6443493,-9.641405166981727,0.003512917454316325,1.4812177063642091,0.41888888888888887,0.008888888888888889,-0.07555555555555556,-0.017854363573243028,0.07044416104280515,-0.09949036596198302
1592225629.6543493,-9.930469077069457,0.07685347288296861,1.1504234062797334,0.41888888888888887,0.008888888888888889,-0.07555555555555556,-0.03703707823420673,0.02740932894344211,0.0080714212618841
1592225629.6643493,-9.827001414990933,-0.227876915718357,1.43716364071188,0.41888888888888887,0.008888888888888889,-0.07555555555555556,-0.04982640312134633,0.10188938218193244,0.10110429793918589
1592225629.6743493,-10.236592861271099,-0.043978715347669256,1.545830759112741,0.41888888888888887,0.008888888888888889,-0.07555555555555556,-0.027942568451159337,-0.1561575016373558,0.06280758726635866
1592225629.6843493,-9.48,0.02,1.39,0.3977777777777778,0.0,-0.06888888888888889,-0.011999138607461015,-0.10799224746714915,0.25634523388666713
1592225629.6943493,-10.05485436893204,-0.0912621359223301,1.3714563106796118,0.3977777777777778,0.0,-0.06888888888888889,-0.10909366883976691,-0.05337657421147707,0.02776852729811366
1592225629.7043493,-9.871552655480665,-0.0019365170419236109,1.1576710167790045,0.3977777777777778,0.0,-0.06888888888888889,-0.11807196400506036,-0.14161407277573176,0.1404977428655217
1592225629.7143493,-9.55,-0.21,1.64,0.3977777777777778,0.0,-0.06888888888888889,-0.10362892433716332,-0.062177354602297986,0.07963064712224129
1592225629.7243493,-9.70990798414496,0.05166761041902604,1.2184244054360136,0.3977777777777778,0.0,-0.06888888888888889,-0.00689814579344554,-0.10182111630054298,0.05901589103915389
1592225629.7343493,-9.62,-0.43,1.63,0.39222222222222225,-0.0011111111111111111,-0.056666666666666664,-0.09053895494720585,-0.014180800172453926,0.07744898555724837
1592225629.7443492,-10.007585089141005,-0.35072123176661263,1.6388087520259318,0.39222222222222225,-0.0011111111111111111,-0.056666666666666664,-0.009824548878983472,-0.1765704980954251,0.029404696230925537
1592225629.7543492,-9.517226354431594,-0.16429675128365084,1.344296751283651,0.39222222222222225,-0.0011111111111111111,-0.056666666666666664,-0.16019456465194595,0.044894499484716056,-0.08172708998605352
1592225629.7643492,-9.88,-0.38,1.56,0.39222222222222225,-0.0011111111111111111,-0.056666666666666664,0.011999138607461015,0.053450708342326333,-0.07744898555724837
1592225629.7743492,-9.643303360151442,-0.40088499763369617,1.4207666824420255,0.39222222222222225,-0.0011111111111111111,-0.056666666666666664,-0.1087454524419065,0.03826270946819206,0.14733339777993898
1592225629.7843492,-9.716372491833878,-0.37080611292580495,1.487380132991134,0.38024631228288486,-0.0032885492818997258,-0.027271251361020377,-0.05562705700657622,-0.1511388234217015,-0.07307961780965067
1592225629.7943492,-9.67,-0.57,1.56,0.38,-0.0033333333333333335,-0.02666666666666667,-0.0643590161672909,-0.13744467859455345,0.07963064712224129
1592225629.8043492,-9.421418750740784,-0.57,1.3269550788194857,0.38,-0.0033333333333333335,-0.02666666666666667,-0.066053766658812,-0.12897092613694794,0.10335715400353673
1592225629.8143492,-9.85,-0.75,1.66,0.38,-0.0033333333333333335,-0.02666666666666667,-0.03381575425739013,-0.07090400086226964,0.10144726277217041
1592225629.8243492,-9.547482891125343,-0.5162367795059469,1.371233668801464,0.38,-0.0033333333333333335,-0.02666666666666667,-0.09081488623242508,-0.08440379527740949,-0.05380037300193792
1592225629.8343492,-9.688532235939643,-0.6256378600823045,1.5904115226337447,0.37800335314738603,-0.0033333333333333335,-0.008696844993141294,-0.022629127467344176,-0.162086381373911,-0.0038021961842572144
1592225629.8443491,-9.337719202403715,-0.3806658016935264,1.4562360010925977,0.37777777777777777,-0.0033333333333333335,-0.006666666666666667,0.07519253608556149,0.04117543550168354,-0.0546285433828094
1592225629.8543491,-9.53054162338626,-0.35789583024187566,1.3852604243953108,0.37777777777777777,-0.0033333333333333335,-0.006666666666666667,0.08250089663036225,-0.06356359511592014,0.03324759636355387
1592225629.8643491,-9.397418937378676,-0.4774196563376231,1.5245165001078438,0.37777777777777777,-0.0033333333333333335,-0.006666666666666667,-0.07386020012285065,0.03466056187756787,0.10384020466846287
1592225629.874349,-9.849230174081239,-0.5706489361702127,1.4080290135396518,0.37777777777777777,-0.0033333333333333335,-0.006666666666666667,-0.02335854821443281,0.0740977930391843,0.02219956688208212
1592225629.884349,-9.527349580608943,-0.4791612178852123,1.4157717455914405,0.37364653736359704,-0.0043661434368785276,-0.026290058634025344,0.015286256055594116,-0.01740192455561332,0.00032211243831594023
1592225629.894349,-9.76971191969887,-0.529938268506901,1.3500720200752825,0.37333333333333335,-0.0044444444444444444,-0.027777777777777776,0.055591966739566054,0.035934566450322517,-0.19614640270038075
1592225629.904349,-9.8011773989899,-0.45205650252525253,1.4279434974747476,0.37333333333333335,-0.0044444444444444444,-0.027777777777777776,-0.0038838465313032824,-0.0031132406944260477,-0.18954768754209095
1592225629.914349,-9.636596883612466,-0.49743454526181896,1.5752355840576637,0.37333333333333335,-0.0044444444444444444,-0.027777777777777776,-0.033336015343188544,-0.056214901758306866,-0.10040213379874557
1592225629.924349,-9.768719084134355,-0.507301004428124,1.609204017712496,0.37333333333333335,-0.0044444444444444444,-0.027777777777777776,0.05856850607336058,0.11182258447984215,-0.22769616976497004
1592225629.934349,-9.552325169941335,-0.1837713008660024,1.4108790390166683,0.37705103930637035,-0.0044444444444444444,0.0010344435132590458,0.04527257555898015,0.10244840144358161,-0.2540810921470409
1592225629.944349,-9.661313285644836,-0.4850774359330509,1.709606917147024,0.37777777777777777,-0.0044444444444444444,0.006666666666666667,-0.10755338485703718,-0.020926541973732782,-0.0793915567722476
1592225629.954349,-9.453866296898749,-0.6066720887443001,1.401631423162049,0.37777777777777777,-0.0044444444444444444,0.006666666666666667,-0.05168547123220714,0.08121792357191639,0.03127817137150907
1592225629.964349,-10.418128260714202,-1.1133087166781808,1.5984169902565692,0.37777777777777777,-0.0044444444444444444,0.006666666666666667,0.08776069779166207,-0.2172318937293859,0.1696279417118619
1592225629.974349,-10.242609901313106,-1.4973272979365468,1.6018789250468968,0.37777777777777777,-0.0044444444444444444,0.006666666666666667,-0.11327760774925123,0.029666153356199015,-0.07487301993646683
1592225629.984349,-9.01108065205446,-0.47101654557665285,0.7208059100067159,0.34447497133863825,-0.009994912184301036,0.03552909891392094,0.016199626322390748,0.005532075154042859,-0.10365589707462661
1592225629.994349,-9.261827944483212,-0.5635360936651934,0.9286574397146623,0.34444444444444444,-0.01,0.035555555555555556,0.08386058728378508,0.03370918321094945,-0.0847922381381852
1592225630.004349,-9.866448486111835,-0.8260930741570691,1.1818307363593725,0.34444444444444444,-0.01,0.035555555555555556,-0.012154216327751294,-0.014466966317593713,0.038960036962650144
1592225630.014349,-10.122390692978872,-0.9603949234430209,1.2643970386750956,0.34444444444444444,-0.01,0.035555555555555556,0.029100873327925606,0.12277731382746003,-0.0892234973994846
1592225630.024349,-10.110249778630461,-0.9521498671782762,1.5437020365997638,0.34444444444444444,-0.01,0.035555555555555556,0.09158112817303027,0.06062236534081203,-0.11183204909408323
1592225630.034349,-9.318178770949721,-0.6472402234636871,1.5880558659217878,0.35035878336436993,-0.01,0.06709869646182495,0.00606233777892444,0.04078488321193174,0.03206554978402154
1592225630.044349,-10.40719692418599,-0.9478945091913973,1.679587408386399,0.3511111111111111,-0.01,0.07111111111111111,0.09776970955523691,0.018823443086610894,0.031345493703684356
1592225630.054349,-9.623154982268812,-0.7715782705272592,1.551052180351506,0.3511111111111111,-0.01,0.07111111111111111,0.021184800135325463,-0.012573354039827723,0.018429263212252092
1592225630.064349,-10.007046594204864,-0.9053820507955438,1.5052251104545578,0.3511111111111111,-0.01,0.07111111111111111,0.18284367614629385,0.09350640023473761,-0.047559045333576466
1592225630.074349,-9.646854820916378,-0.6708191145105538,1.3236440023534604,0.3511111111111111,-0.01,0.07111111111111111,0.1446131183692171,0.07102313623860318,-0.04358597827853806
1592225630.084349,-10.029617682198326,-0.8674446552814674,1.3458148850938225,0.33935390165624196,0.006656046727731313,0.07698971583854569,0.05874793410723885,-0.06774673225967395,-0.11993925557126503
1592225630.094349,-9.640096317729597,-0.6010222363153515,1.2248222283879662,0.3377777777777778,0.008888888888888889,0.07777777777777778,0.14325355032143983,-0.17457413023077462,-0.033297816093232804
1592225630.104349,-9.310106312468518,-0.6484177735358838,1.1674734218828706,0.3377777777777778,0.008888888888888889,0.07777777777777778,0.11506661145303161,-0.10367667113909076,-0.09363749392486262
1592225630.114349,-9.980203868269733,-0.8036734305944969,1.541020291783491,0.3377777777777778,0.008888888888888889,0.07777777777777778,0.10362892433716332,-0.11990232808457409,-0.0253753584170804
1592225630.1243489,-9.81265421191606,-0.7170616847664238,1.7958766304671525,0.3377777777777778,0.008888888888888889,0.07777777777777778,-0.05999114511170946,-0.1692700223866395,-0.12085466897980726
1592225630.1343489,-9.543458590451445,-0.3919587528418318,2.009374797012017,0.3326157482588142,-0.003499981956623724,0.07777777777777778,0.06759487587336743,-0.14084449948482594,-0.03256602850706333
1592225630.1443489,-9.351598952019708,-0.2119876432174559,1.8263074336213976,0.3322222222222222,-0.0044444444444444444,0.07777777777777778,0.04622732952992597,-0.05015027659928169,-0.05626836439240204
1592225630.1543489,-9.689250974166546,-0.3910131332082552,1.5381498051666906,0.3322222222222222,-0.0044444444444444444,0.07777777777777778,-0.06392010200628641,-0.06802712949275885,0.0023754575951925178
1592225630.1643488,-9.703892032060349,-0.4347784064120698,1.4235965739431087,0.3322222222222222,-0.0044444444444444444,0.07777777777777778,-0.01878087284049218,-0.024186682531590842,0.03182746957793172
1592225630.1743488,-10.143331548810577,-0.8032875564452306,1.3436888413016155,0.3322222222222222,-0.0044444444444444444,0.07777777777777778,-0.05290740037054059,0.012105880672765586,-0.038896310941306404
1592225630.1843488,-10.018216840946614,-0.7908860759493671,1.2513318657127133,0.3203455023543081,0.004691493915489513,0.0951360606616523,-0.03391180980235405,-0.08321952242095555,0.030181252574818004
1592225630.1943488,-9.71131049817855,-0.8770497232341392,1.4840994464682784,0.31777777777777777,0.006666666666666667,0.09888888888888889,-0.053987324630181674,-0.05340281644819961,0.06269002494308995
1592225630.2043488,-9.475491322589873,-0.7816034137503576,1.5384568990178316,0.31777777777777777,0.006666666666666667,0.09888888888888889,0.002734618219875251,0.014316230865579739,0.17967208833122533
1592225630.2143488,-10.044244646870933,-0.9278457352419259,1.5316077132379038,0.31777777777777777,0.006666666666666667,0.09888888888888889,-0.05173206592409756,0.04706006336293565,0.1228990637264746
1592225630.2243488,-9.754380048899757,-0.7812522249388753,1.4887505134474328,0.31777777777777777,0.006666666666666667,0.09888888888888889,-0.09135674198351929,-0.04022324626655162,0.06449591142989233
1592225630.2343488,-9.375034604335335,-0.6915232436667537,1.6480118829981718,0.32248708685180344,0.006666666666666667,0.08664468529642204,-0.0777381454538882,-0.14006656117460323,-0.005208154335390167
1592225630.2443488,-9.11121668909825,-0.639779273216689,1.5683983849259757,0.3233333333333333,0.006666666666666667,0.08444444444444445,-0.09865074261806643,-0.10001317998839848,-0.05922403669910839
1592225630.2543488,-9.723915644171779,-0.9269064417177915,1.5344844069529653,0.3233333333333333,0.006666666666666667,0.08444444444444445,-0.03909016647191811,-0.1253722881346993,-0.0745251575273545
1592225630.2643487,-9.49446003074558,-0.86815334358186,1.4940564950038433,0.3233333333333333,0.006666666666666667,0.08444444444444445,-0.1514890201122408,-0.135271820813739,-0.04082524337473861
1592225630.2743487,-9.066140186915888,-0.7899327898190495,1.4733221316365082,0.3233333333333333,0.006666666666666667,0.08444444444444445,-0.19272565739675354,-0.011431468446221907,0.0419422592151126
1592225630.2843487,-9.9237370345944,-0.8759128245098627,1.4397391929971821,0.31744928752722984,0.011710134500469652,0.0995748479458534,-0.07503992315103353,-0.00042674446044663195,0.11841671536592455
1592225630.2943487,-9.04888947545232,-0.6584160387771751,1.5030405048711426,0.31555555555555553,0.013333333333333334,0.10444444444444445,-0.15373911064433632,0.1297080619138486,-0.07182848741040498
1592225630.3043487,-9.746446833986806,-0.7680769140469091,1.544010987720987,0.31555555555555553,0.013333333333333334,0.10444444444444445,-0.04924522312261981,0.0492532136188079,-0.00016383078242035443
1592225630.3143487,-9.982122311479658,-0.7469784918372635,1.3215470329100802,0.31555555555555553,0.013333333333333334,0.10444444444444445,-0.11174726071272648,-0.02224034079710771,0.09304229711092406
1592225630.3243487,-9.631672886192652,-1.0651826944183913,1.693765839835565,0.31555555555555553,0.013333333333333334,0.10444444444444445,-0.11235258834139866,-0.04815409154490716,0.04134989005206033
1592225630.3343487,-9.465443519471206,-0.846190253484239,1.4335291366570013,0.29925406278039335,0.008185493509597897,0.11645607069982714,-0.10263485449303254,0.021860455667346818,0.01893116705590247
1592225630.3443487,-9.578956802583772,-0.8951925716592652,1.44464836495761,0.29444444444444445,0.006666666666666667,0.12,-0.12088184220791974,0.06772795257669659,0.018306668333557197
1592225630.3543487,-9.884383877380506,-1.0881601313780287,1.5734241839292402,0.29444444444444445,0.006666666666666667,0.12,-0.07545067432747354,0.023961726573876685,0.03421715132310925
1592225630.3643486,-9.608787593984962,-0.9177347274436091,1.5044393796992481,0.29444444444444445,0.006666666666666667,0.12,-0.0439951841267007,0.006427648620677308,0.042542400517361786
1592225630.3743486,-9.531814149640077,-0.7795797280593325,1.4881858503599215,0.29444444444444445,0.006666666666666667,0.12,0.036069751870782416,-0.021111894388932902,-0.01287272329723168
1592225630.3843486,-9.584074998379464,-0.8107428534387762,1.5240749983794646,0.2853496035089994,0.014362301304350957,0.14238730076417247,0.06718660624710232,0.1566393972188153,-0.0869844036127859
1592225630.3943486,-9.553170538665674,-0.9339331440011174,1.5571036826667908,0.28,0.01888888888888889,0.15555555555555556,0.0007580814325771415,0.3032444061502938,-0.013455475658481458
1592225630.4043486,-9.704681393759962,-0.946562969710772,1.4726593031200181,0.28,0.01888888888888889,0.15555555555555556,-0.06762986891487946,0.17160633874616998,0.023623355370935774
1592225630.4143486,-9.613418500846544,-1.1236447591195935,1.5147591195936587,0.28,0.01888888888888889,0.15555555555555556,-0.09362088350554122,0.059841227234642816,0.022907446432425576
1592225630.4243486,-9.749417530278436,-1.2317299288300663,1.5690379572980397,0.28,0.01888888888888889,0.15555555555555556,-0.08521092281079945,0.08684573887801195,0.022907446432425576
1592225630.4343486,-9.513896467078892,-0.9090498089053227,1.451196594475344,0.2951533418264301,0.025623707478413377,0.15471370323186498,-0.048224156850515336,0.0710312412922324,0.0361312318099944
1592225630.4443486,-9.62751816487237,-0.9338342146308062,1.5215285121923383,0.3,0.027777777777777776,0.15444444444444444,-0.09900844450009298,0.06462692058893647,0.02381515109770984
1592225630.4543486,-9.91,-0.9708988472690413,1.4405280403573701,0.3,0.027777777777777776,0.15444444444444444,-0.08651573054024159,0.02661258364720951,-0.05446678734894017
1592225630.4643486,-9.792815108766666,-1.212493043288891,1.515308152055557,0.3,0.027777777777777776,0.15444444444444444,-0.09073095298993526,0.059323990233981105,0.018928119387898623
1592225630.4743485,-9.562332793907663,-0.9398735840076153,1.4470931937172775,0.3,0.027777777777777776,0.15444444444444444,-0.04116952170331682,0.09968378242824077,0.026113876281692747
1592225630.4843485,-9.517845925297113,-0.6118972835314092,1.4286590468105749,0.2937232530250357,0.03177207130730051,0.1618624181421295,0.03729520813279797,0.10463105732198044,0.024030951869697267
1592225630.4943485,-9.67204581993569,-0.8751718247588425,1.3973568127009646,0.2877777777777778,0.035555555555555556,0.1688888888888889,0.041885402958048705,0.14189815529353078,0.003327844994712101
1592225630.5043485,-9.672611318726949,-1.130637747001783,1.207292445226057,0.2877777777777778,0.035555555555555556,0.1688888888888889,0.031397813964980245,0.13673584241230252,0.06615210207140772
1592225630.5143485,-9.75669124643197,-1.2966912464319695,1.1530934823977164,0.2877777777777778,0.035555555555555556,0.1688888888888889,0.0302843063625812,0.15298330880620908,0.015247499826793354
1592225630.5243485,-9.846587780729294,-1.235177493359092,1.0859418014972229,0.2877777777777778,0.035555555555555556,0.1688888888888889,0.06466669314240703,0.08640098939616853,-0.04124610052203093
1592225630.5343485,-9.913844998881896,-0.9704680062613806,1.0264620004472416,0.2825130001739273,0.031795000124233745,0.16362411128503837,0.05734519342651121,-0.02814146879032746,0.018138986456856132
1592225630.5443485,-9.889905041644871,-0.7070904920935098,1.0475652838691505,0.28,0.03,0.16111111111111112,0.033795037558024335,-0.06711328379144965,0.05837627918179511
1592225630.5543485,-9.763718211206896,-0.17115463362068967,1.1174364224137932,0.28,0.03,0.16111111111111112,0.11384752853968197,-0.06581494613194619,-0.03823009253388496
1592225630.5643485,-9.68648292404883,-0.24020044649218641,1.310501116230466,0.28,0.03,0.16111111111111112,0.05059021148084944,-0.09940225945962772,-0.1174698016792098
