time,acc_x,acc_y,acc_z,mag_x,mag_y,mag_z,gyr_x,gyr_y,gyr_z
1592179921.2316236,-9.459637559808613,-0.36108732057416265,2.400724880382775,0.41,-0.32666666666666666,-0.056666666666666664,0.03452740390903315,0.17670558349600574,-0.13838271477820982
1592179921.2416236,-9.441790009459034,-0.4601549479753164,2.336265033106617,0.41,-0.32666666666666666,-0.056666666666666664,0.1420746536166436,0.10351060892235085,-0.06572205101874959
1592179921.2516236,-9.422070219346917,-0.4879297806530824,2.40171912261233,0.41,-0.32666666666666666,-0.056666666666666664,0.016785730763951373,0.01580384655454206,0.1289682746286988
1592179921.2616236,-9.434837830363845,-0.40839193299885435,2.424837830363845,0.41,-0.32666666666666666,-0.056666666666666664,-0.10006893238214322,0.048627446171468844,0.1359676420888028
1592179921.2716236,-9.449640758547007,-0.38,2.381796207264957,0.39821685066476736,-0.32666666666666666,-0.056666666666666664,-0.07531933074831199,0.09061091947799554,-0.06996423732355639
1592179921.2816236,-9.49525992867743,-0.40715595720645886,2.370948014264514,0.3977777777777778,-0.32666666666666666,-0.056666666666666664,0.007882651973233123,0.11532782896887177,-0.07349931168405346
1592179921.2916236,-9.491146866625924,-0.42770626674815476,2.2549092661369943,0.3977777777777778,-0.32666666666666666,-0.056666666666666664,-0.029992436211306688,0.1863763443921485,0.00996686306425422
1592179921.3016236,-9.498976507628965,-0.43897650762896584,2.2579530152579315,0.3977777777777778,-0.32666666666666666,-0.056666666666666664,0.05800435225112312,0.08069405522727997,-0.04194206051490479
1592179921.3116236,-9.50721138770984,-0.4904797139688731,2.26,0.3977777777777778,-0.32666666666666666,-0.056666666666666664,-0.016234820645540632,0.006273559667189954,-0.011328647459977248
1592179921.3216236,-9.536209164936931,-0.45758167012613765,2.2774727766246206,0.40263132684017244,-0.33249092554154025,-0.04404743910444054,0.01952804813981464,0.02447836119526264,-0.15778317760409707
1592179921.3316236,-9.54886860291371,-0.4854744116548375,2.2179197796040344,0.4033333333333333,-0.3333333333333333,-0.042222222222222223,-0.009244149096643478,0.08858813224597245,0.040460011888261926
1592179921.3416235,-9.523951174983615,-0.5768294167212807,2.21,0.4033333333333333,-0.3333333333333333,-0.042222222222222223,0.08242972442504734,0.0922044608362567,0.02894153505124679
1592179921.3516235,-9.52,-0.7595336895067172,2.21,0.4033333333333333,-0.3333333333333333,-0.042222222222222223,0.05598781360126825,0.00738272734582382,0.0907160543999375
1592179921.3616235,-9.421611480678676,-1.1690201061364824,2.1990679422976305,0.4033333333333333,-0.3333333333333333,-0.042222222222222223,0.026023150709450726,0.04868925929030373,0.048394680351880846
1592179921.3716235,-9.4956100743834,-1.713963852277176,2.2775306668406627,0.4098170864326417,-0.3333333333333333,-0.04870597532153059,0.030855934468135594,0.004516136237777815,-0.10900350440031562
1592179921.3816235,-9.702768226679401,-1.234804600445718,2.1496489971346704,0.41,-0.3333333333333333,-0.04888888888888889,0.05217277629142175,0.016400750210471427,-0.0017626589100798312
1592179921.3916235,-9.581288857931533,-1.004838376802621,1.8109656115367747,0.41,-0.3333333333333333,-0.04888888888888889,0.012702551816946385,-0.01956488291788473,-0.0542255434883485
1592179921.4016235,-9.379750608574692,-0.7912901783496448,1.5428297481245963,0.41,-0.3333333333333333,-0.04888888888888889,0.06765714133112093,-0.01158007186589188,-0.16887891118829465
1592179921.4116235,-9.653107547691457,-0.700729886646392,1.8923776610450649,0.41,-0.3333333333333333,-0.04888888888888889,0.05608052432888125,-0.04673170944731983,-0.06026862692123079
1592179921.4216235,-9.55425581092519,-0.42950387395012696,1.8542558109251905,0.39830577077500706,-0.32695466284697355,-0.06483556510478837,0.09690943796677642,-0.32466629745498327,0.0961554657298481
1592179921.4316235,-9.511229118400195,-0.71346299231801,1.857262528959883,0.3977777777777778,-0.32666666666666666,-0.06555555555555556,0.10679780039644822,-0.3541786957163127,0.056583139134643315
1592179921.4416234,-9.569770655110311,-0.22979091625393966,2.295443493921657,0.3977777777777778,-0.32666666666666666,-0.06555555555555556,0.0350077607000371,-0.2776931446959294,0.0714977939356772
1592179921.4516234,-9.705874638537042,-0.3791618132203804,2.073075795218507,0.3977777777777778,-0.32666666666666666,-0.06555555555555556,0.13562199201113392,-0.2187914749232572,0.026645051290074814
1592179921.4616234,-9.515965800451937,-0.5628163566834694,2.295347210151226,0.3977777777777778,-0.32666666666666666,-0.06555555555555556,0.13766057416203475,-0.35436428646324714,0.040319214192875256
1592179921.4716234,-9.330292523709817,-0.5534308412366056,2.5651330213080428,0.40761820694940537,-0.32666666666666666,-0.06555555555555556,0.050526330609623075,-0.34751371065077,0.015306428980897742
1592179921.4816234,-9.444450245379556,-0.26322334760363375,2.525891197661063,0.4088888888888889,-0.32666666666666666,-0.06555555555555556,0.08267841261018534,-0.29093870481763834,0.00037370949121550215
1592179921.4916234,-9.372220194289078,-0.2824368560494554,2.3953429496614658,0.4088888888888889,-0.32666666666666666,-0.06555555555555556,0.128723940867522,-0.1576210983449137,-0.040880561404740154
1592179921.5016234,-9.479310671786848,-0.08620632437301473,2.6150867586403073,0.4088888888888889,-0.32666666666666666,-0.06555555555555556,0.1498952400389941,-0.1407171709420428,-0.10769147129348966
1592179921.5116234,-9.23185508858346,-0.3326392309525701,2.7007301183761023,0.4088888888888889,-0.32666666666666666,-0.06555555555555556,0.12030406721096093,-0.1296495759971745,-0.08351610889251586
1592179921.5216234,-9.065770437169183,-0.7336208586551656,2.7750539109978436,0.390537585222941,-0.32666666666666666,-0.06555555555555556,0.08597226383561757,-0.08440829776469268,0.00916866688875427
1592179921.5316234,-9.21043579575651,-0.6095642042434897,2.878561383426679,0.3888888888888889,-0.32666666666666666,-0.06555555555555556,0.08173052202049537,-0.015081479184517244,0.033338323475434896
1592179921.5416234,-9.333341063442107,0.17969852575782674,2.428584561868478,0.3888888888888889,-0.32666666666666666,-0.06555555555555556,0.019662780478924023,0.07852463830666057,0.032732512491435814
1592179921.5516233,-9.148599806627406,-0.707418475872374,2.509287158301837,0.3888888888888889,-0.32666666666666666,-0.06555555555555556,0.06269721787932143,0.09024680750989665,-0.011843620673980378
1592179921.5616233,-9.18239502134619,-0.7877449501922219,2.6080637624519443,0.3888888888888889,-0.32666666666666666,-0.06555555555555556,0.0834409205978402,0.09462575324999821,0.007052228770533523
1592179921.5716233,-10.002824675324675,0.1244642857142857,2.7882305194805195,0.3907395382395383,-0.3386958874458874,-0.05815295815295815,-0.059174028292048014,0.24134276896895615,-0.0901033309658842
1592179921.5816233,-10.084549720851202,-0.19752488065377466,2.970900558297597,0.39111111111111113,-0.3411111111111111,-0.056666666666666664,0.024335173492678247,0.22051083808655703,-0.03511691352558033
1592179921.5916233,-9.255310942412391,-0.07388901669094905,1.9098967359353831,0.39111111111111113,-0.3411111111111111,-0.056666666666666664,0.014262996556851842,0.11128838382209083,-0.05321649883454395
1592179921.6016233,-9.670366598778003,-0.8355346232179226,2.688979972844535,0.39111111111111113,-0.3411111111111111,-0.056666666666666664,0.06331150758491395,0.1693066756815965,-0.03815908252578234
1592179921.6116233,-9.434471153846154,-1.1145673076923077,2.5584134615384615,0.39111111111111113,-0.3411111111111111,-0.056666666666666664,0.01509332207704231,0.17826692287797852,-0.09779193077505488
1592179921.6216233,-9.53956812194204,-0.8920587128340234,2.2844025216409483,0.3948325178773052,-0.3411111111111111,-0.06969159034834609,-0.02661306880457951,0.17197027343264978,0.047917420958513174
1592179921.6316233,-9.765704994379316,-0.4146089609763931,2.338604865906536,0.39555555555555555,-0.3411111111111111,-0.07222222222222222,-0.007259709216029888,0.13040564933327703,0.05659330651521781
1592179921.6416233,-9.157302447884193,-0.6707777386212692,1.8262818184282579,0.39555555555555555,-0.3411111111111111,-0.07222222222222222,0.12070448169443997,0.11920806022060676,-0.04871627386965488
1592179921.6516232,-9.065660740028832,-0.6441975012013456,1.686415185007208,0.39555555555555555,-0.3411111111111111,-0.07222222222222222,0.030869698656560876,0.014612729324196869,-0.08977233312144847
1592179921.6616232,-9.738966244236963,-0.9277503880638509,2.5178414382688876,0.39555555555555555,-0.3411111111111111,-0.07222222222222222,-0.04073876288130296,0.01925356893240618,0.08888765908435296
1592179921.6716232,-8.967087040618956,-0.33427079303675067,2.1553152804642166,0.3973488072211476,-0.3339381044487427,-0.067739093058242,-0.0015119716416575639,-0.013580315761044834,0.050685441759077104
1592179921.6816232,-9.340054706066992,-0.6128639971301735,2.1210389668624727,0.3977777777777778,-0.3322222222222222,-0.06666666666666667,-0.0340424216645059,0.02836756785109433,0.02676822727913403
1592179921.6916232,-9.570280959070454,-0.6306740636681826,2.409887854472726,0.3977777777777778,-0.3322222222222222,-0.06666666666666667,0.05626979387131906,0.08670269743947771,-0.09917378743027508
1592179921.7016232,-9.41613999517258,-0.8054709147960415,2.0374472604392952,0.3977777777777778,-0.3322222222222222,-0.06666666666666667,0.07537343183810294,0.0481756476227608,0.10438795088309158
1592179921.7116232,-9.608683763009319,-0.7515073804503095,2.1948479695258825,0.3977777777777778,-0.3322222222222222,-0.06666666666666667,0.043104399860714494,0.0096592060364777,0.14234607120411705
1592179921.7216232,-9.859898572000533,-0.78422460963566,2.5717536367276126,0.4166779364443851,-0.3373768109494788,-0.06666666666666667,0.0677769429137812,-0.055148607637169014,0.01611584925305487
1592179921.7316232,-9.647679237463738,-0.7778574388727725,2.2838939079983422,0.4222222222222222,-0.3388888888888889,-0.06666666666666667,0.0645694972333209,-0.049282224858944734,0.019907548764524007
1592179921.7416232,-9.366620147297466,-0.7360619148670579,2.247069279740357,0.4222222222222222,-0.3388888888888889,-0.06666666666666667,0.015655539119745102,0.0063014098474279065,-0.025156646640299304
1592179921.7516232,-9.625528509062045,-0.5845958460113772,2.0992538695594654,0.4222222222222222,-0.3388888888888889,-0.06666666666666667,0.06500956057362695,-0.06618178156135265,0.00725657175523671
1592179921.7616231,-9.69341728265847,-0.4337698698240335,2.013165434683064,0.4222222222222222,-0.3388888888888889,-0.06666666666666667,0.07891807852186125,-0.048961868672377715,0.014279700641122734
1592179921.7716231,-9.8100927095102,-0.15993819365986575,2.4302163221904696,0.40316283053838714,-0.3388888888888889,-0.060313536105388296,-0.007997565035836152,0.030221964506562938,-0.06095284322148138
1592179921.7816231,-9.768790322580644,-0.025770300333704102,2.4094605116796437,0.39555555555555555,-0.3388888888888889,-0.057777777777777775,0.0068459035315294806,0.0224754822960866,-0.01892391199534453
1592179921.791623,-9.329369074861066,-0.1354407758526752,2.1796197014274816,0.39555555555555555,-0.3388888888888889,-0.057777777777777775,-0.0038240293237107453,-0.015298970072306184,0.01023231843191047
1592179921.801623,-9.271392975512052,-0.37012780466868545,2.3641789265361597,0.39555555555555555,-0.3388888888888889,-0.057777777777777775,0.03798670788721276,0.019110801817860963,-0.08057023011627791
1592179921.811623,-9.341454791415304,-0.38895031260282986,2.44104968739717,0.39555555555555555,-0.3388888888888889,-0.057777777777777775,0.04729146878749991,0.04831394068142926,-0.09685493337721823
1592179921.821623,-9.44408598436077,-0.425462425022768,2.463860189052539,0.39555555555555555,-0.3388888888888889,-0.06876344705098276,0.008729009960753365,0.09802698774102404,-0.04586179005862177
1592179921.831623,-9.359493222615704,-0.5709121992917328,2.4366328815077134,0.39555555555555555,-0.3388888888888889,-0.07444444444444444,0.009662690698682428,0.09957761602008108,-0.02065944786295309
1592179921.841623,-9.563359091625927,-0.608432423907901,2.3828108079693004,0.39555555555555555,-0.3388888888888889,-0.07444444444444444,0.05133980770808044,0.04826778555013046,-0.03263816392204097
1592179921.851623,-9.652468439212504,-0.54,2.349041607469048,0.39555555555555555,-0.3388888888888889,-0.07444444444444444,0.07422187991777844,0.05495869832116536,-0.026793434233192328
1592179921.861623,-9.639911158350714,-0.43868502326327613,2.3103509545965024,0.39555555555555555,-0.3388888888888889,-0.07444444444444444,0.07096118503653255,0.09965812440488192,0.05861749755966035
1592179921.871623,-9.613725956849127,-0.2481584799656666,2.281113495376692,0.3990530564117236,-0.32979538666285185,-0.06954794324580911,0.05612290541506589,0.16607720979511936,0.10063906658163521
1592179921.881623,-9.549841035267804,-0.18007948236609816,2.2062543435715143,0.4011111111111111,-0.3244444444444444,-0.06666666666666667,0.025106448359739596,0.1245232331278574,0.0753713661661821
1592179921.891623,-9.563062685524708,-0.21705330639327497,2.1234106612786547,0.4011111111111111,-0.3244444444444444,-0.06666666666666667,0.03463576165246891,0.029384051827436395,-0.04299789971412375
1592179921.901623,-9.54,-0.25,2.1368387357799037,0.4011111111111111,-0.3244444444444444,-0.06666666666666667,0.05149428471985661,0.07542926893064408,0.021134359641456393
1592179921.911623,-9.4665719932655,-0.25,2.1504897152477858,0.4011111111111111,-0.3244444444444444,-0.06666666666666667,0.049911117761365725,0.09195030360986779,0.07329934101403954
1592179921.921623,-9.580191945803538,-0.22997867268849578,2.18502665913938,0.40834103486248763,-0.31832681665481816,-0.07778962628416901,0.0654719482132892,0.08725483035576814,0.14788259900173656
1592179921.931623,-9.720305133877488,-0.4217059526533934,2.2893897322450227,0.41555555555555557,-0.31222222222222223,-0.08888888888888889,0.019781712944503135,0.12326690180438885,0.08898668390998335
1592179921.941623,-9.61293569661995,-0.5776780708985986,2.3030515251442707,0.41555555555555557,-0.31222222222222223,-0.08888888888888889,-0.03656715683000929,0.13346854193893187,0.027429942726881203
1592179921.951623,-9.56171061856226,-0.7906207194089414,2.2367448632907294,0.41555555555555557,-0.31222222222222223,-0.08888888888888889,-0.04534839401864521,0.13616883660508125,-0.00738309428664282
1592179921.961623,-9.586149001474869,-0.7605478933312074,2.243515964443736,0.41555555555555557,-0.31222222222222223,-0.08888888888888889,-0.05786390522794351,0.12151218776605213,-0.054745773676000135
1592179921.971623,-9.715197029216794,-0.4410637122514117,2.1587822244046158,0.4069830455301852,-0.3240918514881196,-0.08888888888888889,-0.013473621512698986,0.08072147790473774,-0.05488769645022831
1592179921.981623,-9.863855174118592,-0.26987006766986993,2.103725241788462,0.4011111111111111,-0.3322222222222222,-0.08888888888888889,0.048531167013386264,0.07866806808177737,-0.04964360341129478
1592179921.991623,-9.701853042054198,-0.39299168803880974,2.0648447300930073,0.4011111111111111,-0.3322222222222222,-0.08888888888888889,0.031566343414740086,0.06594445038279273,-0.06660842700994095
1592179922.001623,-9.467246637877853,-0.3568224552745219,2.0436017273288094,0.4011111111111111,-0.3322222222222222,-0.08888888888888889,0.011130242428337373,0.07923304905960699,-0.04656381784600844
1592179922.011623,-9.435049760990518,-0.3262624402476295,2.0573466029308047,0.4011111111111111,-0.3322222222222222,-0.08888888888888889,0.002562909530664426,0.07407382980016898,-0.02169993325684804
1592179922.021623,-9.724314980793855,-0.40484622017821215,2.1649021401134076,0.4144817244012415,-0.3277653511255121,-0.08888888888888889,0.012041838038127604,0.024211774368254967,0.08296718861573053
1592179922.031623,-9.27678685386088,-0.3031046585832802,2.13,0.42777777777777776,-0.3233333333333333,-0.08888888888888889,0.002261716153370126,0.06738995249593771,0.12343060080398076
1592179922.0416229,-9.358873484463238,-0.5008658298316516,2.0795862216631424,0.42777777777777776,-0.3233333333333333,-0.08888888888888889,-0.040278816430738246,0.06519572947713127,0.11946227635988749
1592179922.0516229,-9.56363693665301,-0.7154522533879609,2.068633785061456,0.42777777777777776,-0.3233333333333333,-0.08888888888888889,-0.05794604503060987,0.0858782575257421,0.07482366905219506
1592179922.0616229,-9.734662116040955,-0.9003276450511946,2.271849829351536,0.42777777777777776,-0.3233333333333333,-0.08888888888888889,-0.06912590945708087,0.05290640984266429,-0.16521358180439838
1592179922.0716228,-9.64413948820873,-0.9278618020213605,2.163448498315533,0.42400767766548,-0.32710343344563114,-0.0964290891134845,-0.0010609621452006557,0.005491841564776976,-0.15527414392609382
1592179922.0816228,-9.476817520019413,-0.8287806357680174,2.0959969263123837,0.4211111111111111,-0.33,-0.10222222222222223,0.032592749689228415,-0.006108317094673393,-0.11309254092074589
1592179922.0916228,-9.555390449368808,-0.281365893426221,1.7740611181106254,0.4211111111111111,-0.33,-0.10222222222222223,-0.005148185565821918,-0.05272168230020878,0.040392645463065174
1592179922.1016228,-9.685148785279601,-0.4600119794911113,1.908478125449231,0.4211111111111111,-0.33,-0.10222222222222223,-0.03941129957658347,-0.09895819903975876,-0.02481416574259404
1592179922.1116228,-9.958209665213161,-0.6137338282460629,2.1291048326065805,0.4211111111111111,-0.33,-0.10222222222222223,-0.057717248691436955,-0.10097573171750016,-0.0865670871104594
1592179922.1216228,-9.662400819042745,-0.1626106987458408,1.9064218070130534,0.42370759036487216,-0.32688422489548674,-0.09910644711770897,-0.03830248337812679,-0.09009530761846593,0.05610533313883934
1592179922.1316228,-9.461259874582622,-0.18047397996579526,1.786773352878899,0.4266666666666667,-0.3233333333333333,-0.09555555555555556,-0.17236805384682638,-0.18811229818746625,0.06337932060011353
1592179922.1416228,-9.484586874970322,-0.541652500118714,2.0652329170425947,0.4266666666666667,-0.3233333333333333,-0.09555555555555556,-0.03896020318632398,-0.23559756402917775,0.05561975690121555
1592179922.1516228,-9.56256207472076,-0.57384311208114,1.9794836307613302,0.4266666666666667,-0.3233333333333333,-0.09555555555555556,0.03340412634162258,-0.25342045172877625,0.09332072049255534
1592179922.1616228,-9.451290951873379,-0.6740590873438851,2.159668161615349,0.4266666666666667,-0.3233333333333333,-0.09555555555555556,-0.03580054283720267,-0.147507599692983,0.005929158801620371
1592179922.1716228,-9.213466573398621,-0.5969331467972419,2.1052293394623764,0.4197728256886846,-0.3170139791035164,-0.10302388328170281,-0.14459726704506684,-0.051331943685647655,0.008466447091607597
1592179922.1816227,-9.228520371694067,-0.5143348423477087,1.9754185529346358,0.41333333333333333,-0.3111111111111111,-0.11,-0.11328573537326657,0.013455225730121482,0.0013272597560039477
1592179922.1916227,-9.580997328794648,-0.5868579060586719,2.038428953029336,0.41333333333333333,-0.3111111111111111,-0.11,0.057767822722052525,0.0041129913512354815,0.04146794392929326
1592179922.2016227,-9.410224835250032,-0.5508993410001293,2.069887582374984,0.41333333333333333,-0.3111111111111111,-0.11,-0.032981597832682286,-0.07500980391994366,0.0764685205200284
1592179922.2116227,-9.58801982144964,-0.4171947142800959,2.031595154756755,0.41333333333333333,-0.3111111111111111,-0.11,-0.061556927702684824,-0.09241460731050186,0.018539318447457258
1592179922.2216227,-9.72106733953635,-0.32451442990064655,2.0337139252483833,0.4166370183462125,-0.31630261613134975,-0.11283173001103927,-0.014138825292950838,-0.1272488083350566,-0.02030204501828501
1592179922.2316227,-9.56,-0.29,2.12,0.4211111111111111,-0.3233333333333333,-0.11666666666666667,-0.11453723216212788,-0.18435040224190105,0.009817477042468103
1592179922.2416227,-9.57,-0.588381478886034,2.2452485141062577,0.4211111111111111,-0.3233333333333333,-0.11666666666666667,-0.06820912873914353,-0.16910402553850112,-0.008627016538888697
1592179922.2516227,-9.51394929302779,-0.34172111165285224,2.2378985860555827,0.4211111111111111,-0.3233333333333333,-0.11666666666666667,0.03714621859673328,-0.12126038765775815,-0.02174481547653223
1592179922.2616227,-9.45,0.01,2.11,0.4211111111111111,-0.3233333333333333,-0.11666666666666667,0.01854412330243975,-0.16253378659197193,-0.022907446432425576
1592179922.2716227,-9.368309085918199,-0.26867508463720374,2.346984170555403,0.41322607537540285,-0.32125832392919956,-0.11957167983245393,-0.022855145642780766,-0.20813807894890218,0.11805885193510093
1592179922.2816226,-9.040197865948409,-0.30694637245761247,2.051232432059118,0.4,-0.31777777777777777,-0.12444444444444444,-0.04327308650509845,-0.1800567651144574,0.07125868378115449
1592179922.2916226,-9.58865750741669,-0.6772876522941329,2.711150666781877,0.4,-0.31777777777777777,-0.12444444444444444,0.050922371272449474,-0.046854919379503,0.06203389616879245
1592179922.3016226,-9.384935897435899,-0.3819230769230769,2.4416666666666664,0.4,-0.31777777777777777,-0.12444444444444444,0.09482536052201564,-0.06213539957220197,0.04104600444393716
1592179922.3116226,-9.465868870422792,-0.27931476577481507,2.3441409916902565,0.4,-0.31777777777777777,-0.12444444444444444,0.05585015754523817,-0.06544984694978735,0.04825763264013748
1592179922.3216226,-9.555230526245044,-0.3867457490422743,2.4427931984676388,0.4056463247978135,-0.3192636527245708,-0.12444444444444444,-0.04634516902923027,-0.07653637976515777,0.0035513033876018773
1592179922.3316226,-9.28389177748125,-0.5573229650761515,2.5136557309161183,0.4211111111111111,-0.3233333333333333,-0.12444444444444444,-0.047045760360326275,-0.019948957553177937,0.03078503855736248
1592179922.3416226,-9.44359565598947,-0.6454879333040807,2.44774396665204,0.4211111111111111,-0.3233333333333333,-0.12444444444444444,-0.10130800115910883,0.07269992283638327,0.009312315652451983
1592179922.3516226,-9.676211860764933,-0.5737795444778685,2.285118177911474,0.4211111111111111,-0.3233333333333333,-0.12444444444444444,0.020326860503056002,0.04616037730262506,-0.10680883435566985
1592179922.3616226,-8.983276982312598,-0.36596618938755865,2.0028570569125255,0.4211111111111111,-0.3233333333333333,-0.12444444444444444,0.008772453015246734,0.09422403622079045,-0.13012051967983096
1592179922.3716226,-9.066198773998817,-0.35344711703021436,2.2223499393222763,0.4231461486068326,-0.32862443082220905,-0.1268864894393102,0.024242837559319042,0.15505298944799586,-0.07175027130036907
1592179922.3816226,-9.89,-0.74,2.78,0.4266666666666667,-0.3377777777777778,-0.13111111111111112,0.10581058590215622,0.074176493209759,0.009817477042468103
1592179922.3916225,-9.441341530845994,-0.3958845677874615,2.126296111008715,0.4266666666666667,-0.3377777777777778,-0.13111111111111112,-0.024570217323188488,0.1215293888324795,-0.019583656689598272
1592179922.4016225,-9.848415392493964,-0.5621479259638598,2.404595069134538,0.4266666666666667,-0.3377777777777778,-0.13111111111111112,0.004743585671400381,0.02500076578685271,-0.058860731051156495
1592179922.4116225,-10.27,-0.4,2.41,0.4266666666666667,-0.3377777777777778,-0.13111111111111112,-0.02945243112740431,0.02617993877991494,0.10799224746714915
1592179922.4216225,-9.732886483304444,-0.3600716224613272,2.164002027667855,0.42505743242015603,-0.33359376873685015,-0.13561696700134088,0.002490927093117379,0.08651504261830159,-0.06338205959932591
1592179922.4316225,-8.71,-0.63,2.37,0.4211111111111111,-0.3233333333333333,-0.14666666666666667,0.08617563181722002,0.17562375598192942,-0.1679879405044542
1592179922.4416225,-9.492459719066307,-0.15696550299524892,2.231988483784342,0.4211111111111111,-0.3233333333333333,-0.14666666666666667,0.023361320818635747,0.12959195318483271,0.04544123656551738
1592179922.4516225,-9.18714591865892,0.0,2.0572535479569485,0.4211111111111111,-0.3233333333333333,-0.14666666666666667,-0.0013533304464622836,0.09341512630985543,-0.13039630546818168
1592179922.4616225,-9.727630690862783,-0.06678531253316354,2.2303003289822776,0.4211111111111111,-0.3233333333333333,-0.14666666666666667,0.09239907437259756,-0.0029485191937278716,-0.06869200950156262
1592179922.4716225,-9.925484609665427,-0.25774126394052044,2.363387063197026,0.42336915324246177,-0.325591375464684,-0.14365594382486577,-0.0081285952421182,0.026672264369659665,0.048876388531021345
1592179922.4816225,-9.78,-0.39,2.37,0.42777777777777776,-0.33,-0.13777777777777778,0.020725784867432664,0.08726646259971647,0.022907446432425576
1592179922.4916224,-9.38365175903109,-0.4397354899596288,2.162716143239134,0.42777777777777776,-0.33,-0.13777777777777778,0.0028375440907449923,0.04732731747701115,0.0035420687588193778
1592179922.5016224,-9.934842839963215,-0.3379428894810064,2.1794857223702517,0.42777777777777776,-0.33,-0.13777777777777778,-0.12644441575892076,0.1630293405040089,0.09429609521385857
1592179922.5116224,-9.918059508408797,-0.14,2.0830998109264605,0.42777777777777776,-0.33,-0.13777777777777778,-0.16339535728763063,0.13130838908278689,0.01293419845027368
1592179922.5216224,-9.688848752197922,-0.14685566215257428,2.064553166548416,0.4290473448430693,-0.3284765195216502,-0.13980908508224424,-0.059684565498823346,0.13928146171028188,-0.056569521318385246
1592179922.5316224,-9.82,-0.17,2.35,0.43333333333333335,-0.3233333333333333,-0.14666666666666667,-0.05126904677733343,0.1712604328519436,-0.022907446432425576
1592179922.5416224,-9.569765962932195,0.1101449482941362,1.9622965424389125,0.43333333333333335,-0.3233333333333333,-0.14666666666666667,-0.10262686866289318,0.019990054517841464,0.03827147724482939
1592179922.5516224,-9.392787608520328,-0.09353408605721335,2.123516058636558,0.43333333333333335,-0.3233333333333333,-0.14666666666666667,-0.1054966725511138,0.04899415822554478,0.11291376815088029
1592179922.5616224,-9.664353980135017,-0.289077522383798,2.3213281393404173,0.43333333333333335,-0.3233333333333333,-0.14666666666666667,-0.09823508414969884,0.10069043787447375,0.01410017422650612
1592179922.5716224,-9.386146201124625,-0.3809245455734275,2.2286556819667847,0.4316446536768232,-0.3202374206297313,-0.1503254725891054,-0.08740796961373981,0.09778990558210546,-0.04940948484708316
1592179922.5816224,-9.08,-0.59,2.49,0.4266666666666667,-0.3111111111111111,-0.16111111111111112,-0.1810779098944117,0.2574360646691636,0.001090830782496456
1592179922.5916224,-9.507909028848829,-0.20927840004045412,2.0901476574549314,0.4266666666666667,-0.3111111111111111,-0.16111111111111112,-0.12889468453457395,0.04527194591574177,-0.01384983586333513
1592179922.6016223,-9.321989501804378,-0.2591235881332896,1.8818142194310352,0.4266666666666667,-0.3111111111111111,-0.16111111111111112,-0.1527191724882403,0.01934814897223034,-0.05327862527470281
1592179922.6116223,-9.537900568344911,-0.47534990527584825,2.183950284172455,0.4266666666666667,-0.3111111111111111,-0.16111111111111112,-0.1036059834291517,0.08620107764694357,-0.020441705870953827
1592179922.6216223,-9.31282884310618,-0.4967234548335975,2.0658280507131535,0.4261494101074133,-0.31059385455185773,-0.1597662440570523,-0.19542769375781496,0.08619810535156622,0.17446852987986403
1592179922.6316223,-9.571780621826528,-0.28130138415524797,2.1917465396118803,0.4211111111111111,-0.3055555555555556,-0.14666666666666667,-0.13935554826535912,0.05330874935268658,0.059299024174198564
1592179922.6416223,-9.370637103564412,-0.3125722705585181,2.1277168116755543,0.4211111111111111,-0.3055555555555556,-0.14666666666666667,-0.20559619162352688,0.04007693313272974,0.0858442188724958
1592179922.6516223,-9.778429581474803,-0.3949110278067761,2.137917576160197,0.4211111111111111,-0.3055555555555556,-0.14666666666666667,-0.10730226102268307,0.005109160690249249,-0.0316838100202224
1592179922.6616223,-9.359210377417801,-0.6383656405205473,2.162742303904105,0.4211111111111111,-0.3055555555555556,-0.14666666666666667,-0.10215883218053079,-0.011721144660690559,0.11902296772406468
1592179922.6716223,-9.788219732538938,-0.6250781983615582,2.338742997765761,0.4236823926863755,-0.307219325986609,-0.1493892000992995,-0.1970347053579547,-0.016048419173991992,0.0032952393288036078
1592179922.6816223,-9.65,-0.34,1.95,0.44,-0.31777777777777777,-0.16666666666666666,-0.04908738521234052,-0.07635815477475191,-0.07963064712224129
1592179922.6916223,-9.422223791881013,-0.004447583762027881,1.8611048324759443,0.44,-0.31777777777777777,-0.16666666666666666,0.036926120836742383,0.11514752984383485,0.03332135207636368
1592179922.7016222,-9.43,-0.02,1.83,0.44,-0.31777777777777777,-0.16666666666666666,-0.16580627893946132,0.13635384781205698,-0.014180800172453926
1592179922.7116222,-9.921329902372223,-0.050958386712020146,2.119368511728586,0.44,-0.31777777777777777,-0.16666666666666666,-0.14391347812952304,0.027795921917743216,0.022061362283506865
1592179922.7216222,-9.426043051806992,-0.21224145875847542,1.9848146929102757,0.4375330422252942,-0.3170522019616878,-0.16782758797241057,-0.1932429960983673,0.05776513042808334,0.03266754912197322
1592179922.7316222,-9.2,-0.56,2.15,0.4211111111111111,-0.31222222222222223,-0.17555555555555555,-0.07090400086226964,0.05017821599483697,-0.01854412330243975
1592179922.7416222,-9.624168652121536,-0.7327870432338375,2.202529781823049,0.4211111111111111,-0.31222222222222223,-0.17555555555555555,-0.15828324055961696,0.16796767450089237,-0.10548889959777981
1592179922.7516222,-9.566095665029328,-0.5691434975439935,1.7976195812866613,0.4211111111111111,-0.31222222222222223,-0.17555555555555555,0.04635242705701749,-0.014900330239128533,0.06712552512949954
1592179922.7616222,-9.48,-0.44,1.69,0.4211111111111111,-0.31222222222222223,-0.17555555555555555,-0.11017390903214205,-0.16907877128695067,0.1461713248545251
1592179922.7716222,-9.901408795555136,-0.40542110054305175,2.174257149135198,0.42034881571466937,-0.31327037839232963,-0.17555555555555555,-0.1245718686616256,0.015328403326403412,0.1224469794680857
1592179922.7816222,-9.49,-0.25,1.58,0.4122222222222222,-0.3244444444444444,-0.17555555555555555,-0.10362892433716332,-0.10035643198967394,-0.014180800172453926
1592179922.7916222,-9.623337366828883,-0.49517637774562673,2.1556346179139814,0.4122222222222222,-0.3244444444444444,-0.17555555555555555,-0.12964673780020058,-0.1785341780199741,0.12937115345625488
1592179922.8016222,-9.269677380924016,-0.022194953417999,1.8205680383139937,0.4122222222222222,-0.3244444444444444,-0.17555555555555555,-0.06842169740299436,-0.0023591304725886562,0.001835898694789897
1592179922.8116221,-9.781280490263274,-0.065877111639721,1.8051665121154699,0.4122222222222222,-0.3244444444444444,-0.17555555555555555,-0.1811295861500837,-0.012876271580331609,-0.015974889819906624
1592179922.8216221,-10.316893004115228,-0.31803938859494413,2.263292181069959,0.41085080671500424,-0.3229675354366712,-0.1760830230583317,-0.1572101347748677,-0.020002091429427226,-0.1171251496358283
1592179922.8316221,-9.62,-0.49,2.39,0.3977777777777778,-0.3088888888888889,-0.1811111111111111,-0.07526732399225547,-0.16907877128695067,0.014180800172453926
1592179922.841622,-9.248590666739956,-0.38100258341120213,1.9294442917605672,0.3977777777777778,-0.3088888888888889,-0.1811111111111111,-0.12248489345391428,-0.012563770799994909,0.10637677702396758
1592179922.851622,-9.537153303922508,-0.6609245228733097,2.220851395415748,0.3977777777777778,-0.3088888888888889,-0.1811111111111111,-0.15499340703866787,-0.021731719785347183,-0.056624913980296634
1592179922.861622,-9.56,-0.6,2.0,0.3977777777777778,-0.3088888888888889,-0.1811111111111111,-0.022907446432425576,-0.06326818538479445,0.044724062082354694
1592179922.871622,-9.283423339437324,-0.509245879806892,2.0251280173131345,0.3979956347224534,-0.30870454839724026,-0.18112786933762462,-0.11179964095546113,-0.1143183759511965,-0.08019347730823587
1592179922.881622,-10.16,-0.46,2.36,0.4122222222222222,-0.2966666666666667,-0.18222222222222223,0.20943951023931953,-0.1712604328519436,0.1679879405044542
1592179922.891622,-8.889624523022132,-0.2870259475960315,1.9015591452556602,0.4122222222222222,-0.2966666666666667,-0.18222222222222223,0.0004189056599482699,-0.05552317583127948,-0.03398164045473849
1592179922.901622,-10.065689981507669,-0.6528449907538344,2.3891595779397368,0.4122222222222222,-0.2966666666666667,-0.18222222222222223,0.00265181164944929,-0.11653259933698487,0.0159663310418865
1592179922.911622,-9.314614452617914,-0.25719342276070967,2.1366118563392473,0.4122222222222222,-0.2966666666666667,-0.18222222222222223,0.08733679310018899,-0.0840119068899315,0.010506999157167723
1592179922.921622,-9.651092007434945,-0.23013104089219333,1.9108444857496902,0.4122092799118821,-0.29668769792096933,-0.1822335467437698,0.07737910209819625,-0.15799416655392282,-0.025200286227728685
1592179922.931622,-10.4,-0.32,2.49,0.4033333333333333,-0.3111111111111111,-0.19,0.02945243112740431,-0.0370882466048795,-0.10144726277217041
1592179922.941622,-9.19813259831668,-0.44546685042082984,2.05453314957917,0.4033333333333333,-0.3111111111111111,-0.19,0.06172173664589374,-0.022984438672524993,-0.04740021355760957
1592179922.951622,-9.434797764491812,-0.3888617104237068,2.1179680270340526,0.4033333333333333,-0.3111111111111111,-0.19,0.03888920907744202,-0.19446033648974134,-0.03606717001330951
1592179922.961622,-9.55,-0.38,2.18,0.4033333333333333,-0.3111111111111111,-0.19,0.11235557059713495,-0.1712604328519436,0.09926560120717749
1592179922.971622,-9.615314287796522,-0.43598367525416315,2.2359836752541633,0.4033333333333333,-0.3111111111111111,-0.19,-0.11868773934598949,0.010927904063559868,-0.00862246422881896
1592179922.981622,-10.12,-0.42,2.49,0.39111111111111113,-0.3111111111111111,-0.18222222222222223,0.053450708342326333,-0.11780972450961724,-0.09053895494720585
1592179922.991622,-9.601205300203127,-0.2375893995937456,2.1576014455099437,0.39111111111111113,-0.3111111111111111,-0.18222222222222223,0.04909264123481747,0.01963232607369773,-0.21547040955938326
1592179923.001622,-9.528651510432887,-0.43283712239177824,2.1450420429772654,0.39111111111111113,-0.3111111111111111,-0.18222222222222223,-0.04251794090467423,0.06153087345029215,-0.023501950907470356
1592179923.011622,-9.871413940984446,-0.3345550363779897,2.3134558023426997,0.39111111111111113,-0.3111111111111111,-0.18222222222222223,0.06644935041592298,-0.04759675304338982,0.09948274796091007
1592179923.021622,-9.49555655123856,-0.2629631526168683,1.9644453690072328,0.39111111111111113,-0.3111111111111111,-0.18222222222222223,0.007878377478268417,-0.07102514221845163,-0.041087587089460864
1592179923.031622,-9.2,-0.66,2.29,0.41888888888888887,-0.3055555555555556,-0.20444444444444446,-0.04036073895236887,-0.05017821599483697,0.14398966328953217
1592179923.041622,-9.810964502072483,-0.38547959400573917,2.3806730258263364,0.41888888888888887,-0.3055555555555556,-0.20444444444444446,0.008998919199996402,0.076673787339886,0.17473352143297685
1592179923.051622,-9.27,-0.6,2.39,0.41888888888888887,-0.3055555555555556,-0.20444444444444446,0.08835729338221293,-0.10035643198967394,-0.0643590161672909
1592179923.061622,-9.110829700854701,-0.25,2.0433040598290595,0.41888888888888887,-0.3055555555555556,-0.20444444444444446,-0.034956091975399894,-0.03780908063862919,-0.01526151513102723
1592179923.071622,-9.908463675213676,-0.25,2.3032072649572646,0.41888888888888887,-0.3055555555555556,-0.20444444444444446,0.07062709766363591,-0.09451116396329658,0.006246171647294879
1592179923.081622,-9.75,-0.42,2.42,0.4122222222222222,-0.29777777777777775,-0.20444444444444446,0.03381575425739013,-0.08290313946973066,0.15707963267948966
1592179923.0916219,-9.522519327329242,-0.15460588188411573,2.2588678568582132,0.4122222222222222,-0.29777777777777775,-0.20444444444444446,0.02968003892118575,0.001879024922459227,0.04644924743602237
1592179923.1016219,-9.643182852898185,-0.27946469221000164,2.281915510507272,0.4122222222222222,-0.29777777777777775,-0.20444444444444446,-0.03328106864919644,-0.07294741681806542,0.08672262857722537
1592179923.1116219,-9.39,-0.18,2.3,0.4122222222222222,-0.29777777777777775,-0.20444444444444446,-0.007635815477475192,-0.10253809355466686,0.13308135546456762
1592179923.1216218,-9.339394741035857,-0.05710151394422312,2.285541354581673,0.4122222222222222,-0.29777777777777775,-0.20444444444444446,-0.007635815477475192,-0.11042406130242291,0.009271661824797606
1592179923.1316218,-9.858898036732109,0.043676621035709066,2.500162712524967,0.4122222222222222,-0.3,-0.24,-0.00341044707596215,0.056368429593018986,-0.0810101944069691
1592179923.1416218,-9.256930725886642,-0.08619379074135455,1.9469638713954258,0.4122222222222222,-0.3,-0.24,-0.008478253569360092,0.19717149046118682,-0.09321499148400303
1592179923.1516218,-9.340040896411518,-0.5184459363623469,2.3880778686586925,0.4122222222222222,-0.3,-0.24,-0.044938195192322325,0.01086369676038797,0.005623675957873318
1592179923.1616218,-9.349956030447732,-0.1416708429861473,1.9220665689565504,0.4122222222222222,-0.3,-0.24,-0.09685371560487835,4.796334110546488e-05,0.04672346295114684
1592179923.1716218,-9.846170204048185,-0.31964783250020484,2.4503888388101287,0.4122222222222222,-0.3,-0.24,-0.029895807402187766,0.059722784213330514,0.08423246378067917
1592179923.1816218,-8.859639262580966,-0.21958246138515197,1.9591270553064275,0.41888888888888887,-0.3,-0.24,0.027262508163361104,-0.01873250494131034,0.007230137303057974
1592179923.1916218,-9.9,-0.63,2.36,0.41888888888888887,-0.3,-0.24,-0.0643590161672909,0.0916297857297023,-0.09272061651219875
1592179923.2016218,-9.725776097796366,-0.5622462602541419,2.36,0.41888888888888887,-0.3,-0.24,-0.007344377496177681,0.14758859775875788,0.07198833964879499
1592179923.2116218,-9.638130968622102,-0.47197817189631647,2.2935709413369714,0.41888888888888887,-0.3,-0.24,0.08894437761644874,0.13734236670328928,-0.023507180136854048
1592179923.2216218,-9.436174464328706,-0.5056375892785491,2.1841778348447156,0.41888888888888887,-0.3,-0.24,0.024690102563936514,0.042796790554592706,-0.10795565592015582
1592179923.2316217,-9.42,-0.32,2.07,0.4211111111111111,-0.30666666666666664,-0.23222222222222222,0.12435470920459597,0.04363323129985824,-0.05781403147231216
1592179923.2416217,-9.558951841359773,-0.32,2.193512747875354,0.4211111111111111,-0.30666666666666664,-0.23222222222222222,0.06962003431799972,0.09415754657979325,-0.02413115461902217
1592179923.2516217,-9.28747440110492,-0.17213220936324236,1.7160661046816212,0.4211111111111111,-0.30666666666666664,-0.23222222222222222,0.21161608053333636,0.05799684966174899,-0.09165643697470972
1592179923.2616217,-9.468416951766963,-0.0015294559693080495,1.6450121620819904,0.4211111111111111,-0.30666666666666664,-0.23222222222222222,-0.15108192935283285,-0.020009012379248476,0.19342560870484254
1592179923.2716217,-9.426944252180276,-0.5655581703482508,2.3002808155516443,0.4211111111111111,-0.30666666666666664,-0.23222222222222222,0.12035625470148431,-0.08696376444598004,0.002514085919972847
1592179923.2816217,-9.421271315919173,-0.27231148348940365,2.1415024642681124,0.4066666666666667,-0.3,-0.22555555555555556,0.04394241650587781,-0.06331861413166393,-0.09529310086543011
1592179923.2916217,-9.53,-0.47,2.27,0.4066666666666667,-0.3,-0.22555555555555556,-0.022907446432425576,-0.06763150851478027,-0.1287180323345818
1592179923.3016217,-9.546370616638962,-0.5436677748753266,2.2618146916805193,0.4066666666666667,-0.3,-0.22555555555555556,0.08602374617276412,-0.09084635284047643,-0.04568031993882243
1592179923.3116217,-9.820235629566561,-0.49912480446706137,2.2003702750331664,0.4066666666666667,-0.3,-0.22555555555555556,0.04627048745715651,-0.2610136043037685,-0.0037314780340436254
1592179923.3216217,-9.878370987862107,-0.2831934736550304,2.2917258380690257,0.4066666666666667,-0.3,-0.22555555555555556,-0.110457227396873,-0.06714232696988234,-0.11697404657019211
1592179923.3316216,-9.67,-0.44,2.56,0.4,-0.3022222222222222,-0.21777777777777776,0.19198621771937624,-0.08290313946973066,-0.014180800172453926
1592179923.3416216,-9.163543587511377,-0.17860314194135574,1.9473511139250526,0.4,-0.3022222222222222,-0.21777777777777776,0.13852251661595888,0.1175857396680845,-0.04982326757473217
1592179923.3516216,-9.475939283545841,-0.41906375227686704,2.3084395871281114,0.4,-0.3022222222222222,-0.21777777777777776,-0.016806211964691897,-0.07768861067996069,-0.07956256126647891
1592179923.3616216,-10.035103654571465,-0.1825423332032774,2.0232014566263494,0.4,-0.3022222222222222,-0.21777777777777776,0.080744091824198,-0.04851012022938069,-0.06668447615615407
1592179923.3716216,-9.641801967160784,-0.26295792350816993,2.094662131157353,0.4,-0.3022222222222222,-0.21777777777777776,0.08362216981952815,-0.12491565255233744,-0.04844206640934419
1592179923.3816216,-9.49,-0.31,2.5,0.39444444444444443,-0.29333333333333333,-0.22555555555555556,0.09708393964218458,0.13199052468207118,-0.03599741582238304
1592179923.3916216,-9.43598091691878,-0.2791319525250175,2.160451477775192,0.39444444444444443,-0.29333333333333333,-0.22555555555555556,0.08698239472780268,-0.011956490347870746,0.0431313526736084
1592179923.4016216,-9.68532659618828,-0.5264823763153377,2.4668341141553634,0.39444444444444443,-0.29333333333333333,-0.22555555555555556,0.02032015817404685,-0.05068252021099368,-0.15052913617060343
1592179923.4116216,-9.324346439957491,-0.5424153973314442,2.4232846853229426,0.39444444444444443,-0.29333333333333333,-0.22555555555555556,0.15874010665701135,0.12917185606572457,-0.12422804454625296
1592179923.4216216,-9.630362035225048,-0.3958551859099805,2.2946841487279843,0.39444444444444443,-0.29333333333333333,-0.22555555555555556,0.1372282842375639,0.05396126411189517,0.10891706277028208
1592179923.4316216,-9.470558761804826,-0.3944438614900315,2.331665792235047,0.3702471726710971,-0.305431969220007,-0.21244870001165908,0.04783573415183698,-0.11439443978005395,0.08845945145916762
1592179923.4416215,-9.90572597396018,0.016180657581437774,2.478726885860479,0.36777777777777776,-0.30666666666666664,-0.2111111111111111,-0.05475944002027765,-0.061691622946046284,0.06663987431035671
1592179923.4516215,-8.907590980219075,-0.09746980700557717,1.8769883240380372,0.36777777777777776,-0.30666666666666664,-0.2111111111111111,0.04346231711594585,0.15504240563611288,-0.12054325725129425
1592179923.4616215,-9.527507433742727,-0.42287084680025855,2.295741693600517,0.36777777777777776,-0.30666666666666664,-0.2111111111111111,0.08533179276484176,0.07782964107736659,0.10280733907889983
1592179923.4716215,-9.896700463085743,-0.11517901221975152,2.3949641975560496,0.36777777777777776,-0.30666666666666664,-0.2111111111111111,0.011767438040183986,0.0875294066933532,0.09055457671038568
1592179923.4816215,-9.196721006467618,-0.17532382386816692,2.3810020377425354,0.3795917624011892,-0.3002226750538968,-0.23151708455154899,0.08522387301984029,-0.05176802430280779,-0.01722801330013296
1592179923.4916215,-9.56873514726942,-0.04708828424352671,2.165864457947904,0.38,-0.3,-0.23222222222222222,0.02875268156711882,0.056042281122524504,0.05176631058335747
1592179923.5016215,-9.37604894566723,-0.2527197167923657,2.207334154225027,0.38,-0.3,-0.23222222222222222,0.029295950553402977,-0.12356189668267073,-0.03872810257727334
1592179923.5116215,-10.120929280341803,-0.35639525568561126,2.491627575771062,0.38,-0.3,-0.23222222222222222,0.07978279735911625,0.01662862755546443,0.006139024171446961
1592179923.5216215,-9.490272082477423,-0.16564745552497964,2.0836126506724546,0.38,-0.3,-0.23222222222222222,0.012566517743971328,0.10005731072359268,0.09586847147560225
1592179923.5316215,-9.240516258129064,-0.4780600300150075,2.4055787893946974,0.38,-0.2943324995831249,-0.23222222222222222,-0.004360594688808998,0.057749531122891926,-0.07000667112803391
1592179923.5416214,-9.762891821398135,-0.13414714769000335,2.1711861167781423,0.38,-0.29333333333333333,-0.23222222222222222,-0.07493677603879594,0.06691373436665099,-0.05728325044801656
1592179923.5516214,-9.786732182741115,-0.09980345177664975,2.0118919796954313,0.38,-0.29333333333333333,-0.23222222222222222,0.013612549318530495,0.08231885284958332,-0.01744527463683134
1592179923.5616214,-9.346544036841278,-0.18756031189491862,1.8956544036841279,0.38,-0.29333333333333333,-0.23222222222222222,-0.1521271387657817,0.09331800748707057,-0.012453760845767664
1592179923.5716214,-9.623697001951392,-0.19258451106774682,2.0679717343740758,0.38,-0.29333333333333333,-0.23222222222222222,-0.011453045921953647,0.10998953448382227,0.035971270113839965
1592179923.5816214,-9.318564167303412,-0.28578087106740635,1.9001259094382246,0.37361460859550627,-0.29333333333333333,-0.23222222222222222,-0.08473998674631275,0.2619010744931358,0.12972163579262164
1592179923.5916214,-9.370738313674094,-0.29643075578855393,2.0764919178680645,0.37333333333333335,-0.29333333333333333,-0.23222222222222222,-0.004957585246968391,0.028435942678708415,0.02855984656837597
1592179923.6016214,-9.543855453350854,-0.2763784494086728,2.0382706964520367,0.37333333333333335,-0.29333333333333333,-0.23222222222222222,0.03910678524865284,-0.1296279658177996,0.003185913925330651
1592179923.6116214,-9.423530553779862,-0.25435305537798614,1.9452356938229514,0.37333333333333335,-0.29333333333333333,-0.23222222222222222,-0.02667996422632246,-0.027970975641797804,0.07856499710573042
1592179923.6216214,-9.521069820260799,-0.10251791518189293,1.9107632063280728,0.37333333333333335,-0.29333333333333333,-0.23222222222222222,-0.18601691248775282,-0.013206668677179163,0.14534733903808789
1592179923.6316214,-9.450725233054195,-0.2439121504187075,1.959709906778322,0.3982124611576342,-0.29333333333333333,-0.22144126683169185,-0.07292833736196588,-0.16103926741339977,0.11291703217985899
1592179923.6416214,-9.2415389646795,-0.1694620164455242,2.003769155298075,0.4066666666666667,-0.29333333333333333,-0.21777777777777776,-0.02837831649593845,-0.046730025687963556,-0.061119599374737085
1592179923.6516213,-9.324480851163994,-0.23114069157074596,1.8543989360450062,0.4066666666666667,-0.29333333333333333,-0.21777777777777776,-0.1772413479042445,-0.0026659788264727542,-0.018277391900030013
1592179923.6616213,-9.605148094912698,-0.16040858644171635,1.97853931525248,0.4066666666666667,-0.29333333333333333,-0.21777777777777776,-0.1404486464908366,0.051301356075233895,0.018824908322538983
1592179923.6716213,-9.659548154930476,-0.2663456337968188,1.9890963098609542,0.4066666666666667,-0.29333333333333333,-0.21777777777777776,-0.057226887965297166,-0.011195399119636032,0.060089950033565334
1592179923.6816213,-9.882237925525377,-0.32170578837409364,2.193943713899472,0.3790192945803122,-0.2887254379856076,-0.21777777777777776,-0.20859454201736116,0.07686006831164105,-0.09174078583882202
1592179923.6916213,-9.652955555555556,-0.42389166666666667,2.2746305555555555,0.37333333333333335,-0.2877777777777778,-0.21777777777777776,-0.16988477403179528,0.008637561746067765,-0.02238233261407381
1592179923.7016213,-9.958366269257988,-0.3073749251456258,2.071473134084599,0.37333333333333335,-0.2877777777777778,-0.21777777777777776,-0.040682126953613944,-0.01788180985493673,0.028486248056403318
1592179923.7116213,-9.317988129844961,-0.29168483527131783,1.7932388565891473,0.37333333333333335,-0.2877777777777778,-0.21777777777777776,-0.06000996262602959,-0.06365954206814649,-0.062210650309321845
1592179923.7216213,-9.443420333084763,-0.3283420333084763,1.9944500372856078,0.37333333333333335,-0.2877777777777778,-0.21777777777777776,-0.02403067947157337,-0.04621470146261178,-0.08595098520939046
1592179923.7316213,-9.741197758580435,-0.33059304226009806,2.355302358160168,0.3882338443977482,-0.29640438944664954,-0.223267439748878,-0.14441957745270145,0.08109943561690788,0.027899850121077333
1592179923.7416213,-9.761687243865746,-0.2240867354878871,2.0278949006588163,0.39444444444444443,-0.3,-0.22555555555555556,0.017708132818172934,-0.031184847188312603,0.12585922045788356
1592179923.7516212,-9.870633638634471,-0.3112964196502914,2.150604496253122,0.39444444444444443,-0.3,-0.22555555555555556,-0.05210165675095084,-0.06733595785980578,-0.030919830138396193
1592179923.7616212,-9.817274829136919,-0.36877054803221626,2.448339896846973,0.39444444444444443,-0.3,-0.22555555555555556,-0.05722630928491869,-0.21650730882390454,0.10310536214523411
1592179923.7716212,-9.402805120806471,-0.36,2.0458834486914914,0.39444444444444443,-0.3,-0.22555555555555556,-0.11060705792093838,-0.13712677444299148,0.11139588175158126
1592179923.7816212,-9.54738755763852,-0.4064865069166226,2.3255858341522413,0.3677577460293463,-0.3,-0.21436435944599827,-0.1048180032772941,-0.0915118714490333,0.04625711264612929
1592179923.7916212,-9.456420670037927,-0.36299778761061946,2.233490044247788,0.36,-0.3,-0.2111111111111111,-0.03772519662721269,-0.06926654801730536,-0.0058299458065787235
1592179923.8016212,-9.924212722165048,-0.09269296025366452,2.182168108363697,0.36,-0.3,-0.2111111111111111,0.08830340871418207,-0.050151273660821546,-0.07308566242726255
1592179923.8116212,-9.044752787558686,-0.32790175078247263,2.0162524452269173,0.36,-0.3,-0.2111111111111111,-0.018903945956388238,0.07459238311490093,-0.0607898635116314
1592179923.8216212,-8.935915602013162,-0.5508323654665118,2.0857491289198604,0.36,-0.3,-0.2111111111111111,-0.013712878954100824,0.05260566289293593,-0.033134143385168194
1592179923.8316212,-9.16576181497476,-0.38711027309774343,2.0003327048233075,0.36983070778338706,-0.2852539383249194,-0.22176104454311377,-0.008357949303683547,0.08435696126317767,-0.014883825716601636
1592179923.8416212,-9.666908168158567,-0.3177649456521739,2.191910965473146,0.37333333333333335,-0.28,-0.22555555555555556,0.012648475857144004,0.11315647508749652,-0.011929653942047837
1592179923.8516212,-9.630102384191307,-0.28814419703587024,1.9610302856733728,0.37333333333333335,-0.28,-0.22555555555555556,0.04227248491742566,0.03543881445010013,0.027675642962315578
1592179923.8616211,-9.297886870783602,-0.35530773222625844,2.1886019719771665,0.37333333333333335,-0.28,-0.22555555555555556,-0.03694117974587972,0.07247758228893474,0.021063393315113456
1592179923.8716211,-9.449227023966786,-0.2876044536705039,2.3668779014908474,0.37333333333333335,-0.28,-0.22555555555555556,-0.07784348793724011,0.05853061610221784,0.04210738568256814
1592179923.8816211,-9.18667423454104,-0.23446914514552394,2.0234187872481315,0.37831972167039807,-0.28581745305990885,-0.2363593969525291,-0.03566135752625872,-0.02889365251731839,0.05630696308066522
1592179923.891621,-9.418928382179105,-0.30886724004402233,2.2957249419149717,0.38,-0.2877777777777778,-0.24,-0.10896222559946725,0.02362362510660608,-0.009937084705816064
1592179923.901621,-9.366509099321407,-0.07278685996298578,1.9656508328192472,0.38,-0.2877777777777778,-0.24,-0.04070469384669553,0.06624929603652752,-0.041360050310794066
1592179923.911621,-9.430869123054057,-0.08433348979112884,1.8496972541656886,0.38,-0.2877777777777778,-0.24,0.022667229843774436,0.09638432482795495,-0.05152470890862963
1592179923.921621,-9.42906265867777,-0.33980806336955416,2.1059916725906365,0.38,-0.2877777777777778,-0.24,0.06776167264288359,0.16699481590152127,-0.053743826881016865
1592179923.931621,-9.770847769996314,-0.3383597493549576,2.500540361223737,0.37578129991399434,-0.2912933611827825,-0.2350781832329934,-0.020851795323471867,0.13160726633268835,-0.017299780100939556
1592179923.941621,-10.134822265859816,-0.3932777621929227,2.7589351981725643,0.37333333333333335,-0.29333333333333333,-0.23222222222222222,-0.09685163592005953,0.1341129955734176,-0.03836128324244129
1592179923.951621,-9.665118912797283,-0.289762174405436,2.01960362400906,0.37333333333333335,-0.29333333333333333,-0.23222222222222222,-0.0301158242533393,0.15979373826176,0.0339022300838621
1592179923.961621,-9.753136842105263,-0.2385263157894737,1.911221052631579,0.37333333333333335,-0.29333333333333333,-0.23222222222222222,-0.01281209460115311,0.09681295431095388,0.0518156104115106
1592179923.971621,-9.48522519807096,-0.3744944884602136,1.965271916982432,0.37333333333333335,-0.29333333333333333,-0.23222222222222222,0.05845535955981677,-0.04028103089872193,-0.03243483688719569
1592179923.981621,-9.473060459611402,-0.258307525396982,1.77,0.37790314626689026,-0.29333333333333333,-0.22765240928866534,-0.04604093443443642,-0.07454573388887212,0.058340134887482076
1592179923.991621,-9.604845292133428,-0.33293049598134344,1.982959646857952,0.38,-0.29333333333333333,-0.22555555555555556,-0.08032476673897163,-0.06446027222918174,0.09898286557271875
1592179924.001621,-9.17619876157822,-0.276330791668799,1.889430172457909,0.38,-0.29333333333333333,-0.22555555555555556,0.05374634519940128,-0.039336616259790194,0.06248209055448305
1592179924.011621,-9.156954460337065,-0.1892171002828798,1.7038256504243197,0.38,-0.29333333333333333,-0.22555555555555556,0.07130253938075612,-0.03560856913482594,0.03580783839406919
1592179924.021621,-9.63226160029229,-0.3918255998051395,2.0310353996671133,0.38,-0.29333333333333333,-0.22555555555555556,-0.018621397678904503,-0.04083333043983699,0.026058071109983136
1592179924.031621,-9.308282532239156,-0.4226436107854631,2.032379835873388,0.36854630715123093,-0.28569753810082066,-0.21728344405366679,0.08183085153171976,-0.04264342704938666,0.15525795806088918
1592179924.041621,-9.442413442353587,-0.27898478150307104,1.995890614608192,0.36,-0.28,-0.2111111111111111,0.13747715471933258,0.043255936399500226,0.10992122685761203
1592179924.051621,-9.749136226563525,-0.375457978235217,2.1114333289628946,0.36,-0.28,-0.2111111111111111,0.01854412330243975,0.06527072587046409,-0.027321513860514166
1592179924.061621,-9.687819661242113,-0.45705247426104284,1.9789434573231484,0.36,-0.28,-0.2111111111111111,0.03050802999572017,0.0012376455199945258,0.011712845340816107
1592179924.071621,-9.739837779863253,-0.2450221209277383,1.865154846494168,0.36,-0.28,-0.2111111111111111,0.05996351945208599,-0.010934046693139837,-0.075283410784865
1592179924.081621,-9.578334553762339,-0.35184968220028706,2.0216654462376615,0.36,-0.2761729299083214,-0.21493818120278974,0.030664642834381712,-0.049652498245058206,-0.033574589946260315
1592179924.091621,-9.691154362738043,-0.1505509185974001,2.1060035017028826,0.36,-0.2733333333333333,-0.21777777777777776,0.07957246110841984,0.0033712306641090622,-0.0719695584031512
1592179924.101621,-9.651808318264015,-0.05268032951577256,2.061054852320675,0.36,-0.2733333333333333,-0.21777777777777776,0.08901130966812201,0.022079624880187457,-0.09874659632613436
1592179924.111621,-9.69845076259947,-0.31673519009725903,2.048830128205128,0.36,-0.2733333333333333,-0.21777777777777776,-0.04204743966661695,-0.06927336074858088,-0.08043261511131802
1592179924.121621,-9.820739697977988,-0.30083184028666493,2.3440849756846687,0.36,-0.2733333333333333,-0.21777777777777776,-0.051523117934761574,-0.008706543926636667,-0.027686217784667524
1592179924.131621,-9.397830683972582,-0.20876039084147588,1.9721390549803122,0.3536995041563366,-0.2733333333333333,-0.21434114368123408,0.06128358764243788,0.021859488465429018,0.022747488673668076
1592179924.1416209,-9.387454428393223,-0.20116172387429077,1.6479043096857269,0.3477777777777778,-0.2733333333333333,-0.2111111111111111,0.1315774302997898,-0.022061987831095076,-0.009139126114428981
1592179924.1516209,-9.871134485349362,-0.22395442023541196,1.9953643876784373,0.3477777777777778,-0.2733333333333333,-0.2111111111111111,-0.0003942070671531239,-0.03009059308781295,0.027016160424097678
1592179924.1616209,-9.799497967965575,-0.12200812813770022,1.8813134114272052,0.3477777777777778,-0.2733333333333333,-0.2111111111111111,0.07341424162543264,0.03287648714947817,0.006414439657991471
1592179924.1716208,-9.78,-0.20269239170003642,2.0288467419002547,0.3477777777777778,-0.2733333333333333,-0.2111111111111111,0.08147652182531974,0.02548779533110121,0.0023282704928770364
1592179924.1816208,-9.515164078280737,-0.12649889069174475,2.0900218550283123,0.35078045262720253,-0.28774617261057206,-0.2111111111111111,0.030512233609554254,-0.056295956526255075,-0.053102208875803414
1592179924.1916208,-9.26882296189098,-0.0176467277697379,1.9182352468242483,0.35333333333333333,-0.3,-0.2111111111111111,0.0309921179916516,-0.13346540016601094,-0.00853405384974796
1592179924.2016208,-9.545377043187633,-0.14488720037599873,2.167721552039271,0.35333333333333333,-0.3,-0.2111111111111111,-0.0302412882309612,-0.019834276081278315,0.018636578175278633
1592179924.2116208,-9.832983508245876,-0.2884407796101949,2.365322338830585,0.35333333333333333,-0.3,-0.2111111111111111,-0.03612497924222521,-0.05768483262401049,0.025612445104463262
1592179924.2216208,-9.42226283867644,-0.2600388731470857,2.249323466735358,0.35333333333333333,-0.3,-0.2111111111111111,-0.04422190646044721,0.08993331817643543,-0.08594575601899307
1592179924.2316208,-9.513900420346053,-0.25315813483658645,2.4144582749519374,0.34708980054380684,-0.29375646721047355,-0.2184898316805515,-0.021272959720498925,0.005552221693410554,0.002836465718766251
1592179924.2416208,-9.655221196112432,-0.16938984554583217,2.363763358470783,0.3411111111111111,-0.2877777777777778,-0.22555555555555556,0.0008764214090283863,-0.03381219103226685,0.12564164934017422
1592179924.2516208,-9.507251700340067,-0.20665683136627327,2.1932841568313663,0.3411111111111111,-0.2877777777777778,-0.22555555555555556,-0.05126582818280616,0.018623497116629202,0.02640196724984696
1592179924.2616208,-9.818053777208707,-0.33819035424669225,2.425791720017072,0.3411111111111111,-0.2877777777777778,-0.22555555555555556,0.010173172611323125,0.05451220820749575,-0.0052074017508420235
1592179924.2716208,-9.743337995337995,-0.30915850815850815,2.227696386946387,0.3411111111111111,-0.2877777777777778,-0.22555555555555556,0.09617516826301387,0.04905871594177491,0.05834221987393007
1592179924.2816207,-9.656312239199323,-0.20803250400025103,2.075245505600351,0.34753640315557927,-0.2877777777777778,-0.22555555555555556,0.07176248294265558,-0.0867925246373028,0.14897449951869712
1592179924.2916207,-9.397793250370217,-0.22047491621417994,2.194804499753189,0.36,-0.2877777777777778,-0.22555555555555556,0.026033676597366703,-0.14978658819560503,0.02895580286021282
1592179924.3016207,-9.481720481734886,-0.11741927739767134,2.118493978313928,0.36,-0.2877777777777778,-0.22555555555555556,0.039563249252942016,-0.16199363047769288,-0.02912386816454938
1592179924.3116207,-9.514909838411699,-0.21921859956805703,2.0987377377637846,0.36,-0.2877777777777778,-0.22555555555555556,0.08829172602493451,0.03284294471799483,0.02289433296096989
1592179924.3216207,-9.422249923757242,-0.34568999695028974,2.210869929856664,0.36,-0.2877777777777778,-0.22555555555555556,0.07105669721151205,-0.03016368340339621,0.007223468800163706
