time,acc_x,acc_y,acc_z,mag_x,mag_y,mag_z,gyr_x,gyr_y,gyr_z
1592179929.8816154,-9.934564280025267,-0.32,2.43,0.3466666666666667,-0.31222222222222223,-0.23444444444444446,0.06519414837714152,-0.005633217810397231,0.04052629142014168
1592179929.8916154,-9.609634691137959,-0.3889051737417751,2.378321119693669,0.3466666666666667,-0.31222222222222223,-0.23444444444444446,-0.06281445873661404,-0.01442764801771286,0.0876407312718386
1592179929.9016154,-9.482169229598052,-0.2914707673568818,2.363216922959805,0.3466666666666667,-0.31222222222222223,-0.23444444444444446,0.007755976267843065,-0.05592907654448885,0.07122487252362517
1592179929.9116154,-9.261581215582995,-0.05158121558299414,2.3171775489961353,0.36284403704590457,-0.30746417211068167,-0.21636385402059036,-0.05336594015346183,-0.11341461330880723,0.06560113876574053
1592179929.9216154,-9.760268890401635,-0.21818130247333786,2.37427501701838,0.3655555555555556,-0.30666666666666664,-0.21333333333333335,-0.005465044893746135,-0.07091216909821754,0.08173186393926248
1592179929.9316154,-9.73798285426122,-0.23209783156833083,2.338582955118507,0.3655555555555556,-0.30666666666666664,-0.21333333333333335,-0.028507374503940405,-0.12173627525367155,0.15020184282898377
1592179929.9416153,-9.347714150068953,-0.15128569167815886,2.3605952569348676,0.3655555555555556,-0.30666666666666664,-0.21333333333333335,0.0013297960410678933,-0.05480901251950451,0.061364379502807154
1592179929.9516153,-9.482998037820472,-0.11825021023352093,2.4062496496107983,0.3655555555555556,-0.30666666666666664,-0.21333333333333335,-0.02754309504270862,-0.08235726542009014,0.052414281501437024
1592179929.9616153,-9.39513422818792,-0.20697986577181207,2.555771812080537,0.3472371364653244,-0.30666666666666664,-0.21333333333333335,0.03785695286100117,-0.03688325826991373,0.11282411536277104
1592179929.9716153,-9.396556523122193,-0.15099129190027435,2.468208676289316,0.3466666666666667,-0.30666666666666664,-0.21333333333333335,0.016043744309724703,0.02660110729150747,-0.025643089895467902
1592179929.9816153,-9.62753418174169,-0.11124868531762726,2.3762434265881365,0.3466666666666667,-0.30666666666666664,-0.21333333333333335,-0.10841808793380155,-0.027010968730799778,-0.0076220481558618575
1592179929.9916153,-9.66,-0.18614105874757908,2.4051420271142674,0.3466666666666667,-0.30666666666666664,-0.21333333333333335,-0.14607731200141774,-0.07888171326995917,0.027176756709304056
1592179930.0016153,-9.62843799198868,-0.17056358237509717,2.4552496064090557,0.3466666666666667,-0.30666666666666664,-0.21333333333333335,-0.09878252179848787,-0.05043816845497154,-0.06969551974407753
1592179930.0116153,-9.27192336636147,-0.1593979681424809,2.5508444123918226,0.3515663280237468,-0.30666666666666664,-0.23946486057109412,-0.0060579895651284715,0.011408095213458168,0.07638715968205018
1592179930.0216153,-9.401032367972743,-0.23085633162975583,2.6332492901760363,0.35333333333333333,-0.30666666666666664,-0.24888888888888888,-0.06879914964198403,0.023476214646217877,-0.18999088318412494
1592179930.0316153,-9.717945208827194,-0.39583738605537766,2.734432170874166,0.35333333333333333,-0.30666666666666664,-0.24888888888888888,-0.11918350643767976,0.059164194150801326,-0.106896111683902
1592179930.0416152,-9.375974468085106,-0.17165011820330972,2.3536416075650117,0.35333333333333333,-0.30666666666666664,-0.24888888888888888,-0.1022820706703022,-0.055640106295847605,0.08723850844916739
1592179930.0516152,-9.336900568951505,-0.3196657893718311,2.546566358323335,0.35333333333333333,-0.30666666666666664,-0.24888888888888888,-0.06646413338856488,0.04228538800087585,0.01970514436151244
1592179930.0616152,-9.678250950570343,-0.4069011406844107,2.5351901140684414,0.3423764258555133,-0.3016096324461343,-0.22697507393324884,0.046897428356225956,-0.05245734723050924,0.12603243183394888
1592179930.0716152,-9.452429222676798,-0.31671443600233784,2.3560002337814145,0.3388888888888889,-0.3,-0.22,-0.04868196083407918,0.031259805763240014,0.12867138991491645
1592179930.0816152,-9.616151777912213,-0.46759158432479664,2.3909423942999264,0.3388888888888889,-0.3,-0.22,-0.029252551802736337,-0.05472998001418329,0.03694548613344571
1592179930.0916152,-9.362518006132781,-0.4753433644726521,2.4397710903515653,0.3388888888888889,-0.3,-0.22,-0.00930951690485833,0.01878596833579789,0.05259316583742432
1592179930.1016152,-9.557641464762055,-0.5522924394286165,2.5730565859048222,0.3388888888888889,-0.3,-0.22,0.04740008839902356,0.103033900293211,0.031639860639869975
1592179930.1116152,-9.062765430399779,-0.3088522672538361,2.426069634624647,0.3483265671230992,-0.2905623217657898,-0.2311536197313394,-0.009157259085897623,-0.0373139486734797,0.030032936547608503
1592179930.1216152,-9.192213397061924,-0.2989006818022071,2.455511351655303,0.3511111111111111,-0.2877777777777778,-0.23444444444444446,0.002959358663949932,-0.036532058617515385,-0.00748921616236075
1592179930.1316152,-9.835931224429768,-0.3694004866700537,2.400535604460251,0.3511111111111111,-0.2877777777777778,-0.23444444444444446,0.020908032393411692,0.031954105113574556,-0.0008153009920998516
1592179930.1416152,-9.646960669018686,-0.30319325754606036,2.3021988762576764,0.3511111111111111,-0.2877777777777778,-0.23444444444444446,0.03050355127929793,-0.04774603251904884,-0.08409790776778917
1592179930.1516151,-9.786107607340103,-0.4017797969000534,2.411779796900053,0.3511111111111111,-0.2877777777777778,-0.23444444444444446,-0.016284259295459215,-0.07875491192322373,-0.013888862527439469
1592179930.1616151,-9.654443933521645,-0.3502148065427314,2.304264928069369,0.3413420847110002,-0.29221824432328275,-0.24243728422635338,0.03325289044628131,-0.008366857692743451,-0.04737511122146196
1592179930.1716151,-9.5099524308635,-0.34613319358219785,2.3542949286462953,0.3388888888888889,-0.29333333333333333,-0.24444444444444444,0.0695970795184095,0.053328019562064906,-0.06602547280413221
1592179930.181615,-9.722089443839215,-0.5434794267996312,2.5324347048800244,0.3388888888888889,-0.29333333333333333,-0.24444444444444444,0.03789417368011202,0.037523798860668894,-0.07743064202443845
1592179930.191615,-9.44497246898172,-0.40248623449085963,2.4280240070479406,0.3388888888888889,-0.29333333333333333,-0.24444444444444444,0.00914300550218581,-0.020693590904099314,0.028574424866197365
1592179930.201615,-9.286845064408228,-0.3056373211871041,2.5682769909614973,0.3388888888888889,-0.29333333333333333,-0.24444444444444444,0.0335960509541046,0.010298107131033726,0.08106089233652727
1592179930.211615,-9.352445050062208,-0.3225522839030749,2.61116890811067,0.35356985340100455,-0.29333333333333333,-0.23791957132794858,0.08371555926751269,-0.05349807957069115,-0.06512522801380302
1592179930.221615,-9.450387881660545,-0.33882213532409056,2.5852932811944545,0.35888888888888887,-0.29333333333333333,-0.23555555555555555,0.035314230101829124,-0.03572084107842267,-0.10144674572949591
1592179930.231615,-9.56392124487141,-0.3702116481537076,2.4672780946662662,0.35888888888888887,-0.29333333333333333,-0.23555555555555555,-0.052702965836562234,0.05963721327249788,-0.1294657748403459
1592179930.241615,-9.389645232815964,-0.3121985331741429,2.359148899880607,0.35888888888888887,-0.29333333333333333,-0.23555555555555555,0.08917760259593062,0.034643505605049474,0.0918158390782434
1592179930.251615,-9.333221962483607,-0.3055926791721307,2.333221962483608,0.35888888888888887,-0.29333333333333333,-0.23555555555555555,0.06913717716256272,0.004476144102643818,0.0869618957292059
1592179930.261615,-9.288575306655941,-0.3917042026945506,2.502263221395536,0.34212905243872466,-0.2898417007395491,-0.2446338002993945,0.01287061873994813,-0.05752777887404998,0.017233941869933954
1592179930.271615,-9.262206001212366,-0.36206001212366135,2.493090018185492,0.3322222222222222,-0.2877777777777778,-0.25,-0.010362451604949915,-0.02047010418291137,0.038210927265749525
1592179930.281615,-9.159060706490987,-0.30214776493412016,2.4347651766227467,0.3322222222222222,-0.2877777777777778,-0.25,0.02274625989371379,0.03176820906295555,0.0012520173212082486
1592179930.291615,-9.355408814786093,-0.2928181465684374,2.392863642238594,0.3322222222222222,-0.2877777777777778,-0.25,-0.02468243973982087,0.061413787153436115,0.07592667247841585
1592179930.301615,-9.518783922409773,-0.4021085517112748,2.5108924741210483,0.3322222222222222,-0.2877777777777778,-0.25,-0.0401660313036047,0.08468399218617034,0.0866441916031175
1592179930.311615,-9.463536207900463,-0.3994180380619656,2.5352998682234684,0.3433323458606165,-0.2910454612008349,-0.24150402310005142,-0.060505489532449906,0.029908439913651552,0.029968044316985545
1592179930.321615,-9.310476002048322,-0.15758693729342207,2.3904760020483216,0.3511111111111111,-0.29333333333333333,-0.23555555555555555,-0.01453388179950564,0.05706272373863892,-0.03866398698851457
1592179930.331615,-9.523663929248263,-0.1950473783954517,2.3914466203411244,0.3511111111111111,-0.29333333333333333,-0.23555555555555555,-0.002346354273152513,0.011189456883245394,0.022626297374144747
1592179930.341615,-9.638802749397984,-0.17016879807355106,2.307689897832745,0.3511111111111111,-0.29333333333333333,-0.23555555555555555,-0.051754619874818594,0.003748858938241742,0.05865286919933327
1592179930.351615,-9.697442348008385,-0.12659478885893982,2.345100329439952,0.3511111111111111,-0.29333333333333333,-0.23555555555555555,-0.0694652411239904,-0.03801279021508165,0.11583322668568685
1592179930.361615,-9.73369768894441,-0.20575577763897562,2.502331355402873,0.3562254493719203,-0.29333333333333333,-0.24066989381636478,0.013795159808373356,0.014528285306166108,-0.02998251629216525
1592179930.371615,-9.637874687927841,-0.18415478779093178,2.4775847628251593,0.35888888888888887,-0.29333333333333333,-0.24333333333333335,0.008331585776047465,0.07841331264909532,-0.10620590993543592
1592179930.381615,-9.373365124895424,-0.16663487510457753,2.482872953268794,0.35888888888888887,-0.29333333333333333,-0.24333333333333335,-0.08572198597154358,0.036698692119627986,-0.04072781713465607
1592179930.391615,-9.369971166572132,-0.11605478351295143,2.516025950085082,0.35888888888888887,-0.29333333333333333,-0.24333333333333335,-0.03165925460494488,0.0782829637427035,-0.040357593713300416
1592179930.401615,-9.478493504460792,-0.025322820472687434,2.4653228204726876,0.35888888888888887,-0.29333333333333333,-0.24333333333333335,-0.035152273801197044,0.04820318738563001,-0.02124226054704634
1592179930.411615,-9.565714947243078,0.031906525981543345,2.444761684252307,0.35888888888888887,-0.29333333333333333,-0.24333333333333335,-0.05812497579419734,-0.07469742777919253,-0.059582784378723753
1592179930.421615,-9.734959324967546,0.06404002596278667,2.4757598442232798,0.35888888888888887,-0.29333333333333333,-0.24333333333333335,-0.08675139788753122,-0.052290302286208075,-0.032201692872385085
1592179930.4316149,-9.577391133681706,0.08283555359289517,2.3401511248497338,0.35888888888888887,-0.29333333333333333,-0.24333333333333335,-0.10052757261071035,-0.005307741037159346,0.017616190559075207
1592179930.4416149,-9.472171700513593,0.08271780615370118,2.3697790133345897,0.35888888888888887,-0.29333333333333333,-0.24333333333333335,-0.12417599655177876,0.06753508489192,-0.0583814711292297
1592179930.4516149,-9.675683083595445,-0.04228944849278138,2.4659638189384023,0.35888888888888887,-0.29333333333333333,-0.24333333333333335,-0.1454309485276161,0.09215104544290806,-0.11119464892352102
1592179930.4616148,-9.75261883880021,-0.14420627960007015,2.5273811611997896,0.3525837572355727,-0.2904673644000078,-0.2324426513866963,-0.1655119976303086,0.030560482532673024,0.06040305643599565
1592179930.4716148,-9.666631283412176,-0.13336871658782354,2.5816180146917427,0.3466666666666667,-0.2877777777777778,-0.2222222222222222,-0.1724872346573265,-0.009473165353227366,0.18260849638869336
1592179930.4816148,-9.55337393702597,-0.2349695472305217,2.3909196161801884,0.3466666666666667,-0.2877777777777778,-0.2222222222222222,-0.10270550386379396,0.02284765255937906,0.037041740259176656
1592179930.4916148,-9.265069724202046,-0.22077995756954544,2.274243283831136,0.3466666666666667,-0.2877777777777778,-0.2222222222222222,-0.06177223568758095,-0.05849157855580267,0.005389355688125735
1592179930.5016148,-9.255172631357567,-0.22196011076448527,2.26537207753514,0.3466666666666667,-0.2877777777777778,-0.2222222222222222,-0.043876755477141705,-0.08283179135938194,-0.06493121577681313
1592179930.5116148,-9.899218309666475,-0.3430742291170757,2.400764179594517,0.359828236674662,-0.2979480818748651,-0.22581174131531187,-0.09607599039086526,0.05286480724814625,-0.1380348774706887
1592179930.5216148,-9.452326764001267,-0.35166636532115897,2.3736656420919404,0.3711111111111111,-0.30666666666666664,-0.2288888888888889,-0.1064650449256194,-0.004363717590332973,-0.0411600635383224
1592179930.5316148,-9.261425142015069,-0.394944263541939,2.354120219618282,0.3711111111111111,-0.30666666666666664,-0.2288888888888889,-0.09654460415535238,0.009780997615971954,-0.014438308107037978
1592179930.5416148,-9.424657110936794,-0.3746571109367943,2.2977489362713635,0.3711111111111111,-0.30666666666666664,-0.2288888888888889,-0.10227986103754302,0.0364221679925814,-0.05645651513517985
1592179930.5516148,-9.515600365890842,-0.38322370159569064,2.333564996442728,0.3711111111111111,-0.30666666666666664,-0.2288888888888889,-0.10137280378715925,0.026364733652185,-0.025715246418724212
1592179930.5616148,-9.631489640883977,-0.3856795580110497,2.4747299723756906,0.3711111111111111,-0.29261325966850826,-0.2370867096378146,-0.05271530156755214,0.0251480188863627,0.02323243565864724
1592179930.5716147,-9.6592005168376,-0.33147419849794074,2.478259307114593,0.3711111111111111,-0.28,-0.24444444444444444,-0.019284263836602332,0.01320624950244195,-0.00027317017334422405
1592179930.5816147,-9.677140855866572,-0.4512430946528163,2.407569053471837,0.3711111111111111,-0.28,-0.24444444444444444,-0.027942746466618373,-0.01679336772017117,-0.0537219095248961
1592179930.5916147,-9.361594208727126,-0.467955761109994,2.3268192238085663,0.3711111111111111,-0.28,-0.24444444444444444,-0.03837710715420439,-0.0027291607874162307,-0.05439260003346645
1592179930.6016147,-9.210474690617952,-0.49764300664485583,2.367866127491821,0.3711111111111111,-0.28,-0.24444444444444444,-0.012318645118178212,-0.041138269816558354,-0.03148806043954549
1592179930.6116147,-9.12597578692494,-0.5300193704600484,2.3970702179176757,0.3653580844767285,-0.28,-0.24444444444444444,-0.0752863408969382,-0.034030750929775644,-0.057183304133667734
1592179930.6216147,-9.544803243501073,-0.611135225375626,2.4462008108752684,0.35888888888888887,-0.28,-0.24444444444444444,-0.15602678455719937,-0.12043885303046371,-0.08865230938682801
1592179930.6316147,-9.401437570901015,-0.5258984818131351,2.395898481813135,0.35888888888888887,-0.28,-0.24444444444444444,-0.06577034809905552,-0.016669219224518503,0.04051755361145383
1592179930.6416147,-9.321113457841903,-0.40278364460476046,2.340835093381428,0.35888888888888887,-0.28,-0.24444444444444444,-0.06962867706886043,-0.01806058956442387,0.023271824659113916
1592179930.6516147,-9.322979276607219,-0.41330900196448517,2.4115873810716075,0.35888888888888887,-0.28,-0.24444444444444444,-0.09796564655408727,-0.025471388281658413,-0.0370656408901157
1592179930.6616147,-9.5770659148357,-0.5966809255298464,2.5833618510596925,0.3629716767126839,-0.2825981377060514,-0.24444444444444444,-0.028639663567900826,-0.028268276303628742,-0.03948264456397002
1592179930.6716146,-9.533404735940177,-0.38226125564729707,2.560008568312821,0.3711111111111111,-0.2877777777777778,-0.24444444444444444,0.042786261270264477,-0.06167187459567147,0.14810258306104962
1592179930.6816146,-9.204489960487058,-0.23367470365293122,2.545817272800581,0.3711111111111111,-0.2877777777777778,-0.24444444444444444,0.032813854199924226,-0.14090576389403642,0.16548275054513648
1592179930.6916146,-9.18272779534349,-0.33859651414983405,2.625042462567613,0.3711111111111111,-0.2877777777777778,-0.24444444444444444,-0.02871285874551158,-0.057750438394997626,0.02921784079737359
1592179930.7016146,-9.13,-0.19,2.51,0.3711111111111111,-0.2877777777777778,-0.24444444444444444,-0.062177354602297986,-0.10690141668465267,0.04908738521234052
1592179930.7116146,-9.426398126174993,-0.3185989459734336,2.7431990630874967,0.3685554904921873,-0.2841999089112844,-0.24393332032065967,-0.05345198585857544,0.04249973819841125,0.07395807155000989
1592179930.7216146,-9.364065411298315,-0.2823000991080278,2.7,0.3655555555555556,-0.28,-0.24333333333333335,-0.10267176086680546,0.08738313500610599,0.05797714797227556
1592179930.7316146,-9.47554824985496,-0.46942830206923225,2.573345822858248,0.3655555555555556,-0.28,-0.24333333333333335,0.026798448904509727,0.11279210858795465,-0.030654697098617407
1592179930.7416146,-9.234137258168145,-0.41669157366204224,2.4721059895771362,0.3655555555555556,-0.28,-0.24333333333333335,0.0240234823808979,0.1390275682094275,-0.04134485661712402
1592179930.7516146,-9.344070515274481,-0.3715764489702167,2.542894112242554,0.3655555555555556,-0.28,-0.24333333333333335,-0.00039533324469388786,0.14269863946012937,0.06486985503729623
1592179930.7616146,-9.372603181276714,-0.3865696167052064,2.573414967416439,0.36362600144815826,-0.2822511464586302,-0.24526288744073063,-0.0853538206506577,0.16574780472261527,0.13137421408020244
1592179930.7716146,-9.87,-0.55,2.68,0.35888888888888887,-0.2877777777777778,-0.25,0.10144726277217041,0.18435040224190105,-0.13526301702956053
1592179930.7816145,-9.632874310129962,-0.40239303305441815,2.4138101596344432,0.35888888888888887,-0.2877777777777778,-0.25,-0.08222647611625397,-0.040827405566280034,0.029563255547298318
1592179930.7916145,-9.8,-0.52,2.42,0.35888888888888887,-0.2877777777777778,-0.25,-0.06872233929727672,-0.032724923474893676,0.09708393964218458
1592179930.8016145,-9.488434111376584,-0.603819380628561,2.4067108527844145,0.35888888888888887,-0.2877777777777778,-0.25,0.0218256624683559,0.1581993832084252,0.1575595150231311
1592179930.8116145,-9.354916190353864,-0.6158557574979128,2.4695022798792627,0.36388578482792083,-0.28459793490748475,-0.25317984287029305,0.018514770139645698,0.10252036956854063,0.049967139432788174
1592179930.8216145,-9.55,-0.74,2.57,0.3711111111111111,-0.28,-0.2577777777777778,-0.14398966328953217,0.028361600344907853,0.07963064712224129
1592179930.8316145,-9.272018808439546,-0.42123009350327395,2.3284225701274557,0.3711111111111111,-0.28,-0.2577777777777778,-0.01506167152838219,0.04705037020175641,0.018468346261743575
1592179930.8416145,-9.40441377327295,-0.48027604054345485,2.2970347207246062,0.3711111111111111,-0.28,-0.2577777777777778,-0.00469692659192248,-0.05627184406670812,0.028695203806844517
1592179930.8516145,-9.456362167982771,-0.3521207226609237,2.1786840950785673,0.3711111111111111,-0.28,-0.2577777777777778,0.045429921915089995,0.04931519630720144,-0.06814816745922184
1592179930.8616145,-9.613945969248455,-0.4254378502658428,2.345832447190688,0.3761159170378886,-0.2830798805703246,-0.25007807635196627,0.02223761770706793,0.12140355657604865,-0.0700242510873475
1592179930.8716145,-9.556704770279183,-0.3564458611172175,2.3714962995530153,0.38555555555555554,-0.28888888888888886,-0.23555555555555555,0.03429918245205112,-0.0023951330539492537,0.10447657560397024
1592179930.8816144,-9.410619135609897,-0.36850423555950174,2.4054680713205827,0.38555555555555554,-0.28888888888888886,-0.23555555555555555,0.07011303009305572,-0.004758808514592778,0.10107337359105172
1592179930.8916144,-9.56,-0.59,2.56,0.38555555555555554,-0.28888888888888886,-0.23555555555555555,0.09708393964218458,0.008726646259971648,-0.016362461737446838
1592179930.9016144,-9.760377605662935,-0.463919468640114,2.4280618694123324,0.38555555555555554,-0.28888888888888886,-0.23555555555555555,0.06143169074801305,0.028964088115010927,0.00951350050233412
1592179930.9116144,-9.37382365826944,-0.35987404162102954,2.2838236582694416,0.3832271206036266,-0.2885562553243276,-0.23821662407204575,0.10339167162891115,0.059802109403642445,-0.0870223399276096
1592179930.9216144,-9.603437216063964,-0.4925695075413411,2.472569507541341,0.37777777777777777,-0.2877777777777778,-0.24444444444444444,-0.004022376565222257,0.06424236090370755,0.015991186786399072
1592179930.9316144,-9.534065724017939,-0.35056754968510306,2.323571201019433,0.37777777777777777,-0.2877777777777778,-0.24444444444444444,0.0065330357313260305,-0.0651341483799027,0.03076302126155375
1592179930.9416144,-9.392266562276925,-0.2767895548852097,2.2403382688189373,0.37777777777777777,-0.2877777777777778,-0.24444444444444444,0.04753896665346674,-0.0015462081112522577,0.006508085290933156
1592179930.9516144,-9.513506470553581,-0.415905190189109,2.4406034601260727,0.37777777777777777,-0.2877777777777778,-0.24444444444444444,0.026227429537427162,0.0231599378888065,-0.07231901979279942
1592179930.9616144,-9.454416108235145,-0.03813160987074031,2.1892781147775273,0.37777777777777777,-0.28969804116690134,-0.24444444444444444,-0.017423187017672856,-0.02957517427417552,-0.1469124606543773
1592179930.9716144,-9.700098677352853,-0.2786419123948947,2.364320956197447,0.37777777777777777,-0.3,-0.24444444444444444,0.036129414154776586,-0.026080232535729476,0.062209646690506055
1592179930.9816144,-9.462282819573183,-0.27901487389523605,2.3237658978228066,0.37777777777777777,-0.3,-0.24444444444444444,0.013708161700193108,0.05265568810615033,0.011420215264821162
1592179930.9916143,-9.366482344033225,-0.47396003028703854,2.337035311933552,0.37777777777777777,-0.3,-0.24444444444444444,-0.03974272748731594,0.012298408131502733,-0.015160728281953074
1592179931.0016143,-9.510206378986867,-0.4177271508978826,2.3434709193245777,0.37777777777777777,-0.3,-0.24444444444444444,0.08373259187657665,0.004534651684942385,-0.08312855639101309
1592179931.0116143,-9.708201347554159,-0.5296906063993715,2.482920808532495,0.3804692268181406,-0.29875779275060177,-0.24154596086251523,0.010996208411027285,-0.04448705679012482,-0.021471308398268385
1592179931.0216143,-9.358266094613416,-0.24592546834988094,2.2270957814816477,0.39222222222222225,-0.29333333333333333,-0.2288888888888889,0.06238161277658458,-0.010070447458895019,0.010400014690679407
1592179931.0316143,-9.63,-0.24451043950805607,2.2792482600819906,0.39222222222222225,-0.29333333333333333,-0.2288888888888889,0.07250701980415164,-0.016497034626430575,-0.016767844365931078
1592179931.0416143,-9.638859601169397,-0.4957019941530198,2.241812801559195,0.39222222222222225,-0.29333333333333333,-0.2288888888888889,0.0070936280098934665,-0.08086817342365403,-0.009377390485719242
1592179931.0516143,-9.566178093449166,-0.33466913203412385,2.301273968850278,0.39222222222222225,-0.29333333333333333,-0.2288888888888889,0.014325168557301819,-0.08270750366022211,0.018708725458552546
1592179931.0616143,-9.315206195070985,-0.1927023538811382,2.405771003626083,0.3901916839093411,-0.29279898114573305,-0.23091942720177003,0.08990943610708282,-0.050344746857335976,0.013637898834081591
1592179931.0716143,-9.662766452850002,-0.41132444586481615,2.4542789965074077,0.3711111111111111,-0.2877777777777778,-0.25,0.07588112952079057,-0.04928828513137587,0.057463527349810736
1592179931.0816143,-9.459494004382833,-0.21889148794720903,2.411108512052791,0.3711111111111111,-0.2877777777777778,-0.25,0.06308154113030529,-0.142215428217034,0.004707576894525677
1592179931.0916142,-9.427191713483145,-0.31123314606741576,2.327191713483146,0.3711111111111111,-0.2877777777777778,-0.25,0.07664189334345745,-0.09771813824108122,0.09142065876086695
1592179931.1016142,-9.393503365214311,-0.31791947101192586,2.3133758413035777,0.3711111111111111,-0.2877777777777778,-0.25,0.06552159010079107,0.005752847569892752,0.05398369426486387
1592179931.1116142,-9.338098902615778,-0.26675029332597144,2.307833528883981,0.37228199937117046,-0.28714729948389967,-0.24882911173994066,0.09563862085227666,0.039152536012379696,-0.09873663598681583
1592179931.1216142,-9.77,-0.57,2.51,0.38555555555555554,-0.28,-0.23555555555555555,0.1287180323345818,0.01308996938995747,-0.01854412330243975
1592179931.1316142,-9.19031599335916,-0.1389966795794134,2.380338129496403,0.38555555555555554,-0.28,-0.23555555555555555,0.11973440396940332,-0.013021030333310491,-0.04392468293338856
1592179931.1416142,-8.979830147580705,-0.07348442203676057,2.441671357595634,0.38555555555555554,-0.28,-0.23555555555555555,0.0649214244803693,-0.08858905387617637,-0.05639255287070073
1592179931.1516142,-9.26,-0.08,2.37,0.38555555555555554,-0.28,-0.23555555555555555,0.05781403147231216,-0.08290313946973066,-0.05781403147231216
1592179931.1616142,-9.48385469676106,-0.33745375082320545,2.628819373765192,0.38679784735942313,-0.28372687541160274,-0.23700489599340105,-0.005710257182167954,-0.029947396492939878,-0.01979162672142121
1592179931.1716142,-9.85,-0.37,2.58,0.39222222222222225,-0.3,-0.24333333333333335,0.1265363707695889,-0.06544984694978735,-0.10144726277217041
1592179931.1816142,-9.412650324441241,-0.2158817591925018,2.47,0.39222222222222225,-0.3,-0.24333333333333335,0.11380109833918867,-0.12085539955525225,-0.10998043796329264
1592179931.1916142,-9.5,-0.2,2.47,0.39222222222222225,-0.3,-0.24333333333333335,0.16144295580947549,-0.061086523819801536,-0.0839939702522271
1592179931.2016141,-9.37856013225511,-0.2728797354897821,2.559416802772577,0.39222222222222225,-0.3,-0.24333333333333335,0.026269432704806445,-0.023242782493793746,-0.017330012954554996
1592179931.2116141,-9.320080866828667,-0.3898382663426682,2.709792056726288,0.39222222222222225,-0.3,-0.24333333333333335,0.1438271011273476,-0.030533180535501726,0.04463837039996282
1592179931.2216141,-9.29,-0.08,2.5,0.3711111111111111,-0.29333333333333333,-0.23555555555555555,0.09708393964218458,-0.015271630954950384,-0.07744898555724837
1592179931.231614,-9.320541444382515,-0.38756907397085755,2.773244950500305,0.3711111111111111,-0.29333333333333333,-0.23555555555555555,0.08470130063540972,0.01161543554298068,-0.002977180247761049
1592179931.241614,-9.2159543722591,-0.11400488868652495,2.4899837043782505,0.3711111111111111,-0.29333333333333333,-0.23555555555555555,0.12915223155568142,0.06895721467365121,-0.060892532704823796
1592179931.251614,-9.453412262819507,-0.13358985416339972,2.595147992786577,0.3711111111111111,-0.29333333333333333,-0.23555555555555555,0.12554447510608668,-0.010895393017989731,0.054887929643021846
1592179931.261614,-9.519184569546809,-0.3473498510271287,2.718471067900267,0.3711111111111111,-0.29333333333333333,-0.23555555555555555,0.056488510422670474,-0.00013342449589889144,0.04053863828023406
1592179931.271614,-9.12,0.07,2.42,0.39222222222222225,-0.29333333333333333,-0.25222222222222224,0.05563236990731925,0.0,0.11890055529211369
1592179931.281614,-9.761127466752466,-0.3185191441441442,2.7316575504075504,0.39222222222222225,-0.29333333333333333,-0.25222222222222224,0.05561768744665824,0.036680735201712326,-0.19329778262659117
1592179931.291614,-9.451177595106099,-0.41862550181609637,2.575880328809023,0.39222222222222225,-0.29333333333333333,-0.25222222222222224,0.16295919182926744,0.15115544768619166,-0.04326934299638732
1592179931.301614,-9.584911625542565,-0.30926426308997773,2.4366173307785552,0.39222222222222225,-0.29333333333333333,-0.25222222222222224,-0.03837815091265304,0.1938984240756322,-0.019821017662664652
1592179931.311614,-9.654370993464461,-0.5479977485224679,2.611394039838644,0.39114721119067725,-0.292341015458061,-0.2515606769720407,0.06650069981936953,0.1538265152932079,-0.02465228448822028
1592179931.321614,-9.46,-0.15,2.38,0.37777777777777777,-0.28,-0.24333333333333335,0.17453292519943295,-0.008726646259971648,0.062177354602297986
1592179931.331614,-9.386912080825452,0.004488929492691314,2.3170550300945827,0.37777777777777777,-0.28,-0.24333333333333335,0.15710771242716892,-0.036430160493298176,0.12586269131169717
1592179931.341614,-9.47297260094389,-0.2060179601468275,2.494828919769271,0.37777777777777777,-0.28,-0.24333333333333335,-0.054319454672119995,-0.054227074403964154,0.1019544247242055
1592179931.351614,-9.776031746031746,-0.2733237133237133,2.436647426647427,0.37777777777777777,-0.28,-0.24333333333333335,-0.032368658875896524,-0.033606402895092834,0.00867207848634027
1592179931.361614,-9.498630952380953,-0.35738455988455986,2.6047691197691196,0.37777777777777777,-0.28,-0.24333333333333335,0.03181865244600142,0.0434183706911847,-0.14996227663777892
1592179931.371614,-9.366244117093373,-0.34665097891566266,2.584976468373494,0.37777777777777777,-0.31222222222222223,-0.24333333333333335,0.048909858252350266,-0.02237817685636443,-0.04836700976335754
1592179931.381614,-9.48630662020906,-0.40433490469358474,2.6309025073444015,0.37777777777777777,-0.31222222222222223,-0.24333333333333335,0.04955510769583767,-0.1067290390389661,-0.019901830154630804
1592179931.391614,-9.785378151260504,-0.33385354141656665,2.4348859543817527,0.37777777777777777,-0.31222222222222223,-0.24333333333333335,0.11273402209310313,0.02303185090341857,-0.02480625151600284
1592179931.401614,-9.17185648066655,-0.07452502493692426,2.523393768702693,0.37777777777777777,-0.31222222222222223,-0.24333333333333335,0.03628377250377066,-0.06413672811309797,-0.05580953470259886
1592179931.411614,-9.475381094877662,-0.10733849674353108,2.548003872557648,0.37777777777777777,-0.31222222222222223,-0.24333333333333335,0.05418074506738381,-0.02297369121678771,0.06946927324269322
1592179931.421614,-9.255403585361321,-0.15878250975292588,2.6084678617871075,0.39222222222222225,-0.29333333333333333,-0.22333333333333333,-0.0332367506807065,0.028961476217819828,0.09173870669302978
1592179931.431614,-9.512461305956538,-0.3691641044348325,2.6668575746521443,0.39222222222222225,-0.29333333333333333,-0.22333333333333333,0.06749979477654253,-0.027733444623057532,-0.012718476390655039
1592179931.441614,-9.57,-0.55,2.56,0.39222222222222225,-0.29333333333333333,-0.22333333333333333,0.031634092692397225,-0.03490658503988659,0.014180800172453926
1592179931.451614,-9.17969513247605,-0.5864744972814361,2.594711745922154,0.39222222222222225,-0.29333333333333333,-0.22333333333333333,-0.0030209432104538513,0.051783018526452215,0.015215992654056675
1592179931.461614,-9.27924052817813,-0.5502761715715889,2.540414257357383,0.39222222222222225,-0.29333333333333333,-0.22333333333333333,0.044362554340507246,0.045860081332582084,-0.06375650326421181
1592179931.471614,-9.56,-0.25,2.43,0.3977777777777778,-0.31444444444444447,-0.22333333333333333,-0.0032724923474893677,-0.07853981633974483,-0.04908738521234052
1592179931.4816139,-9.631992852638218,-0.6438784948496952,2.428042884170696,0.3977777777777778,-0.31444444444444447,-0.22333333333333333,0.014825163111031821,0.07135826526843433,-0.15788726480392787
1592179931.4916139,-9.673748542880933,-0.9134637801831806,2.352882597835137,0.3977777777777778,-0.31444444444444447,-0.22333333333333333,0.05510702725569898,0.008245263816405352,-0.04690572364734761
1592179931.5016139,-9.78,-0.75,2.5,0.3977777777777778,-0.31444444444444447,-0.22333333333333333,0.12108221685710661,-0.07199483164476608,-0.04690572364734761
1592179931.5116138,-9.41309659408152,-0.6747377628885167,2.3965144239717104,0.3977777777777778,-0.31444444444444447,-0.22333333333333333,0.12416090554463485,-0.059680076894653114,0.018772968353254933
1592179931.5216138,-9.64,-0.8,2.45,0.38555555555555554,-0.3,-0.2311111111111111,0.09272061651219875,0.06544984694978735,0.011999138607461015
1592179931.5316138,-9.378952877032422,-0.8042931554863206,2.4773821925810533,0.38555555555555554,-0.3,-0.2311111111111111,0.26488910147107886,0.05718009427625322,0.07549577078547423
1592179931.5416138,-9.357854750195994,-0.5192849167319982,2.4350055828760127,0.38555555555555554,-0.3,-0.2311111111111111,0.1031609034326926,0.05023916755448897,0.07978665409039819
1592179931.5516138,-9.339391212976949,-0.5112521617302599,2.5056347277861692,0.38555555555555554,-0.3,-0.2311111111111111,0.0959912223941594,-0.15054030738109705,0.07307057070303283
1592179931.5616138,-9.477116963288895,-0.529615595105186,2.5882701779733366,0.38555555555555554,-0.3,-0.2311111111111111,0.07996610367600565,-0.19861566353555832,-0.05513037904219721
1592179931.5716138,-9.41,-0.33,2.51,0.37777777777777777,-0.31444444444444447,-0.20222222222222222,0.09490227807719166,-0.12544553998709243,-0.05781403147231216
1592179931.5816138,-9.26588485737263,-0.6087780878944131,2.36816713184162,0.37777777777777777,-0.31444444444444447,-0.20222222222222222,0.06890465185485088,-0.12680983960595013,0.05341546365599089
1592179931.5916138,-9.53231581932922,-0.5926566451582406,2.3522205677279064,0.37777777777777777,-0.31444444444444447,-0.20222222222222222,0.0448443631159676,-0.07225946297974313,-0.014064882159782768
1592179931.6016138,-9.897159186714507,-0.6344650314687371,2.572951983216673,0.37777777777777777,-0.31444444444444447,-0.20222222222222222,0.16225606885555025,0.0741926622208283,-0.01360919568854121
1592179931.6116138,-9.165255769268473,-0.511110522910417,2.6387410544477774,0.37777777777777777,-0.31444444444444447,-0.20222222222222222,0.1317560526339856,-0.022689742247671132,-0.04949156771391136
1592179931.6216137,-9.77267974743703,-0.7058845361757983,2.688178649829135,0.3977777777777778,-0.3088888888888889,-0.23777777777777778,0.13530508314976272,-0.07932692677197868,-0.01398972518984541
1592179931.6316137,-9.203150247810441,-0.41162762803539504,2.650210016520696,0.3977777777777778,-0.3088888888888889,-0.23777777777777778,0.0452223382385524,-0.004775689604080494,-0.1009661685523933
1592179931.6416137,-9.662576738553263,-0.6374081233406307,2.53450929246821,0.3977777777777778,-0.3088888888888889,-0.23777777777777778,0.14975837928569025,-0.04225636801048844,-0.13284201695783934
1592179931.6516137,-9.735511548566723,-0.8565005293910043,2.6684024155915456,0.3977777777777778,-0.3088888888888889,-0.23777777777777778,0.19116466185848346,-0.13199052468207118,0.004790270388528513
1592179931.6616137,-9.250307634994707,-0.478205952707737,2.4957027175404884,0.3977777777777778,-0.3088888888888889,-0.23777777777777778,0.10235404981357077,-0.13199052468207118,-0.06697588075887567
1592179931.6716137,-9.317425507664396,-0.5443239282640553,2.597624153892675,0.4122222222222222,-0.3088888888888889,-0.2311111111111111,0.04940404609870175,-0.09893810584978452,0.014649143653259665
1592179931.6816137,-9.413377347548735,-0.37613128429317033,2.4611147789623944,0.4122222222222222,-0.3088888888888889,-0.2311111111111111,0.09719113954466216,-0.06145853619131357,-0.09086775646379275
1592179931.6916137,-9.637901592541375,-0.4790382299147968,2.479825132711781,0.4122222222222222,-0.3088888888888889,-0.2311111111111111,0.02575673517036095,-0.10431917881589428,0.0866977629808988
1592179931.7016137,-9.49,-0.27,2.48,0.4122222222222222,-0.3088888888888889,-0.2311111111111111,0.09490227807719166,-0.08072147790473774,-0.07308566242726255
1592179931.7116137,-9.28807107563664,-0.05999391866210568,2.5365400988217406,0.4122222222222222,-0.3088888888888889,-0.2311111111111111,0.09842660266234289,-0.0754349910270109,-0.11802080088794066
1592179931.7216136,-9.5,-0.3,2.57,0.39222222222222225,-0.31444444444444447,-0.22333333333333333,-0.11671889372712078,-0.19962203319685143,-0.0839939702522271
1592179931.7316136,-9.453229545545385,-0.3748327271273832,2.6354786362364604,0.39222222222222225,-0.31444444444444447,-0.22333333333333333,0.04654079085029354,-0.11084957970788238,-0.09215695448109781
1592179931.7416136,-9.273929463700972,-0.21371116016202973,2.5910915176947147,0.39222222222222225,-0.31444444444444447,-0.22333333333333333,0.0386077153837483,-0.08551343903109591,-0.032967633125555625
1592179931.7516136,-9.498066246285424,-0.21,2.6296636950061605,0.39222222222222225,-0.31444444444444447,-0.22333333333333333,-0.09594669893946449,-0.15322934868465057,0.054898666228145
1592179931.7616136,-9.316712966510844,-0.09046497815924591,2.7176590160165532,0.39222222222222225,-0.31444444444444447,-0.22333333333333333,0.000275779810825022,-0.10599656381489736,-0.005217454750811756
1592179931.7716136,-9.548834556604074,-0.2093756553236107,2.6902081148921297,0.418777894279753,-0.3210833624588272,-0.21669441531895065,0.051160078074630515,-0.08294854309585688,0.07486777208234477
1592179931.7816136,-9.579342588160204,-0.2698356470400511,2.8297886890514943,0.41888888888888887,-0.3211111111111111,-0.21666666666666667,-0.08589390411050947,0.07207166647386896,0.14366951816827017
1592179931.7916136,-9.311635551300464,-0.20290888782511568,2.7437399986322917,0.41888888888888887,-0.3211111111111111,-0.21666666666666667,0.028829447370658873,0.10335985324146033,0.013302073303306183
1592179931.8016136,-9.49017372549949,-0.2760694901997962,2.7495086862749747,0.41888888888888887,-0.3211111111111111,-0.21666666666666667,-0.16014752154268833,0.02381528713887837,0.018008183167318958
1592179931.8116136,-9.5,-0.2877192642787996,2.7731577928363986,0.41888888888888887,-0.3211111111111111,-0.21666666666666667,-0.08680753224340189,-0.07467365016271092,0.038753109926935564
1592179931.8216136,-9.030031161942649,-0.11001193436101442,2.740002652080226,0.4122226642355931,-0.3211111111111111,-0.20888940457115496,0.08398427880022283,0.10906904734151998,0.04690557899881023
1592179931.8316135,-9.348337760910816,-0.29725750641812704,2.6744598727536557,0.4122222222222222,-0.3211111111111111,-0.2088888888888889,-0.014053830829894781,0.06005917770858464,0.01626578580918451
1592179931.8416135,-9.397629291049173,-0.35604881841528635,2.9002440920764316,0.4122222222222222,-0.3211111111111111,-0.2088888888888889,0.035533459992549477,0.13407966237229116,-0.09431917205751164
1592179931.8516135,-9.559520475390777,-0.26029970288076476,2.5909890195065235,0.4122222222222222,-0.3211111111111111,-0.2088888888888889,0.036010492827500684,0.0178227179145167,-0.08840306290012467
1592179931.8616135,-9.73321718038218,-0.41672030606006827,2.738471868899012,0.4122222222222222,-0.3211111111111111,-0.2088888888888889,0.04319553515259729,-0.029334483126449287,0.14288229010091963
1592179931.8716135,-9.21,-0.2,2.67,0.4033333333333333,-0.31555555555555553,-0.21666666666666667,-0.11671889372712078,-0.09381144729469522,0.10144726277217041
1592179931.8816135,-9.265199497329563,-0.3103989946591266,2.756742067232171,0.4033333333333333,-0.31555555555555553,-0.21666666666666667,-0.03758139944685639,-0.0009109105309065696,0.02575052911278705
1592179931.8916135,-9.458617338906684,-0.2010754030725802,2.521997177134792,0.4033333333333333,-0.31555555555555553,-0.21666666666666667,0.14059302313597888,0.028328083694188946,-0.0681525562350553
1592179931.9016135,-9.191584975898438,-0.14035221686631988,2.5597651887557866,0.4033333333333333,-0.31555555555555553,-0.21666666666666667,0.03661855370554848,0.1812658495271522,-0.236808570667829
1592179931.9116135,-9.447778639954853,-0.23497107787810387,2.621052835778781,0.4033333333333333,-0.31555555555555553,-0.21666666666666667,0.03747737832518738,0.1177903718049193,-0.03134634144302187
1592179931.9216135,-9.422498502097064,-0.27016656680647094,2.7581677651288192,0.3913146927634645,-0.3297594035017642,-0.21666666666666667,-0.07766832816396246,-0.08006867875221681,0.017198264256713745
1592179931.9316134,-9.260629034150922,-0.13339631498650392,2.691698157493252,0.39111111111111113,-0.33,-0.21666666666666667,-0.03658287912230291,0.03299469745318036,0.008084044814381765
1592179931.9416134,-9.85057507120575,-0.33264207242642074,2.534120439441204,0.39111111111111113,-0.33,-0.21666666666666667,-0.0017329310939076352,0.031699042470440884,-0.003015652222924897
1592179931.9516134,-9.181028617512647,-0.3200298150003666,2.6598062024976175,0.39111111111111113,-0.33,-0.21666666666666667,-0.09911924716636747,0.10243076725807285,-0.10783613649028513
1592179931.9616134,-9.253480304993822,-0.25217202615954915,2.59782435731292,0.39111111111111113,-0.33,-0.21666666666666667,-0.03884138042056283,0.037181283316083655,-0.040169142502581676
1592179931.9716134,-9.165620121991212,0.007546074637633626,2.4687863186200563,0.3951216632780219,-0.33,-0.2096482003745728,0.031259917773235654,-0.042620097259658055,0.0415292664771616
1592179931.9816134,-9.692836085833052,-0.34648309178743963,2.818972250308954,0.39555555555555555,-0.33,-0.2088888888888889,-0.02921874995269761,-0.05154530233849549,0.02562269717020689
1592179931.9916134,-9.46847835861514,-0.1846273990108148,2.568478358615141,0.39555555555555555,-0.33,-0.2088888888888889,-0.08140712895459666,0.032216745071688875,0.05109965397626516
1592179932.0016134,-9.42,-0.30446180184035954,2.803179970040659,0.39555555555555555,-0.33,-0.2088888888888889,0.03333114807197121,0.015860814968436592,-0.006147915754035768
1592179932.0116134,-9.434304003816946,-0.3586080076338913,2.807087988549163,0.39555555555555555,-0.33,-0.2088888888888889,-0.030806829110617676,0.06551967469261345,-0.03196570941391795
1592179932.0216134,-9.268802562248165,-0.5697303440438062,2.8946206564038985,0.4029529757053261,-0.33,-0.20254824304622837,-0.1338705614114177,0.08934143409954115,-0.017429362389129153
1592179932.0316133,-9.21403117686724,-0.5537321010669946,2.8605981516004917,0.4033333333333333,-0.33,-0.20222222222222222,-0.04933414289559693,0.026409692119927483,-0.004900928638395582
1592179932.0416133,-9.597918958662383,-0.530935134251947,2.6496378192908883,0.4033333333333333,-0.33,-0.20222222222222222,0.05210162139668452,0.10618088971280382,-0.0780150459948948
1592179932.0516133,-9.38001109155354,-0.42786150025317676,2.565002772888385,0.4033333333333333,-0.33,-0.20222222222222222,0.05173680494857537,0.055011717097670346,0.07588374214909452
1592179932.0616133,-9.317006701966156,-0.3555100529492354,2.4793875661865443,0.4033333333333333,-0.33,-0.20222222222222222,0.07354579292210461,-0.021341863733112608,0.033251658181989475
1592179932.0716133,-9.666774797255146,-0.47404865876481594,2.5840486587648157,0.41730020101199145,-0.33537187218409925,-0.21618908990088032,0.02099662120644301,0.12910455253698852,-0.07324761983601749
1592179932.0816133,-9.618865090403338,-0.48,2.5696216968011125,0.4177777777777778,-0.33555555555555555,-0.21666666666666667,0.08245330452256763,0.03687781791290139,-0.07304439594981624
1592179932.0916133,-9.312641612200435,-0.2565795206971677,2.4143518518518516,0.4177777777777778,-0.33555555555555555,-0.21666666666666667,0.0142990329206657,-0.10068439418571862,0.03528564279545998
1592179932.1016133,-9.55668948768359,-0.40176939979183535,2.6221232797502023,0.4177777777777778,-0.33555555555555555,-0.21666666666666667,-0.027347974192790468,-0.12270974597209444,-0.03642577536963008
1592179932.1116133,-9.458197121057186,-0.377314166601117,2.759293636435145,0.4177777777777778,-0.33555555555555555,-0.21666666666666667,-0.0035036492835426557,-0.08291836974298583,-0.035488510184769076
1592179932.1216133,-9.388047800029236,-0.33097609998538224,2.763904399941529,0.3937140444054638,-0.33054227776965683,-0.19761621108025143,-0.051212520025046476,-0.11916345651308155,0.14344851331612227
1592179932.1316133,-9.255142595759914,-0.3492653434628694,2.862748498468637,0.39111111111111113,-0.33,-0.19555555555555557,-0.029793725226092395,-0.12544553998709243,0.15023483331098755
1592179932.1416132,-9.171277863080425,-0.11578016625191934,2.614725207814899,0.39111111111111113,-0.33,-0.19555555555555557,0.021973826503423874,-0.09214522594352079,0.11830084959877692
1592179932.1516132,-9.056277428513486,0.021751774487933473,2.5221168120056783,0.39111111111111113,-0.33,-0.19555555555555557,0.005071976005396321,-0.07943159428547586,0.02182462377694723
1592179932.1616132,-9.39683150552827,-0.11122900266881969,2.59061450133441,0.39111111111111113,-0.33,-0.19555555555555557,0.048195031860115964,-0.03497885205936436,-0.02311377684619523
1592179932.1716132,-9.735189004326761,-0.20523382646319663,2.67570147938959,0.39449640588071033,-0.32492205784560113,-0.20063349770995442,0.016066162286098473,-0.049546502399211385,-0.036303493946963625
1592179932.1816132,-9.479144880969768,-0.2578238644661896,2.8095596611654736,0.39555555555555555,-0.3233333333333333,-0.20222222222222222,-0.06021427341317556,-0.06759948617108497,0.018319966896572573
1592179932.1916132,-9.391546511042915,-0.06711626502993412,2.654023242944106,0.39555555555555555,-0.3233333333333333,-0.20222222222222222,-0.11860755606950725,0.03162141563294374,0.08176664932158359
1592179932.2016132,-9.29656264831514,-0.37826649264356915,2.942783578547698,0.39555555555555555,-0.3233333333333333,-0.20222222222222222,-0.07742737085142529,0.04276553676190662,0.07941993609781031
1592179932.2116132,-9.05581301803998,-0.23750853242320819,2.7541175036567527,0.39555555555555555,-0.3233333333333333,-0.20222222222222222,0.03698639672928318,-0.07372362026422231,0.04904962363966511
1592179932.2216132,-9.030883680928833,-0.038232638142334976,2.5382326381423352,0.3916899250203916,-0.3233333333333333,-0.20222222222222222,-0.06866135972225003,-0.055191005104117924,-0.0680829919068047
1592179932.2316132,-9.561279074438596,-0.4124235728919776,2.8538528903707867,0.39111111111111113,-0.3233333333333333,-0.20222222222222222,-0.010036668605319002,0.015520182443253115,0.028453667812630715
1592179932.2416131,-9.339169170795095,-0.21904788976420586,2.5847968272016026,0.39111111111111113,-0.3233333333333333,-0.20222222222222222,-0.057708193806851084,-0.07186253456293973,-0.017170832344124268
1592179932.2516131,-9.536483684911063,-0.3167498890815956,2.7166611543580848,0.39111111111111113,-0.3233333333333333,-0.20222222222222222,-0.05660885110712269,-0.03907992683163906,-0.003349928001794761
1592179932.2616131,-9.404927321140164,-0.21783709459164521,2.818545113274259,0.39111111111111113,-0.3233333333333333,-0.20222222222222222,-0.014237939154469546,0.04538320785572317,-0.015824974379953272
1592179932.2716131,-9.526734272846143,-0.33301554554699986,2.9492968182478574,0.4123506868774921,-0.32864322727492856,-0.20222222222222222,0.0562519072740104,0.03243433109907128,-0.044241706631300476
1592179932.281613,-9.43964053598652,-0.3148315012436813,2.914831501243681,0.4177777777777778,-0.33,-0.20222222222222222,0.05231821540365013,-0.11484847297594136,-0.014107278720371999
1592179932.291613,-9.309522022960907,-0.3211855631424927,2.7366729196368276,0.4177777777777778,-0.33,-0.20222222222222222,0.04186663710922111,-0.1274789690506146,0.045917124998665064
1592179932.301613,-9.600449237940726,-0.4362920732125311,2.8006740854146197,0.4177777777777778,-0.33,-0.20222222222222222,-0.016460470252328732,0.012795744438363926,0.05720120406974703
1592179932.311613,-9.575617671980611,-0.42325832068890773,2.787415610775021,0.4177777777777778,-0.33,-0.20222222222222222,-0.12385238148953578,-0.007182454450544884,0.050165942079594586
1592179932.321613,-9.308901145802555,-0.30787254998522606,2.708936274992613,0.3942041578661297,-0.3254373638880681,-0.19765958611029033,-0.027228617560343088,-0.10548164270844566,-0.016493824136415848
1592179932.331613,-9.451264353248334,-0.2536100479075309,2.730974880231173,0.38333333333333336,-0.3233333333333333,-0.19555555555555557,0.025057531389636404,-0.09176353008332921,0.13495651379202603
1592179932.341613,-9.220468009954242,-0.14701452998314202,2.695863369992775,0.38333333333333336,-0.3233333333333333,-0.19555555555555557,-0.042398439226005585,-0.07220411843694452,0.05523884068386746
1592179932.351613,-9.489802564304256,-0.33140407456933846,2.834044678675372,0.38333333333333336,-0.3233333333333333,-0.19555555555555557,0.019156766406901685,0.007507023138568006,0.028312434448709442
1592179932.361613,-9.554645196682694,-0.41122043305689115,2.9368243570299137,0.38333333333333336,-0.3233333333333333,-0.19555555555555557,0.04376773271713272,0.046238707851499875,0.08622586304528876
1592179932.371613,-9.384241884850642,-0.2992779701608466,2.920397100229781,0.4006137199693625,-0.32765342999234065,-0.19987565221456285,-0.09974801819940424,-0.015169251937207417,0.13934673953177937
1592179932.381613,-9.487956766084462,-0.36591353216892475,2.9731581279294828,0.41,-0.33,-0.20222222222222222,-0.08576685326453672,-0.005612755920944026,0.12220680303097896
1592179932.391613,-9.246330638660496,-0.3197973237522744,2.7840853082751793,0.41,-0.33,-0.20222222222222222,-0.08960346184471528,-0.02880608267301138,-0.051399964560045835
1592179932.401613,-9.23099997649879,-0.27326666823341406,2.706933327066344,0.41,-0.33,-0.20222222222222222,-0.11391182012081782,-0.07074400756214601,0.032848513877056146
1592179932.411613,-9.155673377264575,-0.2869536303730125,2.8217217822380753,0.41,-0.33,-0.20222222222222222,-0.10163991619856136,-0.020309241077304592,0.06578940850586464
1592179932.421613,-9.433798582099,-0.35155842511710345,2.861331181162172,0.3978264829584617,-0.33,-0.18861652670520881,-0.005401055490420012,-0.011783085340058088,0.024603903040550365
1592179932.431613,-9.38831880164819,-0.35902656680401573,2.8679645775946456,0.39111111111111113,-0.33,-0.1811111111111111,0.015957041304568723,0.0115067785117441,-0.03875822814908019
1592179932.441613,-9.376622939791456,-0.315491807217337,2.6246393734082933,0.39111111111111113,-0.33,-0.1811111111111111,0.006959857869908314,0.03807178169703094,0.010926181704010801
1592179932.451613,-9.201810297732859,-0.5248015114267504,2.6554598015114266,0.39111111111111113,-0.33,-0.1811111111111111,-0.005346441449255711,0.005389744938390596,0.010104710277738953
1592179932.461613,-9.340039519474647,-0.6825599182084505,2.7885198875366193,0.39111111111111113,-0.33,-0.1811111111111111,-0.023605555828038315,0.05422725048939087,0.08811712659228753
1592179932.471613,-9.554106179738776,-0.6198050555591657,2.751592696081617,0.39700493137233667,-0.33,-0.1811111111111111,-0.041530746938325494,0.11087473715265296,0.11384590247068022
1592179932.481613,-9.260333827559869,-0.31300040436716536,2.5715002021835827,0.4011111111111111,-0.33,-0.1811111111111111,-0.028234368610560872,0.01572630306571192,-0.004472273879390032
1592179932.491613,-9.39974710982659,-0.39604238921001933,2.6516541425818883,0.4011111111111111,-0.33,-0.1811111111111111,-0.03961512773832144,-0.029915456216776118,-0.05596193111482493
1592179932.501613,-9.449197667162675,-0.49044664714635433,2.769106705707291,0.4011111111111111,-0.33,-0.1811111111111111,-0.015720048121047422,-0.05395687937743378,-0.09488243336608111
1592179932.511613,-9.318140248465799,-0.4235387666516988,2.7284059272563987,0.4011111111111111,-0.33,-0.1811111111111111,-0.018003932665725253,-0.031797529545155634,-0.02613005870147568
1592179932.521613,-9.331376800025543,-0.4513768000255436,2.7056023500111754,0.3948948277758265,-0.33282558333422024,-0.1918483277811481,0.0028762698952501595,0.028812157099669312,0.07671484553893806
1592179932.5316129,-9.349505160276127,-0.46345567630373863,2.6855546442485134,0.3888888888888889,-0.33555555555555555,-0.20222222222222222,0.03462364451500285,0.03210506378480582,0.10896207364572298
1592179932.5416129,-9.2086377626445,-0.40807503089935293,2.560562731745147,0.3888888888888889,-0.33555555555555555,-0.20222222222222222,-0.0017670649733274556,0.039567102257961624,0.0009465956869071646
1592179932.5516129,-9.384142113568384,-0.3880906286064203,2.565501542664688,0.3888888888888889,-0.33555555555555555,-0.20222222222222222,-0.030702111782205235,-0.04289177774742301,-0.038475658808350056
1592179932.5616128,-9.426048199264692,-0.36569786914592595,2.58616311524321,0.3888888888888889,-0.33555555555555555,-0.20222222222222222,0.021207001010976653,0.0016854743458599858,-0.04736186901353792
1592179932.5716128,-9.431277905028887,-0.40550203411849167,2.6760497077023007,0.3989801678195238,-0.3327524225192681,-0.18708530382626995,0.07959081917530934,0.06987567161447161,-0.028934667817289074
1592179932.5816128,-9.352679300363672,-0.31738329086366,2.708504737636377,0.4088888888888889,-0.33,-0.17222222222222222,-0.03289135066461327,-0.07959318953519234,-0.06903489965260871
1592179932.5916128,-9.329406471223454,-0.30029076510818703,2.672646882374115,0.4088888888888889,-0.33,-0.17222222222222222,-0.06262794454436987,-0.08935428034544171,-0.10472040953959888
1592179932.6016128,-9.492622631399483,-0.39983584197963856,2.6513113156997417,0.4088888888888889,-0.33,-0.17222222222222222,0.06307184753388478,0.03093678778915298,-0.07995254555277193
1592179932.6116128,-9.335713617767388,-0.32714260666277034,2.615714202220923,0.4088888888888889,-0.33,-0.17222222222222222,0.05729426643669365,0.05620381817814196,-0.10414849811080944
1592179932.6216128,-9.309583652440299,-0.38482489730557684,2.7153073870361344,0.4013182018612639,-0.3364059659464519,-0.17688110654691452,-0.0272851995456095,0.004741084900656112,-0.05953856635904524
1592179932.6316128,-9.394014307566323,-0.46802861513264626,2.8074300458892782,0.39444444444444443,-0.3422222222222222,-0.1811111111111111,-0.04856503500744365,-0.049356363881672895,-0.0022121848039277415
1592179932.6416128,-9.329208448571562,-0.33841689714312206,2.671337742000278,0.39444444444444443,-0.3422222222222222,-0.1811111111111111,-0.04290965693723474,-0.016837939977971672,-0.06159365454112129
1592179932.6516128,-9.410777737708859,-0.4018555114797452,2.770627719677846,0.39444444444444443,-0.3422222222222222,-0.1811111111111111,-0.029485159984636085,-0.04689237509900549,0.02039849629511495
1592179932.6616127,-9.101061540480252,-0.2800723877006517,2.767020513493417,0.39444444444444443,-0.3422222222222222,-0.1811111111111111,-0.02965243824109128,-0.025995724212656987,0.09460226740666122
1592179932.6716127,-9.11080986792923,-0.3570009967605283,2.8598305507101918,0.40326480604701387,-0.3381512860979594,-0.1756831962787607,0.028431459181464447,-0.0009470357453819252,-0.015439074703272784
1592179932.6816127,-9.32913261185592,-0.491494104345017,2.9456146018413825,0.4088888888888889,-0.33555555555555555,-0.17222222222222222,0.06288707296635804,0.0029727825815345187,-0.05884971283873344
1592179932.6916127,-9.323270265771514,-0.35439188814292844,2.6068972978971314,0.4088888888888889,-0.33555555555555555,-0.17222222222222222,-0.011358790736473251,0.10204073451592943,0.001205221848296724
1592179932.7016127,-9.491989193516108,-0.47539603762257354,2.594198919351611,0.4088888888888889,-0.33555555555555555,-0.17222222222222222,-0.030107322531744793,0.08571563609481127,-0.04450314538195717
1592179932.7116127,-9.400892739923854,-0.3327860925123627,2.512582381515032,0.4088888888888889,-0.33555555555555555,-0.17222222222222222,0.008567826339033146,0.0648746916094124,-0.007646269809511733
1592179932.7216127,-9.1555170005397,-0.013497571351471473,2.3693990285405886,0.4047662888768956,-0.33555555555555555,-0.1616212507628108,-0.044895899357910975,-0.06037070832489052,0.05414290573527657
1592179932.7316127,-9.45488404263976,-0.05744202131987957,2.4540100903246804,0.4011111111111111,-0.33555555555555555,-0.15222222222222223,-0.11164753806913569,-0.06869997056449217,0.0185749246924248
1592179932.7416127,-9.653594229588705,-0.13102823818293433,2.4821413955391853,0.4011111111111111,-0.33555555555555555,-0.15222222222222223,-0.08466494167276821,0.07952774698090082,-0.017554183764815073
1592179932.7516127,-9.433506012950971,-0.03477335800185014,2.27477335800185,0.4011111111111111,-0.33555555555555555,-0.15222222222222223,-0.10816278437949133,0.0891393413530129,-0.09846841682403948
1592179932.7616127,-9.629125491006823,-0.4949431465784577,2.7988215836262147,0.4011111111111111,-0.33555555555555555,-0.15222222222222223,-0.11615058825432958,-0.028336793359984427,0.016910019550120264
1592179932.7716126,-9.406550266159696,-0.3254086692015209,2.68317536121673,0.405434254330376,-0.33555555555555555,-0.15222222222222223,-0.03307402250645703,-0.05865036272319653,0.03889360058343006
1592179932.7816126,-9.286924528301887,-0.16119630670413487,2.514011641910879,0.4088888888888889,-0.33555555555555555,-0.15222222222222223,-0.017894441829572734,-0.028397070956462336,0.041066428958789196
1592179932.7916126,-9.318888772736775,-0.34797093874137575,2.8317551745766254,0.4088888888888889,-0.33555555555555555,-0.15222222222222223,-0.044246267708670795,0.03356807660115113,0.05761550163828266
1592179932.8016126,-9.070870581361378,-0.15181176356022982,2.605035300418736,0.4088888888888889,-0.33555555555555555,-0.15222222222222223,-0.03668527975578024,0.06790870424239975,0.03773760375488445
1592179932.8116126,-9.15557391274166,-0.19466176113290062,2.585540245045295,0.4088888888888889,-0.33555555555555555,-0.15222222222222223,-0.03596803521472565,0.08744342775460137,0.090922265864633
1592179932.8216126,-9.579478962885405,-0.4444664260325683,2.7618361667539193,0.4088888888888889,-0.33845051234244744,-0.14836227983969974,0.020953130196802054,0.006945574138373132,0.061690143101891096
1592179932.8316126,-9.640920203735144,-0.4120860215053764,2.693926428975665,0.4088888888888889,-0.3422222222222222,-0.14333333333333334,-0.07511348413317333,0.019621619650922663,0.19263553057564664
1592179932.8416126,-9.07764746703678,-0.32938039060176466,2.558886685833251,0.4088888888888889,-0.3422222222222222,-0.14333333333333334,-0.1119310582310509,0.030798802024805012,0.2883964312016567
1592179932.8516126,-9.117248667850799,-0.4040918548591728,2.6440918548591728,0.4088888888888889,-0.3422222222222222,-0.14333333333333334,-0.0367276441325536,-0.015067636464541886,0.11950080285235773
1592179932.8616126,-9.347330569786084,-0.5725290367994994,2.8489859606585584,0.4088888888888889,-0.3422222222222222,-0.14333333333333334,-0.02417885234699772,0.013201906348749487,0.03251900895504267
1592179932.8716125,-9.22246963695289,-0.4984725177595181,2.758436835041084,0.39965263000912987,-0.34170909672890226,-0.14743833727989292,-0.09089166178056812,0.05033705369806623,-0.03606358629542346
1592179932.8816125,-9.54,-0.52,2.71,0.3888888888888889,-0.3411111111111111,-0.15222222222222223,-0.12435470920459597,0.032724923474893676,-0.16580627893946132
1592179932.8916125,-9.17121902623825,-0.36086993124736916,2.5277393012487726,0.3888888888888889,-0.3411111111111111,-0.15222222222222223,-0.06418826678873708,0.09477912914389622,0.10765105482222967
1592179932.9016125,-8.81,-0.28,2.49,0.3888888888888889,-0.3411111111111111,-0.15222222222222223,-0.06654067773228381,0.05890486225480862,0.044724062082354694
1592179932.9116125,-9.669906613701304,-0.2952533277580319,2.5847933653913167,0.3888888888888889,-0.3411111111111111,-0.15222222222222223,-0.06931576219003352,0.13200580497946346,-0.03290091296973508
1592179932.9216125,-9.350068567304222,-0.10569649945867918,2.5257307831107902,0.39135590841653634,-0.3356836681502867,-0.13890031677292594,-0.11793175898907371,0.11652344173018485,-0.0376984190021619
1592179932.9316125,-9.256254817145104,0.09488242233582384,2.2723692489186003,0.39444444444444443,-0.3288888888888889,-0.12222222222222222,-0.11591254543575749,0.04838939077691848,-0.03144801231746724
1592179932.9416125,-9.643464138936762,-0.43111547129789207,2.4844618851915685,0.39444444444444443,-0.3288888888888889,-0.12222222222222222,-0.1251572355660418,0.03905223370429988,0.05051114859823924
1592179932.9516125,-9.315027194096366,-0.39989122361453866,2.4450271940963653,0.39444444444444443,-0.3288888888888889,-0.12222222222222222,-0.15058467194688718,0.022065794572235967,0.07662176067053404
1592179932.9616125,-9.32,-0.38,2.45,0.39444444444444443,-0.3288888888888889,-0.12222222222222222,-0.05999569303730508,0.06763150851478027,0.025089107997418484
1592179932.9716125,-9.556477423540862,-0.518786681216268,2.6701173798920577,0.4023765987357576,-0.3334811887417544,-0.12222222222222222,-0.046641018551692406,0.09377303481484442,-0.023714365879341434
1592179932.9816124,-9.193434614028904,-0.24730654447185996,2.4819530019974154,0.41555555555555557,-0.3411111111111111,-0.12222222222222222,-0.06942751506572878,0.046174837544625924,-0.029092486447629542
1592179932.9916124,-9.265763532557635,-0.3040280889402809,2.5734581195345814,0.41555555555555557,-0.3411111111111111,-0.12222222222222222,-0.11743807314595828,0.08512006626346078,-0.04896303717777683
1592179933.0016124,-9.545990236431512,-0.5570680578156408,2.9209983727385853,0.41555555555555557,-0.3411111111111111,-0.12222222222222222,-0.13386791890713926,0.1047266465556361,0.033108755575636195
1592179933.0116124,-9.12823942823109,-0.3028874329958308,2.606936867182847,0.41555555555555557,-0.3411111111111111,-0.12222222222222222,-0.1131237649492635,0.039385163310322005,0.06959428926344022
1592179933.0216124,-9.310760095011878,-0.3858115597783056,2.4551543942992873,0.41329682414005453,-0.3433698425266121,-0.12222222222222222,-0.09113921416639431,0.029678715897803413,0.0007548583562168665
1592179933.0316124,-9.56,-0.73,2.74,0.41,-0.3466666666666667,-0.12222222222222222,-0.06654067773228381,0.06981317007977318,0.009817477042468103
1592179933.0416124,-9.645227182931649,-0.7070454365863296,2.4917676807585933,0.41,-0.3466666666666667,-0.12222222222222222,0.010990971335072347,-0.020563216170807752,0.07668872261757087
1592179933.0516124,-9.665500806964348,-0.6545297598669731,2.4272648799334866,0.41,-0.3466666666666667,-0.12222222222222222,-0.10453674074105393,0.04011946726391383,0.0005262897084818072
1592179933.0616124,-9.4,-0.54,2.37,0.41,-0.3466666666666667,-0.12222222222222222,-0.15053464798451094,0.2530727415391778,-0.04036073895236887
1592179933.0716124,-9.560122831591423,-0.3929975218187695,2.337248141364077,0.4045700295705683,-0.3485831268182308,-0.12222222222222222,-0.045632598010454856,0.051839908226593776,-0.00976388165007306
1592179933.0816123,-9.638032935215344,-0.4990576366268549,2.4150411690191818,0.39111111111111113,-0.35333333333333333,-0.12222222222222222,-0.1645008746751383,0.10566088289913854,0.01505705747312381
1592179933.0916123,-9.619138376114169,-0.5674531196726901,2.4445691880570846,0.39111111111111113,-0.35333333333333333,-0.12222222222222222,-0.1269529702613601,0.07878889406164553,0.06745596397699019
1592179933.1016123,-9.463260075010153,-0.5907692123933972,2.444139174888321,0.39111111111111113,-0.35333333333333333,-0.12222222222222222,-0.06871433936774263,-0.0589208360554744,0.11764990832775224
1592179933.1116123,-9.464440260533278,-0.73,2.6246566252798695,0.39111111111111113,-0.35333333333333333,-0.12222222222222222,-0.10378285736820439,-0.13266780337511558,0.024167596888183134
1592179933.1216123,-9.480505475468663,-0.678014601249768,2.64501825156221,0.3937585156770952,-0.352851987048609,-0.11909347137151381,-0.038249941232059576,-0.11696313777846365,0.043810390911567285
1592179933.1316123,-9.610271496420218,-0.5803185179934311,2.480684057560077,0.4033333333333333,-0.3511111111111111,-0.10777777777777778,-0.04247291067095904,-0.0015641916983667684,0.01795742898351571
1592179933.1416123,-9.786375042852246,-0.6012222603131071,2.4563750428522453,0.4033333333333333,-0.3511111111111111,-0.10777777777777778,-0.0006620773189523112,0.0066783126123548305,-0.09105331949307413
1592179933.1516123,-9.601577140112859,-0.43811237843678713,2.2992952335214314,0.4033333333333333,-0.3511111111111111,-0.10777777777777778,0.023079485730767194,-0.006956799836350072,-0.018765616040986755
1592179933.1616123,-9.537098308567515,-0.43434616335927245,2.404782054453091,0.4033333333333333,-0.3511111111111111,-0.10777777777777778,0.011461184424879384,-0.024283567268693913,0.04621020202054685
1592179933.1716123,-9.263410280897027,-0.28873579872888333,2.39144334310271,0.402581237673937,-0.34990775805607693,-0.10777777777777778,-0.045972337173465175,-0.10051800728060387,0.057404453556086504
1592179933.1816123,-9.710231231371088,-0.6219173807749627,2.72,0.3977777777777778,-0.3422222222222222,-0.10777777777777778,-0.04435620134762776,-0.04820570822695369,0.10657691586390025
1592179933.1916122,-9.603981651376147,-0.6390025020850709,2.5870158465387822,0.3977777777777778,-0.3422222222222222,-0.10777777777777778,0.03904955853224053,-0.10389549099210198,0.176932207050642
1592179933.2016122,-9.597709800901493,-0.6132859181408412,2.4363229065210987,0.3977777777777778,-0.3422222222222222,-0.10777777777777778,0.03975247891921982,-0.1536077472672707,0.10899230128312556
1592179933.2116122,-9.11417504663479,-0.5491807285747979,2.592603829413152,0.3977777777777778,-0.3422222222222222,-0.10777777777777778,-0.01386739009750694,-0.08468812679061155,0.0027705216737197932
1592179933.2216122,-9.342046421035546,-0.23448725856192176,2.462283070930044,0.3994575916608054,-0.3455818499882775,-0.11309718840736532,0.025656035471132762,-0.13487629529686637,0.08937878974912333
1592179933.2316122,-9.17,-0.04,2.38,0.40444444444444444,-0.35555555555555557,-0.1288888888888889,0.03381575425739013,-0.0916297857297023,-0.04036073895236887
1592179933.2416122,-9.391913064438373,-0.40926482403985215,2.7373517596014785,0.40444444444444444,-0.35555555555555557,-0.1288888888888889,-0.05543978443090872,0.020084514963426094,-0.023420812935988373
1592179933.2516122,-9.62,-0.43,2.53,0.40444444444444444,-0.35555555555555557,-0.1288888888888889,-0.04036073895236887,0.08944812416470939,-0.02945243112740431
1592179933.2616122,-9.371553484783888,-0.30401953021905515,2.609087439348722,0.40444444444444444,-0.35555555555555557,-0.1288888888888889,-0.039454182545923595,-0.01430997604500609,-0.01253714626180393
1592179933.2716122,-9.520838353413653,-0.4834312248995984,2.702592871485944,0.4033246876394467,-0.3550465751896475,-0.12563141454707719,-0.0319998933764874,0.029076225932838515,-0.01731091500817167
1592179933.2816122,-9.435955622793747,-0.25275592536560765,2.54786686838124,0.39222222222222225,-0.35,-0.09333333333333334,0.007635815477475192,-0.06614791263964515,0.0017982480221789762
1592179933.2916121,-9.43649952244508,-0.3813018147086915,2.544098376313276,0.39222222222222225,-0.35,-0.09333333333333334,-0.04508590117572721,-0.054127085939266836,-0.04099189968592794
1592179933.3016121,-9.397107572558696,-0.5576015567369572,2.480740976267392,0.39222222222222225,-0.35,-0.09333333333333334,-0.13051469969645774,-0.06647721958867815,0.10587226821664482
1592179933.3116121,-9.460376588386682,-0.6640753176773363,2.6356301270709346,0.39222222222222225,-0.35,-0.09333333333333334,-0.008607070712557886,-0.07218761760620537,0.11198585581306422
1592179933.3216121,-9.62336548767417,-0.7240276289150887,2.6851173037989757,0.3895524856761013,-0.34958927130059675,-0.09333333333333334,-0.03950309159902343,-0.04128606795840939,-0.043390954366506335
1592179933.331612,-9.488614617240007,-0.7276910287333442,2.7752043181977846,0.37777777777777777,-0.3477777777777778,-0.09333333333333334,0.03535415186517101,-0.02711384912363951,0.006678710642719382
1592179933.341612,-9.297184965380811,-0.5026943620178042,2.6378641608968016,0.37777777777777777,-0.3477777777777778,-0.09333333333333334,0.054456732696035244,0.03466288344469384,-0.06202917712706274
1592179933.351612,-9.301729387200156,-0.5719080800233077,2.6498213071768477,0.37777777777777777,-0.3477777777777778,-0.09333333333333334,0.05249145101150131,0.05843010668019874,0.018048471702594618
1592179933.361612,-9.753109965298881,-0.8772170486403826,2.731160625012253,0.37777777777777777,-0.3477777777777778,-0.09333333333333334,-0.01716755546257989,0.0189109984778809,0.11691194427848814
1592179933.371612,-9.508640769903762,-0.5576699912510936,2.5933980752405947,0.3791370078740157,-0.3467961115971615,-0.09333333333333334,0.04800712871249504,0.04636559539742486,-0.06308811718528314
1592179933.381612,-9.49,-0.8,2.64,0.3977777777777778,-0.3333333333333333,-0.09333333333333334,0.0032724923474893677,0.02399827721492203,0.014180800172453926
1592179933.391612,-9.64476824658331,-0.8508141901715615,2.581221285257342,0.3977777777777778,-0.3333333333333333,-0.09333333333333334,0.06799951720156491,0.07016842756055132,0.11316149756781452
1592179933.401612,-9.37,-0.77,2.46,0.3977777777777778,-0.3333333333333333,-0.09333333333333334,0.009817477042468103,0.03490658503988659,-0.053450708342326333
1592179933.411612,-9.583542606595921,-1.071814831289318,2.6543629662578634,0.3977777777777778,-0.3333333333333333,-0.09333333333333334,0.12711703350486073,0.10912681684173782,-0.015262134620375685
1592179933.421612,-9.315488565488566,-0.7543908523908524,2.6042702702702702,0.3985095865095865,-0.3349189189189189,-0.09260152460152461,0.15674399243872153,0.007114665968498711,-0.04461611292383737
1592179933.431612,-9.403294094613445,-0.780379090085901,2.683921587822129,0.40444444444444444,-0.3477777777777778,-0.08666666666666667,-0.002967355521568942,-0.1132795772304471,0.08119343887984248
1592179933.441612,-9.496939168187872,-0.6262001085401352,2.516173960234841,0.40444444444444444,-0.3477777777777778,-0.08666666666666667,0.04825267282216241,-0.0534535606799588,0.1361665622467559
1592179933.451612,-9.38,-0.29,2.37,0.40444444444444444,-0.3477777777777778,-0.08666666666666667,0.016362461737446838,-0.032724923474893676,-0.0272707695624114
1592179933.461612,-9.5278961800502,-0.5605300681305238,2.469475416060242,0.40444444444444444,-0.3477777777777778,-0.08666666666666667,0.04805018826633079,-0.03237799469473629,0.026581697861379868
1592179933.471612,-9.563987266452457,-0.6748101868380341,2.529019100321314,0.4028410488317664,-0.3472433125735518,-0.08706751556983618,-0.054962592277628605,0.029956305896208308,0.022120381451552554
1592179933.481612,-9.455837285662168,-0.7665231667274717,2.6652790952207224,0.37777777777777777,-0.3388888888888889,-0.09333333333333334,0.043909819185241325,-0.1251550232153951,0.04406303693469814
1592179933.491612,-9.411937238877922,-0.8161255222441577,2.6267531334649465,0.37777777777777777,-0.3388888888888889,-0.09333333333333334,-0.00616251030510107,-0.1329549240651639,0.1470791318504813
1592179933.501612,-9.415121485967715,-0.7674765731181001,2.53325234268819,0.37777777777777777,-0.3388888888888889,-0.09333333333333334,-0.007758114205134375,-0.04240987988413687,0.08686473910998956
1592179933.511612,-9.399449653808112,-0.5851505440158259,2.55,0.37777777777777777,-0.3388888888888889,-0.09333333333333334,0.10081973835763039,-0.06421741316838404,-0.06299520794862075
1592179933.521612,-9.457530959446094,-0.4938799208704253,2.55,0.37777777777777777,-0.3388888888888889,-0.09333333333333334,0.15060014098994864,-0.029823680440600533,-0.10825011943254642
1592179933.531612,-9.454473128264654,-0.5210537434706907,2.6011828206616365,0.38555555555555554,-0.35888888888888887,-0.11555555555555555,0.06129055919100464,0.01461011774078039,-0.002728229197694502
1592179933.541612,-9.46424204799422,-0.532224981375714,2.6304034133237013,0.38555555555555554,-0.35888888888888887,-0.11555555555555555,-0.012527205413336219,0.027985521429624967,0.03698957267785367
1592179933.551612,-9.4443873545993,-0.7187747091986013,2.59,0.38555555555555554,-0.35888888888888887,-0.11555555555555555,0.062216172910312326,-0.06800230639013112,0.05946967382603059
1592179933.561612,-9.46879691475827,-0.7675938295165394,2.5924061704834602,0.38555555555555554,-0.35888888888888887,-0.11555555555555555,0.1861299413905729,-0.07581638242523912,-0.007406997760854195
1592179933.571612,-9.46045900922392,-0.7509180184478371,2.609081981552163,0.38555555555555554,-0.35888888888888887,-0.11555555555555555,0.16066325813900312,-0.026702064725783056,-0.09654038914134855
1592179933.5816119,-9.44,-0.6039905141252043,2.6346635047084015,0.39222222222222225,-0.3511111111111111,-0.07222222222222222,0.012827690803131545,-0.08125638256261561,-0.016205290484324487
1592179933.5916119,-9.438554775313449,-0.5285547753134487,2.6071095506268973,0.39222222222222225,-0.3511111111111111,-0.07222222222222222,0.044698629841348154,-0.09318084906440965,0.07905091337396883
1592179933.6016119,-9.428823391812866,-0.5188233918128655,2.5982362573099413,0.39222222222222225,-0.3511111111111111,-0.07222222222222222,0.03548453398078823,-0.07609992769828726,0.08193836024432267
1592179933.6116118,-9.416663308641976,-0.51,2.670010074074074,0.39222222222222225,-0.3511111111111111,-0.07222222222222222,0.058353402853002556,0.01116810331621512,-0.054895625490230485
1592179933.6216118,-9.383523160493828,-0.51,2.769430518518518,0.39222222222222225,-0.3511111111111111,-0.07222222222222222,-0.001294581812210746,-0.11626168210492244,0.039095138224651105
1592179933.6316118,-9.374498804236419,-0.46950279011502105,2.7755011957635802,0.38555555555555554,-0.3466666666666667,-0.07222222222222222,0.07832373718440097,-0.13068187557660133,-0.017624699912459938
1592179933.6416118,-9.40326404745651,-0.40673595254349,2.7347677785362867,0.38555555555555554,-0.3466666666666667,-0.07222222222222222,0.046514954530612336,-0.11341309690174958,0.11630827544970497
1592179933.6516118,-9.4309698408929,-0.37127143196390405,2.613879363571598,0.38555555555555554,-0.3466666666666667,-0.07222222222222222,0.1349830431730604,-0.04150576156571269,-0.13844841906380478
1592179933.6616118,-9.44,-0.28846602702173485,2.65306794595653,0.38555555555555554,-0.3466666666666667,-0.07222222222222222,-0.009148155064784357,-0.11832762883668188,-0.050393285020663425
1592179933.6716118,-9.44,-0.27204033679263756,2.6859193264147248,0.38555555555555554,-0.3466666666666667,-0.07222222222222222,-0.001981095654524109,-0.06547056568601256,0.122512023251865
1592179933.6816118,-9.416799981311032,-0.22253328972573938,2.702133345792646,0.38555555555555554,-0.3333333333333333,-0.08666666666666667,-0.056475810481983274,-0.09747653271407031,-0.10551972147774343
1592179933.6916118,-9.39,-0.15825128096148852,2.711256404807443,0.38555555555555554,-0.3333333333333333,-0.08666666666666667,0.12170733699809948,0.044813000683378526,-0.11597263885093675
1592179933.7016118,-9.390780916718017,-0.14156183343603357,2.627028250462151,0.38555555555555554,-0.3333333333333333,-0.08666666666666667,-0.03930537813796232,-0.05876763587680484,0.11888863717601351
1592179933.7116117,-9.4,-0.15704115554345924,2.71,0.38555555555555554,-0.3333333333333333,-0.08666666666666667,-0.007029612231913581,-0.0816121000242052,-0.025231317434371407
1592179933.7216117,-9.4,-0.11627150605571648,2.71,0.38555555555555554,-0.3333333333333333,-0.08666666666666667,-0.08885954335310363,-0.06382298456307692,-0.057251725264402295
1592179933.7316117,-9.367617092290462,-0.004042730726158846,2.743574361564305,0.38555555555555554,-0.3333333333333333,-0.04888888888888889,-0.08704866052454815,-0.0027571016896870307,0.05644982830623538
1592179933.7416117,-9.349556687280224,0.043989814477991995,2.7682267491208923,0.38555555555555554,-0.3333333333333333,-0.04888888888888889,0.0012414598712689748,-0.03752902319025493,-0.06634724606788187
1592179933.7516117,-9.338799498212975,0.11679448034273,2.739003763402684,0.38555555555555554,-0.3333333333333333,-0.04888888888888889,-0.04044712963139638,0.007202493670506079,-0.057593949539248665
1592179933.7616117,-9.317831034683993,-0.09303655144241056,2.8804337930632014,0.38555555555555554,-0.3333333333333333,-0.04888888888888889,-0.015254252185310752,0.11999138607461016,0.018865428955532934
1592179933.7716117,-9.277036006769507,-0.15014959052269147,2.888592798646099,0.38555555555555554,-0.3333333333333333,-0.04888888888888889,-0.15854577273990575,0.11999138607461016,0.10697636395494228
1592179933.7816117,-9.2,-0.22,2.9,0.3688888888888889,-0.3411111111111111,-0.09333333333333334,-0.00545415391248228,0.16907877128695067,-0.031634092692397225
1592179933.7916117,-9.180572540750953,-0.31713729624523557,2.812576433379288,0.3688888888888889,-0.3411111111111111,-0.09333333333333334,-0.14002380206091333,0.19662846303387355,0.006511634341803713
1592179933.8016117,-8.03,0.59,1.93,0.3688888888888889,-0.3411111111111111,-0.09333333333333334,-0.2781618495365963,0.42869649752110717,-0.3196134192714616
1592179933.8116117,-11.284320515882495,-1.131762598519226,4.096393599235729,0.3688888888888889,-0.3411111111111111,-0.09333333333333334,-0.08621887946706344,0.101567887241312,-0.003836274963520514
1592179933.8216116,-10.05657648004286,0.15624229841950177,2.154227163139566,0.3688888888888889,-0.3411111111111111,-0.09333333333333334,0.1609452441753241,0.08290313946973066,0.05964430701642321
1592179933.8316116,-9.34,0.26,2.08,0.38333333333333336,-0.35333333333333333,-0.09333333333333334,-0.06872233929727672,0.22798363354175932,-0.04690572364734761
1592179933.8416116,-9.270397277910613,-0.6392621981660054,3.268723035287317,0.38333333333333336,-0.35333333333333333,-0.09333333333333334,-0.0031084335072936267,0.1472477102045515,-0.1013358265788299
1592179933.8516116,-9.69,0.14,1.92,0.38333333333333336,-0.35333333333333333,-0.09333333333333334,0.17016960206944715,0.13199052468207118,0.016362461737446838
1592179933.8616116,-9.244246963562754,-0.5964615384615384,3.005311740890688,0.38333333333333336,-0.35333333333333333,-0.09333333333333334,-0.1194609861678173,0.12353415714229701,0.09035567771047061
1592179933.8716116,-8.930041057789943,-0.3927583771135932,2.767310052536312,0.38333333333333336,-0.35333333333333333,-0.09333333333333334,-0.11781121741298828,0.09054343365731896,-0.15417001216750914
1592179933.8816116,-9.86,-0.9,2.77,0.3566666666666667,-0.3411111111111111,-0.07222222222222222,0.044724062082354694,0.05890486225480862,0.05999569303730508
1592179933.8916116,-9.493518167520264,-0.6229039803202,2.519719724160181,0.3566666666666667,-0.3411111111111111,-0.07222222222222222,-0.12590933112875716,0.045254190797919674,0.11069818702003545
1592179933.9016116,-10.156255285974154,-1.0779382928961232,2.877012686337972,0.3566666666666667,-0.3411111111111111,-0.07222222222222222,-0.10099746805749032,0.05041076712954953,0.16483937750169364
1592179933.9116116,-9.932557136355543,-1.0085632309001327,2.413025901814512,0.3566666666666667,-0.3411111111111111,-0.07222222222222222,-0.08934751743543744,0.028354952228062592,0.1069246850936111
1592179933.9216115,-9.310097354413598,-0.31970773888438164,2.130844134000831,0.3566666666666667,-0.3411111111111111,-0.07222222222222222,0.0029962501416918447,0.10078143660228164,-0.14656801021615556
1592179933.9316115,-9.6,-0.59,2.28,0.38333333333333336,-0.36,-0.07222222222222222,0.07744898555724837,0.07199483164476608,0.0818123086872342
1592179933.9416115,-9.507544026653974,-0.6917015706806282,2.3632103760114234,0.38333333333333336,-0.36,-0.07222222222222222,-0.05567805915475364,0.053841143729493085,0.04147077998662752
1592179933.9516115,-9.38,-0.72,2.43,0.38333333333333336,-0.36,-0.07222222222222222,0.07744898555724837,-0.02181661564992912,0.062177354602297986
1592179933.9616115,-9.388199256446766,-0.6134096661920582,2.479195538680589,0.38333333333333336,-0.36,-0.07222222222222222,0.0076857752166830245,-0.012872614324215612,-0.061249863692548374
1592179933.9716115,-9.469155728681514,-0.7562270302311797,2.5058311457363027,0.38333333333333336,-0.36,-0.07222222222222222,0.1279266280895959,0.21013618614427243,-0.005465608143749079
1592179933.9816115,-9.452116258483327,-1.0178315137208616,2.51,0.3917519425592604,-0.34842441231435034,-0.06380361299629521,0.003491205689686583,0.05345566520100162,-0.04355842779621345
1592179933.9916115,-9.524565883554647,-0.7783401430030643,2.4354341164453523,0.39222222222222225,-0.3477777777777778,-0.06333333333333334,0.029114819557336462,-0.048021067481136104,0.10153751537010933
1592179934.0016115,-9.577397895964431,-0.2575823027770353,2.1550922034063027,0.39222222222222225,-0.3477777777777778,-0.06333333333333334,0.027497845976911985,0.11090832949458668,0.04410749979162855
1592179934.0116115,-9.609488855869241,-0.3602555720653789,2.241192669638435,0.39222222222222225,-0.3477777777777778,-0.06333333333333334,-0.09805752907757766,0.0027392333171159145,0.002568395925622413
1592179934.0216115,-9.559630906389302,-0.3851845468053492,2.3575278850916295,0.39222222222222225,-0.3477777777777778,-0.06333333333333334,0.019780074019645752,0.057125819361988246,0.14669284894453408
1592179934.0316114,-9.51,-0.36,2.39,0.38555555555555554,-0.36,-0.056666666666666664,0.04036073895236887,-0.06981317007977318,-0.10362892433716332
1592179934.0416114,-9.501421195983577,-0.3685788040164234,2.484366844180658,0.38555555555555554,-0.36,-0.056666666666666664,0.032874320153873746,-0.00805021499218836,-0.03063634105183581
1592179934.0516114,-9.454854277729503,-0.36097085554590075,2.463883422183603,0.38555555555555554,-0.36,-0.056666666666666664,0.04936277637064673,-0.0825220493421992,-0.0008154396241902388
1592179934.0616114,-9.44085590596885,-0.37828818806230047,2.4691440940311504,0.38555555555555554,-0.36,-0.056666666666666664,-0.09635591008153419,-0.0916297857297023,0.09684755955581599
1592179934.0716114,-9.44,-0.37255000096995095,2.5221499932103435,0.38555555555555554,-0.36,-0.056666666666666664,0.013351752695361332,-0.028241617211641354,-0.025841764096893427
