time,acc_x,acc_y,acc_z,mag_x,mag_y,mag_z,gyr_x,gyr_y,gyr_z
1592284920.9779902,-0.651552422378881,9.615498725063746,0.8317129143542823,-0.46931386763995137,-0.5966666666666667,-0.12605136409846174,0.041547121733812066,-0.03992175605309814,-0.03328547338652302
1592284920.9879901,-0.16248236583738446,9.860555714421885,0.7544964731674768,-0.47555555555555556,-0.5966666666666667,-0.13333333333333333,0.0223809549952727,-0.0240721274258903,0.0008086611098246646
1592284920.9979901,-0.49885850633969625,9.714292531698481,0.7373206074961682,-0.47555555555555556,-0.5966666666666667,-0.13333333333333333,0.040558325690176505,-0.02383051847503343,-0.010856859278235417
1592284921.0079901,-0.5140116071640939,9.816125157576767,0.5407045168042243,-0.47555555555555556,-0.5966666666666667,-0.13333333333333333,0.043940634746591774,-0.000576381462625378,-0.018198294424864522
1592284921.01799,-0.35234921020656135,9.712013608748482,0.558321992709599,-0.47555555555555556,-0.5966666666666667,-0.13333333333333333,0.05232326911971743,-0.016032985776434725,-0.008763254700084105
1592284921.02799,-0.42,9.772259405528995,0.5167782165869882,-0.47555555555555556,-0.596164576549112,-0.13274756152951955,0.05126904677733343,-0.006298521784861577,-0.009571014132350945
1592284921.03799,-0.38728501287062633,9.778190008580419,0.5963650014300695,-0.47555555555555556,-0.59,-0.12555555555555556,0.0516655636107745,-0.004462042847812571,-0.006148467861537667
1592284921.04799,-0.34934177123377097,9.742763110176254,0.5678951185899761,-0.47555555555555556,-0.59,-0.12555555555555556,0.049345791924143914,-0.004435124749998555,-0.0063583796031880715
1592284921.05799,-0.40352059017074776,9.75,0.5121123541024487,-0.47555555555555556,-0.59,-0.12555555555555556,0.04183560654794594,0.001551674958193189,-0.009187490435668381
1592284921.06799,-0.44725938157799233,9.758221855266022,0.5509624736880308,-0.47555555555555556,-0.59,-0.12555555555555556,0.04750363383490818,0.005543129821013193,-0.014673720767389813
1592284921.07799,-0.4305729474305966,9.78606024808033,0.5820200826934435,-0.47555555555555556,-0.5900748178775349,-0.12607928069830018,0.048867028373820856,-0.0002938091180262161,-0.012722707992424701
1592284921.08799,-0.3282005789522831,9.852374638154823,0.6064749276309646,-0.47555555555555556,-0.5911111111111111,-0.13333333333333333,0.0461994186099183,-0.0032097458947843707,-0.008789392712676645
1592284921.09799,-0.39473984541163043,9.80526015458837,0.5705203091767391,-0.47555555555555556,-0.5911111111111111,-0.13333333333333333,0.04610178979213533,0.0013209707831403881,-0.011176285776701987
1592284921.10799,-0.4382559526897339,9.761744047310266,0.4834880946205322,-0.47555555555555556,-0.5911111111111111,-0.13333333333333333,0.04372835432446666,0.008441277186146382,-0.011967430932591542
1592284921.11799,-0.41065249806534415,9.78,0.5493475019346559,-0.47555555555555556,-0.5911111111111111,-0.13333333333333333,0.044724062082354694,0.00956256347122391,-0.010398480682476173
1592284921.12799,-0.3810287246265799,9.780514362313289,0.58,-0.47555555555555556,-0.5918540788969744,-0.1336762415421933,0.044724062082354694,0.009007187382318017,-0.008558321586563826
1592284921.13799,-0.4,9.79,0.58,-0.47555555555555556,-0.6055555555555555,-0.14,0.044724062082354694,0.014180800172453926,-0.00545415391248228
1592284921.14799,-0.4137359054281159,9.785421364857294,0.6074718108562318,-0.47555555555555556,-0.6055555555555555,-0.14,0.04622241692899959,0.01617860663464712,-0.005953605528030578
1592284921.15799,-0.44869269797940836,9.776261460404118,0.6175687624247099,-0.47555555555555556,-0.6055555555555555,-0.14,0.05044342287350581,0.013786323550875229,-0.009263727410158462
1592284921.16799,-0.5483547792169249,9.755274203463845,0.47977826298942194,-0.47555555555555556,-0.6055555555555555,-0.14,0.06633702422918995,-0.018052806624770275,-0.025772631773727236
1592284921.17799,-0.44165899985161006,9.773056833358064,0.5464631250927438,-0.47555555555555556,-0.6055555555555555,-0.14,0.06197251021065987,-0.01271840060212239,-0.017043603736667058
1592284921.18799,-0.34751708428246014,9.79125284738041,0.5993507972665147,-0.47555555555555556,-0.6051379397620855,-0.13735509997468998,0.05788236369672823,-0.007704147701891257,-0.008999975157635908
1592284921.19799,-0.44528287004947537,9.79233944405937,0.43705657400989506,-0.47555555555555556,-0.5988888888888889,-0.09777777777777778,0.06147348599561387,-0.010332036097974928,-0.012447813454756158
1592284921.20799,-0.39374658789215866,9.752321916015406,0.42071233593837637,-0.47555555555555556,-0.5988888888888889,-0.09777777777777778,0.06661838152918977,-0.01570049065083969,-0.010148462585771678
1592284921.21799,-0.3406945077596972,9.761389015519393,0.3926044040988643,-0.47555555555555556,-0.5988888888888889,-0.09777777777777778,0.06336288419016449,-0.020801543911728695,-0.007616875716401184
1592284921.22799,-0.37394763443204565,9.827895268864092,0.5173036291201712,-0.47555555555555556,-0.5988888888888889,-0.09777777777777778,0.06789707596372095,-0.02442889733057386,-0.006710037361689891
1592284921.23799,-0.34452224725778097,9.784522247257781,0.56,-0.4811111111111111,-0.5988888888888889,-0.11888888888888889,0.0752564121732016,-0.026421133196130393,-0.011631891073610907
1592284921.24799,-0.2962517140642699,9.732083904688091,0.5349931437429202,-0.4811111111111111,-0.5988888888888889,-0.11888888888888889,0.08517632685128788,-0.027725407038722845,-0.015317393863232543
1592284921.25799,-0.3255437162458035,9.748007590132827,0.4344562837541965,-0.4811111111111111,-0.5988888888888889,-0.11888888888888889,0.09475213161274938,-0.02898208896837723,-0.019634954084936207
1592284921.2679899,-0.3940171823174379,9.871775868631396,0.35887934315697895,-0.4811111111111111,-0.5988888888888889,-0.11888888888888889,0.10927679546652523,-0.02162289843304948,-0.019828671301815846
1592284921.2779899,-0.32559839051710077,9.879377956609211,0.39688978304605516,-0.4811111111111111,-0.5988888888888889,-0.11888888888888889,0.11010605462426995,-0.02079363927530477,-0.020657930459560554
1592284921.2879899,-0.19950519611129736,9.914427086825343,0.4,-0.4705917234700339,-0.6046267366931128,-0.11888888888888889,0.10360193697150853,-0.031053169534142486,-0.029175463231104343
1592284921.2979898,-0.14228387346629817,9.938858063266851,0.34971183128839756,-0.4688888888888889,-0.6055555555555555,-0.11888888888888889,0.09910960090304241,-0.027925033762619456,-0.044257232516398536
1592284921.3079898,-0.12844474153297683,9.924665775401069,0.29466577540106953,-0.4688888888888889,-0.6055555555555555,-0.11888888888888889,0.09063569083210637,-0.014034967180141565,-0.0717046239900645
1592284921.3179898,-0.24868762122283247,9.933681730019758,0.34868762122283253,-0.4688888888888889,-0.6055555555555555,-0.11888888888888889,0.0730565166594412,-0.0015494515008466071,-0.09981165922899166
1592284921.3279898,-0.33231968386897964,9.87285841173165,0.4323196838689797,-0.4688888888888889,-0.6055555555555555,-0.11888888888888889,0.062274975128576104,0.01503753546971509,-0.11556929685102527
1592284921.3379898,-0.45006135408708936,9.827987729182583,0.4879877291825821,-0.4622222222222222,-0.6111111111111112,-0.14,0.05126904677733343,0.05126904677733343,-0.13962634015954636
1592284921.3479898,-0.4859673931126268,9.817983696556313,0.46185326900682083,-0.4622222222222222,-0.6111111111111112,-0.14,0.0523687697089469,0.054128326399528436,-0.1416058414364506
1592284921.3579898,-0.434241530262657,9.829865816520746,0.3919865816520746,-0.4622222222222222,-0.6111111111111112,-0.14,0.05650649824801314,0.06935049090223352,-0.15074403185282986
1592284921.3679898,-0.2885281593528961,9.918831043882623,0.3896971154702728,-0.4622222222222222,-0.6111111111111112,-0.14,0.053384629188612656,0.0878142004788673,-0.15839709552417883
1592284921.3779898,-0.28105528533504376,9.963668287989739,0.3373869973453062,-0.4622222222222222,-0.6111111111111112,-0.14,0.04197233177126479,0.10167199019993256,-0.17062455704276583
1592284921.3879898,-0.277796743697479,9.932419069900687,0.2673651165011459,-0.45666666666666667,-0.6088888888888889,-0.09777777777777778,0.020127400850048122,0.1273633219608173,-0.2043316315587618
1592284921.3979897,-0.39297326013812645,9.91,0.1923162741278555,-0.45666666666666667,-0.6088888888888889,-0.09777777777777778,0.00237116129894528,0.12569820629902892,-0.2295925461657035
1592284921.4079897,-0.507109298140372,9.91,0.0895505698860228,-0.45666666666666667,-0.6088888888888889,-0.09777777777777778,-0.00899294769683113,0.10809029790773057,-0.24873281859442414
1592284921.4179897,-0.5372786582987625,9.904557316597526,0.18952469595433108,-0.45666666666666667,-0.6088888888888889,-0.09777777777777778,-0.016310614109040767,0.08494349159020168,-0.26591058950745305
1592284921.4279897,-0.5224068361521824,9.874813672304365,0.24157607346736162,-0.45666666666666667,-0.6088888888888889,-0.09777777777777778,-0.02198853859529652,0.06628745399250421,-0.2764553064104995
1592284921.4379897,-0.4320173178760555,9.853193072849578,0.47957921854873337,-0.4633333333333333,-0.5988888888888889,-0.1111111111111111,-0.022036670893657295,0.0462550033523075,-0.30306735699011667
1592284921.4479897,-0.38838489295164785,9.87161510704835,0.5170791436131826,-0.4633333333333333,-0.5988888888888889,-0.1111111111111111,-0.015162941488962885,0.03779296999902732,-0.3300006369429786
1592284921.4579897,-0.37337570687479554,9.889936439687807,0.44668785343739775,-0.4633333333333333,-0.5988888888888889,-0.1111111111111111,-0.0014659966341761968,0.04253546716285323,-0.36121097180511547
1592284921.4679897,-0.3059048660470203,9.95477455804629,0.43227300893019865,-0.4633333333333333,-0.5988888888888889,-0.1111111111111111,0.008007735693967696,0.04824450124083906,-0.3941375787601399
1592284921.4779897,-0.07658283214871514,10.054147439402223,0.447561144523419,-0.4633333333333333,-0.5988888888888889,-0.1111111111111111,0.010509251030777366,0.04991217813204551,-0.4258234396930623
1592284921.4879897,-0.17092466765140327,10.018067208271788,0.319327917282127,-0.45111111111111113,-0.6055555555555555,-0.1111111111111111,0.026500742928799795,0.04186413579374009,-0.5173563876846389
1592284921.4979897,-0.29794944008583113,10.020252799570844,0.373342721115805,-0.45111111111111113,-0.6055555555555555,-0.1111111111111111,0.011272942134006658,0.07202240780013397,-0.5730170746750539
1592284921.5079896,-0.2964665923147115,10.050300111527934,0.27969988847206734,-0.45111111111111113,-0.6055555555555555,-0.1111111111111111,-0.00405602582397686,0.07935608690551742,-0.6366850689957941
1592284921.5179896,-0.16715872223608685,10.102763913151984,0.3537147491889194,-0.45111111111111113,-0.6055555555555555,-0.1111111111111111,-0.023536981292551117,0.09524719512271775,-0.7149765563825916
1592284921.5279896,0.6029452030375415,10.588751827159614,0.4658658062676031,-0.45111111111111113,-0.6055555555555555,-0.1111111111111111,-0.016196711771494406,0.09687836612739702,-0.7997974486259137
1592284921.5379896,0.35,10.32,0.64,-0.42777777777777776,-0.6444444444444445,-0.11888888888888889,-0.061086523819801536,0.24107360293171679,-0.9544769346843989
1592284921.5479896,-0.7643085032980984,10.006241823751829,-0.3186313581541688,-0.42777777777777776,-0.6444444444444445,-0.11888888888888889,-0.07982970800966067,0.24234452782016344,-1.0727361117028311
1592284921.5579896,-0.9644949793266391,9.820965623154164,0.20179799173065566,-0.42777777777777776,-0.6444444444444445,-0.11888888888888889,-0.16154586631897364,0.24166441698624597,-1.146573330823035
1592284921.5679896,-0.7480958144408115,10.026191628881623,0.13719493469660565,-0.42777777777777776,-0.6444444444444445,-0.11888888888888889,-0.17758028356766004,0.22283546478726252,-1.202296990127635
1592284921.5779896,-0.679904438463067,9.889808876926134,0.235693588886681,-0.42777777777777776,-0.6444444444444445,-0.11888888888888889,-0.18253930036881424,0.2120909283847618,-1.2659377057424472
1592284921.5879896,-0.69,9.94,0.25,-0.4033333333333333,-0.6444444444444445,-0.1111111111111111,-0.18653206380689397,0.20616701789183017,-1.3820826014230096
1592284921.5979896,-0.787660979636764,9.986491469455146,0.15824573472757292,-0.4033333333333333,-0.6444444444444445,-0.1111111111111111,-0.2048719189894964,0.19545007072284842,-1.501390942520853
1592284921.6079895,-0.8327625597943787,9.87298579214165,0.21460172778980935,-0.4033333333333333,-0.6444444444444445,-0.1111111111111111,-0.24393267563068388,0.1997349350525138,-1.6329996937355191
1592284921.6179895,-1.2206461128898802,9.600730294636111,0.5748595172140878,-0.4033333333333333,-0.6444444444444445,-0.1111111111111111,-0.27628047351132573,0.20612718649836204,-1.7333025649748344
1592284921.6279895,-1.3338139007806598,9.49510702593805,0.4918698060941828,-0.4033333333333333,-0.6444444444444445,-0.1111111111111111,-0.2779264322662363,0.211888042140549,-1.8049017708134436
1592284921.6379895,-1.69,9.43,0.39,-0.35888888888888887,-0.6711111111111111,-0.12555555555555556,-0.26289021858164585,0.22143864884678055,-1.9100447001512944
1592284921.6479895,-1.93568547573912,9.344955027628766,0.3522022345016738,-0.35888888888888887,-0.6711111111111111,-0.12555555555555556,-0.25670557366437236,0.19051542426041307,-1.9842604391585763
1592284921.6579895,-2.3107154718070895,9.228484345293962,0.1453683247900272,-0.35888888888888887,-0.6711111111111111,-0.12555555555555556,-0.26355847811523503,0.13996855540467004,-2.0652687155542564
1592284921.6679895,-2.6056345177664975,9.099176103084732,0.2432292073408825,-0.35888888888888887,-0.6711111111111111,-0.12555555555555556,-0.28095814164401106,0.09820160460636682,-2.120368460568069
1592284921.6779895,-2.7024111675126905,9.032176884029676,0.32511714174150724,-0.35888888888888887,-0.6711111111111111,-0.12555555555555556,-0.29151483650101356,0.05110250447512487,-2.1528505985896147
1592284921.6879895,-3.12,8.69,0.67,-0.2911111111111111,-0.6977777777777778,-0.13333333333333333,-0.2923426497090502,-0.016362461737446838,-2.195842365165366
1592284921.6979895,-3.3775892395240557,8.620649050897368,0.5709272155676708,-0.2911111111111111,-0.6977777777777778,-0.13333333333333333,-0.2664054553971093,-0.0660754175020002,-2.212053111610329
1592284921.7079895,-3.570851895817331,8.591890929404371,0.4534753159695552,-0.2911111111111111,-0.6977777777777778,-0.13333333333333333,-0.257229796268982,-0.11941904458311665,-2.2027998866607077
1592284921.7179894,-3.7350458147372256,8.521350031879042,0.4929749521814373,-0.2911111111111111,-0.6977777777777778,-0.13333333333333333,-0.26547502751735175,-0.15118368186770426,-2.188353815320992
1592284921.7279894,-3.78852992075781,8.42966299298661,0.6305055105200839,-0.2911111111111111,-0.6977777777777778,-0.13333333333333333,-0.2813107428774889,-0.18118819518164833,-2.1783523108830107
1592284921.7379894,-3.82,8.43,0.75,-0.21333333333333335,-0.7244444444444444,-0.12555555555555556,-0.2923426497090502,-0.20180369476184434,-2.167480764820458
1592284921.7479894,-3.9523081216857383,8.392197679518361,0.7689011602408198,-0.21333333333333335,-0.7244444444444444,-0.12555555555555556,-0.3129606171246345,-0.19768010127872748,-2.175727951786692
1592284921.7579894,-4.275393338394382,8.260224425887264,0.845843376352249,-0.21333333333333335,-0.7244444444444444,-0.12555555555555556,-0.3540052549496421,-0.1730743608474908,-2.1817718591852397
1592284921.7679894,-4.349423445581799,8.0567627590697,1.2996408290230406,-0.21333333333333335,-0.7244444444444444,-0.12555555555555556,-0.36975245579051386,-0.14366024793875043,-2.1684540571756004
1592284921.7779894,-4.576987014865989,8.018835497522335,1.1782735920714724,-0.21333333333333335,-0.7244444444444444,-0.12555555555555556,-0.3565133439851827,-0.10146057905925734,-2.1287367217596067
1592284921.7879894,-5.11,7.86,0.93,-0.13333333333333333,-0.7355555555555555,-0.13333333333333333,-0.3425208657038872,-0.07090400086226964,-2.023491101530926
1592284921.7979894,-5.312197985967209,7.991868251717745,0.9827473006870978,-0.13333333333333333,-0.7355555555555555,-0.13333333333333333,-0.3482747036321954,-0.08816551464719447,-1.9295117487018907
1592284921.8079894,-5.524530187830124,7.708657713351808,0.9857718089012056,-0.13333333333333333,-0.7355555555555555,-0.13333333333333333,-0.381397269697502,-0.06651871591023398,-1.7869180960357254
1592284921.8179893,-5.844992160325842,7.813010975543821,1.0585023519022474,-0.13333333333333333,-0.7355555555555555,-0.13333333333333333,-0.377643564478378,-0.039867214055297646,-1.6574706145639255
1592284921.8279893,-5.920582839223602,7.707184025086957,1.0358251482329195,-0.13333333333333333,-0.7355555555555555,-0.13333333333333333,-0.3974331579371335,-0.06542877227285697,-1.5824350726994771
1592284921.8379893,-5.81,7.49,1.47,-0.035555555555555556,-0.75,-0.14,-0.38615409700374537,-0.12980886311707826,-1.4726215563702154
1592284921.8479893,-5.979323344225711,7.727052681915995,1.376872160675859,-0.035555555555555556,-0.75,-0.14,-0.358448629592248,-0.15104972146589293,-1.4042814034218551
1592284921.8579893,-5.748507291142878,7.570048607619184,1.536019443047674,-0.035555555555555556,-0.75,-0.14,-0.3853452528871454,-0.16532309337699208,-1.3582034815969186
1592284921.8679893,-5.737608734181702,7.38,1.4567984119669632,-0.035555555555555556,-0.75,-0.14,-0.3472323452397288,-0.1348701230668883,-1.3174174597264918
1592284921.8779893,-6.064696040551558,7.38,1.3973279926269895,-0.035555555555555556,-0.75,-0.14,-0.3131744591061204,-0.1275720046096865,-1.2914685941008854
1592284921.8879893,-6.07,7.27,1.54,0.0044444444444444444,-0.7444444444444445,-0.13333333333333333,-0.2781618495365963,-0.1341721862470641,-1.2708178616083712
1592284921.8979893,-6.367321664950728,7.27,1.4243749080747168,0.0044444444444444444,-0.7444444444444445,-0.13333333333333333,-0.28987368041883954,-0.1476858372650371,-1.2564033005225332
1592284921.9079893,-6.237728335525355,7.133007696429441,1.594416191728774,0.0044444444444444444,-0.7444444444444445,-0.13333333333333333,-0.3201352953750365,-0.16504353694192878,-1.2202852810322848
1592284921.9179893,-6.44,6.95,1.71,0.0044444444444444444,-0.7444444444444445,-0.13333333333333333,-0.3337942194439155,-0.14508049407202864,-1.1824605682261582
1592284921.9279892,-6.485063573059683,6.96287530658848,1.8258777592963265,0.0044444444444444444,-0.7444444444444445,-0.13333333333333333,-0.3148337654168433,-0.13314243042535356,-1.15366876766653
1592284921.9379892,-6.37,6.99,2.02,0.06333333333333334,-0.7266666666666667,-0.14,-0.26070855701665296,-0.10581058590215622,-1.0853766285839737
1592284921.9479892,-6.513208439432521,7.005912048825835,1.9404397558708217,0.06333333333333334,-0.7266666666666667,-0.14,-0.23814399854330243,-0.0875853655967577,-1.0463225850724054
1592284921.9579892,-6.286144164759726,6.774010774218153,1.8566719107551488,0.06333333333333334,-0.7266666666666667,-0.14,-0.20723923132973598,-0.05093393457470151,-1.0054760299651677
1592284921.9679892,-7.0,7.24,1.47,0.06333333333333334,-0.7266666666666667,-0.14,-0.20507618710933373,-0.011999138607461015,-0.9741118887693352
1592284921.9779892,-7.045808517064331,7.142656901238297,1.5845212926608274,0.06333333333333334,-0.7266666666666667,-0.14,-0.22319007304576255,0.01423476516253937,-0.9653672541793351
1592284921.9879892,-6.47,6.52,2.07,0.11,-0.72,-0.14666666666666667,-0.22907446432425577,0.05235987755982988,-0.9490227807719166
1592284921.9979892,-6.94234299973534,6.801882112745283,1.7119335324586942,0.11,-0.72,-0.14666666666666667,-0.23322967629206237,0.06898072543105646,-0.9357261024749354
1592284922.0079892,-6.890676639172375,6.391691597930937,1.6498308402069062,0.11,-0.72,-0.14666666666666667,-0.274752808904101,0.04699798600208134,-0.9587479954596512
1592284922.0179892,-6.821045930701048,6.5662159548751005,1.5887074939564867,0.11,-0.72,-0.14666666666666667,-0.2389522403124767,0.04105549531859385,-0.9571687640061693
1592284922.0279891,-7.078883414460407,6.34826744232063,1.7773748466500456,0.11,-0.72,-0.14666666666666667,-0.24046423305852355,0.015088746606141717,-0.9652390084171673
1592284922.0379891,-7.43,6.66,1.38,0.16333333333333333,-0.7066666666666667,-0.14666666666666667,-0.27052603405912107,-0.00545415391248228,-0.9424777960769379
1592284922.0479891,-7.452168698780731,6.379196482110734,1.4686747951229262,0.16333333333333333,-0.7066666666666667,-0.14666666666666667,-0.3196967087695454,0.021952451663819844,-0.9078165007892617
1592284922.0579891,-7.887939908269479,6.124385487902008,1.4513704649693773,0.16333333333333333,-0.7066666666666667,-0.14666666666666667,-0.3328229842914135,0.0348168883173908,-0.8138803180547554
1592284922.067989,-8.055806597379124,6.022620876638047,1.4889516493447807,0.16333333333333333,-0.7066666666666667,-0.14666666666666667,-0.36669511516885495,0.06889831154732247,-0.7149141299218424
1592284922.077989,-8.35203432248838,5.976194851626743,1.8185386127994279,0.16333333333333333,-0.7066666666666667,-0.14666666666666667,-0.35247837234680407,0.06981317007977318,-0.6032056912035165
1592284922.087989,-8.739354790752992,5.930069129562179,2.1195852226269234,0.17774449317376545,-0.6889298545553656,-0.168837681805793,-0.2815851591928973,0.038251972419968264,-0.39091457238026867
1592284922.097989,-8.572371766768962,5.741418237615081,2.294612742948999,0.17777777777777778,-0.6888888888888889,-0.1688888888888889,-0.25019677726000056,0.01151286368388869,-0.2731860798383872
1592284922.107989,-8.613526537489468,5.811368716652626,2.4646054479078914,0.17777777777777778,-0.6888888888888889,-0.1688888888888889,-0.16137534941978243,-0.040247428560219074,-0.04399601447753601
1592284922.117989,-8.394529236402901,5.2281392455576166,2.103610009154715,0.17777777777777778,-0.6888888888888889,-0.1688888888888889,-0.07509614951792414,-0.0784101744005467,0.1434735280794953
1592284922.127989,-8.387026399871482,5.351607197044071,2.1432375988433323,0.17777777777777778,-0.6888888888888889,-0.1688888888888889,-0.04451994628896787,-0.09221839780964924,0.2606696342396826
1592284922.137989,-8.31049994104469,5.37031246315293,2.17,0.21642363976994328,-0.676743046548494,-0.1843472336857551,-0.014303504165674257,-0.12852034256772682,0.3867336611478238
1592284922.147989,-8.319394868202119,5.252564147473509,2.193487170505298,0.21666666666666667,-0.6766666666666666,-0.18444444444444444,0.005290801549046872,-0.1287180323345818,0.42926259465895406
1592284922.157989,-8.465116667258586,5.255116667258586,2.287558333629293,0.21666666666666667,-0.6766666666666666,-0.18444444444444444,0.0558274696629982,-0.1333239517056442,0.5577572328816492
1592284922.167989,-8.49,5.669978512276974,2.354415606364229,0.21666666666666667,-0.6766666666666666,-0.18444444444444444,0.10065866946667554,-0.13615079352940776,0.6884346868277459
1592284922.177989,-8.232282521947326,5.5646209098164405,2.2212290502793297,0.21666666666666667,-0.6766666666666666,-0.18444444444444444,0.1508532785243303,-0.13419133890246304,0.8048346263264313
1592284922.187989,-8.55172367912786,5.557277994763723,2.4095008369457918,0.20491971519998475,-0.6884136181333486,-0.19085187251718005,0.2280019865039782,-0.12364563876376551,1.0031648152370098
1592284922.197989,-7.891535893155259,5.607492487479131,2.311445742904841,0.20444444444444446,-0.6888888888888889,-0.19111111111111112,0.2797512937886212,-0.10254137151027368,1.1207719932265683
1592284922.207989,-8.171912058095922,5.753923070784454,1.985598914691565,0.20444444444444446,-0.6888888888888889,-0.19111111111111112,0.35539146763938045,-0.06375366645366227,1.2992573722198448
1592284922.217989,-7.358819605568445,5.56993909512761,2.1500609048723898,0.20444444444444446,-0.6888888888888889,-0.19111111111111112,0.39786660780118843,-0.03817243369641528,1.4246582203951748
1592284922.227989,-7.2835538299026465,5.595179433008822,2.020907871070888,0.20444444444444446,-0.6888888888888889,-0.19111111111111112,0.42015331213816426,-0.02219814326909045,1.4675673353354795
1592284922.237989,-7.4956178472585835,6.253863789363453,2.146184456578652,0.19782934816033776,-0.696448998927868,-0.1684307809941739,0.4345274119346126,0.06969481791805496,1.6112747651566268
1592284922.247989,-6.875751291155584,5.932221998063267,2.5019609425435765,0.19666666666666666,-0.6977777777777778,-0.16444444444444445,0.5110150495774616,0.10486235888560913,1.7109503008884555
1592284922.257989,-7.021103888566454,7.401770168311085,1.4241671503192106,0.19666666666666666,-0.6977777777777778,-0.16444444444444445,0.8656059442058903,0.25222843977972487,1.8915101999642894
1592284922.267989,-6.793294568996523,7.302336650281741,1.5850153858450224,0.19666666666666666,-0.6977777777777778,-0.16444444444444445,0.8645216480961767,0.33755857302782366,1.9628318775284934
1592284922.277989,-6.100352140230065,6.576433993270209,1.7705266452774082,0.19666666666666666,-0.6977777777777778,-0.16444444444444445,0.8522513484851371,0.40847459982082973,2.0507234585530663
1592284922.287989,-6.027578067371527,7.226043766904352,1.7449041062208015,0.1557540365543808,-0.721726634428872,-0.15646149222741307,0.7858990550832885,0.5024832742009997,2.122339494161223
1592284922.297989,-5.785213487710745,7.203624619134674,1.3829096079626244,0.1511111111111111,-0.7244444444444444,-0.15555555555555556,0.7156218196585346,0.5299801910705194,2.127120025868089
1592284922.307989,-5.7451171833946395,7.770251445086705,1.20755859169732,0.1511111111111111,-0.7244444444444444,-0.15555555555555556,0.6162682612088692,0.5928082055195517,2.103169153648287
1592284922.3179889,-5.097672281414633,6.74959602164001,1.168937135297314,0.1511111111111111,-0.7244444444444444,-0.15555555555555556,0.49029579865457346,0.6299890642681146,2.0476992262513845
1592284922.3279889,-5.257073894759162,7.204901933067109,1.0214630526204191,0.1511111111111111,-0.7244444444444444,-0.15555555555555556,0.4529752983111158,0.6547839273889711,2.0133470344474884
1592284922.3379889,-5.42,7.326561409014239,1.4915745498764368,0.09622807132241094,-0.7390799217214311,-0.13268762231026382,0.414140605259085,0.6970303438169655,1.9445206952188647
1592284922.3479888,-5.162980030721966,7.527019969278034,1.5060983102918586,0.08444444444444445,-0.7422222222222222,-0.12777777777777777,0.3972333184075343,0.7184989022742978,1.8971608324299192
1592284922.3579888,-5.550555265687217,8.63271728683235,0.6814793354386928,0.08444444444444445,-0.7422222222222222,-0.12777777777777777,0.36797441273192083,0.6821664494454532,1.8223532284305548
1592284922.3679888,-4.74707452248995,8.122375300302087,0.8437789300920531,0.08444444444444445,-0.7422222222222222,-0.12777777777777777,0.2995297925600196,0.6098747957102187,1.742691626742916
1592284922.3779888,-4.921175905158603,8.478173662287729,0.9847260493431593,0.08444444444444445,-0.7422222222222222,-0.12777777777777777,0.29639840119898575,0.5672077157288576,1.6732659157570067
1592284922.3879888,-4.825322119196167,8.193554858501948,0.9155716797076972,0.043123106561112845,-0.7525525566930552,-0.12777777777777777,0.25223135308583516,0.5026597953726657,1.5404412558493334
1592284922.3979888,-4.831962754678713,8.480088503733752,0.7147497003779848,0.02666666666666667,-0.7566666666666667,-0.12777777777777777,0.2069441857988213,0.3776372297621463,1.3909044829324535
1592284922.4079888,-4.806111386383907,8.238682241601428,0.4144455455356258,0.02666666666666667,-0.7566666666666667,-0.12777777777777777,0.17000307498388217,0.281548251599382,1.2598645303941578
1592284922.4179888,-4.67696970930706,8.38866663952447,0.23696970930705968,0.02666666666666667,-0.7566666666666667,-0.12777777777777777,0.14971090686596422,0.2177258626967641,1.1825425515184183
1592284922.4279888,-4.421756438892293,8.39720642011425,0.24076614417584155,0.02666666666666667,-0.7566666666666667,-0.12777777777777777,0.13110114538305723,0.11244388754847226,1.0596141900796312
1592284922.4379888,-4.275882307092751,8.486975058456743,0.2881512081060016,-0.004257729280332551,-0.7558076556681389,-0.10716151381311162,0.12450137195594486,0.026354063600067153,0.9324219176693788
1592284922.4479887,-3.9863298814820647,8.981382840492971,0.5299866125920385,-0.013333333333333334,-0.7555555555555555,-0.10111111111111111,0.12177123947445544,-0.005414982448386646,0.8604000491790558
1592284922.4579887,-4.0251172223574265,9.277441388821288,0.5965885184283821,-0.013333333333333334,-0.7555555555555555,-0.10111111111111111,0.13824593673726818,-0.031158452597003495,0.71655721642119
1592284922.4679887,-3.7112957320730273,8.99770889811194,0.5358779358491472,-0.013333333333333334,-0.7555555555555555,-0.10111111111111111,0.1768979315443642,-0.055241107017673485,0.5941442780106148
1592284922.4779887,-3.449189939387073,8.864594969693536,0.4842658471647879,-0.013333333333333334,-0.7555555555555555,-0.10111111111111111,0.2061835783999426,-0.06752380341910864,0.5307899908673074
1592284922.4879887,-3.2546639013369876,9.16865560534795,0.28231584015406835,-0.04031307482438922,-0.7503094947100725,-0.08687180310194273,0.27961126755754456,-0.0682135865827855,0.38170690421321135
1592284922.4979887,-3.279400184914092,9.29541875337083,0.1621095615995069,-0.05333333333333334,-0.7477777777777778,-0.08,0.31121392139124704,-0.044273954658388306,0.31641648412202017
1592284922.5079887,-3.17212743596673,8.799146923700567,-0.12361769209981083,-0.05333333333333334,-0.7477777777777778,-0.08,0.3507194729570238,0.041707187649966136,0.15699777860852132
1592284922.5179887,-3.288958814701889,8.963089254662824,-0.20551487577713728,-0.05333333333333334,-0.7477777777777778,-0.08,0.36809797762989394,0.07214460293726292,0.04713536949798727
1592284922.5279887,-3.3583286724497246,8.908356637751377,0.10861260041680768,-0.05333333333333334,-0.7477777777777778,-0.08,0.39022388812270226,0.08006636932700222,-0.024063271229411456
1592284922.5379887,-3.270837239936461,9.236651040254156,0.3054186199682306,-0.04802681027468909,-0.7614231227857201,-0.08075807472266346,0.4397284646723119,0.07248380580901714,-0.12548864747607566
1592284922.5479887,-3.2475773916516877,9.574439784301976,0.3661793489115239,-0.04555555555555556,-0.7677777777777778,-0.0811111111111111,0.4638266081018049,0.05371845969676775,-0.19246355150097194
1592284922.5579886,-3.4758718527904797,9.91441848933943,-0.0257550548179164,-0.04555555555555556,-0.7677777777777778,-0.0811111111111111,0.4812973662901162,0.010388283652139823,-0.34928136024328393
1592284922.5679886,-3.415562688640828,9.076157476165381,-0.17784386528050591,-0.04555555555555556,-0.7677777777777778,-0.0811111111111111,0.4425023817718618,0.010604910224821639,-0.4782166770191395
1592284922.5779886,-3.4671202182442373,8.90517717018146,-0.23632908288376656,-0.04555555555555556,-0.7677777777777778,-0.0811111111111111,0.41527721252371935,0.012148265179614466,-0.5346085630525204
1592284922.5879886,-3.875741056218058,9.260904788945673,-0.4137440848003029,-0.050372683870696364,-0.762960649462637,-0.08248743348686562,0.3104442876117379,0.002646240262819342,-0.6970749391197426
1592284922.5979886,-3.950339782149244,9.090186148593725,-0.24932043570151197,-0.05333333333333334,-0.76,-0.08333333333333333,0.25251145403688524,-0.010136071986502388,-0.7658540970992181
1592284922.6079886,-4.1934628335361195,8.832862114824142,-0.23512351093630632,-0.05333333333333334,-0.76,-0.08333333333333333,0.12117861097537538,-0.0710774361970606,-0.9045222493346156
1592284922.6179886,-4.349249079400226,8.623520421670799,-0.011360562227731075,-0.05333333333333334,-0.76,-0.08333333333333333,0.03271964640475284,-0.13289198478334432,-0.9713260158002561
1592284922.6279886,-4.4035665956066365,8.496433404393363,0.16519510612661045,-0.05333333333333334,-0.76,-0.08333333333333333,0.007424403190312332,-0.1655786897197561,-0.989738805605247
1592284922.6379886,-4.46,8.268387795351716,0.27612900730886736,-0.03698931384302048,-0.7681720097451564,-0.06562731221882774,0.02727068519481926,-0.23766030107295574,-1.0049718244363108
1592284922.6479886,-4.498679022547515,8.190943218038012,0.2464781804588203,-0.02666666666666667,-0.7733333333333333,-0.05444444444444444,0.05442482842960351,-0.25693518305735263,-1.0082089248162702
1592284922.6579885,-4.577872452956241,8.228595924729985,-0.023488754036298853,-0.02666666666666667,-0.7733333333333333,-0.05444444444444444,0.12293885190233998,-0.2960003822897411,-1.0279431611411969
1592284922.6679885,-4.630896834234807,8.273341552656698,-0.09555281578110086,-0.02666666666666667,-0.7733333333333333,-0.05444444444444444,0.13320196115878258,-0.30373607007815556,-1.052871485125948
1592284922.6779885,-4.799393295372524,8.5,-0.10281097120859733,-0.02666666666666667,-0.7733333333333333,-0.05444444444444444,0.09463755324377807,-0.3174979389148221,-1.1259811400903104
1592284922.6879885,-5.06625135820355,8.418437160449113,-0.1347497283592901,-0.01216660630206447,-0.775750010060767,-0.05142359853515232,0.0076287434488599495,-0.32990815947410923,-1.1951416242297037
1592284922.6979885,-5.366826693629929,8.35141193124368,-0.06870455005055612,0.0,-0.7777777777777778,-0.04888888888888889,-0.055800638000522144,-0.34027567344822507,-1.2307016275780083
1592284922.7079885,-5.3750906266183325,8.181258415328845,0.1310771620921802,0.0,-0.7777777777777778,-0.04888888888888889,-0.188301909918526,-0.39126196439646055,-1.2829116217363232
1592284922.7179885,-5.296781239498824,7.852445393884115,0.05261725313235083,0.0,-0.7777777777777778,-0.04888888888888889,-0.25646708896951814,-0.4072591145785296,-1.3167264891523385
1592284922.7279885,-5.44398235231956,8.013002395293952,0.13375620839057378,0.0,-0.7777777777777778,-0.04888888888888889,-0.28893036933145333,-0.3998593758000049,-1.3454040935919211
1592284922.7379885,-5.249696485623003,7.635375399361022,0.4598242811501597,0.01775825346112886,-0.7884327298544551,-0.04533723819666312,-0.2988972183805525,-0.3539057585432491,-1.3809726026874662
1592284922.7479885,-5.1305723563240875,7.26091584836274,0.5452290598959352,0.03333333333333333,-0.7977777777777778,-0.042222222222222223,-0.290398307105814,-0.31718611700445976,-1.4020672819764939
1592284922.7579885,-5.772410623084781,7.364702076949268,0.2731324480762683,0.03333333333333333,-0.7977777777777778,-0.042222222222222223,-0.2605640785779771,-0.2633240253075417,-1.4522768380274138
1592284922.7679884,-5.908577611079053,6.924399884593191,0.6285776110790537,0.03333333333333333,-0.7977777777777778,-0.042222222222222223,-0.23151065831721865,-0.2450054404867451,-1.4767303470722313
1592284922.7779884,-6.099114101218309,7.040406209243884,0.7941702452524096,0.03333333333333333,-0.7977777777777778,-0.042222222222222223,-0.2249124297831703,-0.24658008285558702,-1.4829099675151756
1592284922.7879884,-6.270788575809853,6.785520030668967,0.4017028943837454,0.06352633484548378,-0.785495878857581,-0.042222222222222223,-0.1906784753298716,-0.2636955557182883,-1.4947685367194632
1592284922.7979884,-6.207016022400249,6.706123123590262,0.35781480905343394,0.09888888888888889,-0.7711111111111111,-0.042222222222222223,-0.17210623607747888,-0.28308904148360564,-1.4991203364101928
1592284922.8079884,-6.303528589793751,6.975066793359789,0.5707160024593371,0.09888888888888889,-0.7711111111111111,-0.042222222222222223,-0.1766133140614061,-0.2856963923110517,-1.4990821443084688
1592284922.8179884,-6.713631022326674,7.218840309574942,0.5229085457271364,0.09888888888888889,-0.7711111111111111,-0.042222222222222223,-0.18093686523997082,-0.2788877145680058,-1.4901536588615996
1592284922.8279884,-6.759858550039401,6.976068951930654,0.8856843971631205,0.09888888888888889,-0.7711111111111111,-0.042222222222222223,-0.24349651087898522,-0.21939086978326425,-1.47378889143927
1592284922.8379884,-6.4683484333034915,6.300067681289168,1.0371946284691136,0.11688789416094698,-0.7747109121655227,-0.04492207301303094,-0.2876733080168414,-0.17558672437649317,-1.4389760771846571
1592284922.8479884,-6.849689247556262,6.071812684701069,1.1454553307569904,0.14333333333333334,-0.78,-0.04888888888888889,-0.3007387982952525,-0.12749537940069297,-1.3927267937975452
1592284922.8579884,-7.140424687437983,6.036326652113514,1.148874776741417,0.14333333333333334,-0.78,-0.04888888888888889,-0.2717997884397937,-0.0956387349777777,-1.3669638036755296
1592284922.8679883,-7.207537448295249,5.908153086221437,1.1606156379261876,0.14333333333333334,-0.78,-0.04888888888888889,-0.2436645505495134,-0.08078863358481353,-1.3541112312138586
1592284922.8779883,-7.626666014669927,6.096571540342298,1.09,0.14333333333333334,-0.78,-0.04888888888888889,-0.15637330774601754,-0.0811785493379434,-1.3291306134466505
1592284922.8879883,-7.663606544604597,6.131397350993377,1.0102029606544605,0.1629326061550448,-0.7827998961173873,-0.05868852529974462,-0.07749411459078992,-0.0993090304654444,-1.293769587186701
1592284922.8979883,-7.431320280072114,6.198869229801686,0.928300700180286,0.19,-0.7866666666666666,-0.07222222222222222,-0.018009158409443185,-0.10947402292822425,-1.2638614885905317
1592284922.9079883,-7.679863017321169,6.012966283220944,1.1408271849795055,0.19,-0.7866666666666666,-0.07222222222222222,0.02147810185295448,-0.15118926184004952,-1.1741023207477088
1592284922.9179883,-7.8,6.10682214331827,1.067755003227889,0.19,-0.7866666666666666,-0.07222222222222222,0.01957848475416059,-0.1690127950384451,-1.1423391307168347
1592284922.9279883,-7.8600400204025584,5.949919959194884,0.9000600306038373,0.19,-0.7866666666666666,-0.07222222222222222,-0.04555146196022269,-0.20944169301367146,-1.080177174478712
1592284922.9379883,-7.981874706625745,5.786457844376241,1.0864578443762412,0.20174752763234438,-0.7712733545966981,-0.07222222222222222,-0.09377702280999031,-0.21409827737362044,-1.0069621819636976
1592284922.9479883,-8.02,5.85,1.15,0.2222222222222222,-0.7444444444444445,-0.07222222222222222,-0.13744467859455345,-0.2127120025868089,-0.9577494270318884
1592284922.9579883,-7.981996475770925,5.8335541850220265,1.1702237885462556,0.2222222222222222,-0.7444444444444445,-0.07222222222222222,-0.19782025625502572,-0.22910669268746253,-0.8851159227739108
1592284922.9679883,-7.790643459664964,5.747956516573601,1.0372087442081501,0.2222222222222222,-0.7444444444444445,-0.07222222222222222,-0.22067601336826342,-0.22570806488576045,-0.8421450806172862
1592284922.9779882,-7.87,5.77,0.83,0.2222222222222222,-0.7444444444444445,-0.07222222222222222,-0.23125612588924865,-0.22907446432425577,-0.830122225479803
1592284922.9879882,-7.7767650865555735,5.442939653777706,1.0232349134444265,0.23228639738266013,-0.7444444444444445,-0.07473826601233169,-0.3059773285651418,-0.25477128560423795,-0.8007986256857139
1592284922.9979882,-7.77,5.47,1.03,0.25333333333333335,-0.7444444444444445,-0.08,-0.31852258848896514,-0.28797932657906433,-0.7919431480924269
1592284923.0079882,-8.335425264798406,5.646551704233889,1.1101379549193338,0.25333333333333335,-0.7444444444444445,-0.08,-0.2930874268691852,-0.3086900628992364,-0.7582803664106422
1592284923.0179882,-8.43,5.73,1.01,0.25333333333333335,-0.7444444444444445,-0.08,-0.28034351110158917,-0.3196134192714616,-0.7352199474026113
1592284923.0279882,-8.36,5.559681474610724,1.1907432259083106,0.25333333333333335,-0.7444444444444445,-0.08,-0.2683212086741529,-0.3432056192222635,-0.6493570271550573
1592284923.0379882,-8.392871528037732,5.611035037807891,1.067929924384218,0.2599740460682289,-0.7407920524402519,-0.07203114471812533,-0.2847687789158996,-0.35581116510129124,-0.5621055840577838
1592284923.0479882,-8.47,5.59,1.11,0.27555555555555555,-0.7322222222222222,-0.05333333333333334,-0.31306843457648287,-0.3665191429188092,-0.49632800603588745
1592284923.0579882,-8.152662102410499,5.613139922978177,1.3159044358864642,0.27555555555555555,-0.7322222222222222,-0.05333333333333334,-0.37338803169637264,-0.38235294614352366,-0.3830565794527181
1592284923.0679882,-8.07,5.56,1.31,0.27555555555555555,-0.7322222222222222,-0.05333333333333334,-0.40687988187117813,-0.4036073895236887,-0.3534291735288517
1592284923.0779881,-8.206169556840077,5.798649325626204,1.5877418111753372,0.27555555555555555,-0.7322222222222222,-0.05333333333333334,-0.4761971337946313,-0.449365113607646,-0.30274621184535094
1592284923.0879881,-8.402396861253122,5.959078587563905,1.4514282883525542,0.27555555555555555,-0.7307629339004919,-0.05333333333333334,-0.5012643903497505,-0.47702480146249876,-0.26176424154518957
1592284923.0979881,-7.96,5.76,1.68,0.27555555555555555,-0.7266666666666667,-0.05333333333333334,-0.5028729907308661,-0.49632800603588745,-0.22798363354175932
1592284923.107988,-8.001021518951827,5.671577869427377,1.8705799175153608,0.27555555555555555,-0.7266666666666667,-0.05333333333333334,-0.38908749317330193,-0.43609950572190953,-0.1251925032362667
1592284923.117988,-7.503827365083939,5.491563513221413,2.233224776040541,0.27555555555555555,-0.7266666666666667,-0.05333333333333334,-0.3060100098720086,-0.366423203674255,-0.05513847404758817
1592284923.127988,-7.55,5.43,2.5,0.27555555555555555,-0.7266666666666667,-0.05333333333333334,-0.2617993877991494,-0.3272492347489368,-0.031634092692397225
1592284923.137988,-7.854919581974504,5.462654165431367,2.567734583456863,0.2783243979971671,-0.7274218055143788,-0.0616398606581678,-0.15470348597906128,-0.2032118221205272,0.017580510296126083
1592284923.147988,-7.940109719891571,5.5392539047373175,2.5596050083903448,0.2877777777777778,-0.73,-0.09,-0.09808859662335306,-0.12966284639816142,0.04043733788688263
1592284923.157988,-7.8858745141588,5.512376457523598,2.1626946382444534,0.2877777777777778,-0.73,-0.09,-0.053472618180122666,-0.04548993204945859,0.08514413140077538
1592284923.167988,-7.810576854259608,5.7474652289047405,1.9965558126774339,0.2877777777777778,-0.73,-0.09,-0.05944453944466981,-0.013465671945171379,0.11413672912654278
1592284923.177988,-7.91246374492429,5.668787830296242,2.0675362550757104,0.2877777777777778,-0.73,-0.09,-0.08175625395396686,0.044387733682750743,0.18091404416967927
1592284923.187988,-8.032514807574476,5.737792139585096,1.9507673678989292,0.28704840545035454,-0.7318234308185582,-0.08708251069030691,-0.09667568572665101,0.12602766863097714,0.2735139231078889
1592284923.197988,-8.14,5.59,1.85,0.28555555555555556,-0.7355555555555555,-0.0811111111111111,-0.10253809355466686,0.14508049407202864,0.3108867730114899
1592284923.207988,-8.161486166448412,5.477379008665125,2.194602546599426,0.28555555555555556,-0.7355555555555555,-0.0811111111111111,-0.0978291730095138,0.13648329107924523,0.3769253907929209
1592284923.217988,-8.03991990655765,5.581745369597864,2.134762222593025,0.28555555555555556,-0.7355555555555555,-0.0811111111111111,-0.11974038396397065,0.1130481471243165,0.4172601569746305
1592284923.227988,-7.694001358817114,5.37854248985357,2.2405465663049116,0.28555555555555556,-0.7355555555555555,-0.0811111111111111,-0.15723788125307456,0.08940911786113903,0.4615001747229094
1592284923.237988,-7.724394799610307,5.497952094601405,2.1626008667316157,0.2816890814959146,-0.7337834216115534,-0.07837235865219874,-0.1856809321592888,0.05661396003531166,0.500172829997615
1592284923.247988,-8.309211957155858,5.3577581499544955,2.144667117821389,0.2588888888888889,-0.7233333333333334,-0.06222222222222222,-0.23017196436363072,0.0740079035597351,0.554317296415102
1592284923.257988,-7.971043115438109,5.393125686260157,2.264791742917795,0.2588888888888889,-0.7233333333333334,-0.06222222222222222,-0.24927755112403438,0.06452949590674115,0.5820718090798301
1592284923.267988,-7.598933039879428,5.138341427238583,2.2479146431903545,0.2588888888888889,-0.7233333333333334,-0.06222222222222222,-0.24032663658358686,0.04156795702918685,0.596888637706742
1592284923.277988,-7.717206541394764,5.149028225489425,2.092753361113295,0.2588888888888889,-0.7233333333333334,-0.06222222222222222,-0.21144012425483136,0.016861521751862035,0.5920693979094425
1592284923.287988,-7.706899462778204,5.184650805832693,1.8353491941673061,0.25716466274409483,-0.7259196725505245,-0.06452119041528097,-0.1799678242324084,-0.014952669690076132,0.5753190562910319
1592284923.297988,-7.87,4.94,2.08,0.25222222222222224,-0.7333333333333333,-0.07111111111111111,-0.15489797111449674,-0.05781403147231216,0.5672320068981571
1592284923.307988,-7.793160203721446,5.592811507236146,1.9484198981392769,0.25222222222222224,-0.7333333333333333,-0.07111111111111111,-0.09007932194743073,-0.10982998187428016,0.5548501066548733
1592284923.317988,-7.7225818970712306,5.675531878992407,1.897809087622032,0.25222222222222224,-0.7333333333333333,-0.07111111111111111,-0.05903031371107693,-0.15277778628493777,0.5643641093017892
1592284923.327988,-7.43,5.45,1.91,0.25222222222222224,-0.7333333333333333,-0.07111111111111111,-0.0370882466048795,-0.17671458676442586,0.5803219762881145
1592284923.337988,-7.81934797841777,5.894558194940789,1.8893966785789362,0.2403202687657176,-0.7310542358629388,-0.07111111111111111,0.012871933176162281,-0.19987064416455305,0.6414390748618225
1592284923.347988,-7.58,5.91,2.26,0.2,-0.7233333333333334,-0.07111111111111111,0.04908738521234052,-0.20071286397934787,0.6784967467127956
1592284923.3579879,-7.432346299533799,6.089977418414919,2.2141003787878786,0.2,-0.7233333333333334,-0.07111111111111111,0.14226267347114802,-0.18428087449316238,0.7690455547352513
1592284923.3679879,-7.356482578810145,5.918350319981038,2.2242877459113535,0.2,-0.7233333333333334,-0.07111111111111111,0.18134189146087978,-0.1466985123315363,0.8336468060029107
1592284923.3779879,-7.28,5.943759527664784,2.3097442834011295,0.2,-0.7233333333333334,-0.07111111111111111,0.2116490661580768,-0.1122697119916488,0.8777622922225432
1592284923.3879879,-7.271992186269259,6.239980465673146,2.1520312549229654,0.19733072875641955,-0.7244455296848252,-0.06243597956947464,0.22754261332685036,-0.07788467861089554,0.9121518479777346
1592284923.3979878,-7.24,6.16,2.28,0.18666666666666668,-0.7288888888888889,-0.027777777777777776,0.2083486794568231,-0.07526732399225547,0.9086620418195479
1592284923.4079878,-6.698335647688951,5.898401110890696,2.0331650466177345,0.18666666666666668,-0.7288888888888889,-0.027777777777777776,0.17018031346078485,-0.11856601365558532,0.8563093051872763
1592284923.4179878,-7.250844755983388,6.204115514799433,1.8210324795352522,0.18666666666666668,-0.7288888888888889,-0.027777777777777776,0.12135709144538386,-0.11417020899081284,0.8268190169379677
1592284923.4279878,-7.327491775862385,6.348972671971771,2.1162240641023287,0.18666666666666668,-0.7288888888888889,-0.027777777777777776,0.11027941768647612,-0.10570507724782216,0.830626513946414
1592284923.4379878,-7.060903235304943,6.285954212521624,2.317862637564872,0.18396947501441596,-0.7285142789371875,-0.025904728019270327,0.1338293869824259,-0.08141956303173048,0.8650176890162573
1592284923.4479878,-7.35,6.23,2.15,0.14666666666666667,-0.7233333333333334,0.0,0.15926129424448257,-0.04581489286485115,0.940296134511945
1592284923.4579878,-7.394766722568939,6.385405658043053,2.3142748742198886,0.14666666666666667,-0.7233333333333334,0.0,0.21363134983992055,-0.08054999437535289,1.0291064587082341
1592284923.4679878,-7.400599404565002,6.5484644392987095,2.0798127687727423,0.14666666666666667,-0.7233333333333334,0.0,0.26477360666836836,-0.11722140479152851,1.1020495603198526
1592284923.4779878,-7.147698856522828,6.366569568483432,2.032018821467323,0.14666666666666667,-0.7233333333333334,0.0,0.3243304133950713,-0.13160141375170692,1.150898334159509
1592284923.4879878,-6.977847548252478,5.756386932707355,2.055656624934794,0.14265214745261692,-0.7262773140903032,0.0,0.39308900960363063,-0.15517259928685062,1.1788736155963646
1592284923.4979877,-6.67,5.73,2.17,0.11333333333333333,-0.7477777777777778,0.0,0.47560222116845474,-0.1810779098944117,1.160643952576229
1592284923.5079877,-7.322068468867716,6.630326279636606,2.0196294039441613,0.11333333333333333,-0.7477777777777778,0.0,0.5911518496816764,-0.16985828142955006,1.1581129616984946
1592284923.5179877,-6.5558178289068785,6.499079439473559,1.8014593097571368,0.11333333333333333,-0.7477777777777778,0.0,0.5841895634858666,-0.170586274330422,1.185196734147874
1592284923.5279877,-6.687215615709592,7.025640744797371,1.6029670630574246,0.11333333333333333,-0.7477777777777778,0.0,0.5675357361075848,-0.15441852444448698,1.2248511041388062
1592284923.5379877,-6.992774344058656,7.229816397018724,1.6190371447615586,0.1105045547274233,-0.7457033401334437,0.0010372188221670136,0.5239290058951752,-0.1215775623024213,1.2507276180348672
1592284923.5479877,-6.24731535249796,7.066484138791573,1.9217017804866343,0.08,-0.7233333333333334,0.012222222222222223,0.49843339268366116,-0.08333414248515002,1.313236505156408
1592284923.5579877,-6.47,6.93,1.62,0.08,-0.7233333333333334,0.012222222222222223,0.48432886742842646,-0.062177354602297986,1.335176877775662
1592284923.5679877,-6.5795799086757984,7.605015359070154,1.013903694479037,0.08,-0.7233333333333334,0.012222222222222223,0.4513681180209781,-0.034122551358331366,1.3924929941261672
1592284923.5779877,-5.984624530663329,7.068641270337922,1.2284981226533167,0.08,-0.7233333333333334,0.012222222222222223,0.40094336982247447,-0.0929507456283121,1.392853744785923
1592284923.5879877,-5.876198294311177,7.258898010029706,0.7576720861149263,0.07767524479793302,-0.7240082622629658,0.014621969527581692,0.3942376802771085,-0.1010055228207062,1.4031629838204986
1592284923.5979877,-6.1,7.52,1.14,0.04555555555555556,-0.7333333333333333,0.04777777777777778,0.32506757318394386,-0.09490227807719166,1.3929909092479742
1592284923.6079876,-5.861838399384379,7.469923047325895,1.1022231627549057,0.04555555555555556,-0.7333333333333333,0.04777777777777778,0.2383029179268795,-0.11931842028905618,1.353094203582688
1592284923.6179876,-6.01464457011955,7.59350705132794,0.8955923831340826,0.04555555555555556,-0.7333333333333333,0.04777777777777778,0.14616101705416076,-0.1497022931050901,1.3248269091370997
1592284923.6279876,-5.97,7.72,0.97,0.04555555555555556,-0.7333333333333333,0.04777777777777778,0.07635815477475191,-0.18216874067690814,1.3264502315156905
1592284923.6379876,-5.571900182709876,7.585602461775171,1.2315866910279833,0.044027630861941856,-0.7326869036552659,0.047954076780887055,0.009339877989414314,-0.23373160580425337,1.3286030462237561
1592284923.6479876,-6.01,8.16,1.29,-0.012222222222222223,-0.7088888888888889,0.05444444444444444,-0.1287180323345818,-0.284706834231575,1.327541062298187
1592284923.6579876,-5.200469512958557,7.788776762238638,1.2958607737573558,-0.012222222222222223,-0.7088888888888889,0.05444444444444444,-0.28019614583123564,-0.3966621012073882,1.21031315062611
1592284923.6679876,-5.297743581185782,7.971805135051374,1.4466748515984458,-0.012222222222222223,-0.7088888888888889,0.05444444444444444,-0.3543101181396189,-0.44492940246168183,1.0883175054610268
1592284923.6779876,-5.087877805880493,8.027827220992728,1.10988065128043,-0.012222222222222223,-0.7088888888888889,0.05444444444444444,-0.3779330333954145,-0.45968421348442,1.014783788668118
1592284923.6879876,-5.030352621183176,7.5415066541462945,1.727339312890587,-0.012375380917944788,-0.7088675179080904,0.054472939085509105,-0.3958421917596388,-0.49310446914818307,0.9850691520540847
1592284923.6979876,-5.14,8.01,0.9,-0.06,-0.7022222222222222,0.06333333333333334,-0.3556108350938446,-0.5083271446433485,1.00029182754925
1592284923.7079875,-4.431794753044379,8.552278312038576,1.5350886751845698,-0.06,-0.7022222222222222,0.06333333333333334,-0.31897333960752305,-0.4744135017925689,1.0702286807880053
1592284923.7179875,-4.6779493186708105,8.217505857040402,1.6523040879751374,-0.06,-0.7022222222222222,0.06333333333333334,-0.313928660132835,-0.4601207167701018,1.1402964510301183
1592284923.7279875,-4.656666666666666,8.535,1.5616666666666665,-0.06,-0.7022222222222222,0.06333333333333334,-0.32797645527060104,-0.4537856055185257,1.1779154399657563
1592284923.7379875,-4.39118363794604,8.559889033942559,2.067743690165361,-0.06,-0.7022222222222222,0.06333333333333334,-0.3587461428912289,-0.4483556606442972,1.1824403940276134
1592284923.7479875,-4.07,8.1,1.9,-0.09888888888888889,-0.6844444444444444,0.05444444444444444,-0.35124751196385884,-0.45378560551852565,1.1813697374436618
1592284923.7579875,-4.678129505972492,8.888155311394291,1.8264731703423873,-0.09888888888888889,-0.6844444444444444,0.05444444444444444,-0.33743932790907905,-0.4704815644852802,1.1932636207038638
1592284923.7679875,-3.4728279524012704,8.370072535912387,2.0239354288152467,-0.09888888888888889,-0.6844444444444444,0.05444444444444444,-0.3377138770316344,-0.48861741023738203,1.2447874834705166
1592284923.7779875,-3.5115411921903354,8.047079951339171,1.733661727459466,-0.09888888888888889,-0.6844444444444444,0.05444444444444444,-0.3211820418988012,-0.44180162972652043,1.3408080037164556
1592284923.7879875,-3.921410366352233,8.030350597291745,2.3275537961430306,-0.09888888888888889,-0.6844444444444444,0.05444444444444444,-0.323919376053733,-0.40439139627578546,1.4293151413925846
1592284923.7979875,-3.68,9.0,2.58,-0.12,-0.6844444444444444,0.08333333333333333,-0.2552544031041707,-0.34143003492139073,1.5304355878425278
1592284923.8079875,-3.530017547934247,8.229124409692654,2.245464117055044,-0.12,-0.6844444444444444,0.08333333333333333,-0.21547822176397496,-0.3166370340954279,1.563756554025702
1592284923.8179874,-3.6268177836698943,8.501146516417698,2.3429599204564284,-0.12,-0.6844444444444444,0.08333333333333333,-0.15338535724991142,-0.3120028079994673,1.5653664216005971
1592284923.8279874,-3.503132353523749,8.908372023927425,2.58908350829933,-0.12,-0.6844444444444444,0.08333333333333333,-0.14143046961142752,-0.3337330511607232,1.535773325396889
1592284923.8379874,-2.8052731450303057,8.767138612684704,2.7137012241017313,-0.12,-0.6844444444444444,0.08333333333333333,-0.15321166244970416,-0.36182666485199827,1.49227353645556
1592284923.8479874,-2.38,8.61,3.03,-0.1688888888888889,-0.65,0.04777777777777778,-0.12980886311707826,-0.3556108350938446,1.4638949101102439
1592284923.8579874,-2.7105313715026305,9.327901196920028,2.3010413966608216,-0.1688888888888889,-0.65,0.04777777777777778,-0.08651933873374498,-0.29004622512813555,1.4458689667731723
1592284923.8679874,-2.532278534923339,9.097866269165246,2.5972700170357754,-0.1688888888888889,-0.65,0.04777777777777778,-0.10826449058407542,-0.2858134606897975,1.3915706921687188
1592284923.8779874,-2.4318297362110313,9.01388009592326,1.976845323741007,-0.1688888888888889,-0.65,0.04777777777777778,-0.07422639152433004,-0.2672088098018459,1.3492733805333297
1592284923.8879874,-2.0630263788968826,9.147990407673861,2.4294676258992807,-0.1688888888888889,-0.65,0.04777777777777778,-0.06416884015317222,-0.25623693557876465,1.306300206492928
1592284923.8979874,-2.02,9.44,2.19,-0.20444444444444446,-0.6577777777777778,0.07444444444444444,-0.05563236990731925,-0.23125612588924865,1.2588187230009102
1592284923.9079874,-2.0963783608681568,9.086750080984775,2.4668715581470684,-0.20444444444444446,-0.6577777777777778,0.07444444444444444,-0.09520740680433312,-0.2416706092831997,1.2004976159947844
1592284923.9179873,-1.809368539483862,8.901243231840235,2.7974987694254976,-0.20444444444444446,-0.6577777777777778,0.07444444444444444,-0.0883233894931852,-0.22529072894425536,1.1382482861157335
1592284923.9279873,-2.158186926466427,9.282105146137365,2.867348910538869,-0.20444444444444446,-0.6577777777777778,0.07444444444444444,-0.07549695981308459,-0.22013092631493258,1.1108335948660504
1592284923.9379873,-1.7512531834903182,9.053204915713303,2.83343776529086,-0.20444444444444446,-0.6577777777777778,0.07444444444444444,-0.050527818066374824,-0.21735657723196483,1.1015857645894909
1592284923.9479873,-1.8,9.04,3.02,-0.2577777777777778,-0.6088888888888889,0.0811111111111111,-0.002181661564992912,-0.2083486794568231,1.0799224746714913
1592284923.9579873,-1.9098216916040003,9.749922474610434,3.0299198904307825,-0.2577777777777778,-0.6088888888888889,0.0811111111111111,0.08074121022372235,-0.2138081892844583,1.0428201335530514
1592284923.9679873,-1.2123138662008404,9.44615693310042,2.702321892261933,-0.2577777777777778,-0.6088888888888889,0.0811111111111111,0.16110408292581432,-0.2355347307983192,0.9838490251281389
1592284923.9779873,-1.1108107779824687,9.405168937384861,2.5101014231633503,-0.2577777777777778,-0.6088888888888889,0.0811111111111111,0.2111310410429806,-0.24649090042425478,0.9287871266658159
1592284923.9879873,-0.9749547543373079,9.481587950685265,2.807286474887139,-0.2577777777777778,-0.6088888888888889,0.0811111111111111,0.23613910466580626,-0.2298188580090377,0.9037790630429902
1592284923.9979873,-0.99,9.33,2.12,-0.27111111111111114,-0.59,0.09777777777777778,0.25416357232167425,-0.19198621771937624,0.8988445647770796
1592284924.0079873,-0.7448999267756895,9.19383329265316,3.073166951427874,-0.27111111111111114,-0.59,0.09777777777777778,0.2373296242501608,-0.15930855381585018,0.9067664226930859
1592284924.0179873,-0.6658183940242764,9.448513071895425,2.2221157796451916,-0.27111111111111114,-0.59,0.09777777777777778,0.3076774286644812,-0.0998839423538195,0.922271301661845
1592284924.0279872,-0.7504596060519555,9.738406875739162,2.26949104848905,-0.27111111111111114,-0.59,0.09777777777777778,0.329344927940406,-0.051355015150857115,0.9316608393800618
1592284924.0379872,-0.15178703968027407,8.464089555890869,2.5602748664410098,-0.27111111111111114,-0.59,0.09777777777777778,0.36013159267345546,-0.020568350417807656,0.9344596270830663
1592284924.0479872,-0.3,9.63,2.32,-0.29333333333333333,-0.5633333333333334,0.12444444444444444,0.4516039439535327,0.053450708342326333,0.952295273119406
1592284924.0579872,-1.1266741627178538,10.409704039836159,1.8409047466066983,-0.29333333333333333,-0.5633333333333334,0.12444444444444444,0.42291152865121534,0.10673662247520158,0.9533200022373458
1592284924.0679872,-0.3249724770642202,10.009226736566186,1.8525688073394495,-0.29333333333333333,-0.5633333333333334,0.12444444444444444,0.2829772312425,0.08314418019047627,0.8845734100758528
1592284924.0779872,-0.19815054395765952,9.72844163481329,2.1952396354013524,-0.29333333333333333,-0.5633333333333334,0.12444444444444444,0.20795641657914207,0.1211867775260551,0.8220530926288634
1592284924.0879872,-0.4283581299617759,9.966870920317554,2.343230226403999,-0.29333333333333333,-0.5633333333333334,0.12444444444444444,0.22768707895737345,0.18575985440026693,0.7790043747127221
1592284924.0979872,-0.27,10.62,2.3,-0.3211111111111111,-0.5511111111111111,0.10111111111111111,0.26398104936414235,0.2596177262341565,0.6774059159302992
1592284924.1079872,0.24689164239117056,9.629291018750257,2.446452632010832,-0.3211111111111111,-0.5511111111111111,0.10111111111111111,0.27901681775708737,0.2962674116919601,0.4894588110184862
1592284924.1179872,-0.16381781599559272,9.600055330666603,2.1276207813360797,-0.3211111111111111,-0.5511111111111111,0.10111111111111111,0.34815608879940857,0.3809172261109101,0.1595433493427376
1592284924.1279871,-0.85,9.61,1.7,-0.3211111111111111,-0.5511111111111111,0.10111111111111111,0.38069994309126315,0.4199698512611355,0.014180800172453926
1592284924.1379871,-0.6475188249198041,9.65338882323147,1.4902873543812256,-0.3211111111111111,-0.5511111111111111,0.10111111111111111,0.3854329294909817,0.38683894646310574,0.007081320572876115
1592284924.1479871,-0.67,9.58,1.55,-0.3422222222222222,-0.5366666666666666,0.13666666666666666,0.35124751196385884,0.33052172709642613,0.04145156973486533
1592284924.157987,-0.5713283442469599,9.71978484565014,1.53355472404116,-0.3422222222222222,-0.5366666666666666,0.13666666666666666,0.342278005342583,0.2731168847202609,0.0620814349637997
1592284924.167987,-0.33489486832517956,9.681557458103466,1.5006674820443426,-0.3422222222222222,-0.5366666666666666,0.13666666666666666,0.31900799512945355,0.1967149299883309,0.06547411728181177
1592284924.177987,-0.33,9.66016366138026,1.5694271851690926,-0.3422222222222222,-0.5366666666666666,0.13666666666666666,0.31311306629435603,0.16821109909382,0.07410508246116193
1592284924.187987,-0.3066032568247447,9.712642672144325,1.4881113988866066,-0.3422222222222222,-0.5366666666666666,0.13666666666666666,0.3149825761514128,0.1667118461211676,0.07609063478468893
1592284924.197987,-0.41127211978715505,9.793311471352556,1.3780262343769336,-0.33837231365755066,-0.5289668495373235,0.1568786866311925,0.2974427324493399,0.16391645949199807,0.06044061053007928
1592284924.207987,-0.6042911415863603,9.765141771682728,1.352570885841364,-0.3377777777777778,-0.5277777777777778,0.16,0.2564998828022731,0.1598221745272914,0.03404876367745592
1592284924.217987,-0.7666031260891712,9.769757366149227,1.3207279015523206,-0.3377777777777778,-0.5277777777777778,0.16,0.20086599382135845,0.156068203638983,-0.0024520076802613394
1592284924.227987,-0.8426552506705178,9.704610274396533,1.450779451206932,-0.3377777777777778,-0.5277777777777778,0.16,0.17743074969326023,0.14806334350285347,-0.028633959208736456
1592284924.237987,-0.7849347464307611,9.618134361040553,1.739729350967855,-0.3377777777777778,-0.5277777777777778,0.16,0.16148671515942586,0.1290528200250318,-0.08879278490420811
1592284924.247987,-0.64,9.77,1.89,-0.31777777777777777,-0.5422222222222223,0.16666666666666666,0.17235126363444003,0.12980886311707826,-0.17235126363444003
1592284924.257987,-1.1878474487535744,9.229868712496476,1.4424626474970803,-0.31777777777777777,-0.5422222222222223,0.16666666666666666,0.20012745014150216,0.14243440243847014,-0.1774014793629968
1592284924.267987,-0.768627785533323,9.454455819244092,1.094329662375265,-0.31777777777777777,-0.5422222222222223,0.16666666666666666,0.21857736828953894,0.22390935998316558,0.04715777487360151
1592284924.277987,-1.0430913410770857,9.707702793510608,1.4215541902659115,-0.31777777777777777,-0.5422222222222223,0.16666666666666666,0.19441846563960713,0.23838890994007345,0.07356167702163072
1592284924.287987,-0.9627392853507075,9.776735416878754,1.3346342257966,-0.31777777777777777,-0.5422222222222223,0.16666666666666666,0.1983817975752253,0.23977606621228262,0.06179874537193624
1592284924.297987,-0.9634909666738645,9.656884522181434,1.388303222246215,-0.3229979925941921,-0.5222113987593007,0.16666666666666666,0.18510138711372986,0.24681601736480693,0.05890486225480862
1592284924.307987,-1.1455023242817588,9.628357253537228,1.4183572535372266,-0.3244444444444444,-0.5166666666666667,0.16666666666666666,0.1756081002450912,0.2523559581754056,0.05616995743014836
1592284924.317987,-1.3153563616014652,9.657071272320293,1.365857455359414,-0.3244444444444444,-0.5166666666666667,0.16666666666666666,0.165673872048937,0.23437029599924186,0.04578897751787929
1592284924.327987,-1.3859462633974453,9.69729750893163,1.3693243772329076,-0.3244444444444444,-0.5166666666666667,0.16666666666666666,0.16166405284298546,0.22522703427245983,0.04167266676837529
1592284924.337987,-1.48066792132551,9.683999778589616,1.3539997785896158,-0.3244444444444444,-0.5166666666666667,0.16666666666666666,0.15737046453319412,0.21772972757778755,0.03912443186270454
1592284924.347987,-1.73,9.69,1.27,-0.3111111111111111,-0.5344444444444445,0.17333333333333334,0.14508049407202864,0.1832595714594046,0.032724923474893676
1592284924.357987,-1.6444950002007952,9.72109272719971,1.27,-0.3111111111111111,-0.5344444444444445,0.17333333333333334,0.13405750029113556,0.14340720932848353,0.02424569748959132
1592284924.367987,-1.5029038085574995,9.702977801974807,1.2069482046078843,-0.3111111111111111,-0.5344444444444445,0.17333333333333334,0.11419626149683765,0.09268833079327807,0.01690384141382998
1592284924.377987,-1.291787936714524,9.736038556960995,1.1579550168788384,-0.3111111111111111,-0.5344444444444445,0.17333333333333334,0.10580357604883396,0.060183716824518646,0.009810467189145841
1592284924.387987,-1.0242808858845502,9.731427554923064,1.208574223961576,-0.3111111111111111,-0.5344444444444445,0.17333333333333334,0.09287614455136461,0.0009335563274198086,-0.0007793866117401082
1592284924.397987,-0.7154028376773548,9.729092755797238,1.2309072442027627,-0.3040389677132599,-0.547578425040454,0.17333333333333334,0.06961080832201022,-0.041060141550459284,-0.005256223931759283
1592284924.4079869,-0.4568129293114935,9.747937466976039,1.23,-0.30333333333333334,-0.5488888888888889,0.17333333333333334,0.0598048120597895,-0.060264961266713615,-0.004475816855608434
1592284924.4179869,-0.37259154244977316,9.755740845755023,1.2012957712248866,-0.30333333333333334,-0.5488888888888889,0.17333333333333334,0.05326880011438005,-0.06280358372901228,-0.0031108648765572535
