time,acc_x,acc_y,acc_z,mag_x,mag_y,mag_z,gyr_x,gyr_y,gyr_z
1592284380.2785058,-0.1535453869047619,9.75,0.9670907738095238,-0.47555555555555556,-0.5066666666666667,-0.2411111111111111,0.03437902550966137,-0.03828418347839775,-0.010099112668603721
1592284380.2885058,-0.11796807169864165,9.751593614339729,0.86087662792326,-0.47555555555555556,-0.5066666666666667,-0.2411111111111111,0.038700586460536986,-0.029548056399753112,-0.011999138607461015
1592284380.2985058,-0.15416859406525268,9.761457851483687,0.7702049603858078,-0.47555555555555556,-0.5066666666666667,-0.2411111111111111,0.04081546202497984,-0.015840665535426426,-0.011999138607461015
1592284380.3085058,-0.1355325475584853,9.763528105183964,0.8481213054848995,-0.47555555555555556,-0.5066666666666667,-0.2411111111111111,0.03525271366241269,0.002400312309379673,-0.011999138607461015
1592284380.3185058,-0.22569053845878262,9.725962275642175,0.953305628201913,-0.47555555555555556,-0.5066666666666667,-0.2411111111111111,0.024598443221520726,0.01633281980900763,-0.011999138607461015
1592284380.3285058,-0.24,9.74,1.03,-0.48333333333333334,-0.5066666666666667,-0.25555555555555554,0.022907446432425576,0.028361600344907853,-0.016362461737446838
1592284380.3385057,-0.28890325899254143,9.700877392805966,1.0984645625895582,-0.48333333333333334,-0.5066666666666667,-0.25555555555555554,0.03357648248711774,0.018759467895684907,-0.01849626894838527
1592284380.3485057,-0.3328391504391876,9.727354649811778,0.8640649254078171,-0.48333333333333334,-0.5066666666666667,-0.25555555555555554,0.053408427686444854,-0.006594134690035216,-0.025089107997418484
1592284380.3585057,-0.20621713500415897,9.77924342700083,0.75,-0.48333333333333334,-0.5066666666666667,-0.25555555555555554,0.06946510310230523,-0.04090254467248049,-0.02500657868574865
1592284380.3685057,-0.16829536002314563,9.77165907200463,0.75,-0.48333333333333334,-0.5066666666666667,-0.25555555555555554,0.07691102620802003,-0.06820426272676806,-0.024179253896224787
1592284380.3785057,-0.09933674921719328,9.769330344434955,0.7940051238257899,-0.47555555555555556,-0.5188888888888888,-0.24888888888888888,0.06945002558784902,-0.08173926059683218,-0.031270948200473055
1592284380.3885057,-0.05129530076930207,9.83,0.6799786819909166,-0.47555555555555556,-0.5188888888888888,-0.24888888888888888,0.059039181347824335,-0.08630762547618277,-0.022636482812341183
1592284380.3985057,-0.20194624953583365,9.822215001856666,0.6187581229112514,-0.47555555555555556,-0.5188888888888888,-0.24888888888888888,0.050343000100928445,-0.06944719695983795,-0.028255448899702513
1592284380.4085057,-0.22,9.751636832307032,0.7049104969210941,-0.47555555555555556,-0.5188888888888888,-0.24888888888888888,0.030800856061459794,-0.04474358862507445,-0.026973185051362314
1592284380.4185057,-0.22,9.774160998138335,0.7724829944150079,-0.47555555555555556,-0.5188888888888888,-0.24888888888888888,0.019334831123333555,-0.03000155656176929,-0.02287817614488866
1592284380.4285057,-0.318226148409894,9.77,0.8246784452296819,-0.49,-0.5255555555555556,-0.23444444444444446,-0.001160983150840751,0.003949732518813139,-0.017453292519943295
1592284380.4385056,-0.3,9.77,0.77,-0.49,-0.5255555555555556,-0.23444444444444446,-0.01308996938995747,0.01090830782496456,-0.017453292519943295
1592284380.4485056,-0.2901087744742567,9.839238578680202,0.4831544597534445,-0.49,-0.5255555555555556,-0.23444444444444446,-0.012011004061947923,-0.009592033407216842,-0.0152953618639242
1592284380.4585056,-0.2682291740018309,9.830252975142596,0.5397470248574044,-0.49,-0.5255555555555556,-0.23444444444444446,-0.0212500957056571,-0.04661515677582529,-0.01876488576063951
1592284380.4685056,-0.21654249700725303,9.837636786141822,0.5323632138581791,-0.49,-0.5255555555555556,-0.23444444444444446,-0.03655362353282998,-0.06997317293308916,-0.025208476424712304
1592284380.4785056,-0.18787100503757537,9.831596746221818,0.6342579899248493,-0.4711111111111111,-0.5188888888888888,-0.2611111111111111,-0.0916297857297023,-0.10035643198967394,-0.028361600344907853
1592284380.4885056,-0.15323313238087372,9.857575150714345,0.7035337352382525,-0.4711111111111111,-0.5188888888888888,-0.2611111111111111,-0.0916297857297023,-0.10035643198967394,-0.028361600344907853
1592284380.4985056,-0.007281329864388829,9.800604148919025,0.7018124467570741,-0.4711111111111111,-0.5188888888888888,-0.2611111111111111,-0.11922662662149808,-0.08062950584834049,-0.03523609715892864
1592284380.5085056,0.0796311560334308,9.819918034674096,0.7597541040222872,-0.4711111111111111,-0.5188888888888888,-0.2611111111111111,-0.16452321601068834,-0.007944281014523547,-0.04577018771455429
1592284380.5185056,0.016722093860081055,9.83581947653498,0.8628265974773683,-0.4711111111111111,-0.5188888888888888,-0.2611111111111111,-0.17679490853410024,0.02946538425229778,-0.05961999043872017
1592284380.5285056,0.03011660777385159,9.85069964664311,0.9395335689045936,-0.49777777777777776,-0.5255555555555556,-0.2411111111111111,-0.19538590941606132,0.0635861837577837,-0.08092499686345087
1592284380.5385056,0.03604494699646643,9.8862696819788,0.9158202120141342,-0.49777777777777776,-0.5255555555555556,-0.2411111111111111,-0.2018527243291707,0.07975322104055714,-0.09127190072442587
1592284380.5485055,0.06858049459547985,9.932864395676383,0.8199746151326565,-0.49777777777777776,-0.5255555555555556,-0.2411111111111111,-0.2198846705366683,0.10238601859502058,-0.11251595273519362
1592284380.5585055,0.11005063613636726,9.929949363863633,0.8552405216477444,-0.49777777777777776,-0.5255555555555556,-0.2411111111111111,-0.24383520204811795,0.1167327025911848,-0.13474660025284677
1592284380.5685055,0.21998789736969504,9.897144586090043,1.0271324834597384,-0.49777777777777776,-0.5255555555555556,-0.2411111111111111,-0.2639801692360299,0.12030330347764126,-0.15458517358335327
1592284380.5785055,0.4743697142571186,9.917067507381274,1.1763343842265925,-0.4854219419840197,-0.5255555555555556,-0.2411111111111111,-0.27068597672001854,0.12235859204383193,-0.18299088962427237
1592284380.5885055,0.7011912568306011,9.995595628415302,1.2260449301760776,-0.4711111111111111,-0.5255555555555556,-0.2411111111111111,-0.267050078920871,0.14100156847574286,-0.22446608509862712
1592284380.5985055,0.8346537455120794,10.197922473072477,1.1296029331223758,-0.4711111111111111,-0.5255555555555556,-0.2411111111111111,-0.26686475111386615,0.20447185902293147,-0.3246687259401886
1592284380.6085055,0.8356426820580315,10.208213410290158,1.1753597691295266,-0.4711111111111111,-0.5255555555555556,-0.2411111111111111,-0.2739078768679443,0.23471645814628775,-0.3820262422184073
1592284380.6185055,0.8305781421688784,10.182890710844392,1.2513278674668245,-0.4711111111111111,-0.5255555555555556,-0.2411111111111111,-0.2816422552823216,0.2590245045914735,-0.4317472463108327
1592284380.6285055,0.61,10.19,1.49,-0.4633333333333333,-0.5255555555555556,-0.27,-0.25198191075668136,0.3239767424014474,-0.6686792696703274
1592284380.6385055,0.44923918288563613,9.993514556860223,1.5614492520508285,-0.4633333333333333,-0.5255555555555556,-0.27,-0.22470324552349424,0.3454099793703801,-0.7748712164709486
1592284380.6485054,0.1543229478013438,9.938423041055929,1.2955845149566008,-0.4633333333333333,-0.5255555555555556,-0.27,-0.1770485315889949,0.35291311492117394,-0.8975775932931606
1592284380.6585054,-0.02,9.89,1.16,-0.4633333333333333,-0.5255555555555556,-0.27,-0.1538071403320003,0.33706671179140485,-0.9926560120717749
1592284380.6685054,-0.1409367434353467,9.88424110745546,1.0908932894655161,-0.4633333333333333,-0.5255555555555556,-0.27,-0.14940975624952854,0.3295283390785962,-1.0416554347050315
1592284380.6785054,-0.34,9.94,0.89,-0.45666666666666667,-0.5255555555555556,-0.2611111111111111,-0.1538071403320003,0.31634092692397225,-1.1540989678812505
1592284380.6885054,-0.47999479340994455,9.835003904942543,0.9424980475287292,-0.45666666666666667,-0.5255555555555556,-0.2611111111111111,-0.1872125906534252,0.3172953683617272,-1.2027754812067553
1592284380.6985054,-0.72,9.64,0.85,-0.45666666666666667,-0.5255555555555556,-0.2611111111111111,-0.234528618236738,0.31306843457648287,-1.2500920767409385
1592284380.7085054,-0.9041374221056084,9.613694653984913,0.8675368973433912,-0.45666666666666667,-0.5255555555555556,-0.2611111111111111,-0.2670492569045456,0.3063730089684048,-1.2730478216829204
1592284380.7185054,-0.9740461512357899,9.53658974794035,0.9727743528835096,-0.45666666666666667,-0.5255555555555556,-0.2611111111111111,-0.2988434401587641,0.28621386005161015,-1.280275923655728
1592284380.7285054,-1.14,9.56,1.05,-0.4177777777777778,-0.5577777777777778,-0.2611111111111111,-0.33488505022641196,0.26289021858164585,-1.261000384565903
1592284380.7385054,-1.1261255909300087,9.421255909300088,1.0569372045349956,-0.4177777777777778,-0.5577777777777778,-0.2611111111111111,-0.35228987760428054,0.24548539120377724,-1.239811899062411
1592284380.7485054,-1.256822672613335,9.457730480438098,1.0013617117371423,-0.4177777777777778,-0.5577777777777778,-0.2611111111111111,-0.39728675398134555,0.23460288809072607,-1.1835498594179832
1592284380.7585053,-1.6347439831239812,9.588201888963468,0.9506915811678972,-0.4177777777777778,-0.5577777777777778,-0.2611111111111111,-0.43795572002393784,0.23775584670263514,-1.1555669976770155
1592284380.7685053,-1.7997846019502255,9.441628583903363,1.1154911948770194,-0.4177777777777778,-0.5577777777777778,-0.2611111111111111,-0.4609237125833788,0.23095369063373186,-1.1439849296538451
1592284380.7785053,-1.98,9.57,1.27,-0.3711111111111111,-0.5644444444444444,-0.27666666666666667,-0.5083271446433485,0.22580197197676635,-1.1148290597113781
1592284380.7885053,-1.8852834363317312,9.360270466163119,1.4391367208361945,-0.3711111111111111,-0.5644444444444444,-0.27666666666666667,-0.5371090731233747,0.2191599884813757,-1.1281130267021595
1592284380.7985053,-1.8495238637333866,9.221904545066455,1.5866670461337053,-0.3711111111111111,-0.5644444444444444,-0.27666666666666667,-0.5550251146521821,0.21494560256143033,-1.1448529375249938
1592284380.8085053,-2.35892031093519,9.306420430158806,1.8300567504411274,-0.3711111111111111,-0.5644444444444444,-0.27666666666666667,-0.544758416573606,0.22222578035376483,-1.1558467733383688
1592284380.8185053,-2.2455257428475055,9.14066204654871,2.0093379534512894,-0.3711111111111111,-0.5644444444444444,-0.27666666666666667,-0.531828859871022,0.21275023568559132,-1.1774689913242289
1592284380.8285053,-2.0991002855559815,9.042664762960122,2.212699143332055,-0.34406367156484363,-0.574133079505794,-0.2871626879831287,-0.48911476757722366,0.2072540983575248,-1.2352849116738711
1592284380.8385053,-2.0812240548949412,9.161839634033727,2.266327835315177,-0.29970413622077946,-0.5900230623156081,-0.3043768360270939,-0.4397149127877123,0.21440407734021724,-1.2950847358927533
1592284380.8485053,-2.08,9.188722027888256,2.11086276294983,-0.2966666666666667,-0.5911111111111111,-0.3055555555555556,-0.39548718433605035,0.27411910071247325,-1.3338978213164312
1592284380.8585052,-2.6054690971641543,9.28383376735074,2.353351171847003,-0.2966666666666667,-0.5911111111111111,-0.3055555555555556,-0.3742748645632401,0.3436701771294283,-1.3761868456850406
1592284380.8685052,-2.4393536371603854,8.986801051709026,2.4368821209465383,-0.2966666666666667,-0.5911111111111111,-0.3055555555555556,-0.3565271903129707,0.35624348826677804,-1.4002108514648133
1592284380.8785052,-3.1913988041311834,8.715410400434862,2.379452799420185,-0.2810503110466872,-0.5930631555636086,-0.3192198667230376,-0.2660267276752201,0.3665191429188092,-1.4220156256057968
1592284380.8885052,-3.266770006351223,8.545173864718958,2.457276913305811,-0.2788888888888889,-0.5933333333333334,-0.3211111111111111,-0.22451143844860172,0.3437049228548623,-1.3990688527862363
1592284380.8985052,-3.6460270172476177,8.673588228199252,2.0702448438065373,-0.2788888888888889,-0.5933333333333334,-0.3211111111111111,-0.10789738689614685,0.277637419250861,-1.3144816166980666
1592284380.9085052,-3.6371477464449264,8.455910580862858,2.300515545914678,-0.2788888888888889,-0.5933333333333334,-0.3211111111111111,-0.05228489444602705,0.2090346487493301,-1.2540692841593857
1592284380.9185052,-3.6347913098092954,8.49228702752084,2.248547733241978,-0.2788888888888889,-0.5933333333333334,-0.3211111111111111,-0.02134136246471505,0.18198849263051414,-1.2218234031704673
1592284380.9285052,-3.7130714973983427,8.651339371747929,1.9773212565041434,-0.20683227339885657,-0.6237797905826428,-0.34039386736900706,0.029555691115911206,0.1323596286882202,-1.1564091578602764
1592284380.9385052,-3.666204472335862,8.618159034039003,2.3126595702426815,-0.2,-0.6266666666666667,-0.3422222222222222,0.041414395615177436,0.12133260058400207,-1.1399677332017137
1592284380.9485052,-3.8913213229657213,8.502892892344759,2.367075073923995,-0.2,-0.6266666666666667,-0.3422222222222222,0.06509999502266646,0.09947481349584761,-1.1283409480166877
1592284380.9585052,-3.74455680705191,8.434367042115573,2.0432908912830556,-0.2,-0.6266666666666667,-0.3422222222222222,0.08583735140927884,0.10922116823851696,-1.1225247052807434
1592284380.9685051,-4.023805515991195,8.442193448141914,2.08503172342354,-0.2,-0.6266666666666667,-0.3422222222222222,0.10091943231325687,0.10981500691919066,-1.1283975652519374
1592284380.9785051,-4.05481568063298,8.53604117964395,2.0025705808307857,-0.1493058802373674,-0.6229115466842494,-0.34879368219145235,0.10253809355466686,0.08846851457510549,-1.1414988032860949
1592284380.9885051,-4.074784413925264,8.393254551261577,1.6397149473011816,-0.14,-0.6222222222222222,-0.35,0.10437005170288212,0.08935937004722584,-1.1242604258580615
1592284380.998505,-4.472153967691847,8.438443705903184,1.944286414775668,-0.14,-0.6222222222222222,-0.35,0.08559879215528912,0.09363933440978363,-1.0827320867689345
1592284381.008505,-4.192074024170596,8.291066641002022,1.871066641002021,-0.14,-0.6222222222222222,-0.35,0.0856075923318825,0.09489581405030902,-1.0739455294618503
1592284381.018505,-3.938642991857951,8.095203551221307,1.6949321495928975,-0.14,-0.6222222222222222,-0.35,0.0899861382246904,0.09760715103963113,-1.0652628710891943
1592284381.028505,-4.972027960249284,8.248078153949805,1.9166902475997978,-0.10650852469447719,-0.64614470458331,-0.3126809275167031,0.0681439435918196,0.07341564930369233,-1.0373179719468728
1592284381.038505,-4.914201052016365,8.201631794272355,1.91822910578609,-0.10111111111111111,-0.65,-0.30666666666666664,0.06482110509257051,0.06248413880600184,-1.0326569235000989
1592284381.048505,-4.332296720191322,7.93853817902289,1.7822429108302016,-0.10111111111111111,-0.65,-0.30666666666666664,0.06557217875858629,0.03982333615484243,-1.0225766674985846
1592284381.058505,-5.175585421799338,8.200189618554074,1.6424079517458159,-0.10111111111111111,-0.65,-0.30666666666666664,0.03940003684073993,0.03835298385636184,-1.0144945166207633
1592284381.068505,-4.840230312693773,7.947666755248472,1.8374364425546992,-0.10111111111111111,-0.65,-0.30666666666666664,0.016811780821387713,0.019784727112916498,-1.0076679076078796
1592284381.078505,-5.216955319657303,8.064623340273748,1.8153766597262517,-0.0815150584246396,-0.6423319793835547,-0.31348268499239584,-0.0062950359956955755,0.003996759008960543,-0.9010173647614932
1592284381.088505,-5.14,7.99,1.89,-0.07555555555555556,-0.64,-0.31555555555555553,-0.014180800172453926,-0.001090830782496456,-0.8857545953871222
1592284381.098505,-5.137178031817092,7.982239587497002,1.84414301702774,-0.07555555555555556,-0.64,-0.31555555555555553,-0.018567363082081234,-0.004553906763781171,-0.8756731964193822
1592284381.108505,-5.27809692349578,7.734614756329975,1.399923768037027,-0.07555555555555556,-0.64,-0.31555555555555553,-0.09499256192088318,-0.06643376265422807,-0.7230319254905851
1592284381.118505,-5.523855421686747,7.619638554216868,1.7093975903614458,-0.07555555555555556,-0.64,-0.31555555555555553,-0.1268255066396482,-0.10211753228912605,-0.6802972746308922
1592284381.128505,-5.579780587579026,7.86,1.8165935291930086,-0.011775546465022116,-0.6453898599231437,-0.31016569563241186,-0.12015405738133424,-0.1445223002614243,-0.6876635385283674
1592284381.138505,-5.62,7.86,1.83,0.0033333333333333335,-0.6466666666666666,-0.3088888888888889,-0.11890055529211369,-0.15162547876700738,-0.6926775468852495
1592284381.148505,-5.5681136573362044,7.853273992617656,1.8386477237772993,0.0033333333333333335,-0.6466666666666666,-0.3088888888888889,-0.1169091012632105,-0.15277842583637238,-0.6907909062262886
1592284381.158505,-5.36221219825583,7.724486453976326,1.8948024822985867,0.0033333333333333335,-0.6466666666666666,-0.3088888888888889,-0.09652559674760897,-0.15812737178422817,-0.6675453472100731
1592284381.168505,-5.397088904766765,7.465671123813412,1.7679773400020415,0.0033333333333333335,-0.6466666666666666,-0.3088888888888889,-0.08536318167393941,-0.1399975143451675,-0.6435860419690249
1592284381.178505,-5.539987146234535,7.333074574792848,1.7523047260541234,0.005470016806808415,-0.6453846565825816,-0.31145290905705897,-0.07736500808704173,-0.12527776031271715,-0.6088518821055117
1592284381.188505,-5.953550098632746,7.573518128018502,1.9874920073464388,0.008888888888888889,-0.6433333333333333,-0.31555555555555553,-0.06612492881218807,-0.1311235587027032,-0.5813168650121274
1592284381.198505,-5.992362202612451,7.7345345063433735,1.862172303730923,0.008888888888888889,-0.6433333333333333,-0.31555555555555553,-0.03454735374553014,-0.1425838102439362,-0.560327790908822
1592284381.208505,-5.779478789323165,7.287659675881793,2.105932554814109,0.008888888888888889,-0.6433333333333333,-0.31555555555555553,0.00021738624888549551,-0.154916922869512,-0.5348091936359277
1592284381.218505,-5.8327671794047955,7.351171934615848,2.063722237840877,0.008888888888888889,-0.6433333333333333,-0.31555555555555553,0.04624458354779927,-0.16595720516323337,-0.5290529295107812
1592284381.228505,-5.791548168404262,7.2509673560075205,1.9133546972027573,0.008888888888888889,-0.6564946479550821,-0.30626521582255645,0.08326208885728262,-0.17777024348990114,-0.5237324805164634
1592284381.238505,-5.69536614931191,7.368291303211086,1.9023169253440448,0.008888888888888889,-0.6622222222222223,-0.3022222222222222,0.10757974734237746,-0.17783204467628377,-0.5043763216381343
1592284381.2485049,-6.1349746338661815,7.514586005551833,1.91,0.008888888888888889,-0.6622222222222223,-0.3022222222222222,0.09473343789577147,-0.18240983652038323,-0.4724742401450752
1592284381.2585049,-5.8485535873029635,7.349838468376661,1.8896255501832135,0.008888888888888889,-0.6622222222222223,-0.3022222222222222,0.09576565239440618,-0.1858320740443397,-0.42952463110490485
1592284381.2685049,-5.731101393769495,7.431484976507285,2.174739803371896,0.008888888888888889,-0.6622222222222223,-0.3022222222222222,0.1039421284849232,-0.17951727289027541,-0.39179592790658296
1592284381.2785048,-5.734010020294266,7.416329274479959,2.0617408675799087,0.03227042110603755,-0.6635211962342861,-0.31456247533682846,0.10607935033581926,-0.16005181449762737,-0.356485685808929
1592284381.2885048,-6.161910420051056,7.32007960083546,1.9472504061267115,0.04888888888888889,-0.6644444444444444,-0.3233333333333333,0.08865722754584761,-0.15126476287422966,-0.3344809188128178
1592284381.2985048,-6.033835592056752,7.400416232296778,2.1678740878232348,0.04888888888888889,-0.6644444444444444,-0.3233333333333333,0.07457650240259797,-0.12858182063398324,-0.3133003356208128
1592284381.3085048,-6.242926595617291,7.284829361753084,2.23,0.04888888888888889,-0.6644444444444444,-0.3233333333333333,0.0767455296721979,-0.10227311219610233,-0.2938549218083526
1592284381.3185048,-6.279101123595505,7.173496629213483,2.1835865168539326,0.04888888888888889,-0.6644444444444444,-0.3233333333333333,0.08096121554637405,-0.091590564847635,-0.2862085037537263
1592284381.3285048,-6.276950227100682,7.158236184708554,2.2342657077971233,0.0662419042812684,-0.6564909790562705,-0.31827203717722263,0.09479802570301288,-0.06281897119427357,-0.265661370551525
1592284381.3385048,-6.300833232408865,7.246717936296475,2.3454487101852974,0.07555555555555556,-0.6522222222222223,-0.31555555555555553,0.10629027665802937,-0.05958033976369857,-0.2581688778398682
1592284381.3485048,-5.963566646216224,6.994894769132279,1.887271999786604,0.07555555555555556,-0.6522222222222223,-0.31555555555555553,0.14574417566710884,-0.06086529662144147,-0.24063114853499662
1592284381.3585048,-6.126808153477218,6.896914868105516,1.9365947242206234,0.07555555555555556,-0.6522222222222223,-0.31555555555555553,0.15716085641041655,-0.06309409716279171,-0.2277399623489786
1592284381.3685048,-6.144743585832392,7.007339760212331,2.068418804722536,0.07555555555555556,-0.6522222222222223,-0.31555555555555553,0.16505808196936253,-0.06636819608410421,-0.22080815737342327
1592284381.3785048,-6.092082787529473,7.494165575058947,2.2367690594707885,0.07847797135621343,-0.6528067053823539,-0.31964693767647656,0.1794190869242779,-0.06866554007851298,-0.21075753789687093
1592284381.3885047,-5.9249473978865845,7.243197415381744,2.1036842473582307,0.0811111111111111,-0.6533333333333333,-0.3233333333333333,0.1655838073741958,-0.0641365446020254,-0.2183886280645567
1592284381.3985047,-6.244830724426647,7.168707681106662,2.0324717874044413,0.0811111111111111,-0.6533333333333333,-0.3233333333333333,0.14451979037167006,-0.06151856746427046,-0.21837145665020152
1592284381.4085047,-6.035542120112858,7.1760113331910755,2.1672572729212605,0.0811111111111111,-0.6533333333333333,-0.3233333333333333,0.14721979176994404,-0.05918286543381743,-0.2126334561494985
1592284381.4185047,-5.85689143364403,7.13862885042166,2.10488166888593,0.0811111111111111,-0.6533333333333333,-0.3233333333333333,0.15581730954761006,-0.052637092860684825,-0.2117926641536956
1592284381.4285047,-6.146456478432329,7.190326056023093,2.0206521120461844,0.08603985129171127,-0.6569178716464971,-0.3175084585744422,0.1386398605105708,-0.048894116092117745,-0.2170931093141351
1592284381.4385047,-6.091152605669666,7.1177643863520625,2.1135528772704126,0.09333333333333334,-0.6622222222222223,-0.3088888888888889,0.11276109078278548,-0.06571167596463202,-0.21385671755835756
1592284381.4485047,-6.029216231239577,7.075344635908838,2.097695942190106,0.09333333333333334,-0.6622222222222223,-0.3088888888888889,0.10590123581987898,-0.07626750485702917,-0.20977633986671076
1592284381.4585047,-6.169379166565658,7.209220624954547,2.095468958328283,0.09333333333333334,-0.6622222222222223,-0.3088888888888889,0.07432923226092625,-0.11320864569939518,-0.20606470705579036
1592284381.4685047,-6.232102223060179,7.158335875769158,2.107970793411378,0.09333333333333334,-0.6622222222222223,-0.3088888888888889,0.05217038490465957,-0.1480758802880647,-0.19768561831739076
1592284381.4785047,-6.187090075168811,7.025819849662377,2.1258198496623777,0.09139338344587421,-0.6696586967908156,-0.3088888888888889,0.03750392692981859,-0.1796520054698463,-0.1858972166907717
1592284381.4885046,-6.032820674746788,7.217841684680965,2.103205168686697,0.08666666666666667,-0.6877777777777778,-0.3088888888888889,0.0506117292265585,-0.2014540650951901,-0.18100565768912477
1592284381.4985046,-5.985682182281036,7.033065815173261,2.1028410911405184,0.08666666666666667,-0.6877777777777778,-0.3088888888888889,0.07012002084831269,-0.21270587418949685,-0.180142036595513
1592284381.5085046,-6.2763253471692355,7.231512793122742,2.0687349305661527,0.08666666666666667,-0.6877777777777778,-0.3088888888888889,0.08769432750453515,-0.21490753605248977,-0.1773498088407278
1592284381.5185046,-6.203598188183491,7.540969430107915,2.0796681344064676,0.08666666666666667,-0.6877777777777778,-0.3088888888888889,0.09215852783129855,-0.2209794542449959,-0.16862243102636973
1592284381.5285046,-5.875443966707428,7.3386466017119645,2.2311206658514458,0.09577873325181124,-0.6822092926424117,-0.3119262444172704,0.09114549317883655,-0.23085599826326017,-0.154982136039374
1592284381.5385046,-5.895567002076346,7.158442740776234,2.296939785976681,0.10666666666666667,-0.6755555555555556,-0.31555555555555553,0.09825822481612262,-0.22511125186221487,-0.14755572693050606
1592284381.5485046,-5.9408088313909975,7.177439858868812,1.9983288784347268,0.10666666666666667,-0.6755555555555556,-0.31555555555555553,0.11408442017527419,-0.19371215157319574,-0.14589788822782104
1592284381.5585046,-5.881187159297395,7.010314960629921,2.0119200484554813,0.10666666666666667,-0.6755555555555556,-0.31555555555555553,0.12186846072819733,-0.18601803209957582,-0.13986617757568579
1592284381.5685046,-5.930269671222756,7.564244551163649,2.249917251570004,0.10666666666666667,-0.6755555555555556,-0.31555555555555553,0.11520349725846316,-0.1645212182208129,-0.11026651077348586
1592284381.5785046,-5.644824626557728,7.297569530411818,2.0619105389122723,0.10424963091340908,-0.6759008463774495,-0.31141206569282825,0.08959585489955108,-0.16188614801400053,-0.09285515861044427
1592284381.5885046,-6.21,7.27,1.8,0.09888888888888889,-0.6766666666666666,-0.3022222222222222,0.08508480103472357,-0.148352986419518,-0.06654067773228381
1592284381.5985045,-6.636085305287759,7.4667221735319895,2.2554776511831727,0.09888888888888889,-0.6766666666666666,-0.3022222222222222,0.06952349284305415,-0.14073374213710266,-0.01084042966058485
1592284381.6085045,-6.085710815830833,7.2708158308329764,2.070225746535219,0.09888888888888889,-0.6766666666666666,-0.3022222222222222,0.08455645179159411,-0.13328396726871755,0.006130253917407215
1592284381.6185045,-5.520858626198082,7.190299520766773,2.1000199680511185,0.09888888888888889,-0.6766666666666666,-0.3022222222222222,0.09711007775997603,-0.11888530805673533,0.013109572978301056
1592284381.6285045,-6.052222776599725,7.426496195584383,2.176837969315205,0.10369423308802128,-0.6871510540102282,-0.3022222222222222,0.117035924502126,-0.11684012738400046,0.020763066598055595
1592284381.6385045,-6.196091862416107,7.56078355704698,2.2705973154362415,0.1111111111111111,-0.7033333333333334,-0.3022222222222222,0.12743488771908063,-0.12495407130274702,0.018051602222624658
1592284381.6485045,-5.8438704310020935,7.490360152434115,1.8199345177392519,0.1111111111111111,-0.7033333333333334,-0.3022222222222222,0.11291705775317282,-0.10144369126888382,0.061587295419967505
1592284381.6585045,-6.19,7.607190419447092,1.8455412297426121,0.1111111111111111,-0.7033333333333334,-0.3022222222222222,0.10859670186476175,-0.10616481994034252,0.08856532073973288
1592284381.6685045,-5.972041170327628,7.641952493052728,1.837662707754394,0.1111111111111111,-0.7033333333333334,-0.3022222222222222,0.09562518009548379,-0.10369991898798087,0.11720946541272656
1592284381.6785045,-5.836290055664209,7.397353693395517,2.0028193169851063,0.10712100697056316,-0.6986177557126858,-0.30149674874212257,0.07315311111864302,-0.09919815251579701,0.14788445597209401
1592284381.6885045,-6.2,7.33,2.38,0.09888888888888889,-0.6888888888888889,-0.3,0.06654067773228381,-0.10581058590215622,0.15817046346198613
1592284381.6985044,-5.21312467873665,7.077874807241989,2.0274684447998172,0.09888888888888889,-0.6888888888888889,-0.3,0.03448726717012862,-0.09306146608733372,0.1492563219001741
1592284381.7085044,-5.950024089488873,7.347897774703652,2.215660552865695,0.09888888888888889,-0.6888888888888889,-0.3,0.017087227952725867,-0.08763252716693391,0.1346529094175315
1592284381.7185044,-6.047046686853038,7.435515104570101,2.2187184001126683,0.09888888888888889,-0.6888888888888889,-0.3,0.019841582829736956,-0.08147501990715238,0.11627222229551619
1592284381.7285044,-5.46629045524443,7.183435968958981,1.8908285949290133,0.09715063953557677,-0.6946830533999293,-0.29478525194006366,0.029265028091996343,-0.06160851383162377,0.09879377778643242
1592284381.7385044,-6.76,7.42,2.12,0.09222222222222222,-0.7111111111111111,-0.28,0.016362461737446838,-0.05999569303730508,0.08508480103472357
1592284381.7485044,-6.220319190024277,7.3931394835577136,1.8904066431251378,0.09222222222222222,-0.7111111111111111,-0.28,0.05649807088723747,-0.10322302261584593,0.085779269749347
1592284381.7585044,-5.96,7.37,1.74,0.09222222222222222,-0.7111111111111111,-0.28,0.062177354602297986,-0.09817477042468103,0.09272061651219875
1592284381.7685044,-6.189472072850021,7.359031675628999,1.8278521803980061,0.09222222222222222,-0.7111111111111111,-0.28,0.02888973936057272,-0.14838753917068476,0.11546287767324735
1592284381.7785044,-6.0038180413366815,7.326209001352135,1.8204666795441375,0.09575395445667804,-0.7121977979524822,-0.2783699697379435,0.010785465571498183,-0.172060572085757,0.16787099805046823
1592284381.7885044,-6.51,7.16,2.1,0.10666666666666667,-0.7155555555555555,-0.2733333333333333,-0.009817477042468103,-0.17453292519943295,0.22143864884678055
1592284381.7985044,-6.00307604743083,7.12615209486166,2.1223497233201583,0.10666666666666667,-0.7155555555555555,-0.2733333333333333,-0.05638641423099214,-0.1598481870749704,0.27203536444269355
1592284381.8085043,-6.005212095156205,7.072969332186873,1.7325451418744626,0.10666666666666667,-0.7155555555555555,-0.2733333333333333,-0.08529646410143324,-0.17720388174138402,0.2672865261334011
1592284381.8185043,-6.0,7.0,1.67,0.10666666666666667,-0.7155555555555555,-0.2733333333333333,-0.10690141668465267,-0.19198621771937624,0.2530727415391778
1592284381.8285043,-6.317559393246626,7.27,2.0671123605919246,0.10351859289237646,-0.7182838861599403,-0.27165436065371185,-0.13263281032214655,-0.24254005235864784,0.22934113131989647
1592284381.8385043,-5.840680835827003,7.2539504846671266,1.9764208803294203,0.09,-0.73,-0.2644444444444444,-0.1608235656920248,-0.27995984131666135,0.22448892407407287
1592284381.8485043,-5.836714948841957,7.284046224512116,2.0223651785063312,0.09,-0.73,-0.2644444444444444,-0.17141859496457326,-0.31329332381574493,0.21909042131570444
1592284381.8585043,-5.834140094093048,7.317852492515326,2.114735066292829,0.09,-0.73,-0.2644444444444444,-0.18015643443988252,-0.3389167645308677,0.19585702631890067
1592284381.8685043,-6.091207790587857,7.317604910992712,2.3850460628307704,0.09,-0.73,-0.2644444444444444,-0.20409700714054846,-0.34213008785589794,0.17903581184655779
1592284381.8785043,-5.850712339282287,7.380387641527538,2.3407438111686814,0.0838053689844133,-0.7235917610183585,-0.2620947568178426,-0.22131007692841376,-0.31281644031511857,0.18393270050645805
1592284381.8885043,-6.61,7.34,2.68,0.057777777777777775,-0.6966666666666667,-0.25222222222222224,-0.2574360646691636,-0.31634092692397225,0.15926129424448257
1592284381.8985043,-5.42990716704289,6.9609856094808125,2.5375584085778784,0.057777777777777775,-0.6966666666666667,-0.25222222222222224,-0.2591670813840851,-0.23078488945358216,0.16610333333793403
1592284381.9085042,-6.1939064820581615,7.1026019259330235,2.644776984621281,0.057777777777777775,-0.6966666666666667,-0.25222222222222224,-0.247429457333884,-0.16523784285355061,0.19222295721272692
1592284381.9185042,-6.55,7.47,2.95,0.057777777777777775,-0.6966666666666667,-0.25222222222222224,-0.2159844949342983,-0.12762720155208535,0.21380283336930533
1592284381.9285042,-6.170434124767226,6.602316108007448,2.7027839851024207,0.05847933478170908,-0.6983704479619284,-0.2547277829505483,-0.1807098560724311,-0.09273762900345277,0.22202900768507297
1592284381.9385042,-6.78,7.13,2.63,0.06555555555555556,-0.7155555555555555,-0.28,-0.14398966328953217,-0.07090400086226964,0.22798363354175932
1592284381.9485042,-6.148521594684386,6.744437838783004,2.817751355132016,0.06555555555555556,-0.7155555555555555,-0.28,-0.057375047900723494,-0.12964759411435037,0.23725245264650208
1592284381.9585042,-6.56,6.73,2.76,0.06555555555555556,-0.7155555555555555,-0.28,-0.025089107997418484,-0.17453292519943295,0.2301652951067522
1592284381.9685042,-6.1376894138232725,7.008102799650044,2.9369475065616797,0.06555555555555556,-0.7155555555555555,-0.28,0.04507726984491107,-0.2643747218906338,0.21923675489982009
1592284381.9785042,-5.878435303913405,6.979391507077436,2.7141741881765196,0.0589468405957998,-0.7125265611990008,-0.2673332963271348,0.08284624551451368,-0.29204386561728496,0.23090993016813594
1592284381.9885042,-6.42,7.19,3.0,0.03888888888888889,-0.7033333333333334,-0.2288888888888889,0.10253809355466686,-0.3010692959690219,0.25634523388666713
1592284381.9985042,-5.6347501925828105,7.2084736436667765,2.8054071750852865,0.03888888888888889,-0.7033333333333334,-0.2288888888888889,0.1568213001336624,-0.24408626219582177,0.3029366249265572
1592284382.0085042,-5.77,7.18,2.3,0.03888888888888889,-0.7033333333333334,-0.2288888888888889,0.17235126363444003,-0.21380283336930533,0.3021601267515183
1592284382.0185041,-5.999940881442749,7.294504748692775,2.825153132002988,0.03888888888888889,-0.7033333333333334,-0.2288888888888889,0.20522155361036687,-0.17582441483401215,0.30314291045981634
1592284382.0285041,-5.645543047803175,7.406207864292619,2.3220786429261904,0.03727944259080247,-0.7058624632303263,-0.23371722778314816,0.22692957310058556,-0.13488714998828746,0.329995717329345
1592284382.0385041,-6.28,7.43,2.56,0.03111111111111111,-0.7155555555555555,-0.25222222222222224,0.20616701789183017,-0.14180800172453928,0.34470252726888007
1592284382.048504,-5.634625788294158,7.269257049043623,2.3854284150727056,0.03111111111111111,-0.7155555555555555,-0.25222222222222224,0.17667731988696056,-0.17004478219229224,0.3585467316396052
1592284382.058504,-6.25,7.29,2.42,0.03111111111111111,-0.7155555555555555,-0.25222222222222224,0.14726215563702155,-0.20398535632683729,0.35779249665883756
1592284382.068504,-5.36044572328833,7.244625062908908,2.75880965405571,0.03111111111111111,-0.7155555555555555,-0.25222222222222224,0.1233456770061921,-0.22096673761068641,0.38166035442132834
1592284382.078504,-5.577003427004798,7.415993145990404,2.472795407813571,0.02644215977457924,-0.7147773969994669,-0.24307885918818065,0.08213918409375062,-0.18832800940157166,0.402872854429608
1592284382.088504,-5.61,7.35,2.91,0.0044444444444444444,-0.7111111111111111,-0.2,0.07853981633974483,-0.15053464798451094,0.4199698512611355
1592284382.098504,-5.453938147471055,7.688004265691651,2.32297760511883,0.0044444444444444444,-0.7111111111111111,-0.2,0.018767640578865367,-0.04898027972188973,0.4300085190061483
1592284382.108504,-5.86,7.66,2.47,0.0044444444444444444,-0.7111111111111111,-0.2,-0.016362461737446838,-0.03599741582238304,0.41015237421866746
1592284382.118504,-5.680425932990731,7.329290635308903,2.201666928480061,0.0044444444444444444,-0.7111111111111111,-0.2,-0.007365072261335275,0.005589525520552238,0.4008919280878868
1592284382.128504,-6.108400594353641,7.062247845468054,2.663018722139673,0.003441802872709262,-0.7111111111111111,-0.1987968301139178,-0.0420162408017392,-0.025418399500794386,0.42496582382800696
1592284382.138504,-5.42,6.8,3.04,-0.0011111111111111111,-0.7111111111111111,-0.19333333333333333,0.0,-0.06654067773228381,0.4625122517784973
1592284382.148504,-5.797341679707877,7.5185443401147625,2.7089241001564943,-0.0011111111111111111,-0.7111111111111111,-0.19333333333333333,0.05864253935927869,-0.161767445248035,0.49092910495020764
1592284382.158504,-5.59,7.6,2.82,-0.0011111111111111111,-0.7111111111111111,-0.19333333333333333,0.12326387842209952,-0.16580627893946132,0.5377795757707527
1592284382.168504,-4.68649134821714,7.307363374880153,2.9108754508514814,-0.0011111111111111111,-0.7111111111111111,-0.19333333333333333,0.12601926827154475,-0.1327563672770508,0.5901583285927188
1592284382.178504,-4.6861737197888695,7.969449640398802,3.0709284810321944,-0.004705271064193187,-0.7111111111111111,-0.19073755114499627,0.1805751721590209,-0.07273484704550404,0.6298614584513018
1592284382.188504,-4.76,7.83,2.71,-0.021111111111111112,-0.7111111111111111,-0.17888888888888888,0.1832595714594046,-0.016362461737446838,0.6468626540203983
1592284382.198504,-5.4451450848232135,7.729937453589993,2.243244130919061,-0.021111111111111112,-0.7111111111111111,-0.17888888888888888,0.2251010351579114,0.06355439839669812,0.6853459515080508
1592284382.208504,-5.08,8.18,1.98,-0.021111111111111112,-0.7111111111111111,-0.17888888888888888,0.23343778745424157,0.07744898555724837,0.717766654882668
1592284382.218504,-5.084508232889756,7.216127871060637,2.0946485055389115,-0.021111111111111112,-0.7111111111111111,-0.17888888888888888,0.224688011801938,0.06528847320482109,0.767944870877505
1592284382.228504,-5.848864761343547,8.050959340011786,2.5045477312905127,-0.025077915275322465,-0.7093921626399529,-0.17716994041773063,0.16113100520326126,0.020882756509793085,0.7663871105249405
1592284382.238504,-4.73,7.91,2.02,-0.05444444444444444,-0.6966666666666667,-0.16444444444444445,0.16689710972195776,-0.002181661564992912,0.7548549014875475
1592284382.248504,-5.68,7.844771747090894,1.9230704966501209,-0.05444444444444444,-0.6966666666666667,-0.16444444444444445,0.04528532199265863,-0.06436354317273539,0.7344776368627988
1592284382.258504,-5.378326438955206,8.030027183548043,2.155319702162865,-0.05444444444444444,-0.6966666666666667,-0.16444444444444445,0.009726198447265709,-0.07016268458767388,0.756425847366843
1592284382.268504,-4.769610004239085,7.909018954762914,2.0052837158602315,-0.05444444444444444,-0.6966666666666667,-0.16444444444444445,-0.0453004260729852,-0.10860342450340284,0.7814049022818478
1592284382.278504,-5.429699921290831,8.360445690672963,2.3195543093270365,-0.05444444444444444,-0.6958409856137129,-0.16161353797717434,-0.08641431812775446,-0.12618188296217195,0.851807155831609
1592284382.288504,-4.08,8.28,2.4,-0.05444444444444444,-0.6888888888888889,-0.13777777777777778,-0.15271630954950383,-0.05890486225480862,1.0068368122442288
1592284382.2985039,-4.281093982455241,8.038058533832658,2.6756548504591393,-0.05444444444444444,-0.6888888888888889,-0.13777777777777778,-0.1473798118069389,-0.043535748756221605,1.002994533869582
1592284382.3085039,-4.474979352981429,8.192671370254136,2.662564005757569,-0.05444444444444444,-0.6888888888888889,-0.13777777777777778,-0.12244823279960376,0.03053425294853137,0.97058042739231
1592284382.3185039,-4.729374913127222,7.622401660014694,2.530772423105181,-0.05444444444444444,-0.6888888888888889,-0.13777777777777778,-0.11322655005733163,0.06964387373148796,0.9081296550559216
1592284382.3285038,-5.406815950185607,7.840370015566998,2.925333492994851,-0.05720978192897723,-0.6882551657153502,-0.13633749783791696,-0.11495731500208818,0.09382764451862402,0.855316484809985
1592284382.3385038,-4.734859297190642,7.92625739922954,2.7869223903034857,-0.10777777777777778,-0.6766666666666666,-0.11,-0.16648142458185533,0.07680825186968128,0.7931864881490336
1592284382.3485038,-4.575959150599395,7.710301961438547,2.6751509807192737,-0.10777777777777778,-0.6766666666666666,-0.11,-0.1809015945778672,0.08458346447261147,0.7726746293343405
1592284382.3585038,-4.693437470325706,8.064003893267495,2.8142968379071314,-0.10777777777777778,-0.6766666666666666,-0.11,-0.16793040024240155,0.08190605114836413,0.7408317543823199
1592284382.3685038,-4.645257501554727,8.110955185012438,2.75911963619403,-0.10777777777777778,-0.6766666666666666,-0.11,-0.07621862103310097,0.07793913439357651,0.7063745368097609
1592284382.3785038,-4.979458177860697,8.559273165422885,3.199286380597015,-0.10777777777777778,-0.6766666666666666,-0.11,0.03581578028630504,0.07527164864787637,0.6654730887090253
1592284382.3885038,-4.33,7.79,2.77,-0.13444444444444445,-0.6522222222222223,-0.13111111111111112,0.09708393964218458,0.02617993877991494,0.607592745850526
1592284382.3985038,-4.273873094355171,8.052102536935665,2.599889340161281,-0.13444444444444445,-0.6522222222222223,-0.13111111111111112,0.19318568854448756,0.0218890423450057,0.6016798895358921
1592284382.4085038,-4.584246898292573,8.19034291429524,2.5443154811516204,-0.13444444444444445,-0.6522222222222223,-0.13111111111111112,0.18967766099632138,0.025978231328051892,0.5541869248844803
1592284382.4185038,-4.3944718572269075,8.004634045891352,2.4396742498529123,-0.13444444444444445,-0.6522222222222223,-0.13111111111111112,0.12287375506164441,0.011396111776768523,0.5261884023137567
1592284382.4285038,-4.164151402235733,8.078665620709943,2.8427350460874683,-0.13444444444444445,-0.6522222222222223,-0.13111111111111112,0.05467986647998306,-0.013727952437527769,0.5172155222372223
1592284382.4385037,-4.9,8.79,2.29,-0.16111111111111112,-0.6533333333333333,-0.10222222222222223,0.05999569303730508,-0.02399827721492203,0.5105088062083414
1592284382.4485037,-3.899785314906636,7.514012026585083,2.6120798607448044,-0.16111111111111112,-0.6533333333333333,-0.10222222222222223,0.06251729701515742,-0.04640513140092292,0.5384206790822084
1592284382.4585037,-3.852135852321892,8.4074740409576,2.276067926160946,-0.16111111111111112,-0.6533333333333333,-0.10222222222222223,0.13470336451892725,-0.09545335685294666,0.5914320421861325
1592284382.4685037,-4.263334336442973,8.405213361420403,2.419637676798074,-0.16111111111111112,-0.6533333333333333,-0.10222222222222223,0.09784420569462568,-0.07709196251811412,0.678536270042983
1592284382.4785037,-3.800526632560939,7.833014745711707,1.8137803189888655,-0.16111111111111112,-0.6533333333333333,-0.10222222222222223,0.10243370469254412,-0.08810676011311835,0.7446250556130084
1592284382.4885037,-5.34,8.8,2.63,-0.16333333333333333,-0.62,-0.06,0.10144726277217041,-0.07635815477475191,0.7657632093125121
1592284382.4985037,-4.461747445255474,8.220338686131386,2.3638029197080295,-0.16333333333333333,-0.62,-0.06,-0.02122963721718723,-0.09201691122346126,0.7771661332557882
1592284382.5085037,-4.132417590174349,8.062927931107504,2.3577165243170746,-0.16333333333333333,-0.62,-0.06,-0.05212765156702905,-0.1062120535170314,0.8283566611512476
1592284382.5185037,-4.477164480322906,8.73315438950555,2.5617751765893035,-0.16333333333333333,-0.62,-0.06,-0.034687868514677665,-0.07790453674558741,0.8929529778141796
1592284382.5285037,-3.20744702320888,8.055971745711402,2.341690817356206,-0.16333333333333333,-0.62,-0.06,-0.06700562921818341,-0.04743350522513913,0.9575884992211912
1592284382.5385036,-3.183418480048879,8.557705268599896,2.397744982845326,-0.19,-0.6055555555555555,-0.04555555555555556,-0.05995050023123417,0.013159514530553251,1.009252281854697
1592284382.5485036,-3.8423441964182015,8.939406517850921,2.1995417063482847,-0.19,-0.6055555555555555,-0.04555555555555556,-0.09478179538525024,0.06393120759300296,0.987572301262591
1592284382.5585036,-3.0589431844750994,8.50381809679682,2.18072714519523,-0.19,-0.6055555555555555,-0.04555555555555556,-0.15972241700687528,0.06350741832236323,0.960560796616985
1592284382.5685036,-3.05,8.761855033059382,2.6077179756534634,-0.19,-0.6055555555555555,-0.04555555555555556,-0.16627987327165064,0.08382801675865321,0.9566585962493918
1592284382.5785036,-3.05,8.442200457269974,2.581800037075944,-0.19,-0.6055555555555555,-0.04555555555555556,-0.19643676417214218,0.0819432110773725,0.9566585962493918
1592284382.5885036,-2.94,8.62,2.33,-0.21333333333333335,-0.6,-0.05333333333333334,-0.17562375598192942,0.13308135546456762,1.0024734891142428
1592284382.5985036,-2.9884831915755368,8.746056298096395,3.4257201296071287,-0.21333333333333335,-0.6,-0.05333333333333334,-0.13331418973851483,0.19548796567360413,1.0807461866645598
1592284382.6085036,-3.0055507559395247,8.709701223902087,2.8085565154787617,-0.21333333333333335,-0.6,-0.05333333333333334,-0.1088054622081679,0.24496651019509685,1.1434533547263686
1592284382.6185036,-2.844341339519629,9.057959122452653,2.055120092794432,-0.21333333333333335,-0.6,-0.05333333333333334,-0.05721092550241241,0.2790442132479663,1.143069257874325
1592284382.6285036,-2.894669919804812,9.150228186308821,2.810048797072176,-0.21333333333333335,-0.6,-0.05333333333333334,-0.07551091370721967,0.3019191985039753,1.1037242832339893
1592284382.6385036,-2.88,9.64,2.54,-0.25333333333333335,-0.5788888888888889,-0.05333333333333334,-0.12762720155208535,0.3065234498815041,1.0253809355466685
1592284382.6485035,-2.240756501182033,9.148274231678487,2.6285106382978722,-0.25333333333333335,-0.5788888888888889,-0.05333333333333334,-0.16195613624852226,0.29472287857960394,0.9234669106666216
1592284382.6585035,-2.2551799623639264,9.056950763440605,2.0676458397846647,-0.25333333333333335,-0.5788888888888889,-0.05333333333333334,-0.15009687096577623,0.2658887625015166,0.8754063708740538
1592284382.6685035,-2.8423912271705256,9.165904698039526,2.1785203739497456,-0.25333333333333335,-0.5788888888888889,-0.05333333333333334,-0.1727605134302005,0.2448303017718665,0.868301302867179
1592284382.6785035,-2.5859451303696104,9.3975334306339,2.3026071949824463,-0.25333333333333335,-0.5788888888888889,-0.05333333333333334,-0.16283428033066327,0.20422298454648685,0.868301302867179
1592284382.6885035,-2.69,9.19,2.54,-0.28,-0.5733333333333334,-0.06,-0.210530341021816,0.19853120241435498,0.8639379797371932
1592284382.6985035,-2.189147478748865,8.896396797887265,2.6004477180820333,-0.28,-0.5733333333333334,-0.06,-0.2331377347185759,0.1655620866065801,0.8460404597272582
1592284382.7085035,-2.059413530967757,9.35294402211472,2.5264678407168217,-0.28,-0.5733333333333334,-0.06,-0.22612275104060847,0.1706830305370278,0.8306360178782503
1592284382.7185035,-1.89,9.08,2.79,-0.28,-0.5733333333333334,-0.06,-0.23125612588924865,0.16144295580947549,0.7864889941799448
1592284382.7285035,-1.9526648679899787,9.166164193486221,2.797833108498747,-0.28,-0.5733333333333334,-0.06,-0.19707774239697584,0.1546072791110209,0.7574373682115129
1592284382.7385035,-1.97,9.05,3.15,-0.3088888888888889,-0.54,-0.05333333333333334,-0.13853550937704992,0.13199052468207118,0.7221299780126538
1592284382.7485034,-1.6554935690678134,8.72624337992275,2.8447437582128776,-0.3088888888888889,-0.54,-0.05333333333333334,-0.06083949818924933,0.0946560777476735,0.7402926819266851
1592284382.7585034,-1.3082916696511713,8.493547978893584,2.5978055535658857,-0.3088888888888889,-0.54,-0.05333333333333334,0.025145025999711062,0.07580915823524323,0.8090337940059791
1592284382.7685034,-0.9981009955945427,8.624804277369146,2.8012989306577136,-0.3088888888888889,-0.54,-0.05333333333333334,0.11762452863783586,0.09155355226670679,0.8592693205236792
1592284382.7785034,-1.2178811108739107,9.569044772643469,2.5652388068391327,-0.3088888888888889,-0.54,-0.05333333333333334,0.17178866872216408,0.11907959067021784,0.8805798018683331
1592284382.7885034,-0.61,8.51,3.28,-0.29444444444444445,-0.5344444444444445,-0.06222222222222222,0.13308135546456762,0.08290313946973066,0.8999353955595761
1592284382.7985034,-0.998828389034923,9.693766428839655,2.7097183627487795,-0.29444444444444445,-0.5344444444444445,-0.06222222222222222,0.23581893628587958,0.10269661834356139,0.8754291836205477
1592284382.8085034,-1.2098102442298755,8.831328290390871,3.189278928073527,-0.29444444444444445,-0.5344444444444445,-0.06222222222222222,0.2661447716714172,0.10798948758134638,0.7953122364430134
1592284382.8185034,-0.95,9.25,3.17,-0.29444444444444445,-0.5344444444444445,-0.06222222222222222,0.41887902047863906,0.074176493209759,0.7363107781851077
1592284382.8285034,-0.9634004799650934,9.451007199476402,2.7679856010471964,-0.29444444444444445,-0.5344444444444445,-0.06222222222222222,0.46857905103555236,0.06394413397745333,0.6931886928489623
1592284382.8385034,-0.83,9.52,2.75,-0.3233333333333333,-0.5011111111111111,-0.05444444444444444,0.5945027764605685,0.02617993877991494,0.6086835766330224
1592284382.8485034,-0.5882402571313781,9.391061470470067,2.6694134190437926,-0.3233333333333333,-0.5011111111111111,-0.05444444444444444,0.6657068982227392,0.020905559390124527,0.5708838576728578
1592284382.8585033,-0.6677761866878813,9.428888093343941,2.079212940864492,-0.3233333333333333,-0.5011111111111111,-0.05444444444444444,0.7537113081660091,0.05076655880271805,0.529572744656935
1592284382.8685033,-0.6626765195501239,9.77420358114418,2.084646960899752,-0.3233333333333333,-0.5011111111111111,-0.05444444444444444,0.7700333895160458,0.05845885689609575,0.5082823669454677
1592284382.8785033,-0.8330655569896301,10.906926877030575,1.539336864123904,-0.3233333333333333,-0.5011111111111111,-0.05444444444444444,0.6631676588958983,0.05250537668552047,0.42431911967077185
1592284382.8885033,-0.45,10.12,1.52,-0.3422222222222222,-0.5111111111111111,-0.01888888888888889,0.29779680362153244,-0.002181661564992912,0.24870941840919195
1592284382.8985033,-0.5327340748230536,9.565681698685541,2.0991385237613756,-0.3422222222222222,-0.5111111111111111,-0.01888888888888889,0.18769317541594316,-0.031061301750065506,0.15665556531927305
1592284382.9085033,-0.7506935389766876,9.354431648106338,2.2582273407574642,-0.3422222222222222,-0.5111111111111111,-0.01888888888888889,0.16575793715774545,-0.04334318060956302,0.09261765156098825
1592284382.9185033,-0.8268357918240338,9.37864391078173,2.0690405947884747,-0.3422222222222222,-0.5111111111111111,-0.01888888888888889,0.22100694425362696,-0.05092388520927635,0.10928635071428097
1592284382.9285033,-0.707685534591195,9.552679245283018,1.8153710691823899,-0.3422222222222222,-0.5111111111111111,-0.01888888888888889,0.2330385022244221,-0.05676299200137847,0.1423527310586916
1592284382.9385033,-0.5534553279140766,9.590942362158385,1.758743517122154,-0.3809657393443762,-0.4852820996963418,-0.032879603405222266,0.1986739208126093,-0.05996142778228422,0.1876515024662404
1592284382.9485033,-0.5863975304682488,9.648236048749197,1.7236024695317511,-0.38222222222222224,-0.48444444444444446,-0.03333333333333333,0.17838266924388163,-0.046496487179154784,0.20618328589419901
1592284382.9585032,-0.6564016042780749,9.604198128342246,1.6911994652406417,-0.38222222222222224,-0.48444444444444446,-0.03333333333333333,0.13947271968544453,-0.014790907079091916,0.2280931541189859
1592284382.9685032,-0.7851193137932436,9.639511362250499,1.69,-0.38222222222222224,-0.48444444444444446,-0.03333333333333333,0.12092293135075564,-0.0023149168396545596,0.23625783269112438
1592284382.9785032,-0.8069117134310829,9.715399225588607,1.7084664085295358,-0.38222222222222224,-0.48444444444444446,-0.03333333333333333,0.09892641935301971,0.00125811966087208,0.2453544326468664
1592284382.9885032,-0.581578449905482,9.819447542533082,1.7497632325141776,-0.36458475110270955,-0.5009795736189876,-0.01900288804872926,0.06889452147182956,-0.014068881758994579,0.24005164501904144
1592284382.9985032,0.01629006750241091,9.82764474445516,1.5435918997107039,-0.36444444444444446,-0.5011111111111111,-0.01888888888888889,0.05121018188766274,-0.012512975657252595,0.20996193087559634
1592284383.0085032,-0.11129966020285637,9.765908893487648,1.4708441276410924,-0.36444444444444446,-0.5011111111111111,-0.01888888888888889,0.011857367671854885,0.006977125470978077,0.12980156137044394
1592284383.0185032,-0.05662658278251176,9.718313291391256,1.5891048817392688,-0.36444444444444446,-0.5011111111111111,-0.01888888888888889,-0.010112228085313568,0.0035297154060998648,0.10312577136334636
1592284383.0285032,0.04551023747673301,9.676997075006648,1.7415160874634377,-0.36444444444444446,-0.5011111111111111,-0.01888888888888889,-0.034254639108618534,-0.0035459977113103,0.07171813560815789
1592284383.0385032,-0.2239990531050265,9.55240037875799,2.0445991477945236,-0.38295549593624245,-0.4934889134380178,-0.01888888888888889,-0.04677480329540434,0.0009599104305531821,0.039728129401673876
1592284383.0485032,-0.21603228962818002,9.54301614481409,2.0988869863013697,-0.38333333333333336,-0.49333333333333335,-0.01888888888888889,-0.03928751943005949,-0.009574655121706905,0.034698985639499545
1592284383.0585032,-0.1745182826622843,9.53112957066557,2.12,-0.38333333333333336,-0.49333333333333335,-0.01888888888888889,-0.020515596027255653,-0.023856937544408544,0.030789696000502756
1592284383.0685031,-0.20055432103753384,9.487223950547452,2.242217284150135,-0.38333333333333336,-0.49333333333333335,-0.01888888888888889,-0.0025459182179496873,-0.025089107997418484,0.03120985378842119
1592284383.0785031,-0.08130584058366822,9.47260855994694,2.351521399867348,-0.38333333333333336,-0.49333333333333335,-0.01888888888888889,0.02757883318143136,-0.023026037200457504,0.035760234286319185
1592284383.0885031,-0.027502989715379095,9.49833532647692,2.351664673523081,-0.3660166361051317,-0.49333333333333335,-0.005646708655558214,0.08327153293179354,0.0051843813630679456,0.03917911431378326
1592284383.098503,0.05657185015165178,9.549469628658088,2.281979260595131,-0.36444444444444446,-0.49333333333333335,-0.0044444444444444444,0.11357342204743502,0.023150176177411774,0.03387360879598143
1592284383.108503,0.08669919550625982,9.58,2.0458266292188316,-0.36444444444444446,-0.49333333333333335,-0.0044444444444444444,0.1492954097960843,0.054753193633770084,0.013598438710765073
1592284383.118503,0.003441724859514231,9.549376689943806,1.9976558275140486,-0.36444444444444446,-0.49333333333333335,-0.0044444444444444444,0.17160039575011177,0.0819645546143203,-0.007975778375643361
1592284383.128503,-0.15510410264290103,9.54,2.006141095574677,-0.36444444444444446,-0.49333333333333335,-0.0044444444444444444,0.18676293090109203,0.10510453360998989,-0.019118975871957176
1592284383.138503,-0.43234443168771525,9.61526521239954,1.8929207807118256,-0.3746656461283327,-0.49333333333333335,-0.0044444444444444444,0.21040961072625608,0.11289134259340589,-0.02017072608120714
1592284383.148503,-0.3939688670411985,9.647545646067416,1.758877574906367,-0.37666666666666665,-0.49333333333333335,-0.0044444444444444444,0.2182686772294345,0.09576815054522665,-0.011341244058982054
1592284383.158503,-0.22415247964470764,9.709648937295126,1.539328010997145,-0.37666666666666665,-0.49333333333333335,-0.0044444444444444444,0.21782807623879663,0.05691467569234761,0.001766991303485588
1592284383.168503,-0.16618660047258754,9.72,1.4761866004725874,-0.37666666666666665,-0.49333333333333335,-0.0044444444444444444,0.2032435643172875,0.036515167951192376,-0.0022602122123135267
1592284383.178503,-0.2099938353419844,9.710001232931603,1.51332799062972,-0.37666666666666665,-0.49333333333333335,-0.0044444444444444444,0.19162372822499857,0.027635141944432607,-0.005817450358707173
1592284383.188503,-0.30258595517921016,9.697414044820789,1.5851719103584203,-0.37666666666666665,-0.49909981263839204,-0.0044444444444444444,0.15726715779028455,-0.0017120525030341685,-0.011717054656297157
1592284383.198503,-0.2500806451612903,9.70907624633431,1.5754618768328446,-0.37666666666666665,-0.5011111111111111,-0.0044444444444444444,0.1451900569878659,-0.014071237256616673,-0.008533911495615602
1592284383.208503,-0.11798424298968538,9.712798424298969,1.5051858186907168,-0.37666666666666665,-0.5011111111111111,-0.0044444444444444444,0.12251884772594258,-0.022602185695645483,-0.0035777530842694624
1592284383.218503,-0.14186634629109768,9.71,1.4725905219584146,-0.37666666666666665,-0.5011111111111111,-0.0044444444444444444,0.10297866628613286,-0.014016711029433394,-0.01135497907748226
1592284383.228503,-0.18204209106718247,9.726531568300388,1.4865315683003868,-0.37666666666666665,-0.5011111111111111,-0.0044444444444444444,0.08855709384601193,-0.007902783894130462,-0.015984114530954385
1592284383.238503,-0.24711680012941845,9.713076114211761,1.5201929143411794,-0.3729272380849668,-0.5011111111111111,-0.01416695875686412,0.06750524637373422,-0.008391094252705286,-0.0203902328601663
1592284383.248503,-0.2503436835082405,9.707862526596704,1.5103436835082404,-0.3711111111111111,-0.5011111111111111,-0.01888888888888889,0.05551167789387849,-0.014534654364402991,-0.02138778134793504
1592284383.258503,-0.21298581243367032,9.71298581243367,1.458957437301011,-0.3711111111111111,-0.5011111111111111,-0.01888888888888889,0.032368269395390635,-0.0264073906768629,-0.016900139011654512
1592284383.268503,-0.2026168820430438,9.67308441021522,1.5459805334404308,-0.3711111111111111,-0.5011111111111111,-0.01888888888888889,0.014099340272539654,-0.025140107409607777,-0.013660884487300344
