time,acc_x,acc_y,acc_z,mag_x,mag_y,mag_z,gyr_x,gyr_y,gyr_z
1592284628.7282689,-0.2698943426265989,9.790211314746802,0.38915474101279107,-0.47444444444444445,-0.5844444444444444,-0.1288888888888889,-0.04247324792817959,0.033838805120450864,0.004328746835394725
1592284628.7382689,-0.247198230461344,9.778405308615968,0.437198230461344,-0.48,-0.5911111111111111,-0.15777777777777777,-0.038658656878227046,0.031808046537425624,0.003578117993312053
1592284628.7482688,-0.24277846749764115,9.788886130009436,0.4022153250235884,-0.48,-0.5911111111111111,-0.15777777777777777,-0.03648207902996092,0.0297555149148636,0.004363323129985824
1592284628.7582688,-0.24701764965094974,9.7659647006981,0.3240352993018995,-0.48,-0.5911111111111111,-0.15777777777777777,-0.03490658503988659,0.031844557735873996,0.0037126752169992093
1592284628.7682688,-0.24418053021358807,9.777909734893205,0.3371734463883224,-0.48,-0.5911111111111111,-0.15777777777777777,-0.03536261014430042,0.036274660353128096,0.002181661564992912
1592284628.7782688,-0.2591864334013094,9.770406783299345,0.4347118171085113,-0.48,-0.5911111111111111,-0.15777777777777777,-0.03699950025593324,0.041185330688026545,0.002181661564992912
1592284628.7882688,-0.31,9.77,0.48,-0.49333333333333335,-0.5844444444444444,-0.1511111111111111,-0.038179077387375956,0.03490658503988659,0.0032724923474893677
1592284628.7982688,-0.3681322211742514,9.66505776939401,0.7068100094317378,-0.49333333333333335,-0.5844444444444444,-0.1511111111111111,-0.021578567102605264,0.006642306811773617,-0.0023132891653094793
1592284628.8082688,-0.36,9.6,0.78,-0.49333333333333335,-0.5844444444444444,-0.1511111111111111,0.017453292519943295,-0.02617993877991494,-0.007635815477475192
1592284628.8182688,-0.307068345323741,9.86,0.27522096608427543,-0.49333333333333335,-0.5844444444444444,-0.1511111111111111,0.04517530503194855,-0.016362461737446838,-0.01386100625600263
1592284628.8282688,-0.2531847379239466,9.86,0.21363970048451036,-0.49333333333333335,-0.5844444444444444,-0.1511111111111111,0.033419725507218626,-0.016362461737446838,-0.007983216493637669
1592284628.8382688,-0.12,9.85,0.23,-0.49333333333333335,-0.5844444444444444,-0.16444444444444445,0.006544984694978735,0.004363323129985824,0.0
1592284628.8482687,-0.22954705665737282,9.83,0.18163764532589827,-0.49333333333333335,-0.5844444444444444,-0.16444444444444445,-0.018107022030922286,0.03087012666539026,-0.002181661564992912
1592284628.8582687,-0.2015070750145377,9.83,0.17876768753634426,-0.49333333333333335,-0.5844444444444444,-0.16444444444444445,-0.04367818921711513,0.04475403402719262,-0.0018678547739340726
1592284628.8682687,-0.23,9.83,0.25,-0.49333333333333335,-0.5844444444444444,-0.16444444444444445,-0.05999569303730508,0.05563236990731925,-0.001090830782496456
1592284628.8782687,-0.2211984550405691,9.847603089918861,0.3380154495943092,-0.49333333333333335,-0.5844444444444444,-0.16444444444444445,-0.07247698806516098,0.059472768377428764,-0.0030110300175512097
1592284628.8882687,-0.12,9.87,0.4,-0.48,-0.5911111111111111,-0.16444444444444445,-0.09272061651219875,0.074176493209759,-0.006544984694978735
1592284628.8982687,-0.15981386096408653,9.840139604276935,0.3900465347589784,-0.48,-0.5911111111111111,-0.16444444444444445,-0.1100926905560626,0.0969773403923303,-0.011973757833686188
1592284628.9082687,-0.20403685931867555,9.802018429659338,0.3060552889780133,-0.48,-0.5911111111111111,-0.16444444444444445,-0.12524546710633805,0.1222032030991779,-0.013740447131512032
1592284628.9182687,-0.23381505601356592,9.81153500622373,0.33460501867118864,-0.48,-0.5911111111111111,-0.16444444444444445,-0.13509067391276902,0.13794210829382905,-0.011664252199427448
1592284628.9282687,-0.3019129399455198,9.819101437771725,0.35730431331517326,-0.48,-0.5911111111111111,-0.16444444444444445,-0.1449951096482152,0.15114802260775725,-0.010013512910186425
1592284628.9382687,-0.28,9.82739359565166,0.40824483043837884,-0.4866666666666667,-0.5777777777777777,-0.16444444444444445,-0.16490115877866174,0.17415000660216953,-0.0015201770351841197
1592284628.9482687,-0.28,9.82,0.46,-0.4866666666666667,-0.5777777777777777,-0.16444444444444445,-0.1778054175469223,0.1854412330243975,0.006544984694978735
1592284628.9582686,-0.13495940136920873,9.84917343310513,0.3707453696332856,-0.4866666666666667,-0.5777777777777777,-0.16444444444444445,-0.1885245392021051,0.19370819973077294,0.00800533056979992
1592284628.9682686,-0.19382252795685914,9.837451648028761,0.498919231899338,-0.4866666666666667,-0.5777777777777777,-0.16444444444444445,-0.1996431307243004,0.19960093566940248,-0.0022238566198907995
1592284628.9782686,-0.2155708038785281,9.822952797414315,0.5496652090498989,-0.4866666666666667,-0.5777777777777777,-0.16444444444444445,-0.20596944774872253,0.19327461864498036,-0.014876490668735047
1592284628.9882686,-0.16,9.71,0.82,-0.4666666666666667,-0.5911111111111111,-0.18666666666666668,-0.19853120241435498,0.16253378659197193,-0.0272707695624114
1592284628.9982686,-0.2970592740985152,9.70974428470422,0.7878264199858591,-0.4666666666666667,-0.5911111111111111,-0.18666666666666668,-0.16219905605253984,0.1448154990616449,-0.03057115612152011
1592284629.0082686,-0.09359682609477746,9.715282313672976,0.581233785701437,-0.4666666666666667,-0.5911111111111111,-0.18666666666666668,-0.13506684059838703,0.1263771491117916,-0.03143791626122373
1592284629.0182686,-0.20927328968834086,9.84036335515583,0.39029068412466367,-0.4666666666666667,-0.5911111111111111,-0.18666666666666668,-0.12894792054817725,0.1364886098683026,-0.02504154491874356
1592284629.0282686,-0.1204091188372635,9.88479544058137,0.4258363524650946,-0.4666666666666667,-0.5911111111111111,-0.18666666666666668,-0.15705929472553729,0.1529676912826171,-0.019225398537220793
1592284629.0382686,0.014403265868234023,9.88,0.4552057152694095,-0.5011111111111111,-0.5777777777777777,-0.17888888888888888,-0.19471440795986777,0.1612465617372561,-0.013570291185216037
1592284629.0482686,0.08,9.88,0.57,-0.5011111111111111,-0.5777777777777777,-0.17888888888888888,-0.21707532571679475,0.16035212502697901,-0.020725784867432664
1592284629.0582685,0.205177524342353,9.915781914035183,0.5837320458335574,-0.5011111111111111,-0.5777777777777777,-0.17888888888888888,-0.2353958430857952,0.16292797970517975,-0.044132082904678425
1592284629.0682685,0.40285637625052706,9.978574494997892,0.7671409406263177,-0.5011111111111111,-0.5777777777777777,-0.17888888888888888,-0.2480856684144324,0.17032480785980422,-0.08399250683556156
1592284629.0782685,0.41893326689409327,9.914266932423628,0.8073331672352333,-0.5011111111111111,-0.5777777777777777,-0.17888888888888888,-0.256854252014848,0.18347768326042774,-0.11468254943701639
1592284629.0882685,0.79,9.67,0.96,-0.48,-0.57,-0.2,-0.2552544031041707,0.18653206380689397,-0.11235557059713495
1592284629.0982685,-0.18756169448835774,10.235279601296858,0.7651603654778811,-0.48,-0.57,-0.2,-0.22533504928577788,0.20978846736030304,-0.12397479927423803
1592284629.1082685,0.28816829579260517,10.32929451763706,0.6511262218444539,-0.48,-0.57,-0.2,-0.24227986799591386,0.24801078602958204,-0.22537268625445797
1592284629.1182685,0.23927902966421888,10.186184728061848,0.6306196353490535,-0.48,-0.57,-0.2,-0.26464464460697895,0.2919379447464793,-0.3195462502527103
1592284629.1282685,0.3774338803743388,10.015522853655229,0.8500420453004205,-0.48,-0.57,-0.2,-0.28503395031188145,0.3203056744228655,-0.3816006589198049
1592284629.1382685,0.22,9.91,0.83,-0.4866666666666667,-0.5644444444444444,-0.2088888888888889,-0.28907015736156083,0.3556108350938446,-0.44396812847605754
1592284629.1482685,0.24530520857883573,9.998215884987038,0.7306104171576715,-0.4866666666666667,-0.5644444444444444,-0.2088888888888889,-0.2912518189265538,0.3593954497412946,-0.5123601077555384
1592284629.1582685,0.16393780423213702,10.13,0.5845466468258972,-0.4866666666666667,-0.5644444444444444,-0.2088888888888889,-0.2924090641333471,0.3677752944451333,-0.5808518610486605
1592284629.1682684,0.015450624954316212,10.105658394854178,0.7124015057378847,-0.4866666666666667,-0.5644444444444444,-0.2088888888888889,-0.3174140967885297,0.36908374341667505,-0.6576273223705682
1592284629.1782684,-0.32178568818068853,9.868060083327242,1.1262824354944814,-0.4866666666666667,-0.5644444444444444,-0.2088888888888889,-0.3491844934954491,0.35152641892074593,-0.7094632327871209
1592284629.1882684,-0.44,9.51,1.52,-0.4477777777777778,-0.5911111111111111,-0.2,-0.3621558197888234,0.25634523388666713,-0.779944009484966
1592284629.1982684,0.21231822759315205,9.724333131923464,1.0540584088620344,-0.4477777777777778,-0.5911111111111111,-0.2,-0.2676188217235106,0.21365110572813878,-0.8419521480009238
1592284629.2082684,-0.2320558555997726,9.96,1.144033541785105,-0.4477777777777778,-0.5911111111111111,-0.2,-0.21426476206692452,0.17741418510240414,-0.93636791891338
1592284629.2182684,-0.34191909882232463,9.935135688684076,0.9148643113159243,-0.4477777777777778,-0.5911111111111111,-0.2,-0.19886431633073023,0.12879768029647837,-1.0083845296524714
1592284629.2282684,-0.24885560675883256,9.64878648233487,1.2012135176651306,-0.4477777777777778,-0.5911111111111111,-0.2,-0.21526313909426031,0.10458989431221971,-1.0513338273664785
1592284629.2382684,-0.24087342726544458,9.75174685453089,1.077459120682343,-0.4477777777777778,-0.5844444444444444,-0.2088888888888889,-0.18635883447099966,0.07426310787770615,-1.1196687635150733
1592284629.2482684,-0.34958013288723433,9.96916026577447,0.7612214316007728,-0.4477777777777778,-0.5844444444444444,-0.2088888888888889,-0.16479872160626716,0.08504316431007242,-1.1789590738930875
1592284629.2582684,-0.4314953871029104,9.97766359140194,0.789233640859806,-0.4477777777777778,-0.5844444444444444,-0.2088888888888889,-0.1857593314816102,0.11058782090267369,-1.2582091121039867
1592284629.2682683,-0.5722258405052872,10.036612392420691,0.7966938037896545,-0.4477777777777778,-0.5844444444444444,-0.2088888888888889,-0.2455029548068436,0.1302962423056434,-1.333728949174336
1592284629.2782683,-0.6022446277442788,9.586330583835817,1.0218347080820913,-0.4477777777777778,-0.5844444444444444,-0.2088888888888889,-0.29052790342041135,0.1515807634684209,-1.3877588875106175
1592284629.2882683,-0.84,9.57,1.08,-0.4066666666666667,-0.6044444444444445,-0.22333333333333333,-0.3239767424014474,0.1636246173744684,-1.4529866022852793
1592284629.2982683,-1.1318571004600089,9.50328980560914,1.1884040658851462,-0.4066666666666667,-0.6044444444444445,-0.22333333333333333,-0.3257959807401442,0.15088994900359085,-1.4802751773657312
1592284629.3082683,-1.5149420913695926,9.588150966729291,1.2814157292682347,-0.4066666666666667,-0.6044444444444445,-0.22333333333333333,-0.30629648423390105,0.11233357186937551,-1.4812883027924555
1592284629.3182683,-1.5831795375218152,9.02478148632926,1.6495995127981384,-0.4066666666666667,-0.6044444444444445,-0.22333333333333333,-0.2796842295390005,0.05401597396650939,-1.4793399579353392
1592284629.3282683,-1.2629341186736474,8.735035631180919,1.6419746218731819,-0.4066666666666667,-0.6044444444444445,-0.22333333333333333,-0.20482703793191795,0.02324135075026435,-1.4618732798936867
1592284629.3382683,-2.37,9.61,1.21,-0.3388888888888889,-0.6311111111111111,-0.23555555555555555,-0.06872233929727672,0.02617993877991494,-1.4158983556804
1592284629.3482683,-2.394250737698381,9.424077677645746,1.0079105191801578,-0.3388888888888889,-0.6311111111111111,-0.23555555555555555,-0.034332852763743024,0.012071431484106247,-1.401789848384591
1592284629.3582683,-2.531124232065594,9.029535056056224,0.8067539980398251,-0.3388888888888889,-0.6311111111111111,-0.23555555555555555,0.035665470328127793,0.03936396373921874,-1.374880166472991
1592284629.3682683,-2.7939890378675614,9.251458106443376,0.9772764278445305,-0.3388888888888889,-0.6311111111111111,-0.23555555555555555,-0.02695266008389294,0.01358062998759393,-1.3854586244419698
1592284629.3782682,-2.6517103783185445,9.04927264287372,1.1495084894038672,-0.3388888888888889,-0.6311111111111111,-0.23555555555555555,-0.07106268557091223,-0.02644513388025691,-1.387909181413471
1592284629.3882682,-3.39,9.49,1.24,-0.28,-0.67,-0.2,-0.12762720155208535,-0.07308566242726255,-1.3679018012505557
1592284629.3982682,-2.8594071875501363,8.487769132039148,1.3579095138777473,-0.28,-0.67,-0.2,-0.17723751350565792,-0.11626500801648312,-1.3256411651419568
1592284629.4082682,-3.5390609143102174,9.37878266669843,0.9013042856802534,-0.28,-0.67,-0.2,-0.20402709047260018,-0.15600587495662346,-1.2500332695355454
1592284629.4182682,-3.000155762108779,8.679950439329025,1.649709716070002,-0.28,-0.67,-0.2,-0.22795351311440878,-0.16579006024781104,-1.2162469743748479
1592284629.4282682,-3.167671919250599,8.626649843874809,1.3375205141238835,-0.28,-0.67,-0.2,-0.1955601519768787,-0.14834748117375637,-1.1846842122408443
1592284629.4382682,-3.72,8.93,1.4,-0.2222222222222222,-0.6788888888888889,-0.24444444444444444,-0.16907877128695067,-0.10362892433716332,-1.1442814908387822
1592284629.4482682,-3.4859242892915008,8.829681838267787,2.1273066725585505,-0.2222222222222222,-0.6788888888888889,-0.24444444444444444,-0.16543109999158545,-0.13463413034776775,-1.164343682963291
1592284629.4582682,-4.05,8.36,1.34,-0.2222222222222222,-0.6788888888888889,-0.24444444444444444,-0.16253378659197193,-0.15707963267948966,-1.1715522604011936
1592284629.4682682,-3.982965562265383,8.507475763016158,1.9164961645177088,-0.2222222222222222,-0.6788888888888889,-0.24444444444444444,-0.16911487712711556,-0.19291001448193829,-1.167164866711098
1592284629.4782681,-3.880917417924119,8.426483150942488,1.8008561924504651,-0.2222222222222222,-0.6788888888888889,-0.24444444444444444,-0.1313233420114096,-0.22057799529684385,-1.1281658766977796
1592284629.4882681,-4.12965772061097,8.619695751654195,1.799847875827098,-0.18227293027985625,-0.7055217501837996,-0.21448247548766997,-0.1276161387700478,-0.2497670608455757,-1.075611699756184
1592284629.4982681,-4.296082353416575,8.38597486564028,1.860393583060573,-0.18222222222222223,-0.7055555555555556,-0.21444444444444444,-0.13586209898555154,-0.27368145174874037,-1.0632068053913064
1592284629.508268,-4.010126667929737,8.212893333694211,1.9382639997834736,-0.18222222222222223,-0.7055555555555556,-0.21444444444444444,-0.13112062352161225,-0.2761379948444873,-1.0348334934219066
1592284629.518268,-4.57133928782961,8.500511502286242,1.872213982799877,-0.18222222222222223,-0.7055555555555556,-0.21444444444444444,-0.12350538648110185,-0.24851561756013274,-0.9886854076645927
1592284629.528268,-4.638838999358564,8.550699166132137,2.163033996151379,-0.18222222222222223,-0.7055555555555556,-0.21444444444444444,-0.10994510745043816,-0.26271319472791166,-0.966779742669412
1592284629.538268,-4.43,8.27,2.41,-0.1511111111111111,-0.6877777777777778,-0.22333333333333333,-0.06654067773228381,-0.27379852640661045,-0.9348419805994628
1592284629.548268,-4.488372890821333,7.919762655072001,2.0347457018628585,-0.1511111111111111,-0.6877777777777778,-0.22333333333333333,-0.04288998344011824,-0.2792563789355717,-0.9193780651007392
1592284629.558268,-5.001336287838955,8.304040411627732,1.96,-0.1511111111111111,-0.6877777777777778,-0.22333333333333333,0.007221704550205828,-0.28756636277347714,-0.8760562551250756
1592284629.568268,-4.91648563819669,8.16918798744531,1.8275665778961385,-0.1511111111111111,-0.6877777777777778,-0.22333333333333333,0.045933090408027774,-0.29107495058182664,-0.8242254727354652
1592284629.578268,-5.080076762892491,8.354373443305704,2.06296680413213,-0.1511111111111111,-0.6877777777777778,-0.22333333333333333,0.08245119140921897,-0.26651515647982305,-0.7586704708727642
1592284629.588268,-4.527334778532927,7.797775662057651,2.454569076634638,-0.11181252115720125,-0.7058338866755202,-0.2371409460198422,0.06551324653592729,-0.2700931976708824,-0.6845105361857964
1592284629.598268,-4.826338701256978,7.8565796554355245,2.1902811132083047,-0.11,-0.7066666666666667,-0.23777777777777778,0.0970510846127933,-0.23420151356411842,-0.6054877460207794
1592284629.608268,-5.1702277904328025,8.350569476082004,1.9328519362186787,-0.11,-0.7066666666666667,-0.23777777777777778,0.09280360910476226,-0.1864947916844852,-0.4620520653071571
1592284629.618268,-4.816416883024082,7.762175166138675,2.093123883476645,-0.11,-0.7066666666666667,-0.23777777777777778,0.11836931345187068,-0.16238680258090596,-0.3521129170295428
1592284629.628268,-5.004751764419567,7.839501095156972,1.4667449501095158,-0.11,-0.7066666666666667,-0.23777777777777778,0.12953622178983956,-0.12569070480277397,-0.2731980252554771
1592284629.638268,-4.5994569258635485,7.772167212177063,2.025026534049382,-0.07841261770843264,-0.6892391454023536,-0.22361791675052345,0.12557448881008926,-0.11242004500863337,-0.2209925621792682
1592284629.648268,-4.991741446094254,7.995218689477082,2.027826016785023,-0.07777777777777778,-0.6888888888888889,-0.22333333333333333,0.14071725896905884,-0.1030597416515902,-0.19910020904589606
1592284629.658268,-4.992104029344438,8.077749248462451,2.29568189966629,-0.07777777777777778,-0.6888888888888889,-0.22333333333333333,0.14277407244043122,-0.07477228495295543,-0.15148871501904881
1592284629.668268,-5.1454539899792255,7.974075522424538,2.387554686545277,-0.07777777777777778,-0.6888888888888889,-0.22333333333333333,0.14180800172453928,-0.060135929378889605,-0.1214516036465845
1592284629.678268,-5.414431938473504,8.427594244852989,2.105434552485472,-0.07777777777777778,-0.6888888888888889,-0.22333333333333333,0.13478927658970385,-0.03863339972434044,-0.05075161560596928
1592284629.688268,-5.374231488578875,7.8014799938678525,2.517656599724053,-0.06014969254092357,-0.7172896928815985,-0.22333333333333333,0.1262217472782216,-0.02118736866719454,0.03124909949487103
1592284629.698268,-5.34059335347432,7.838784290030212,2.0078006042296073,-0.057777777777777775,-0.7211111111111111,-0.22333333333333333,0.14167538833877596,-0.004110751313760663,0.08584251648339904
1592284629.708268,-5.476127678316968,7.713702101199575,1.7157872373500531,-0.057777777777777775,-0.7211111111111111,-0.22333333333333333,0.1364698918360208,0.024991632147771357,0.17596261809769312
1592284629.718268,-5.561280201342282,7.504913710450624,1.396090364333653,-0.057777777777777775,-0.7211111111111111,-0.22333333333333333,0.15613598038392207,0.03027149548724333,0.25719818407330663
1592284629.728268,-5.649277840975954,7.761075981642019,2.070707645235947,-0.057777777777777775,-0.7211111111111111,-0.22333333333333333,0.13724853187557318,0.02110922089465389,0.3254301279723208
1592284629.738268,-5.424142230431771,7.3491466833789625,2.048453343008873,-0.051685926121391376,-0.7048661733607474,-0.21419555584875374,0.14366968578025552,0.013466184934430307,0.43868171718678994
1592284629.748268,-5.433547034152187,8.111838226482924,1.637563810665069,-0.051111111111111114,-0.7033333333333334,-0.21333333333333335,0.12605154256440262,0.00869867288819762,0.5131100683499447
1592284629.7582679,-5.226118326118327,7.4600721500721505,1.7974025974025973,-0.051111111111111114,-0.7033333333333334,-0.21333333333333335,0.125982297991178,0.006544984694978735,0.612785604077735
1592284629.7682679,-5.343117714404663,8.223735689009159,1.675264623230641,-0.051111111111111114,-0.7033333333333334,-0.21333333333333335,0.11691459726181358,-0.004350493833730402,0.6889751595796084
1592284629.7782679,-5.367355073109049,8.035362339489572,1.6363224634454754,-0.051111111111111114,-0.7033333333333334,-0.21333333333333335,0.1021231042165681,-0.014131396217265259,0.7175552067315578
1592284629.7882679,-5.626832270666716,8.00404820698043,1.8832882467843586,-0.06244712261002388,-0.7129253430631826,-0.19589331564269832,0.12572133327084012,-0.014263698969988577,0.7695322903831576
1592284629.7982678,-5.52904897652136,8.009965554103813,2.170985469374827,-0.06555555555555556,-0.7155555555555555,-0.19111111111111112,0.11870810401259499,-0.013544795338030092,0.8033213117230209
1592284629.8082678,-5.433226428884666,8.202581786288555,1.5888133313843005,-0.06555555555555556,-0.7155555555555555,-0.19111111111111112,0.12312323922459012,-0.023728543352669287,0.8839602178163593
1592284629.8182678,-5.16047123300785,8.236537430595444,1.192687152977216,-0.06555555555555556,-0.7155555555555555,-0.19111111111111112,0.07323076192681058,-0.042605839125476525,0.9340774539991993
1592284629.8282678,-4.999794174826547,7.985748301139708,1.8489150480674903,-0.06555555555555556,-0.7155555555555555,-0.19111111111111112,0.07789032191321801,-0.057428825225096375,0.9734960724080606
1592284629.8382678,-4.573554469273743,7.9540052762259466,1.4701063004345127,-0.08727084626525967,-0.7128411442168425,-0.20468316780467619,0.08193672839939045,-0.047481524532925146,1.0477299321418105
1592284629.8482678,-4.455243940824677,8.145091281082783,1.4246797293043754,-0.09222222222222222,-0.7122222222222222,-0.20777777777777778,0.07882582894340222,-0.03984193337718721,1.0835092203629153
1592284629.8582678,-4.3176105898123325,8.452389410187667,1.7539823503127794,-0.09222222222222222,-0.7122222222222222,-0.20777777777777778,0.08391674572045688,-0.03406674160147493,1.1364140017659963
1592284629.8682678,-4.237808872051815,8.488698521324698,1.5564414029084688,-0.09222222222222222,-0.7122222222222222,-0.20777777777777778,0.08712449329953821,-0.01958283202261724,1.1507815519148312
1592284629.8782678,-4.153370917420323,8.422397614628174,1.5060653212748312,-0.09222222222222222,-0.7122222222222222,-0.20777777777777778,0.06779917619794745,0.00797892679879714,1.1485509424678377
1592284629.8882678,-3.827127860026918,8.64307479330898,1.8391893866564122,-0.10132696703625371,-0.7122222222222222,-0.20777777777777778,0.05533202964957364,0.02664798299722298,1.1168872294162029
1592284629.8982677,-3.6021028829847372,8.759649519502544,1.7178914641040135,-0.10444444444444445,-0.7122222222222222,-0.20777777777777778,0.04868533791432599,0.045011414905782254,1.0777593122153029
1592284629.9082677,-3.434079754601227,8.871840490797545,1.5117331288343558,-0.10444444444444445,-0.7122222222222222,-0.20777777777777778,0.04453500705409994,0.06667452200007479,0.9665396493190607
1592284629.9182677,-3.2713884744122272,8.821050127031496,1.267794491269105,-0.10444444444444445,-0.7122222222222222,-0.20777777777777778,0.04682808053200679,0.07682784063452183,0.8862458805498
1592284629.9282677,-3.193102894812267,9.003832043565492,1.4162247062195472,-0.10444444444444445,-0.7122222222222222,-0.20777777777777778,0.04560691905100287,0.10111085293497746,0.756278015146409
1592284629.9382677,-2.853886120996441,9.203992882562277,1.6169608540925267,-0.12033768287860815,-0.7122222222222222,-0.19621905891656782,0.03795935844684464,0.1255033811922853,0.6124222923861269
1592284629.9482677,-3.0077743592063886,9.248119132185598,1.3874372780128046,-0.1288888888888889,-0.7122222222222222,-0.19,0.02856677119588348,0.15576482659708285,0.4553902024721145
1592284629.9582677,-2.8746719676952988,9.5527693304751,1.463943367067152,-0.1288888888888889,-0.7122222222222222,-0.19,0.03267369646471811,0.18744360005377594,0.3016866575751982
1592284629.9682677,-2.749616343755995,9.217032898522923,1.3201021484749664,-0.1288888888888889,-0.7122222222222222,-0.19,0.0688785982435321,0.24497385134049318,0.15103115071598386
1592284629.9782677,-2.9406745468590008,9.332276573194171,1.3116020263351718,-0.1288888888888889,-0.7122222222222222,-0.19,0.0840086865817878,0.2775952806463324,0.014307721166547896
1592284629.9882677,-3.024736824941299,9.597129206887555,1.4983253978606836,-0.1532801765370902,-0.7082668782792707,-0.19922913586688698,0.10085748702396376,0.2895137965048074,-0.1808169770810275
1592284629.9982677,-3.010025214578611,9.477355016172988,1.5024180526195146,-0.17,-0.7055555555555556,-0.20555555555555555,0.1216372589418356,0.2988958858555839,-0.40618209245281517
1592284630.0082676,-2.8719301145083227,9.175884783378585,1.4299811120292765,-0.17,-0.7055555555555556,-0.20555555555555555,0.12064361815032075,0.29997743500753116,-0.5306163549068724
1592284630.0182676,-2.9888235294117647,9.297058823529412,1.37,-0.17,-0.7055555555555556,-0.20555555555555555,0.11267640318022215,0.28592599804730634,-0.7651215441463377
1592284630.0282676,-3.1410724679337476,9.250869471490677,1.3921449358674953,-0.17,-0.7055555555555556,-0.20555555555555555,0.10873211393903388,0.2874734363142541,-0.8818845426997226
1592284630.0382676,-3.1871697771335388,9.142924442833847,1.3976100742888204,-0.14935012381470072,-0.7089972015864388,-0.19247730063819934,0.10445905466629633,0.2909911184731903,-0.9974274826135845
1592284630.0482676,-3.3068854831527386,9.189977363811785,1.420067908564643,-0.13666666666666666,-0.7111111111111111,-0.18444444444444444,0.09998459097854094,0.2887032548006083,-1.0658108128015646
1592284630.0582676,-3.3358864239406953,8.920547364389856,1.2961927948135787,-0.13666666666666666,-0.7111111111111111,-0.18444444444444444,0.09701709988638427,0.26789565095496515,-1.1927076100563503
1592284630.0682676,-3.7364083679197755,9.086074658733777,1.1436048269078523,-0.13666666666666666,-0.7111111111111111,-0.18444444444444444,0.10541736028649057,0.24007161821372086,-1.2702469438637045
1592284630.0782676,-3.9109356992591238,9.13733924814781,1.136348669166743,-0.13666666666666666,-0.7111111111111111,-0.18444444444444444,0.11314418547913004,0.2319506537477466,-1.2926304862922984
1592284630.0882676,-3.6233714946746978,8.701564880928638,1.197951653436515,-0.11725544164771896,-0.7218207525008754,-0.1931460280736279,0.1258396819643493,0.20256560975651955,-1.3418405227899144
1592284630.0982676,-3.578576661433804,8.693082558467175,1.1336762870828805,-0.10444444444444445,-0.7288888888888889,-0.1988888888888889,0.11840903817343779,0.1826300923265354,-1.3650431949456463
1592284630.1082675,-3.7990725749978993,8.731989300019608,0.9590725749978992,-0.10444444444444445,-0.7288888888888889,-0.1988888888888889,0.1070099161695031,0.19405204668874318,-1.3860412590566962
1592284630.1182675,-3.9898398585018406,8.851341364309958,1.0045845881734308,-0.10444444444444445,-0.7288888888888889,-0.1988888888888889,0.05542162404913008,0.21002150566756386,-1.4224990317217958
1592284630.1282675,-3.999320941388098,8.817261280167891,1.040686553740069,-0.10444444444444445,-0.7288888888888889,-0.1988888888888889,0.02907715655899937,0.21534464770720957,-1.4464025367093207
1592284630.1382675,-4.032808531484342,8.212418133172552,1.269672532690206,-0.0756283260688431,-0.7360929184827892,-0.19108452349549684,-0.020126787762916765,0.2497906303801007,-1.50867117685378
1592284630.1482675,-4.393452358579214,8.219722232663033,1.3075794023679759,-0.051111111111111114,-0.7422222222222222,-0.18444444444444444,-0.04923888379310821,0.26202448311942406,-1.536876676081846
1592284630.1582675,-4.655612727223618,8.008162763687437,1.0117343273100505,-0.051111111111111114,-0.7422222222222222,-0.18444444444444444,-0.08043208644684184,0.24584876823218405,-1.573389830530371
1592284630.1682675,-4.723387576428045,7.663835081959413,1.186164918040587,-0.051111111111111114,-0.7422222222222222,-0.18444444444444444,-0.0887090696355553,0.23237358318859713,-1.559188904216056
1592284630.1782675,-5.056439287679988,7.653830051666282,1.3446439287679988,-0.051111111111111114,-0.7422222222222222,-0.18444444444444444,-0.0851513861994027,0.21770397256389185,-1.546313670589682
1592284630.1882675,-5.400023287620597,7.670232876205966,1.3351047942926848,-0.025615068363746885,-0.7327997716416746,-0.18111887365131,-0.06330374937955147,0.2072629292450062,-1.5233845621790674
1592284630.1982675,-5.437123983739837,7.594504471544716,1.3484337398373984,0.0,-0.7233333333333334,-0.17777777777777778,-0.04758532009338584,0.19808520338954405,-1.5045867561135438
1592284630.2082675,-5.8431865144100055,7.538646003262643,1.3788852637302882,0.0,-0.7233333333333334,-0.17777777777777778,-0.023650682414191784,0.1438680644257955,-1.4940122794144717
1592284630.2182674,-5.9476684295788065,7.352404230989136,0.9907463788831713,0.0,-0.7233333333333334,-0.17777777777777778,-0.010842742595685005,0.09729648740686055,-1.488024317783725
1592284630.2282674,-6.0896755193831655,7.32935460841008,0.8745159563075605,0.0,-0.7233333333333334,-0.17777777777777778,-0.010415693409694955,0.05433072460863675,-1.4672379984529023
1592284630.2382674,-6.124761190586064,7.565380326103677,1.095362636517459,0.033392298620725014,-0.7266725631954059,-0.18223008426054113,-0.016375969179069815,-0.0022318320624496804,-1.4185742973219253
1592284630.2482674,-5.945249497790277,7.712874246685416,1.3527416633186018,0.06666666666666667,-0.73,-0.18666666666666668,-0.02521865784848556,-0.03280968308651876,-1.3773402704743405
1592284630.2582674,-5.829373411317588,7.401521186545248,1.2718797660472347,0.06666666666666667,-0.73,-0.18666666666666668,-0.01917863087983028,-0.058311838605155,-1.2749030459055357
1592284630.2682674,-6.161845105391164,7.366051631536279,1.1106500810701256,0.06666666666666667,-0.73,-0.18666666666666668,0.030214758020775934,-0.06966299845249091,-1.1912550045122108
1592284630.2782674,-6.347927066100842,7.202437603394951,1.195182334747896,0.06666666666666667,-0.73,-0.18666666666666668,0.08139356712885229,-0.07312230329437222,-1.1252547594558466
1592284630.2882674,-6.577821155367977,7.218443682405698,1.199377472962279,0.07986166065828425,-0.73,-0.18949416537915614,0.13267814639249814,-0.08547954226411322,-1.0425498154282544
1592284630.2982674,-6.817705987926253,7.40210637950726,1.2848800783162018,0.09777777777777778,-0.73,-0.19333333333333333,0.16471544815696484,-0.09490227807719166,-0.978475211899321
1592284630.3082674,-6.766349296690788,7.389488576307016,1.2136742824619888,0.09777777777777778,-0.73,-0.19333333333333333,0.16471544815696484,-0.13968727200340153,-0.8756993925045573
1592284630.3182673,-7.310225321367936,7.186140916808149,1.1474741692942032,0.09777777777777778,-0.73,-0.19333333333333333,0.16342079102597573,-0.20329090746971945,-0.7074790596695917
1592284630.3282673,-7.407786474463652,6.925928824821217,1.1922135255363477,0.09777777777777778,-0.73,-0.19333333333333333,0.16182323247901967,-0.22414204680833438,-0.643953976680777
1592284630.3382673,-7.215478180906203,6.7787451931115195,1.3222111687008862,0.11551900462575936,-0.7330289899496554,-0.18770806628397332,0.15678084426126113,-0.29369638511835966,-0.4510923149529311
1592284630.3482673,-7.130833513903936,6.65750812567714,1.329170819790538,0.14333333333333334,-0.7377777777777778,-0.17888888888888888,0.16098834449744914,-0.3160681601367565,-0.3406998204257477
1592284630.3582673,-7.082085968235465,6.992781290980621,1.4820859682354655,0.14333333333333334,-0.7377777777777778,-0.17888888888888888,0.16177978935082277,-0.3025393664786109,-0.10500763399380483
1592284630.3682673,-7.215596832116441,6.91,1.350965823958903,0.14333333333333334,-0.7377777777777778,-0.17888888888888888,0.175518400931445,-0.2755633597036563,0.08764466154725692
1592284630.3782673,-7.383927873629831,6.921963936814915,1.272084147431864,0.14333333333333334,-0.7377777777777778,-0.17888888888888888,0.17020238442978478,-0.26702619649423787,0.2280077281250598
1592284630.3882673,-7.295096381467704,6.906127832262428,1.2871592830571525,0.15062525833239396,-0.7406004584225754,-0.17583098485702475,0.15357621031176263,-0.2704622147404292,0.3546266157743653
1592284630.3982673,-7.099516713018838,6.956010914624548,1.599006139476308,0.17777777777777778,-0.7511111111111111,-0.16444444444444445,0.1557162802327509,-0.27156265815897995,0.5246933270084314
1592284630.4082673,-7.2267039735899194,7.07847014775152,1.70152985224848,0.17777777777777778,-0.7511111111111111,-0.16444444444444445,0.16064948060603954,-0.2770239846638364,0.5813445176118252
1592284630.4182673,-6.545116865903704,6.7511434251777835,1.6450916320444524,0.17777777777777778,-0.7511111111111111,-0.16444444444444445,0.19787380677748434,-0.2941956134556078,0.6348125230428637
1592284630.4282672,-6.663485244676877,6.683220022413149,1.4643182667164736,0.17777777777777778,-0.7511111111111111,-0.16444444444444445,0.21686873206467458,-0.29573494192581634,0.6282606681960631
1592284630.4382672,-6.786111090647906,6.863888909352094,1.5188095325794688,0.16941798552023607,-0.7511111111111111,-0.16897266525061289,0.22500549554664273,-0.27376389175581256,0.6351102571653153
1592284630.4482672,-6.69,6.96,1.56,0.1511111111111111,-0.7511111111111111,-0.17888888888888888,0.2399827721492203,-0.2498002491916884,0.6643159465403417
1592284630.4582672,-6.838356084962842,6.89328308649133,1.3796278922679597,0.1511111111111111,-0.7511111111111111,-0.17888888888888888,0.22611128888025192,-0.2257613813199149,0.7129717254340082
1592284630.4682672,-6.911087538765154,6.802385349121324,1.2086641293111549,0.1511111111111111,-0.7511111111111111,-0.17888888888888888,0.21551609172473885,-0.2080572376830577,0.7657195135488584
1592284630.4782672,-6.727577777353373,6.87966520883864,1.2574320582112641,0.1511111111111111,-0.7511111111111111,-0.17888888888888888,0.18372872806874782,-0.20421993463150886,0.8192753538378292
1592284630.4882672,-6.85298031638691,7.423404580767219,1.2823406995934468,0.13820338391766962,-0.7554136868422582,-0.17061470479052895,0.14171526595942907,-0.18256335067740306,0.8784203906911536
1592284630.4982672,-6.424858316315994,7.323728747447399,1.293672073973797,0.10777777777777778,-0.7655555555555555,-0.1511111111111111,0.08625269553424975,-0.1462483885715548,0.9590219920298291
1592284630.5082672,-6.587827715355805,7.345505617977528,1.3843820224719101,0.10777777777777778,-0.7655555555555555,-0.1511111111111111,0.07475663542367099,-0.13477275600371943,0.9881210975827447
1592284630.5182672,-6.0708642600374665,7.0170274922788725,1.1550807554047897,0.10777777777777778,-0.7655555555555555,-0.1511111111111111,0.04546112259614166,-0.10806890551616463,1.0337538115379308
1592284630.5282671,-6.21,6.91,1.23,0.10777777777777778,-0.7655555555555555,-0.1511111111111111,0.042542400517361786,-0.10690141668465267,1.030835089459151
1592284630.5382671,-5.653024517684888,7.545209807073955,1.1856965434083602,0.10055238478027867,-0.7623165862808146,-0.14787214183637012,0.06939683048529624,-0.047560441335250316,1.10926871640359
1592284630.5482671,-6.39,7.84,1.24,0.07555555555555556,-0.7511111111111111,-0.13666666666666666,0.04908738521234052,-0.019634954084936207,1.1617347833587257
1592284630.558267,-5.748076330929422,7.411483942414175,1.2119236690705777,0.07555555555555556,-0.7511111111111111,-0.13666666666666666,-0.024157822597176803,-0.015571069499706656,1.189777292939124
1592284630.568267,-5.693668523544256,7.2426362900538015,1.3288587344665048,0.07555555555555556,-0.7511111111111111,-0.13666666666666666,-0.03515557055487435,-0.04346724095653306,1.1273824689521201
1592284630.578267,-5.73,7.58,1.36,0.07555555555555556,-0.7511111111111111,-0.13666666666666666,-0.028361600344907853,-0.04799655442984406,1.0973757671914346
1592284630.588267,-5.292670661324119,7.694045509686432,1.1929772451567842,0.0722392546573703,-0.755792947673255,-0.13939773799458394,-0.03938643775315127,0.007885596198137265,1.0827536703692962
1592284630.598267,-5.4120869683135195,7.601211408940921,1.151178411607829,0.056666666666666664,-0.7777777777777778,-0.15222222222222223,-0.07086736535752819,0.027171661400190276,1.0745968655246363
1592284630.608267,-5.469093291404612,7.700716282320056,1.1185202655485673,0.056666666666666664,-0.7777777777777778,-0.15222222222222223,-0.10505039652560515,0.047382152186173795,1.0771264108628282
1592284630.618267,-5.323109934911666,7.963471854659895,1.2447318980521183,0.056666666666666664,-0.7777777777777778,-0.15222222222222223,-0.12307451812533113,0.05633132032287351,1.0865720093449083
1592284630.628267,-4.8232181830819485,7.796683116702579,1.19781816918051,0.056666666666666664,-0.7777777777777778,-0.15222222222222223,-0.12909599795985077,0.06470468222257701,1.0904743499178422
1592284630.638267,-4.815036416605972,7.925294974508375,0.8554297159504735,0.051812333090555954,-0.7777777777777778,-0.15222222222222223,-0.12218774565087487,0.08183375983882006,1.0892493559323198
1592284630.648267,-4.48,8.75,1.62,0.022222222222222223,-0.7777777777777778,-0.15222222222222223,-0.11562806294462433,0.14180800172453928,1.0995574287564276
1592284630.658267,-4.342291131740075,8.23582658502864,1.0060063203634209,0.022222222222222223,-0.7777777777777778,-0.15222222222222223,-0.14440742368598897,0.20139304426383164,1.0335148748181655
1592284630.668267,-4.675630058610103,8.205865894501814,1.2983468229602755,0.022222222222222223,-0.7777777777777778,-0.15222222222222223,-0.15708392029699458,0.2680480194759325,0.9534892604271985
1592284630.678267,-4.447085305094734,8.422136823871854,1.1445641886462259,0.022222222222222223,-0.7777777777777778,-0.15222222222222223,-0.18042156866714984,0.2964943478882147,0.8443551721906726
1592284630.688267,-4.064284741917186,8.563791264889394,1.3744515031196824,0.017448036805949457,-0.7760927711602698,-0.15025638116846285,-0.2244594395707194,0.32810036737763904,0.6951225423022166
1592284630.698267,-3.61,8.59,1.82,-0.015555555555555555,-0.7644444444444445,-0.13666666666666666,-0.23780111058422737,0.3490658503988659,0.5159629601208237
1592284630.708267,-3.9890038543897215,8.747768736616703,1.176892505353319,-0.015555555555555555,-0.7644444444444445,-0.13666666666666666,-0.21238171677814724,0.38900501945910426,0.2077577154568839
1592284630.718267,-4.26,9.14,1.02,-0.015555555555555555,-0.7644444444444445,-0.13666666666666666,-0.20071286397934787,0.4177881896961426,0.032724923474893676
1592284630.728267,-3.8286288689615273,8.192421174428695,1.483216661845531,-0.015555555555555555,-0.7644444444444445,-0.13666666666666666,-0.23525562839666625,0.4137886871887251,-0.29062641348515716
1592284630.738267,-4.811011673151751,9.04739299610895,1.2771984435797665,-0.017423259835711198,-0.7644444444444445,-0.13717250324254215,-0.21186735151398092,0.43862857546290374,-0.4742694551540428
1592284630.748267,-5.208004210368031,8.55078606067441,1.277998195556558,-0.06888888888888889,-0.7644444444444445,-0.1511111111111111,-0.24279061265668608,0.4422797007237735,-0.6650933597945263
1592284630.758267,-3.78,7.38,1.89,-0.06888888888888889,-0.7644444444444445,-0.1511111111111111,-0.19634954084936207,0.4461497900410505,-0.7995789635699021
1592284630.768267,-4.55759818802397,8.122021800336599,1.6206359217956179,-0.06888888888888889,-0.7644444444444445,-0.1511111111111111,-0.1614225039118909,0.4710976735678156,-0.8500291280351383
1592284630.778267,-5.165946037099494,8.698064477730384,1.36,-0.06888888888888889,-0.7644444444444445,-0.1511111111111111,-0.10844706146823922,0.49685477742913703,-0.9492213182503141
1592284630.788267,-4.615508446866485,8.164364396003633,1.3527542234332426,-0.06674199212836815,-0.7655178928247048,-0.15048493288929257,-0.03743953176586219,0.5056832720187276,-1.1454278043858743
1592284630.798267,-4.45,8.1,1.27,-0.042222222222222223,-0.7777777777777778,-0.14333333333333334,-0.04145156973486533,0.5377795757707527,-1.2457287536109527
1592284630.8082669,-4.456875579984296,8.098526661431936,1.263001641801699,-0.042222222222222223,-0.7777777777777778,-0.14333333333333334,-0.040902455688312044,0.5379402920770611,-1.2473493096995611
1592284630.8182669,-5.0041274397835185,7.943296498646994,0.6721053389717154,-0.042222222222222223,-0.7777777777777778,-0.14333333333333334,-0.0024928801630919556,0.5329328306833461,-1.3887695756049714
1592284630.8282669,-4.986865347614491,7.83540842259057,0.5901104011688325,-0.042222222222222223,-0.7777777777777778,-0.14333333333333334,-0.01943989952053203,0.48020877046019916,-1.4212513627067316
1592284630.8382668,-4.9870386112572325,7.726146028406102,0.5195335086796423,-0.04091502717867789,-0.7776425507043077,-0.14290511426734467,-0.03663908368888427,0.4280990826109164,-1.4533627524139179
1592284630.8482668,-5.728377275118358,7.558462283008943,0.9343301420305102,0.01596016131860424,-0.7717589105149336,-0.12427358700099363,-0.06455762655678994,0.40210595649252145,-1.4697287947847593
1592284630.8582668,-5.815080120355469,7.368983975928907,0.9968581624798825,0.022222222222222223,-0.7711111111111111,-0.12222222222222222,-0.10521266825261767,0.3006653326276719,-1.5297764281596937
1592284630.8682668,-5.663610116327892,7.276646249598657,0.6779280792313962,0.022222222222222223,-0.7711111111111111,-0.12222222222222222,-0.09630301590829532,0.25457865863810397,-1.558245616683816
1592284630.8782668,-6.2,6.91,1.16,0.022222222222222223,-0.7711111111111111,-0.12222222222222222,-0.09926560120717749,0.21162117180431245,-1.5686146652299036
1592284630.8882668,-6.111317997461222,7.451945571070311,0.4603975355274157,0.022222222222222223,-0.7711111111111111,-0.12222222222222222,-0.06701991513293475,0.1439052310484027,-1.5782883710521767
1592284630.8982668,-6.36,7.34,1.06,0.06333333333333334,-0.7644444444444445,-0.12222222222222222,-0.05890486225480862,0.06872233929727672,-1.5718871575773932
1592284630.9082668,-6.4307553898524885,6.832151077970497,1.1979129518560545,0.06333333333333334,-0.7644444444444445,-0.12222222222222222,-0.03563846194193762,-0.0043284002770853465,-1.5296143261195085
1592284630.9182668,-6.82,6.91,1.05,0.06333333333333334,-0.7644444444444445,-0.12222222222222222,-0.030543261909900768,-0.042542400517361786,-1.499892325932627
1592284630.9282668,-6.794492091388401,6.849879613356767,1.3189841827768014,0.06333333333333334,-0.7644444444444445,-0.12222222222222222,-0.016499534498340507,-0.10896570370718806,-1.4585515646674072
1592284630.9382668,-6.946295240331399,6.717071076376078,1.6961858920605104,0.06797448540345935,-0.7657704878930519,-0.1207856751528975,0.003917448380195403,-0.1491064291281742,-1.406882033530547
1592284630.9482667,-6.46,6.6,1.39,0.11,-0.7777777777777778,-0.10777777777777778,0.019634954084936207,-0.16580627893946132,-1.34499435481813
1592284630.9582667,-7.548589974565494,6.894282005086901,1.546500900805426,0.11,-0.7777777777777778,-0.10777777777777778,0.052977949494825365,-0.14219819106309597,-1.2459052217319235
1592284630.9682667,-7.47,6.91,1.24,0.11,-0.7777777777777778,-0.10777777777777778,0.07526732399225547,-0.13962634015954636,-1.1584622910112363
1592284630.9782667,-7.217211007924434,6.448528870824913,1.5088354033741287,0.11,-0.7777777777777778,-0.10777777777777778,0.12227477198790834,-0.14154580207731263,-1.0248307522136018
1592284630.9882667,-7.630849795794887,6.87981908939646,1.074756012706096,0.11298976453385771,-0.7747880132439201,-0.10777777777777778,0.19092498836516295,-0.12324414413657742,-0.8637505040247332
1592284630.9982667,-7.4,6.72,1.35,0.13666666666666666,-0.7511111111111111,-0.10777777777777778,0.21707532571679475,-0.10581058590215622,-0.6981317007977318
1592284631.0082667,-7.727935706558138,6.6,1.36445005409304,0.13666666666666666,-0.7511111111111111,-0.10777777777777778,0.29946348021456115,-0.13244088364816908,-0.504903371245605
1592284631.0182667,-7.609009398139358,6.6290689671539775,1.3512915321815073,0.13666666666666666,-0.7511111111111111,-0.10777777777777778,0.3562954261611585,-0.14339671691962763,-0.33585482716566384
1592284631.0282667,-7.349926795881524,6.783804828694428,1.1882194933243397,0.13666666666666666,-0.7511111111111111,-0.10777777777777778,0.3916082509162277,-0.17641925937559635,-0.18913411299227248
1592284631.0382667,-7.4607447518023315,7.050786991456792,1.2789821196049163,0.1399020759890325,-0.749886902178324,-0.10559169039780085,0.39032053915628256,-0.20418223730428597,-0.07908576871060778
1592284631.0482666,-6.65,7.06,1.15,0.17777777777777778,-0.7355555555555555,-0.08,0.3752457891787809,-0.21925698728178766,0.02945243112740431
1592284631.0582666,-7.299779460535043,7.007007517134645,1.2797794605350432,0.17777777777777778,-0.7355555555555555,-0.08,0.32919195300246423,-0.23527716257482634,0.12696668578698206
1592284631.0682666,-6.910377294848938,6.995046740230328,0.919245410302125,0.17777777777777778,-0.7355555555555555,-0.08,0.2959289142512156,-0.25113801887536386,0.2410532086589076
1592284631.0782666,-6.98264411100168,6.824214703667227,1.03635362956955,0.17777777777777778,-0.7355555555555555,-0.08,0.23817131432235752,-0.23389065191095726,0.3529151982809493
1592284631.0882666,-7.3821580636468305,6.96,1.2601425806609667,0.17766688170813702,-0.7355555555555555,-0.07988910393035922,0.1950275241706071,-0.24425277645482343,0.44296850535324556
1592284631.0982666,-6.85304687721286,6.967248265118255,1.2733825237218523,0.17,-0.7355555555555555,-0.07222222222222222,0.0999918742102468,-0.236061651827876,0.529328163064399
1592284631.1082666,-7.009721180655706,7.031782520911451,1.3640669166426305,0.17,-0.7355555555555555,-0.07222222222222222,0.0145788102502901,-0.19720943139697175,0.6403724153756516
1592284631.1182666,-6.6674965117654015,6.709732765756178,1.4764275747901148,0.17,-0.7355555555555555,-0.07222222222222222,-0.055592487575765764,-0.1636644997060219,0.7381211677476958
1592284631.1282666,-6.883376741970063,6.595488347163219,1.54827907253742,0.17,-0.7355555555555555,-0.07222222222222222,-0.12103960052765188,-0.09912049347156966,0.8211581361037383
1592284631.1382666,-6.8500714654385195,6.220803986183348,1.5899106682018502,0.17,-0.7355555555555555,-0.07222222222222222,-0.1537369793018004,-0.07096441730494175,0.8638463806144323
1592284631.1482666,-6.82,6.55,1.68,0.17,-0.7555555555555555,-0.051111111111111114,-0.1538071403320003,-0.062177354602297986,0.8912087492996045
1592284631.1582665,-6.952374931880109,6.421386376021799,1.5744544959128066,0.17,-0.7555555555555555,-0.051111111111111114,-0.12388984289837679,-0.0425857959653848,0.9256182483992603
1592284631.1682665,-6.820378260145978,6.478878533558404,1.4277970091058225,0.17,-0.7555555555555555,-0.051111111111111114,-0.07583627493746378,-0.06407454069468674,0.9008655362127759
1592284631.1782665,-6.728264644247082,6.6530611715397665,1.1360199580880153,0.17,-0.7555555555555555,-0.051111111111111114,-0.0168856816994414,-0.08912537062014278,0.8849197903506023
1592284631.1882665,-6.9375401656521305,6.6698032132521705,1.278327312643449,0.17,-0.7555555555555555,-0.051111111111111114,0.004116462931547996,-0.07542831977384536,0.8803541067351699
1592284631.1982665,-6.39,6.63,1.36,0.11666666666666667,-0.7422222222222222,-0.027777777777777776,0.039269908169872414,-0.08617563181722002,0.8737554567796613
1592284631.2082665,-6.624500229603552,6.966055410990357,1.236777896831471,0.11666666666666667,-0.7422222222222222,-0.027777777777777776,0.04919040719195177,-0.05974723808485525,0.892651057014162
1592284631.2182665,-6.396889825664475,7.086220348671049,1.1023228065161477,0.11666666666666667,-0.7422222222222222,-0.027777777777777776,0.05034570637434432,-0.04623576212931821,0.9011206881103196
1592284631.2282665,-6.498971053369099,6.925631581054571,1.0881947391600273,0.11666666666666667,-0.7422222222222222,-0.027777777777777776,0.05084965101305776,-0.04408018498637258,0.8640246714577062
1592284631.2382665,-6.557745325699643,7.093558073427553,1.2729138807703086,0.11666666666666667,-0.7422222222222222,-0.027777777777777776,0.04810196020690116,-0.05415505127561343,0.8145662369468876
1592284631.2482665,-6.86,7.26,0.87,0.08444444444444445,-0.7622222222222222,-0.015555555555555555,0.07090400086226964,-0.11780972450961724,0.7352199474026113
1592284631.2582664,-6.149865369100444,6.8802243848325935,1.4483619907220653,0.08444444444444445,-0.7622222222222222,-0.015555555555555555,0.07632633521002449,-0.13968263631252564,0.6576510265629288
1592284631.2682664,-6.158171418470164,6.999733831662416,0.7546837041339427,0.08444444444444445,-0.7622222222222222,-0.015555555555555555,0.061590274483189815,-0.16680284413601612,0.6037331733839285
1592284631.2782664,-7.197889040327107,7.31,1.338722039605548,0.08444444444444445,-0.7622222222222222,-0.015555555555555555,0.05235987755982988,-0.20528826637234612,0.5936785970895875
1592284631.2882664,-6.912059247975627,7.31,1.6833991421470376,0.08444444444444445,-0.7622222222222222,-0.015555555555555555,0.05235987755982988,-0.2557251972042167,0.5863423162413154
1592284631.2982664,-5.94,7.12,0.79,0.024444444444444446,-0.7355555555555555,-0.015555555555555555,0.08726646259971647,-0.26725354171163174,0.6337726846304409
1592284631.3082664,-6.959914468995011,7.010801853171775,1.8431664290805418,0.024444444444444446,-0.7355555555555555,-0.015555555555555555,0.06490909655119415,-0.2735250412122105,0.7056955976384423
1592284631.3182664,-6.152910244786945,7.814777878513146,1.3725385312783318,0.024444444444444446,-0.7355555555555555,-0.015555555555555555,0.10802488338357923,-0.26415214068360915,0.7664060379694683
1592284631.3282664,-6.173298420751165,7.538952827100892,1.244345593650274,0.024444444444444446,-0.7355555555555555,-0.015555555555555555,0.10182991489266482,-0.24379211105110987,0.807237629278972
1592284631.3382664,-6.104657556664757,7.118527534571639,1.5961300220931185,0.024444444444444446,-0.7355555555555555,-0.015555555555555555,0.13926769863396984,-0.2269451083675226,0.852162969768538
1592284631.3482664,-6.117180656287651,7.705903281438257,1.476167875451818,0.0044444444444444444,-0.7355555555555555,-0.008888888888888889,0.1556155707263325,-0.2211311061559938,0.9407957689755762
1592284631.3582664,-6.0917108835437,7.558023815194094,1.1867839961895688,0.0044444444444444444,-0.7355555555555555,-0.008888888888888889,0.16244047237023515,-0.2189126702731854,1.0367428253069126
1592284631.3682663,-6.061836535252897,7.428310053868523,1.557185727225056,0.0044444444444444444,-0.7355555555555555,-0.008888888888888889,0.16540636312057447,-0.22882842028328793,1.1162573527793782
1592284631.3782663,-5.57652277605533,7.421237777247794,1.2966551395182448,0.0044444444444444444,-0.7355555555555555,-0.008888888888888889,0.20934468366640754,-0.2521753361530052,1.1681083257723628
1592284631.3882663,-6.009990460290961,7.554612449320296,1.138272716432149,0.0044444444444444444,-0.7355555555555555,-0.008888888888888889,0.22116568099594955,-0.2803638682465285,1.179020015615017
1592284631.3982663,-5.05,7.75,1.11,-0.006666666666666667,-0.7233333333333334,0.01888888888888889,0.20289452554434081,-0.3065234498815041,1.153008137098754
1592284631.4082663,-5.898246227320844,8.235705915659388,1.4400635139459885,-0.006666666666666667,-0.7233333333333334,0.01888888888888889,0.1953066710667804,-0.31726762689377036,1.109094605173414
1592284631.4182663,-4.878452220726784,7.900955585464334,0.9407671601615074,-0.006666666666666667,-0.7233333333333334,0.01888888888888889,0.13910221285220956,-0.3147567998522176,1.044198133580662
1592284631.4282663,-5.5460483838342975,8.33,1.1463105303612606,-0.006666666666666667,-0.7233333333333334,0.01888888888888889,0.11736547541024461,-0.33945070594014903,1.019038283435441
1592284631.4382663,-5.478176706177434,8.33,2.11348193697156,-0.006666666666666667,-0.7233333333333334,0.01888888888888889,0.1284709526974121,-0.36166166051448395,1.041249238009776
1592284631.4482663,-4.24,7.64,0.58,-0.06888888888888889,-0.7055555555555556,0.01888888888888889,0.16253378659197193,-0.3436116964863836,1.0821041362364843
1592284631.4582663,-6.108384402232842,7.843487410144172,1.5974370507208548,-0.06888888888888889,-0.7055555555555556,0.01888888888888889,0.17161439103525233,-0.398095323146066,1.1184265540096059
1592284631.4682662,-5.3023177299580055,8.064329877339913,1.5996640489691332,-0.06888888888888889,-0.7055555555555556,0.01888888888888889,0.2179833118415689,-0.45228035272553985,1.1295309089275578
1592284631.4782662,-4.66678695883291,8.306804677809934,0.8911960309491466,-0.06888888888888889,-0.7055555555555556,0.01888888888888889,0.19508423899256402,-0.4248569741821376,1.1422731406437565
1592284631.4882662,-5.4264892800189,8.034302758254091,1.1224097808753175,-0.06888888888888889,-0.7055555555555556,0.01888888888888889,0.19148116648176539,-0.413146988522042,1.2134338227320298
1592284631.4982662,-4.89,8.35,0.46,-0.08888888888888889,-0.6855555555555556,0.04,0.14180800172453928,-0.45596726708351865,1.3308135546456763
1592284631.5082662,-4.386917838758056,8.558826557496657,0.944097928742248,-0.08888888888888889,-0.6855555555555556,0.04,0.07761138762705135,-0.44975469152569714,1.4457462024653724
1592284631.5182662,-3.925255261059702,7.644819396457996,0.8828331199110875,-0.08888888888888889,-0.6855555555555556,0.04,0.07953284159338472,-0.40099510426266033,1.601820472477235
1592284631.5282662,-4.590453333852171,8.31538241531607,1.006034009767107,-0.08888888888888889,-0.6855555555555556,0.04,0.025252890730817813,-0.3314055213926831,1.7231232676743289
1592284631.5382662,-4.027372414732377,8.470433682899781,0.8917857073370041,-0.08888888888888889,-0.6855555555555556,0.04,-0.001452587513193812,-0.29401785185106677,1.7747538589460845
1592284631.5482662,-4.36,8.82,1.54,-0.12222222222222222,-0.6933333333333334,0.08333333333333333,-0.07744898555724837,-0.3010692959690219,1.7606008829492799
1592284631.5582662,-3.441607599561564,8.607409166565176,1.1148183331303536,-0.12222222222222222,-0.6933333333333334,0.08333333333333333,-0.10898747058271871,-0.301996898469771,1.7207139754170675
1592284631.5682662,-4.02,8.89,1.13,-0.12222222222222222,-0.6933333333333334,0.08333333333333333,-0.13308135546456762,-0.32834006553143325,1.6482453123521448
1592284631.5782661,-3.6584711936739045,9.161146604744571,1.2625605623195681,-0.12222222222222222,-0.6933333333333334,0.08333333333333333,-0.14425508006772592,-0.35003023681991696,1.5798884088975296
1592284631.5882661,-3.0308608287724788,9.195026583268179,1.6017959343236903,-0.12222222222222222,-0.6933333333333334,0.08333333333333333,-0.19657094794172805,-0.35934354033440286,1.410782708990414
1592284631.5982661,-3.21,9.3,1.43,-0.17,-0.6444444444444445,0.06888888888888889,-0.20289452554434081,-0.3457933580513765,1.2348204457859882
1592284631.608266,-3.365993114189688,8.80602180506599,1.5859931141896877,-0.17,-0.6444444444444445,0.06888888888888889,-0.2132933199830717,-0.3524107726942053,1.1242150867558507
1592284631.618266,-3.13653177442927,8.652009776747468,1.4637683314015018,-0.17,-0.6444444444444445,0.06888888888888889,-0.17980058294552814,-0.3725708541868192,1.0210556812730494
1592284631.628266,-3.13,8.698816137723837,1.7821865089773243,-0.17,-0.6444444444444445,0.06888888888888889,-0.11925608513226116,-0.37625913635649283,0.9496107614264176
1592284631.638266,-3.2336002724530504,9.281755376082515,1.646553468911161,-0.17,-0.6444444444444445,0.06888888888888889,-0.07173626749314974,-0.38242179352948996,0.8966426299144847
1592284631.648266,-3.1,9.83,1.5,-0.2311111111111111,-0.6444444444444445,0.08333333333333333,-0.06326818538479445,-0.41015237421866746,0.8443030256522569
1592284631.658266,-2.227212529416538,9.105274689604805,1.5623419621845331,-0.2311111111111111,-0.6444444444444445,0.08333333333333333,-0.05986795881518852,-0.4050520343642585,0.839202685797848
1592284631.668266,-2.4495844053557367,9.130000525072198,1.206249146757679,-0.2311111111111111,-0.6444444444444445,0.08333333333333333,-0.10699242902980295,-0.40151662575086283,0.851348005480646
1592284631.678266,-1.273980879541109,8.609507648183556,1.4214875717017208,-0.2311111111111111,-0.6444444444444445,0.08333333333333333,-0.11750020388223201,-0.3635486626120569,0.9203279868944968
1592284631.688266,-2.1337588318417335,9.217610299890092,1.781461767938452,-0.2311111111111111,-0.6444444444444445,0.08333333333333333,-0.11780972450961724,-0.32792498806222614,0.9611813735257906
1592284631.698266,-1.55,9.72,2.27,-0.2588888888888889,-0.6322222222222222,0.06888888888888889,-0.12762720155208535,-0.2203478180642841,1.0406525665016189
1592284631.708266,-1.7314769095557687,9.372826781719398,2.1279745925215723,-0.2588888888888889,-0.6322222222222222,0.06888888888888889,-0.15430884753873095,-0.19452687033527225,1.053563040366125
1592284631.718266,-2.1893194620654657,9.345119005328597,1.8295239786856128,-0.2588888888888889,-0.6322222222222222,0.06888888888888889,-0.15839864942927617,-0.15717983078739722,1.0570150282390658
1592284631.728266,-1.255067402839524,8.778535063817582,1.9692607199196903,-0.2588888888888889,-0.6322222222222222,0.06888888888888889,-0.18269655697694298,-0.16000757393011275,1.023291649656
1592284631.738266,-1.6780227527639802,8.984011376381991,2.019356673609998,-0.2588888888888889,-0.6322222222222222,0.06888888888888889,-0.16374329612808403,-0.14661405428443433,1.0416247185304996
1592284631.748266,-1.7234652583745278,9.223069483250944,2.1357646842089104,-0.27277718075470536,-0.6065822987776379,0.09666547262052191,-0.15397514079885535,-0.05374822591550685,1.124811020464517
1592284631.758266,-1.7490511844850865,9.607665398306125,1.7332834172087885,-0.2733333333333333,-0.6055555555555555,0.09777777777777778,-0.15935287743525556,-0.029579763897031673,1.1659469406665146
1592284631.768266,-0.31594010787706095,7.202714227559536,1.6427852127009972,-0.2733333333333333,-0.6055555555555555,0.09777777777777778,-0.14481014543951545,-0.012032609549952637,1.17832210544117
1592284631.778266,-1.6817908353744084,10.748487622761752,2.4609480893158633,-0.2733333333333333,-0.6055555555555555,0.09777777777777778,-0.10948034059558841,-0.041378109273637116,1.159422205498599
1592284631.788266,-1.6907710369463564,8.971123843544923,2.4135180316683056,-0.2733333333333333,-0.6055555555555555,0.09777777777777778,0.0050213592633832765,-0.00915858714117411,1.2748202379414757
1592284631.798266,-1.332259787049249,8.77007784604497,2.062259787049249,-0.30111543589138723,-0.5938015890886866,0.0902979809352248,0.1966675580070732,0.02630955980833653,1.5220772421549202
1592284631.808266,-1.424136658914107,8.959222070735423,2.3298672708316626,-0.3022222222222222,-0.5933333333333334,0.09,0.28028144161404556,0.004551674936443026,1.604272645376925
1592284631.818266,-0.8071168651269346,9.71402940941421,2.1789733343988917,-0.3022222222222222,-0.5933333333333334,0.09,0.4666638248908468,-0.05013064706676358,1.7085900282331208
1592284631.828266,-0.4717497886728656,10.550661353298716,1.9863212977498692,-0.3022222222222222,-0.5933333333333334,0.09,0.4944463306201525,-0.04660573749808963,1.6673211733986586
1592284631.838266,0.5271789329745704,11.602759312763283,1.3051807414922476,-0.3022222222222222,-0.5933333333333334,0.09,0.276642611269838,-0.1443560482829518,1.259049370642378
1592284631.848266,1.6206193508308742,9.669860226743284,1.8799714241341823,-0.3316118790012252,-0.5698216079101309,0.10273551793756795,0.22820484907767852,-0.19159904817902565,0.572505129319076
1592284631.8582659,0.040616593262706724,9.289385787406262,2.0020818950124983,-0.33555555555555555,-0.5666666666666667,0.10444444444444445,0.18642416232132622,-0.0931414452904479,0.13803339740991338
1592284631.8682659,-0.8398145449728441,9.644964896012718,1.340974963571334,-0.33555555555555555,-0.5666666666666667,0.10444444444444445,0.2204869716003212,0.026141935270073025,-0.1271463054275459
1592284631.8782659,-0.45297123527577193,9.954244416188855,0.8989983926300891,-0.33555555555555555,-0.5666666666666667,0.10444444444444445,0.27304104501133275,0.02842642264292488,-0.04587047726573454
1592284631.8882658,-0.50868338833111,9.772633223337781,1.0290079337218283,-0.33555555555555555,-0.5666666666666667,0.10444444444444445,0.2401992074361216,0.004954499343570753,-0.022264171809812126
1592284631.8982658,-0.43384089101034207,9.590430389817024,1.3852983293556085,-0.3478476973393441,-0.5496467780429594,0.10444444444444445,0.20238521083770025,-0.09489516207686034,-0.03399998924157788
1592284631.9082658,-0.27630941323749136,9.615993619512983,1.3940063804870169,-0.35,-0.5466666666666666,0.10444444444444445,0.18672135023714825,-0.14158426754272369,-0.03204015327282174
1592284631.9182658,-0.05933706224340782,9.658242085250599,1.3435158294988014,-0.35,-0.5466666666666666,0.10444444444444445,0.17723014129042705,-0.19104001751923377,0.00959118368117486
1592284631.9282658,0.04498339187994361,9.761980070255932,1.3484983391879946,-0.35,-0.5466666666666666,0.10444444444444445,0.18244054254010242,-0.18135333508732535,0.042482967483115794
1592284631.9382658,0.05662059958084014,9.78337940041916,1.3060677945509218,-0.35,-0.5466666666666666,0.10444444444444445,0.1851027484612051,-0.1615703845124941,0.047642994448067806
1592284631.9482658,-0.09117729502452697,9.75078408471541,1.2984318305691818,-0.34738560564769394,-0.5457952018825647,0.11577348663777068,0.1870026082696387,-0.0865603910981286,0.02342062867861755
1592284631.9582658,-0.19902418653210371,9.729101444231773,1.3454299634591962,-0.3466666666666667,-0.5455555555555556,0.11888888888888889,0.1782101277251786,-0.0566420384760354,0.005662829632384245
1592284631.9682658,-0.447331728485002,9.672549491622059,1.4424307117291184,-0.3466666666666667,-0.5455555555555556,0.11888888888888889,0.1505519238196523,0.0070493699777662115,-0.017175186125837502
1592284631.9782658,-0.5810838769350599,9.593757180410865,1.625607048972836,-0.3466666666666667,-0.5455555555555556,0.11888888888888889,0.14526807852043525,0.04364743620854862,-0.026673340309248297
1592284631.9882658,-0.6098156467854376,9.596359411309063,1.6469124709527498,-0.3466666666666667,-0.5455555555555556,0.11888888888888889,0.14936337793749574,0.05551171101054118,-0.03407211216553066
1592284631.9982657,-0.6159273688604424,9.57370947544177,1.5848184221511061,-0.3466666666666667,-0.5400828656679498,0.13374333286953297,0.1819642952804948,0.07409514003048837,-0.049652607674288037
1592284632.0082657,-0.6023251969046362,9.672796849525822,1.2783574823761739,-0.3466666666666667,-0.5377777777777778,0.14,0.21542756982423772,0.08724163968058046,-0.03871117957830049
1592284632.0182657,-0.5842816915324572,9.717859154233771,1.1192676118960578,-0.3466666666666667,-0.5377777777777778,0.14,0.23710359214567178,0.09825466157353248,-0.0014718563258044812
1592284632.0282657,-0.5322011012688532,9.751865932487432,1.0920335168781423,-0.3466666666666667,-0.5377777777777778,0.14,0.23238351791415582,0.10470147449845442,0.03370607053015803
1592284632.0382657,-0.5229790176155835,9.75106294715325,1.0929790176155836,-0.3466666666666667,-0.5377777777777778,0.14,0.2252908889317357,0.10938515043050165,0.04231050142237546
1592284632.0482657,-0.6109923150055458,9.737362937727777,1.166266439549992,-0.3360313121709889,-0.5435045071216043,0.13509137484814873,0.20737745807085453,0.12423509980806809,0.03887400452428405
1592284632.0582657,-0.6708747347625668,9.722847369576352,1.2243052608472964,-0.3322222222222222,-0.5455555555555556,0.13333333333333333,0.20021142661993954,0.12503952138823685,0.029261593606298795
1592284632.0682657,-0.7235214995678478,9.664085998271391,1.29,-0.3322222222222222,-0.5455555555555556,0.13333333333333333,0.18736191308897573,0.10733245747840602,0.002228566345830593
1592284632.0782657,-0.7405592963156148,9.65,1.187203518421926,-0.3322222222222222,-0.5455555555555556,0.13333333333333333,0.2011399323256745,0.0798291163579774,-0.012929725008328468
1592284632.0882657,-0.7243679147444838,9.685884919357724,1.0887358294889675,-0.3322222222222222,-0.5455555555555556,0.13333333333333333,0.21897358115101354,0.06363433128203408,-0.00797438145255965
1592284632.0982656,-0.6693048821267347,9.73841707072396,0.9908878114027755,-0.3492750654851474,-0.5476018967471066,0.15175040405729254,0.22974412791322607,0.04935690121114241,0.026786543558811986
1592284632.1082656,-0.5950518302559119,9.752747408487204,0.9435155490767736,-0.36,-0.5488888888888889,0.16333333333333333,0.2301652951067522,0.044724062082354694,0.04363323129985824
1592284632.1182656,-0.33108510886017,9.773989987192921,0.8230550704389336,-0.36,-0.5488888888888889,0.16333333333333333,0.22482404706988282,0.03785674317780837,0.04058108956450432
1592284632.1282656,-0.15844690052859203,9.787597068716963,0.850776549735704,-0.36,-0.5488888888888889,0.16333333333333333,0.20927009336815047,0.021647198778760042,0.001977884310453988
1592284632.1382656,-0.1266430245837591,9.774499609304561,0.8965720983350364,-0.36,-0.5488888888888889,0.16333333333333333,0.20459309272901072,0.02011031161171984,-0.009575929852306599
1592284632.1482656,-0.1303444049515872,9.778966785145238,0.9179294848224864,-0.3519921649802763,-0.5488888888888889,0.16333333333333333,0.20289452554434081,0.036599407169768845,0.001993817803575151
1592284632.1582656,-0.1566336556151407,9.80389439073081,0.8494719536540494,-0.3477777777777778,-0.5488888888888889,0.16333333333333333,0.19856540429546743,0.04901898145011563,0.012630955380021397
1592284632.1682656,-0.29580027675276754,9.808600092250922,0.6745994772447724,-0.3477777777777778,-0.5488888888888889,0.16333333333333333,0.17789263034011085,0.08089607120802476,0.027379869412352043
1592284632.1782656,-0.4132660871208542,9.832810167249363,0.6228101672493622,-0.3477777777777778,-0.5488888888888889,0.16333333333333333,0.15169721818159845,0.08835729338221293,0.02316425498336481
1592284632.1882656,-0.47914295435417154,9.825642784234372,0.6539286929427144,-0.3477777777777778,-0.5488888888888889,0.16333333333333333,0.12505587803395168,0.08574707789753108,0.01284839382476338
1592284632.1982656,-0.4899237900691389,9.799923790069139,0.7152667347580138,-0.34050051504993367,-0.5388126789580278,0.15941480724910959,0.09755037950184337,0.07465955949712083,-4.156606925760382e-05
1592284632.2082655,-0.46802263381972997,9.797186419708162,0.742813580291838,-0.3333333333333333,-0.5288888888888889,0.15555555555555556,0.08308557308846191,0.061575871437669016,-0.006499376290295921
1592284632.2182655,-0.40667045423052406,9.81416761355763,0.6441789762492032,-0.3333333333333333,-0.5288888888888889,0.15555555555555556,0.06090616474632167,0.03181817019799878,-0.016815838375894288
1592284632.2282655,-0.37057774676355937,9.797051831175706,0.6223704220607345,-0.3333333333333333,-0.5288888888888889,0.15555555555555556,0.04324213022042234,0.0020426500672283097,-0.02817253315865438
1592284632.2382655,-0.3263975373790677,9.823602462620931,0.64,-0.3333333333333333,-0.5288888888888889,0.15555555555555556,0.028186415031905342,-0.01710484068159438,-0.036346827054560014
1592284632.2482655,-0.28097646287254974,9.855488231436274,0.6445117685637252,-0.3278189495332248,-0.5379124260163392,0.16608301553758087,0.006240183220411758,-0.024211308366790463,-0.046865303370957644
1592284632.2582655,-0.4152188006482982,9.770129659643436,0.7516531604538088,-0.3211111111111111,-0.5488888888888889,0.17888888888888888,-0.020607331605800146,-0.01072797599382252,-0.06929162213676435
1592284632.2682655,-0.6538674793550925,9.696370428627604,0.7494868265827763,-0.3211111111111111,-0.5488888888888889,0.17888888888888888,-0.027468731971425204,-0.004845253284973935,-0.06506893553222667
1592284632.2782655,-0.65094060475162,9.692368250539957,0.673195464362851,-0.3211111111111111,-0.5488888888888889,0.17888888888888888,-0.03848253096142681,-0.009727242012296149,-0.01591346589214606
1592284632.2882655,-0.48811318998417574,9.754033013745385,0.7140801762387912,-0.3211111111111111,-0.5488888888888889,0.17888888888888888,-0.04254497283234114,-0.017242328845386207,-0.0024003421844880747
1592284632.2982655,-0.5398026469313598,9.783038970563723,0.8446077941127446,-0.3318955228856219,-0.538104477114378,0.17888888888888888,-0.04867031889756064,-0.031805224794355026,-0.001507897097276329
1592284632.3082654,-0.4316591855715961,9.76145739819645,0.8327130090177525,-0.3411111111111111,-0.5288888888888889,0.17888888888888888,-0.05160901332837472,-0.037313258850482416,0.0004769324445125836
1592284632.3182654,-0.505356628242075,9.78071325648415,0.7417903458213256,-0.3411111111111111,-0.5288888888888889,0.17888888888888888,-0.0664231855118348,-0.07534355640284779,0.005609762338227452
1592284632.3282654,-0.5213392963059622,9.767321407388076,0.8133929630596218,-0.3411111111111111,-0.5288888888888889,0.17888888888888888,-0.07694253302972284,-0.1066189844483153,0.02062353161298669
1592284632.3382654,-0.48113059295653154,9.736671979897237,0.9799681206165848,-0.3411111111111111,-0.5288888888888889,0.17888888888888888,-0.08265995985111464,-0.12471600113124437,0.04023567164178522
1592284632.3482654,-0.37071477195371,9.685500340367598,1.158856364874064,-0.3411111111111111,-0.5288888888888889,0.171222297859466,-0.07648290601468344,-0.13199052468207118,0.062037009457375024
1592284632.3582654,-0.25840937422089255,9.648075292944403,1.2611717776115683,-0.3411111111111111,-0.5288888888888889,0.16333333333333333,-0.06070306049311991,-0.1292611360674777,0.07367445540759283
1592284632.3682654,0.09756034132466478,9.64,1.3256099146688338,-0.3411111111111111,-0.5288888888888889,0.16333333333333333,-0.0043635004287720935,-0.1025115873861202,0.0740701139379999
1592284632.3782654,0.15103439922480622,9.64,1.31,-0.3411111111111111,-0.5288888888888889,0.16333333333333333,0.01993593670636631,-0.0855486507521514,0.06671618486520728
1592284632.3882654,0.058987859023221095,9.627696357706967,1.31,-0.3411111111111111,-0.5288888888888889,0.16333333333333333,0.0767997845882305,-0.027723885865603908,0.04237678933730731
1592284632.3982654,-0.06515836750634642,9.63327084553798,1.254149970708846,-0.3411111111111111,-0.5356115775998611,0.16333333333333333,0.12233804617975572,0.011958240441040527,0.030186468010138696
1592284632.4082654,-0.14660215561324838,9.66825269451656,1.1619408386436945,-0.3411111111111111,-0.5433333333333333,0.16333333333333333,0.15048187000235094,0.03179302736387731,0.026910677833723244
1592284632.4182653,-0.18,9.73776407837251,0.892285239486451,-0.3411111111111111,-0.5433333333333333,0.16333333333333333,0.1832568815874705,0.04181607661967551,0.022060516863780612
1592284632.4282653,-0.18136592522104594,9.772293326989413,0.7640474208001269,-0.3411111111111111,-0.5433333333333333,0.16333333333333333,0.1865798992949968,0.037827750380270024,0.018293960135001525
1592284632.4382653,-0.18215352890825617,9.85,0.5882302933623842,-0.3411111111111111,-0.5433333333333333,0.16333333333333333,0.17099994830103035,0.009405815958707136,0.002970139281793906
1592284632.4482653,-0.10317103620474408,9.841089471493966,0.5922763212650852,-0.34408128727978915,-0.5403631571646553,0.17026374439358208,0.14298580844458308,-0.023425307338239956,-0.015897712442765242
1592284632.4582653,-0.02847090663058187,9.823646820027063,0.6496481732070365,-0.3477777777777778,-0.5366666666666666,0.17888888888888888,0.12244243413189752,-0.039667714524246965,-0.029876069063231755
1592284632.4682653,-0.1641387691101529,9.734228145825167,0.8148098784790279,-0.3477777777777778,-0.5366666666666666,0.17888888888888888,0.11066685678834037,-0.02812000121040746,-0.04722052945764705
1592284632.4782653,-0.2587882109365485,9.678402143466082,0.8679892826695895,-0.3477777777777778,-0.5366666666666666,0.17888888888888888,0.11174260101603173,-0.019854289320827286,-0.049568169112213206
1592284632.4882653,-0.3675342947590573,9.671301442138587,0.948698557861414,-0.3477777777777778,-0.5366666666666666,0.17888888888888888,0.13761657173228065,-0.006940952815814593,-0.03596748799929662
1592284632.4982653,-0.3724256474047269,9.716510234083456,0.8807667081307249,-0.3477777777777778,-0.5438202218955357,0.1700521441944036,0.15549205016555442,0.0023626237676302865,-0.020544822664795286
1592284632.5082653,-0.34814585099006085,9.770537021342168,0.7591690422990985,-0.3477777777777778,-0.5555555555555556,0.15555555555555556,0.16233153031043426,0.010966887766054013,-0.011509529645026844
1592284632.5182652,-0.25967020681945224,9.850329793180547,0.41769144773616546,-0.3477777777777778,-0.5555555555555556,0.15555555555555556,0.1402854726782041,0.023614748672613324,0.0028529889498607698
1592284632.5282652,-0.25569764934224715,9.865697649342247,0.3670929480267414,-0.3477777777777778,-0.5555555555555556,0.15555555555555556,0.10898168768090374,0.029604634602986627,0.005923467565939349
1592284632.5382652,-0.26,9.87,0.38,-0.3477777777777778,-0.5555555555555556,0.15555555555555556,0.09490227807719166,0.030543261909900768,0.00545415391248228
1592284632.5482652,-0.27,9.84,0.5021769479103045,-0.33469883372596926,-0.5555555555555556,0.16502651504134794,0.05962954470642087,0.030921688154661772,0.008726646259971648
1592284632.5582652,-0.2648892878515859,9.84,0.5234071414322761,-0.31555555555555553,-0.5555555555555556,0.17888888888888888,0.040821616589976586,0.022487477669166415,0.008354984784507066
1592284632.5682652,-0.25006201132380695,9.833291992450796,0.5366459962253977,-0.31555555555555553,-0.5555555555555556,0.17888888888888888,0.016328639807010846,0.005792961424328038,0.006179119638784184
