time,acc_x,acc_y,acc_z,mag_x,mag_y,mag_z,gyr_x,gyr_y,gyr_z
1592284647.9282506,-0.35,9.77,1.01,-0.33,-0.54,0.16444444444444445,0.01854412330243975,-0.01854412330243975,0.04145156973486533
1592284647.9382505,-0.33003607647075534,9.742527057353067,0.9875090191176888,-0.33,-0.54,0.16444444444444445,0.02317523496244672,-0.022635722569922054,0.0559001584373404
1592284647.9482505,-0.3036579555639417,9.71634204443606,0.9909738666918251,-0.33,-0.54,0.16444444444444445,0.02966489588050247,-0.020619552490883583,0.060793735143335435
1592284647.9582505,-0.3183355481727575,9.707221483942414,1.026671096345515,-0.33,-0.54,0.16444444444444445,0.03805900144077557,-0.017028677879802095,0.0642989781939907
1592284647.9682505,-0.34773423021483973,9.702900336330565,1.0670996636694352,-0.32860354176676504,-0.53935548081543,0.1631554060753045,0.05077473249179279,-0.01277359177506017,0.07076230292446509
1592284647.9782505,-0.2724406016130204,9.733783574317615,1.0059478311414662,-0.31555555555555553,-0.5333333333333333,0.1511111111111111,0.07108064099915286,-0.012706544575930224,0.08334516252240687
1592284647.9882505,0.05639065817409768,9.728219455703533,0.9264389114070642,-0.31555555555555553,-0.5333333333333333,0.1511111111111111,0.08110993241037487,-0.020023408590573336,0.08987647684314773
1592284647.9982505,0.19,9.71,0.89,-0.31555555555555553,-0.5333333333333333,0.1511111111111111,0.08508480103472357,-0.02399827721492203,0.09053895494720585
1592284648.0082505,-0.07196321625903174,9.712371237587421,1.0160836134616127,-0.31555555555555553,-0.5333333333333333,0.1511111111111111,0.0990970516032517,-0.006454872403607559,0.05944444015664856
1592284648.0182505,-0.40587099859929626,9.725032284513683,1.0949677154863175,-0.31555555555555553,-0.5321218574318912,0.1516702538348536,0.11100435804847737,0.003722896530375233,0.04381621032831841
1592284648.0282505,-0.48403311841922164,9.787016559209611,1.0259668815807783,-0.31555555555555553,-0.5188888888888888,0.15777777777777777,0.13773093376186055,-0.00786481961132087,0.051937995883293155
1592284648.0382504,-0.49965982361224337,9.806893450925172,0.9414056671360458,-0.31555555555555553,-0.5188888888888888,0.15777777777777777,0.1513608218062401,-0.020874214817530008,0.07078777385159973
1592284648.0482504,-0.49099467478128567,9.830994674781286,0.8080106504374287,-0.31555555555555553,-0.5188888888888888,0.15777777777777777,0.15867874330548484,-0.037048206600881435,0.09148124353870431
1592284648.0582504,-0.5211210077618018,9.844439496119099,0.7783407558213513,-0.31555555555555553,-0.5188888888888888,0.15777777777777777,0.15841017140973665,-0.056243784794314654,0.10648071327432736
1592284648.0682504,-0.5537054924557839,9.832964393964627,0.8007410984911568,-0.3172024410914595,-0.51938295454966,0.1572837121170066,0.149807076242197,-0.07385418165290172,0.11785067199294247
1592284648.0782504,-0.6032610951008646,9.883044380403458,0.8067389048991355,-0.3377777777777778,-0.5255555555555556,0.1511111111111111,0.1382270588975728,-0.10348708489939316,0.13981659110754835
1592284648.0882504,-0.6331187488634297,9.9302289052555,0.7422031278414257,-0.3377777777777778,-0.5255555555555556,0.1511111111111111,0.12866809295478665,-0.12270832141896638,0.16607625906220683
1592284648.0982504,-0.700123409910765,9.990123409910765,0.5974691475223087,-0.3377777777777778,-0.5255555555555556,0.1511111111111111,0.11615328543644339,-0.14434650806611116,0.20249046044909672
1592284648.1082504,-0.7260193879490591,10.027961224101881,0.5860193879490591,-0.3377777777777778,-0.5255555555555556,0.1511111111111111,0.10757389178004723,-0.1703602745628103,0.24778282390550474
1592284648.1182504,-0.7100745105493251,10.05985097890135,0.5700745105493252,-0.3377777777777778,-0.5255555555555556,0.1511111111111111,0.09278970315289972,-0.1929713865808006,0.2921353897869473
1592284648.1282504,-0.68,10.13,0.44,-0.33,-0.5133333333333333,0.1511111111111111,0.06763150851478027,-0.2247111411942699,0.3567016658763411
1592284648.1382504,-0.674635985921084,10.09230581946172,0.3600243469976447,-0.33,-0.5133333333333333,0.1511111111111111,0.015279598491298042,-0.2593608886584858,0.4404308310165498
1592284648.1482503,-0.5931002168152252,10.075198265478198,0.31580390267405445,-0.33,-0.5133333333333333,0.1511111111111111,-0.0330096274184631,-0.28643077258361865,0.5137608536907673
1592284648.1582503,-0.6,10.02,0.44,-0.33,-0.5133333333333333,0.1511111111111111,-0.06763150851478027,-0.2999784651865254,0.5574145298556891
1592284648.1682503,-0.5312052117263844,9.959804560260586,0.6549837133550488,-0.33,-0.5133333333333333,0.1511111111111111,-0.1004630278316117,-0.3121730295042056,0.6108830041716716
1592284648.1782503,-0.5,9.87,0.9,-0.3377777777777778,-0.5333333333333333,0.16444444444444445,-0.13308135546456762,-0.33815754257390135,0.667588438887831
1592284648.1882503,-0.3566400456360525,9.825550484883058,0.9588876212207643,-0.3377777777777778,-0.5333333333333333,0.16444444444444445,-0.1455646163474321,-0.36143025864085365,0.7234684703190712
1592284648.1982503,-0.17,9.79,0.95,-0.3377777777777778,-0.5333333333333333,0.16444444444444445,-0.1407171709420428,-0.37306412761378793,0.7603090554000298
1592284648.2082503,0.0023586835443037972,9.681179341772152,1.1329239493670886,-0.3377777777777778,-0.5333333333333333,0.16444444444444445,-0.10541399849199737,-0.3765885880640494,0.8193585369622253
1592284648.2182503,0.01934825316455696,9.689674126582277,1.081955240506329,-0.3377777777777778,-0.5333333333333333,0.16444444444444445,-0.07112841927419063,-0.3626890289216953,0.8675436753223861
1592284648.2282503,0.15,9.62,1.19,-0.3566666666666667,-0.5255555555555556,0.17333333333333334,-0.031634092692397225,-0.3425208657038872,0.9141161957320302
1592284648.2382503,0.19405079727834623,9.58,1.1316444190515764,-0.3566666666666667,-0.5255555555555556,0.17333333333333334,0.023239205620443442,-0.31432479084233583,0.955195156074017
1592284648.2482502,0.21535149552295674,9.585351495522957,1.0173242522385217,-0.3566666666666667,-0.5255555555555556,0.17333333333333334,0.07087189315491668,-0.2940023791897909,0.9769539923664816
1592284648.2582502,0.2745245676242854,9.62023843982922,1.0221430638975324,-0.3566666666666667,-0.5255555555555556,0.17333333333333334,0.10804426696824655,-0.2847198391068494,0.9790984986681605
1592284648.2682502,0.44145886098849413,9.696117664085678,1.0676705984514074,-0.3566666666666667,-0.5255555555555556,0.17333333333333334,0.12459854568242588,-0.2888584087853942,0.9691659314396528
1592284648.2782502,0.42,9.56,1.17,-0.39111111111111113,-0.49333333333333335,0.18777777777777777,0.1407171709420428,-0.3217950808364545,0.9642944117268671
1592284648.2882502,0.54401131268134,9.527664781219777,1.2075454998388089,-0.39111111111111113,-0.49333333333333335,0.18777777777777777,0.14485178437952315,-0.3566818128264325,0.9599180770166674
1592284648.2982502,0.8187442211529389,9.512357297858289,1.0624714595716578,-0.39111111111111113,-0.49333333333333335,0.18777777777777777,0.18011968930752298,-0.44128026338207993,0.94441476944631
1592284648.3082502,1.1373344042161497,9.557237483305057,1.0591437750424142,-0.39111111111111113,-0.49333333333333335,0.18777777777777777,0.22102276050527503,-0.5016887602943221,0.9421553073894801
1592284648.3182502,1.0843435728982422,9.587517958343861,1.0137230624842075,-0.39111111111111113,-0.49333333333333335,0.18777777777777777,0.23753819764574677,-0.49673412915218057,0.9636253756720933
1592284648.3282502,1.36,9.43,1.03,-0.39555555555555555,-0.49333333333333335,0.13666666666666666,0.2792526803190927,-0.4799655442984406,0.9806568734643138
1592284648.3382502,1.5612247826686905,9.584489581895957,0.892040568511108,-0.39555555555555555,-0.49333333333333335,0.13666666666666666,0.33686642761323604,-0.4510918390151846,0.9929009108827479
1592284648.3482502,1.7835106079345449,9.412061174008182,0.667327085909999,-0.39555555555555555,-0.49333333333333335,0.13666666666666666,0.4130593536733823,-0.3648611029609979,1.0184950856908956
1592284648.3582501,1.7435117032373773,9.430972128177443,0.5737302124700328,-0.39555555555555555,-0.49333333333333335,0.13666666666666666,0.4918693402670055,-0.28013799341577766,1.0733881900716653
1592284648.3682501,1.8586490492835313,9.484702889665648,0.5430269201910584,-0.39555555555555555,-0.49333333333333335,0.13666666666666666,0.5555043233165985,-0.22571333686020462,1.1428842899810892
1592284648.3782501,1.83,9.49,0.32,-0.4211111111111111,-0.4866666666666667,0.17333333333333334,0.6206827152404834,-0.11453723216212788,1.2119129993535627
1592284648.38825,1.835859317954404,9.455859317954404,0.015987776185196204,-0.4211111111111111,-0.4866666666666667,0.17333333333333334,0.6505554659446249,-0.049924690837447924,1.215185491701052
1592284648.39825,2.080907301498737,9.713896870786256,-0.24857705243254136,-0.4211111111111111,-0.4866666666666667,0.17333333333333334,0.6658318599837441,-0.012296052328609211,1.2163190454634678
1592284648.40825,2.035402582105051,9.73339889338355,-0.39159188481269663,-0.4211111111111111,-0.4866666666666667,0.17333333333333334,0.6679592006407509,0.002595332270439562,1.2219919538821529
1592284648.41825,1.8958271921711372,9.797947310320136,-0.622120118148999,-0.4211111111111111,-0.4866666666666667,0.17333333333333334,0.623528762627414,0.04827127181609739,1.2175910669750158
1592284648.42825,2.01,9.68,-0.36,-0.45444444444444443,-0.4666666666666667,0.17333333333333334,0.5770494839406253,0.06326818538479445,1.2566370614359172
1592284648.43825,2.0008567333722596,9.770120494718403,-0.4676840596634641,-0.45444444444444443,-0.4666666666666667,0.17333333333333334,0.510667980995808,0.08490518656010687,1.2826373857412154
1592284648.44825,2.378166085002629,9.624221446670171,-0.62876296792083,-0.45444444444444443,-0.4666666666666667,0.17333333333333334,0.44516842303502585,0.078344486861529,1.2787188360050796
1592284648.45825,2.502322773613467,9.707130273020736,-0.750053984060112,-0.45444444444444443,-0.4666666666666667,0.17333333333333334,0.3724947692915931,0.055572706550519144,1.2762690711471267
1592284648.46825,2.647663365614342,9.362902555123927,-0.4899708194269665,-0.45444444444444443,-0.4666666666666667,0.17333333333333334,0.3332764871340235,0.033877486633565775,1.2904544072466733
1592284648.47825,3.020486480371083,9.367017762190294,-0.49701776219029303,-0.49333333333333335,-0.42777777777777776,0.17222222222222222,0.23603842973046602,0.0013100089100803129,1.289823419043151
1592284648.48825,3.3300245568820053,9.268948430547788,-0.4260147341292032,-0.49333333333333335,-0.42777777777777776,0.17222222222222222,0.2005901193256633,-0.05486691324137478,1.2849959830405437
1592284648.49825,3.4056165481075045,9.07880137900896,-0.45123309621500884,-0.49333333333333335,-0.42777777777777776,0.17222222222222222,0.14752741483529014,-0.050480790509635144,1.2747889369362846
1592284648.50825,3.333848136399683,9.073384813639969,-0.24112827121332275,-0.49333333333333335,-0.42777777777777776,0.17222222222222222,0.12470708820479418,-0.06995309226777381,1.2657549275383821
1592284648.51825,3.5833108643933387,9.098331086439334,-0.24944369547977796,-0.49333333333333335,-0.42777777777777776,0.17222222222222222,0.11926465574917376,-0.07902381302714115,1.2204013237415454
1592284648.52825,4.12,9.36,-0.41,-0.5311111111111111,-0.41333333333333333,0.17222222222222222,0.11780972450961724,-0.10035643198967394,1.1464631524037752
1592284648.53825,3.7902919297116893,8.920389239615586,-0.380026539064699,-0.5311111111111111,-0.41333333333333333,0.17222222222222222,0.11889959030448995,-0.1156145531178919,1.0745320099421762
1592284648.54825,4.181658907474558,9.222227395016962,-0.31639794127968185,-0.5311111111111111,-0.41333333333333333,0.17222222222222222,0.07840282769451284,-0.08079645417889787,1.008917569728885
1592284648.55825,4.281145551738857,9.139102217524746,-0.20770889652228705,-0.5311111111111111,-0.41333333333333333,0.17222222222222222,0.08600340121256479,-0.09029242661389464,0.9302625488567614
1592284648.56825,4.170318299152422,9.002699445110673,-0.4293634016951564,-0.5311111111111111,-0.41333333333333333,0.17222222222222222,0.07019421477230725,-0.07355328803009253,0.8456369037942063
1592284648.57825,4.68,9.08,-0.22,-0.5488888888888889,-0.37666666666666665,0.14666666666666667,0.08835729338221293,-0.004363323129985824,0.6839509006252779
1592284648.58825,4.363138593829034,8.98113808801214,-0.23480020232675772,-0.5488888888888889,-0.37666666666666665,0.14666666666666667,0.08878021791169373,-0.0015438262667805181,0.6835078368324885
1592284648.59825,4.532982460315572,8.539824603155715,-0.44675432542421284,-0.5488888888888889,-0.37666666666666665,0.14666666666666667,0.11443676534644302,0.15217568385528243,0.6627179790021854
1592284648.60825,4.538562700381102,8.908150747081242,0.07890448248744783,-0.5488888888888889,-0.37666666666666665,0.14666666666666667,0.15555539940594992,0.20237890327500274,0.6961667404782604
1592284648.61825,4.107233077248805,8.882778416308755,-0.07332950214748049,-0.5488888888888889,-0.37666666666666665,0.14666666666666667,0.17954206291222036,0.24020402649642925,0.6841734087251253
1592284648.62825,3.97,8.7,-0.57,-0.5633333333333334,-0.3688888888888889,0.15222222222222223,0.20180369476184434,0.2247111411942699,0.6784967467127956
1592284648.6382499,4.610325611798832,9.150933529435797,-0.48883196470155654,-0.5633333333333334,-0.3688888888888889,0.15222222222222223,0.19294963561601425,0.17060300196975264,0.6932535119558457
1592284648.6482499,4.657226166449008,9.008310815623886,-0.41,-0.5633333333333334,-0.3688888888888889,0.15222222222222223,0.14118694175771745,0.20418668667641213,0.6754597225510756
1592284648.6582499,4.896966474905772,8.809845665542552,-0.4032818885141837,-0.5633333333333334,-0.3688888888888889,0.15222222222222223,0.14809126060491187,0.20814771644398747,0.6456671329120595
1592284648.6682498,4.497588573695696,8.460390001983733,-0.28679666732791115,-0.5633333333333334,-0.3688888888888889,0.15222222222222223,0.14355320114148706,0.22357711861963175,0.6438519091266895
1592284648.6782498,4.59,8.81,-0.12,-0.6,-0.35,0.16,0.17671458676442586,0.22143864884678055,0.6904958853202566
1592284648.6882498,4.43771504617494,8.73833649231762,0.11290639996773805,-0.6,-0.35,0.16,0.1884405007886677,0.23511888187506272,0.6768156522919745
1592284648.6982498,4.749917964963711,8.535256625452137,-0.42956878413201255,-0.6,-0.35,0.16,0.23428447783110445,0.1930389587818853,0.5986958434420391
1592284648.7082498,4.9802132903969625,8.432626274673504,-0.42408531615878503,-0.6,-0.35,0.16,0.2530727415391778,0.1673831449057226,0.5464743906834227
1592284648.7182498,5.272022581350508,8.50766294949013,-0.5408090325402032,-0.6,-0.35,0.16,0.2530727415391778,0.15010321180109049,0.545564920520021
1592284648.7282498,5.286498123913242,8.887932415118515,-0.5821101400201336,-0.6133333333333333,-0.3377777777777778,0.14555555555555555,0.2211808905343063,0.1817821032081968,0.4879372092734919
1592284648.7382498,5.49761416674293,8.820759128763614,-0.975553674384552,-0.6133333333333333,-0.3377777777777778,0.14555555555555555,0.2128066404180349,0.16922072803378968,0.35708955120675107
1592284648.7482498,5.319707264273942,8.760117094290424,-1.139238887112248,-0.6133333333333333,-0.3377777777777778,0.14555555555555555,0.15669005600732208,0.14257950736591476,0.229354209248305
1592284648.7582498,5.27,8.78,-1.01,-0.6133333333333333,-0.3377777777777778,0.14555555555555555,0.09053895494720585,0.08835729338221293,0.0916297857297023
1592284648.7682498,5.478881865736705,8.974956408020924,-1.058739102005231,-0.6133333333333333,-0.3377777777777778,0.14555555555555555,0.03281574678764731,0.04278633957203514,-0.012423892136870326
1592284648.7782497,5.26,8.46,-0.8,-0.6177777777777778,-0.31222222222222223,0.1288888888888889,-0.09053895494720585,0.04363323129985824,-0.19853120241435498
1592284648.7882497,5.989682876959467,8.86324580042497,-1.020825081185102,-0.6177777777777778,-0.31222222222222223,0.1288888888888889,-0.13871551416800348,0.0006932546030603282,-0.3346823480383484
1592284648.7982497,5.416017990134442,8.444340845342875,-0.6537489118870297,-0.6177777777777778,-0.31222222222222223,0.1288888888888889,-0.21956221732857767,0.06263324780388105,-0.4289048726826732
1592284648.8082497,5.478898552098391,8.597482404796322,-0.5614161473020688,-0.6177777777777778,-0.31222222222222223,0.1288888888888889,-0.21712681828578295,0.07937318427730031,-0.5113859893589666
1592284648.8182497,5.0080034102306925,8.467509729187562,-0.18737111334002005,-0.6177777777777778,-0.31222222222222223,0.1288888888888889,-0.2306244943839977,0.1410535450802281,-0.5488215842192089
1592284648.8282497,5.28,8.69,-0.33,-0.6311111111111111,-0.3322222222222222,0.10777777777777778,-0.20398535632683729,0.15926129424448257,-0.6065019150680295
1592284648.8382497,4.747086204859607,8.435128184932855,-0.08285157326822351,-0.6311111111111111,-0.3322222222222222,0.10777777777777778,-0.19977290145614052,0.14830891158067103,-0.6326191352663494
1592284648.8482497,4.541438240270727,8.447411167512689,0.009424703891708968,-0.6311111111111111,-0.3322222222222222,0.10777777777777778,-0.17840159071569786,0.12495088237337154,-0.6668040005078631
1592284648.8582497,4.947159222978582,8.760216550840823,-0.14510827542041224,-0.6311111111111111,-0.3322222222222222,0.10777777777777778,-0.15348336583869698,0.060905878661399446,-0.7067152177228022
1592284648.8682497,4.5365374788726855,8.482365079988995,-0.030152116662080897,-0.6311111111111111,-0.3322222222222222,0.10777777777777778,-0.1623034519760539,0.058033303852394975,-0.7262519042908865
1592284648.8782496,4.65,9.01,-0.17,-0.6311111111111111,-0.34444444444444444,0.09333333333333334,-0.11017390903214205,-0.002181661564992912,-0.7657632093125121
1592284648.8882496,4.4147594121199925,8.631934769478558,0.02323334004429231,-0.6311111111111111,-0.34444444444444444,0.09333333333333334,-0.11292327697377143,0.020729737948585254,-0.7749277691179434
1592284648.8982496,4.723503836960624,8.798853943892315,-0.09286652409108062,-0.6311111111111111,-0.34444444444444444,0.09333333333333334,-0.08634928098971606,0.03446888044008149,-0.8016842436512446
1592284648.9082496,4.083486736144008,8.581647560397917,-0.03339720511605873,-0.6311111111111111,-0.34444444444444444,0.09333333333333334,-0.062251196250246235,0.05047495193839387,-0.826722951828436
1592284648.9182496,4.217317209562421,8.76121966807134,-0.0937398893571129,-0.6311111111111111,-0.34444444444444444,0.09333333333333334,-0.03414386838363445,0.06778228720595196,-0.8235949743283315
1592284648.9282496,4.419959123222749,9.026415284360189,-0.12881872037914693,-0.617519813059505,-0.3758089784096893,0.10692463138493945,-0.01700674982402798,0.09560207704304795,-0.8153015961854594
1592284648.9382496,4.119969443550981,8.896908973946607,-0.18365913477002252,-0.6166666666666667,-0.37777777777777777,0.10777777777777778,-0.01441136053847129,0.09383210431055866,-0.8076965567952755
1592284648.9482496,4.250644751652285,9.241917515657017,-0.127933850904788,-0.6166666666666667,-0.37777777777777777,0.10777777777777778,0.011012892080194242,0.06451406657578163,-0.7948171687606743
1592284648.9582496,3.7320140287684542,8.824893006943292,-0.2593184672622574,-0.6166666666666667,-0.37777777777777777,0.10777777777777778,-0.014265147688823651,0.07838779435268681,-0.8032431820170136
1592284648.9682496,4.146555575428764,8.875120531012143,-0.18487946898785745,-0.6166666666666667,-0.37777777777777777,0.10777777777777778,-0.035776990786185514,0.05599556828029856,-0.8182921559967818
1592284648.9782495,3.8332161652914043,9.247498538106687,-0.3387135338834384,-0.6045317970819888,-0.4119760466073246,0.08130169868393505,-0.04903281177965114,0.07183111134669794,-0.7986596492901438
1592284648.9882495,3.741032079778926,9.205516039889462,-0.4067259401658056,-0.6044444444444445,-0.4122222222222222,0.0811111111111111,-0.03857374939222489,0.09787455058658917,-0.7459199536868276
1592284648.9982495,3.5134115632554392,9.404460112812249,-0.3317057816277196,-0.6044444444444445,-0.4122222222222222,0.0811111111111111,-0.051477313270909375,0.15173985778036142,-0.632058757416887
1592284649.0082495,3.210614814814815,9.448024850657108,-0.5543230585424134,-0.6044444444444445,-0.4122222222222222,0.0811111111111111,-0.08785931674900876,0.18755582869683696,-0.5459668798431159
1592284649.0182495,3.3004931583245365,9.502715756766984,-0.610123289581134,-0.6044444444444445,-0.4122222222222222,0.0811111111111111,-0.117917314965827,0.18021607818470414,-0.4893119437416479
1592284649.0282495,3.09905584584252,9.484304569754448,-0.37905584584252017,-0.5915544279668837,-0.4171799208674379,0.0811111111111111,-0.18202255637107176,0.15529886600595877,-0.42669535067589737
1592284649.0382495,3.2144336582779296,9.53651751845658,-0.582349798099278,-0.59,-0.4177777777777778,0.0811111111111111,-0.22227929643027317,0.123945820070887,-0.3916051809107624
1592284649.0482495,3.053753650759626,9.367726213123978,-0.33304145119369793,-0.59,-0.4177777777777778,0.0811111111111111,-0.29396838829547656,0.11649474160710885,-0.30604235144684555
1592284649.0582495,2.730244394618834,9.382926756352765,-0.09756128550074739,-0.59,-0.4177777777777778,0.0811111111111111,-0.3121904299343232,0.10727391338459485,-0.24812417709587725
1592284649.0682495,2.5077611239017057,9.621268148287365,0.025298595122868014,-0.59,-0.4177777777777778,0.0811111111111111,-0.3195238791983036,0.06940621634143639,-0.12818909498198286
1592284649.0782495,2.4262745098039216,9.400705882352941,0.019372549019607846,-0.5785446623093682,-0.44277124183006533,0.06132461873638344,-0.31545542899465157,0.024006832750471024,0.02376299998732477
1592284649.0882494,2.3466037427474054,9.393344774045927,0.006655225954073711,-0.5777777777777777,-0.4444444444444444,0.06,-0.3079716509840977,-0.020398366262863777,0.12770956876978795
1592284649.0982494,2.500895974532758,9.417354179502977,-0.19089597453275828,-0.5777777777777777,-0.4444444444444444,0.06,-0.29960917001480686,-0.05754247196066018,0.3109766394106744
1592284649.1082494,2.7094850682069556,9.452633648764902,-0.1819274097742821,-0.5777777777777777,-0.4444444444444444,0.06,-0.2953278555422358,-0.07245491905358112,0.4312863660091309
1592284649.1182494,2.86681780964394,9.405004093916661,-0.013643807121202056,-0.5777777777777777,-0.4444444444444444,0.06,-0.3049856799780286,-0.08439055479549283,0.6353527707250628
1592284649.1282494,2.9118343805967886,9.252863734328992,0.2508050268645843,-0.5712702074627217,-0.46024854378100893,0.04791451227203891,-0.308148719204191,-0.08691017023958954,0.8421796755041956
1592284649.1382494,2.9549452695829093,9.189230518819938,0.17933997965412002,-0.57,-0.4633333333333333,0.04555555555555556,-0.30380234308763315,-0.10569082755215925,0.9630602970474876
1592284649.1482494,3.013080296543803,8.920167850057428,0.29021170512686645,-0.57,-0.4633333333333333,0.04555555555555556,-0.2992650456808173,-0.14686643475928443,1.146831821771557
1592284649.1582494,3.4248162388059704,9.173612179104477,0.07698985074626863,-0.57,-0.4633333333333333,0.04555555555555556,-0.27036853763139634,-0.19871485273116932,1.2837887057644575
1592284649.1682494,3.8098928673265715,8.833625402256711,0.2678247586459733,-0.57,-0.4633333333333333,0.04555555555555556,-0.24856291675576858,-0.21118855424358143,1.4139072306910452
1592284649.1782494,4.025529610829103,8.471571758191047,0.6292198123365637,-0.6057029858654225,-0.4295602385957716,0.03783599104411287,-0.1910084467401787,-0.18618667600767988,1.5841490620678549
1592284649.1882493,4.353948402251833,8.314420639099268,0.4017168198938885,-0.6111111111111112,-0.42444444444444446,0.03666666666666667,-0.13282387857823702,-0.15601689992371012,1.6651648749023285
1592284649.1982493,4.974721675317702,8.155879720780383,-0.07251118668337214,-0.6111111111111112,-0.42444444444444446,0.03666666666666667,-0.038072473913733015,-0.08564417640466312,1.7718405206181493
1592284649.2082493,4.775654961247728,7.960122476318055,0.3096938092048608,-0.6111111111111112,-0.42444444444444446,0.03666666666666667,0.038434067302373455,-0.031166802537078438,1.8616996351499493
1592284649.2182493,4.971072492552135,8.086433714001986,0.315361221449851,-0.6111111111111112,-0.42444444444444446,0.03666666666666667,0.0740748032994245,-0.01327303830976075,1.8876661495774127
1592284649.2282493,5.086304309893562,7.9709963357180245,0.40246379340429245,-0.6213111925395994,-0.4056135248841583,0.0233280986447973,0.12814416131569734,0.03286444170270207,1.8852037937487762
1592284649.2382493,5.111122130467423,7.877317159903591,0.38375597613497175,-0.6255555555555555,-0.3977777777777778,0.017777777777777778,0.15746809756718338,0.03304684117667826,1.8553514903352706
1592284649.2482493,5.403956070192193,7.902055628506625,0.07775695356332817,-0.6255555555555555,-0.3977777777777778,0.017777777777777778,0.21538302097173995,0.015196886193203581,1.7601080102607578
1592284649.2582493,5.59267921505807,8.021489787745294,0.004849819783740494,-0.6255555555555555,-0.3977777777777778,0.017777777777777778,0.23991855423771571,0.0022244735059959737,1.7049999667129017
1592284649.2682493,5.815566433566434,8.102253496503497,-0.03112062937062937,-0.6255555555555555,-0.3977777777777778,0.017777777777777778,0.2655568421536123,-0.005577730546583278,1.6151683480338093
1592284649.2782493,6.025164912280702,7.985141520467836,0.08915087719298245,-0.6585743989603638,-0.3540278102664068,0.022730604288499025,0.2788487539731999,0.01190651367785956,1.507646538014331
1592284649.2882493,6.206519627046933,8.028259813523466,0.14969834678367155,-0.67,-0.3388888888888889,0.024444444444444446,0.28564074537788375,0.022155753512888135,1.4377706966041819
1592284649.2982492,6.406689148978377,8.132013489387028,0.0312299146994644,-0.67,-0.3388888888888889,0.024444444444444446,0.28907015736156083,0.05782874611091755,1.2618127191736181
1592284649.3082492,6.841285683468756,8.296031734618058,0.055817454039931935,-0.67,-0.3388888888888889,0.024444444444444446,0.2992824105116226,0.07419986759483012,1.1069508461086295
1592284649.3182492,6.828625748409141,8.28905896366885,0.012972320616908561,-0.67,-0.3388888888888889,0.024444444444444446,0.305377224413335,0.07694308162235494,1.0303853666776897
1592284649.3282492,6.47640919587771,7.86158618550305,-0.15077241236687003,-0.6913639862590334,-0.30257011224853225,0.020883780067938895,0.28829127718749414,0.09322164746410128,0.8256335130188405
1592284649.3382492,6.745458579881657,8.24526627218935,-0.3193639053254438,-0.7033333333333334,-0.2822222222222222,0.01888888888888889,0.24875460074929534,0.07562071443806422,0.6960613814279937
1592284649.3482492,6.916534474988734,8.349109208352111,-0.3160728055680737,-0.7033333333333334,-0.2822222222222222,0.01888888888888889,0.19050670575675635,0.06706268813678627,0.543352857515423
1592284649.3582492,6.916984339340521,8.112722908633037,-0.2538325332493901,-0.7033333333333334,-0.2822222222222222,0.01888888888888889,0.16124765872675104,0.07408738623311374,0.4207101774331863
1592284649.3682492,7.050338733431516,7.90779086892489,-0.2381737849779087,-0.7033333333333334,-0.2822222222222222,0.01888888888888889,0.12048940896499881,0.06632540332159968,0.12417477835387492
1592284649.3782492,7.054070777380805,7.990739189355673,0.07556486386596034,-0.7033333333333334,-0.266583952746636,0.012304354372852586,0.06544870464824107,0.06904601380012787,-0.08638064134767444
1592284649.3882492,6.892143714491478,8.02238057133712,0.11269904777146517,-0.7033333333333334,-0.2611111111111111,0.01,0.025418268826480985,0.07479117116209477,-0.18748393303015745
1592284649.3982491,6.817844133411232,8.019232605989789,0.13445804861940205,-0.7033333333333334,-0.2611111111111111,0.01,-0.07370485374653163,0.09579116370910935,-0.3587970130692082
1592284649.4082491,6.761567223548131,8.024741447891806,0.11735879077167859,-0.7033333333333334,-0.2611111111111111,0.01,-0.12142933882448814,0.1054087922249121,-0.43289233430183144
1592284649.4182491,6.597771791590904,7.9500323254091185,0.09885895795451996,-0.7033333333333334,-0.2611111111111111,0.01,-0.19803920582464257,0.1184132602425777,-0.5704915700101613
1592284649.4282491,6.560670855169128,7.7245259647451165,0.3550267984754645,-0.7033333333333334,-0.24792685670425071,0.002675414218410884,-0.24844109560386193,0.1456044397411702,-0.6839382006837594
1592284649.438249,6.550275737507526,7.690275737507526,0.3691727874774232,-0.7033333333333334,-0.2411111111111111,-0.0011111111111111111,-0.2636575434981232,0.1610416929508931,-0.739638304620239
1592284649.448249,6.492491763579534,7.817378706389209,0.37038859009376845,-0.7033333333333334,-0.2411111111111111,-0.0011111111111111111,-0.29048931552372403,0.19120958478201133,-0.8690956591554717
1592284649.458249,6.3941210409521885,7.885289489610651,0.49,-0.7033333333333334,-0.2411111111111111,-0.0011111111111111111,-0.2966422438508151,0.19814596772243684,-0.9207226208051554
1592284649.468249,6.258774455189625,7.902671464860288,0.5822059806586747,-0.7033333333333334,-0.2411111111111111,-0.0011111111111111111,-0.2902679371044161,0.21907252463175053,-1.0318778418226497
1592284649.478249,6.111971583132373,7.79692954441765,0.5262249885941472,-0.7069640154395418,-0.27160884080326175,-0.010550884587252963,-0.2930985457449951,0.23700220127686164,-1.1232792834931937
1592284649.488249,5.974306205176177,7.890996258185219,0.4836654193950733,-0.7088888888888889,-0.2877777777777778,-0.015555555555555555,-0.2819933628978159,0.2395596372900293,-1.1614203234091098
1592284649.498249,5.908405766264163,7.7925652960263845,0.2710870259056333,-0.7088888888888889,-0.2877777777777778,-0.015555555555555555,-0.2508231025146554,0.26278429211782084,-1.2285347212610287
1592284649.508249,5.782033264631165,7.644132195753247,0.31479317451948424,-0.7088888888888889,-0.2877777777777778,-0.015555555555555555,-0.23833661788779487,0.30393066803453983,-1.245225715555141
1592284649.518249,5.714573308342578,7.703685881497916,0.4045392648127606,-0.7088888888888889,-0.2877777777777778,-0.015555555555555555,-0.22633810343544736,0.3262179463114896,-1.2329254804037797
1592284649.528249,5.590151706700379,8.102433628318584,0.3933206911083017,-0.7017631221613523,-0.3033249051833123,-0.02915929203539823,-0.14019037276389662,0.42630889740130673,-1.1395724851346551
1592284649.538249,5.350879934210526,8.176307976973684,0.42564802631578946,-0.6966666666666667,-0.31444444444444447,-0.03888888888888889,-0.10410625251098433,0.46817717106297596,-1.1065317486590567
1592284649.548249,5.07999153444933,8.254454791228596,0.2699830688986592,-0.6966666666666667,-0.31444444444444447,-0.03888888888888889,-0.03138973634982046,0.5187513570247906,-1.049256572866139
1592284649.558249,4.65424617140683,8.590345286787787,0.05753162750879863,-0.6966666666666667,-0.31444444444444447,-0.03888888888888889,-0.0016174137008993384,0.5404997526749596,-0.9956987793786053
1592284649.568249,4.535758484421232,8.665201262982306,-0.0019194948070774681,-0.6966666666666667,-0.31444444444444447,-0.03888888888888889,0.011431768830565108,0.5403192227104013,-0.935855153293605
1592284649.578249,4.409913623133978,8.740057584577348,-0.007994241542265202,-0.6719881631702118,-0.3417908942648404,-0.054896566832535285,-0.007865602414444606,0.5019852504977727,-0.8591166531090076
1592284649.588249,4.314854556427278,8.867449607724804,-0.03163307181653591,-0.6555555555555556,-0.36,-0.06555555555555556,-0.03829375615762996,0.46528205348898355,-0.8122711780058559
1592284649.598249,4.508079974611235,8.939933354490638,-0.17602665820374486,-0.6555555555555556,-0.36,-0.06555555555555556,-0.13966511294521428,0.38111398105250266,-0.6998363186247749
1592284649.608249,4.10687744210426,8.784096778804917,-0.040161298008195956,-0.6555555555555556,-0.36,-0.06555555555555556,-0.22265545067670767,0.33595758440948786,-0.5858106182509251
1592284649.618249,3.8911341047848924,8.758286951583132,0.08807858866960103,-0.6555555555555556,-0.36,-0.06555555555555556,-0.2556154707261634,0.31942152102646465,-0.5303937778412892
1592284649.628249,3.8757453618819726,8.937680164082165,0.6406712452220392,-0.6526488980045647,-0.3786026083263412,-0.06904354461674453,-0.3152360959204257,0.2971248608088085,-0.3793614473814253
1592284649.638249,3.4731395537525356,8.89762271805274,0.8493281947261663,-0.65,-0.39555555555555555,-0.07222222222222222,-0.3244122339118145,0.2934433488592747,-0.32053374413083596
1592284649.648249,3.6394800565770864,9.0767756718529,0.6549182461103253,-0.65,-0.39555555555555555,-0.07222222222222222,-0.30739222639778147,0.25194623889290296,-0.16479160573465088
1592284649.658249,3.7396278277791293,9.115837184788779,0.6131395443120085,-0.65,-0.39555555555555555,-0.07222222222222222,-0.311890084369736,0.2262636712133375,-0.10457514242774525
1592284649.668249,3.2973040738633874,9.029162910777579,0.8032499015446549,-0.65,-0.39555555555555555,-0.07222222222222222,-0.3126463360944623,0.17571864818844946,0.09130840281898822
1592284649.678249,3.485407358113889,9.046026238235573,0.93,-0.6464603732927718,-0.3985052444782457,-0.07635178671398844,-0.31006597962395693,0.10040620846800823,0.25639843249788696
1592284649.6882489,3.385022955008184,8.888812727054972,0.9458904547087709,-0.6433333333333333,-0.4011111111111111,-0.08,-0.31329257550176964,0.07274694703637838,0.3561687704998627
1592284649.6982489,3.6854015554427133,8.523134671406046,1.0067875564582944,-0.6433333333333333,-0.4011111111111111,-0.08,-0.3040789708938369,0.024340216821194603,0.5901168594867033
1592284649.7082489,3.794357070399675,8.345699736254819,0.97,-0.6433333333333333,-0.4011111111111111,-0.08,-0.30036411779792294,0.004481369212230419,0.6652114944901186
1592284649.7182488,4.557348605655167,8.362964489907045,1.0232915872583719,-0.6433333333333333,-0.4011111111111111,-0.08,-0.2697654096466674,0.020099525555059353,0.8450925001651383
1592284649.7282488,4.3602494654312185,8.283905915894511,1.1675623663578047,-0.6433333333333333,-0.4011111111111111,-0.08999346638156332,-0.21084911551990831,0.04737183416346067,0.9896509793031728
1592284649.7382488,4.715828344215258,8.442491019587465,1.1833253507444141,-0.6433333333333333,-0.4011111111111111,-0.10777777777777778,-0.1503051602352258,0.12231283012606625,1.1662866600507582
1592284649.7482488,4.470063373253493,8.295155688622755,0.980311377245509,-0.6433333333333333,-0.4011111111111111,-0.10777777777777778,-0.1085886118410529,0.1538071403320003,1.2860417006757452
1592284649.7582488,4.535788242594935,8.30175406353677,1.0103501444017473,-0.6433333333333333,-0.4011111111111111,-0.10777777777777778,-0.09666288526085579,0.1348229563596855,1.3902922505985114
1592284649.7682488,4.906743264659271,8.341511669788215,1.1709299812707104,-0.6433333333333333,-0.4011111111111111,-0.10777777777777778,-0.09542869704561405,0.09452822338533323,1.4611296438613723
1592284649.7782488,5.039348819641171,8.228200566572237,1.1495116147308782,-0.6479415381387053,-0.3864486412758367,-0.10526421152030217,-0.08521005601409237,0.029149594252943535,1.5086722467611262
1592284649.7882488,4.879604500511421,8.047623593590181,1.0470303443573132,-0.6555555555555556,-0.3622222222222222,-0.10111111111111111,-0.08302735954520075,-0.022356638253469813,1.5271415243442081
1592284649.7982488,5.3877183380259455,8.12831355419309,1.1770336552377443,-0.6555555555555556,-0.3622222222222222,-0.10111111111111111,-0.060309511760696224,-0.04724012300045351,1.5305546225307105
1592284649.8082488,5.712005661140315,8.218818534287957,0.997060488570681,-0.6555555555555556,-0.3622222222222222,-0.10111111111111111,-0.020096444446665994,-0.0634090247912641,1.4930506132618953
1592284649.8182487,5.829931963196672,8.026210914090317,0.9481224662459901,-0.6555555555555556,-0.3622222222222222,-0.10111111111111111,0.00912512808686979,-0.07023020606652447,1.437119104005967
1592284649.8282487,6.023771170771393,7.825459655350936,0.9737711707713926,-0.6600792183352645,-0.34735875880317857,-0.10725036774071608,0.05332791827865061,-0.07552928150654922,1.3717145860135749
1592284649.8382487,6.35,7.79,1.3,-0.6711111111111111,-0.3111111111111111,-0.12222222222222222,0.07963064712224129,-0.04690572364734761,1.3384493701231515
1592284649.8482487,6.2151347566378,7.852894052416474,0.6642081797136243,-0.6711111111111111,-0.3111111111111111,-0.12222222222222222,0.10589675744986608,-0.014539578092513637,1.2825439885503853
1592284649.8582487,6.695972109847223,7.739693017942982,0.7335814573318739,-0.6711111111111111,-0.3111111111111111,-0.12222222222222222,0.10794759873681993,0.013864209524142879,1.1966900666649478
1592284649.8682487,6.782343037149685,7.80188355420378,0.7852069302628721,-0.6711111111111111,-0.3111111111111111,-0.12222222222222222,0.11114613003696319,0.026809719967072085,1.0931010162980244
1592284649.8782487,6.7341942101664,7.982821974014133,0.41741736950079783,-0.6750895322037332,-0.29519742674062255,-0.12421143276853329,0.12391484605113433,0.008744300462286953,0.9592985211223721
1592284649.8882487,6.65,8.06,0.67,-0.6844444444444444,-0.2577777777777778,-0.1288888888888889,0.12544553998709243,0.001090830782496456,0.8552113334772213
1592284649.8982487,6.411590025290295,7.8498947597422015,0.7764653414189759,-0.6844444444444444,-0.2577777777777778,-0.1288888888888889,0.11485692006746506,-0.012978166131609523,0.7022556955413151
1592284649.9082487,6.481009030231645,7.9419979932818565,0.6785065218339659,-0.6844444444444444,-0.2577777777777778,-0.1288888888888889,0.05961154909926457,-0.0225816200411263,0.6253157362049498
1592284649.9182487,6.492141899967405,7.813964362029626,0.7590887689688892,-0.6844444444444444,-0.2577777777777778,-0.1288888888888889,0.014648090255948477,-0.03156953807653401,0.5817458519982285
1592284649.9282486,6.343017182130584,7.571395189003437,0.7841855670103093,-0.6873898434516991,-0.254057273768614,-0.127028636884307,-0.03721419820038425,-0.015144929647567633,0.5522400184737024
1592284649.9382486,6.67,7.58,0.81,-0.7055555555555556,-0.2311111111111111,-0.11555555555555555,-0.08508480103472357,-0.007635815477475192,0.5203262832508094
1592284649.9482486,6.54,7.634346568331373,0.9153711415583177,-0.7055555555555556,-0.2311111111111111,-0.11555555555555555,-0.11065574435409864,-0.01487076616028913,0.44192132531819595
1592284649.9582486,6.699433375588988,7.737008538831352,1.0646628716305102,-0.7055555555555556,-0.2311111111111111,-0.11555555555555555,-0.12156737551673784,-0.01665355693322557,0.37012105786573407
1592284649.9682486,6.909546141694834,7.61606152225978,1.1560615222597794,-0.7055555555555556,-0.2311111111111111,-0.11555555555555555,-0.11171911522066777,-0.016288199345921933,0.3007210891017744
1592284649.9782486,6.9113556409676695,7.63644042505087,1.1672878137011078,-0.7040866179315196,-0.22907719747783054,-0.1169114979777426,-0.10329612599714508,-0.025680765932577655,0.22465560081619662
1592284649.9882486,6.833207079970653,7.334938325385179,0.8962951669112252,-0.6911111111111111,-0.2111111111111111,-0.1288888888888889,-0.09649143065309516,-0.06066893390840793,0.10100323742109643
1592284649.9982486,7.09,7.33,1.0,-0.6911111111111111,-0.2111111111111111,-0.1288888888888889,-0.09272061651219875,-0.07090400086226964,0.06544984694978735
1592284650.0082486,6.963868478871801,7.069521741352,1.4519641306014,-0.6911111111111111,-0.2111111111111111,-0.1288888888888889,-0.06940422697767433,-0.040380302674440115,0.0072594785788284155
1592284650.0182486,6.939373978165709,7.232320552713464,1.4991297927324507,-0.6911111111111111,-0.2111111111111111,-0.1288888888888889,-0.03374246073822445,-0.034780018523273955,-0.040560598988147185
1592284650.0282485,6.763673967853766,7.111021903561299,1.5312846675070912,-0.6901995132541934,-0.20822438456420492,-0.1288888888888889,0.016623093974125102,-0.04273827219663293,-0.08505613793466348
1592284650.0382485,6.85,7.37,1.35,-0.6844444444444444,-0.19,-0.1288888888888889,0.04581489286485115,-0.0370882466048795,-0.13308135546456762
1592284650.0482485,6.643686437418263,7.153946457419801,1.2063135625817372,-0.6844444444444444,-0.19,-0.1288888888888889,0.11847048315115714,-0.04825518513002516,-0.16663931818692976
1592284650.0582485,6.901990788126919,7.10821264073695,1.0827827533265098,-0.6844444444444444,-0.19,-0.1288888888888889,0.17397020389505402,-0.07319424307577614,-0.21490845791625227
1592284650.0682485,6.920988661158207,7.185868655435132,1.1033050756518938,-0.6844444444444444,-0.19,-0.1288888888888889,0.2212676322384291,-0.08523810339708107,-0.2361694880627961
1592284650.0782485,6.6189258793969845,7.265447550251256,1.0187723775125628,-0.686081274427694,-0.19,-0.13175334135957564,0.2550814341370498,-0.08826243666961754,-0.2518089417895604
1592284650.0882485,7.04,7.09,1.01,-0.6977777777777778,-0.19,-0.15222222222222223,0.2694352032766246,-0.07199483164476608,-0.26616271092913524
1592284650.0982485,6.793100877088163,7.381129699113353,0.8830048036708649,-0.6977777777777778,-0.19,-0.15222222222222223,0.25677527820920765,-0.0880452401244044,-0.2770762587461482
1592284650.1082485,6.888778916335798,7.497687881885833,0.8538439409429163,-0.6977777777777778,-0.19,-0.15222222222222223,0.24959059473635684,-0.12759330516748385,-0.2991682197024248
1592284650.1182485,6.857094450373532,7.334466382070437,0.8369957310565636,-0.6977777777777778,-0.19,-0.15222222222222223,0.24198340469961535,-0.17724486789721894,-0.3512172434469486
1592284650.1282485,7.148054429028815,7.349387406616862,1.060811099252935,-0.6977777777777778,-0.19,-0.15222222222222223,0.20129262249555196,-0.2081698623723071,-0.4130672323971249
1592284650.1382484,7.063571103499485,7.178559725981461,0.9557337900308989,-0.7055555555555556,-0.2222222222222222,-0.13111111111111112,0.14804323531346766,-0.23951491864395355,-0.4528494020701166
1592284650.1482484,7.029492599907346,7.27006534513447,0.6510148001853071,-0.7055555555555556,-0.2222222222222222,-0.13111111111111112,0.10495184224832785,-0.25697189041182744,-0.497581319086208
1592284650.1582484,6.96,7.03,0.79,-0.7055555555555556,-0.2222222222222222,-0.13111111111111112,0.09599310885968812,-0.2748893571891069,-0.533416252640767
1592284650.1682484,6.712094100194455,7.058634805444741,0.529529499027725,-0.7055555555555556,-0.2222222222222222,-0.13111111111111112,0.08265157245648287,-0.2579905223900344,-0.5397046188638696
1592284650.1782484,6.7324059405940595,7.277137090632141,0.5243549124143183,-0.7022685114665314,-0.22147998646018446,-0.13111111111111112,0.1002567368686537,-0.22782088125669375,-0.5175200317526247
1592284650.1882484,6.85,7.25,0.85,-0.6711111111111111,-0.21444444444444444,-0.13111111111111112,0.11999138607461016,-0.19525871006686563,-0.5115996369908379
1592284650.1982484,6.650225452388015,7.867594725061352,0.18172891777460154,-0.6711111111111111,-0.21444444444444444,-0.13111111111111112,0.12351810456547037,-0.1317034097596806,-0.5105744366788182
1592284650.2082484,6.502594947258138,8.148117960806724,0.16671547967711986,-0.6711111111111111,-0.21444444444444444,-0.13111111111111112,0.09782412119821958,-0.10858707842531165,-0.5673984224236339
1592284650.2182484,6.274158957631499,7.827593355079052,0.5112384364472489,-0.6711111111111111,-0.21444444444444444,-0.13111111111111112,0.06244370918029594,-0.15072196530726675,-0.6822375323671745
1592284650.2282484,5.99091491884681,8.200861928407322,0.08370710738901653,-0.6713085385837924,-0.21495211508848208,-0.13057523654240472,-0.007264902290630625,-0.18789978597233348,-0.7755143536893729
1592284650.2382483,6.41,7.85,0.61,-0.6788888888888889,-0.23444444444444446,-0.11,-0.03490658503988659,-0.19853120241435498,-0.8148505945248526
1592284650.2482483,5.846702306760788,7.703993856514162,0.353687863661872,-0.6788888888888889,-0.23444444444444446,-0.11,-0.09813804103069912,-0.17428922244848624,-0.8354879066590621
1592284650.2582483,6.186690715777482,7.803343459274729,0.15999335485095878,-0.6788888888888889,-0.23444444444444446,-0.11,-0.16616923336253422,-0.14871697637589498,-0.8748463911154881
1592284650.2682483,5.744363382899628,7.6197061767229055,0.322279632542179,-0.6788888888888889,-0.23444444444444446,-0.11,-0.1899784394784662,-0.1172239722423148,-0.8570024935306794
1592284650.2782483,5.939265799256506,7.7096611381183875,0.3897458535887904,-0.6788888888888889,-0.23444444444444446,-0.11,-0.22023384543141175,-0.046082882569172645,-0.8095751004152513
1592284650.2882483,5.21,8.31,0.66,-0.6911111111111111,-0.2677777777777778,-0.11555555555555555,-0.18653206380689397,0.031634092692397225,-0.7144941625351786
1592284650.2982483,5.284342545949626,8.03831477195371,0.6377130020422056,-0.6911111111111111,-0.2677777777777778,-0.11555555555555555,-0.15861386501191416,0.10580048699225703,-0.6346140426357505
1592284650.3082483,5.658320818786168,8.219629824477497,0.4653084796020852,-0.6911111111111111,-0.2677777777777778,-0.11555555555555555,-0.16307247200230562,0.10135567764429855,-0.5767047941429326
1592284650.3182483,5.84,8.01,0.64,-0.6911111111111111,-0.2677777777777778,-0.11555555555555555,-0.15926129424448257,0.1112647398146385,-0.5050546522958591
1592284650.3282483,5.718071205007825,7.6442136150234745,1.0526820753581316,-0.6911111111111111,-0.2677777777777778,-0.11555555555555555,-0.11322155787327179,0.1184264765834935,-0.4047903375318889
1592284650.3382483,5.5,8.05,1.01,-0.6577777777777778,-0.2822222222222222,-0.11555555555555555,-0.062177354602297986,0.20071286397934787,-0.31852258848896514
1592284650.3482482,5.637852030039897,8.158221954940155,0.9194367519361653,-0.6577777777777778,-0.2822222222222222,-0.11555555555555555,0.043673583846699594,0.21794148145458608,-0.3080425424676309
1592284650.3582482,5.455772636389603,8.258590878796534,1.0457231267256974,-0.6577777777777778,-0.2822222222222222,-0.11555555555555555,0.0909919877828956,0.2309500534988824,-0.29515265805440144
1592284650.3682482,5.338051539467638,8.215837074481247,1.0057838735904414,-0.6577777777777778,-0.2822222222222222,-0.11555555555555555,0.16048161033107683,0.20719890933921242,-0.27695894340080607
1592284650.3782482,5.753196648874121,8.341863268408215,0.99095726254021,-0.6577777777777778,-0.2822222222222222,-0.11555555555555555,0.19929758729194402,0.20315557840578877,-0.2842369390809687
1592284650.3882482,5.48,8.33,0.72,-0.6522222222222223,-0.2822222222222222,-0.13666666666666666,0.2650718801466388,0.15489797111449674,-0.37960911230876665
1592284650.3982482,5.62,8.27,0.53,-0.6522222222222223,-0.2822222222222222,-0.13666666666666666,0.2650718801466388,0.15489797111449674,-0.37960911230876665
1592284650.4082482,5.394238124287192,8.432592366655173,0.80119062143596,-0.6522222222222223,-0.2822222222222222,-0.13666666666666666,0.28364658478576527,0.14431057926543464,-0.4270440637807814
1592284650.4182482,5.284983673615845,8.8816068032581,0.4377814058631454,-0.6522222222222223,-0.2822222222222222,-0.13666666666666666,0.29458036171290114,0.09771699255620038,-0.5270977203298757
1592284650.4282482,5.149533173059671,8.384954967885463,0.46788151709785064,-0.6522222222222223,-0.2822222222222222,-0.13666666666666666,0.2568211146378097,0.07062883704580869,-0.6461214339361423
1592284650.4382482,5.24,8.52,0.44,-0.6522222222222223,-0.3022222222222222,-0.1288888888888889,0.2596177262341565,0.06654067773228381,-0.6904958853202566
1592284650.4482481,5.219677348551361,8.36608291264267,0.36737324407374894,-0.6522222222222223,-0.3022222222222222,-0.1288888888888889,0.30879558503779114,0.10294024163479211,-0.6986796301756385
1592284650.4582481,5.56430045747241,8.62,0.4686659584155411,-0.6522222222222223,-0.3022222222222222,-0.1288888888888889,0.3766205675443628,0.13503289792382822,-0.6858450670361822
1592284650.4682481,5.017266705526999,8.576600074187906,0.16893328387472842,-0.6522222222222223,-0.3022222222222222,-0.1288888888888889,0.3640429668693258,0.21575541526755918,-0.6493497551410434
1592284650.4782481,4.854274813205448,8.265433734301308,0.37637751046579404,-0.6522222222222223,-0.3022222222222222,-0.1288888888888889,0.322826488480569,0.23757590382631283,-0.6202557703960385
1592284650.488248,5.27,8.72,0.44,-0.6311111111111111,-0.32,-0.12222222222222222,0.2574360646691636,0.20943951023931953,-0.5955936072430649
1592284650.498248,4.525261543562961,8.570221337975628,0.3056337561137362,-0.6311111111111111,-0.32,-0.12222222222222222,0.19524225220377897,0.22743383240128193,-0.5290364716476944
1592284650.508248,4.834702209186811,8.571159941340651,0.7376593027106296,-0.6311111111111111,-0.32,-0.12222222222222222,0.15120943149968738,0.17559297493449297,-0.4962311218505363
1592284650.518248,4.803157210913815,8.903357874981955,0.4592608632885809,-0.6311111111111111,-0.32,-0.12222222222222222,0.12237808036355433,0.13291317193985186,-0.5169731635955912
1592284650.528248,4.167381983542659,8.418957701746788,0.6560484336653675,-0.6311111111111111,-0.32,-0.12222222222222222,0.11247060623833802,0.08832953837637852,-0.5384393575335599
1592284650.538248,4.81,9.0,0.71,-0.6177777777777778,-0.3333333333333333,-0.14333333333333334,0.12326387842209952,0.06872233929727672,-0.5301437602932776
1592284650.548248,4.232353142076502,8.692548952641165,0.02682377049180328,-0.6177777777777778,-0.3333333333333333,-0.14333333333333334,0.09074215074272723,0.10915793005453514,-0.4660970043721829
1592284650.558248,4.782937001309992,8.511598428010004,0.7238661426700012,-0.6177777777777778,-0.3333333333333333,-0.14333333333333334,0.09388445514270795,0.08311400484142867,-0.41188395928859817
1592284650.568248,4.636095004535224,8.59797359492055,0.6911768065307219,-0.6177777777777778,-0.3333333333333333,-0.14333333333333334,0.0871559393477929,0.08236664729195835,-0.381919143552635
1592284650.578248,4.459964558067659,8.795239694964222,0.4375489636174287,-0.6177777777777778,-0.3333333333333333,-0.14333333333333334,0.09791513606132606,0.07391299273132514,-0.35425263771783544
1592284650.588248,4.502881513425937,8.658736746801363,0.2691839603535775,-0.6255555555555555,-0.35333333333333333,-0.1288888888888889,0.09970766693778868,0.10528956222636326,-0.27538171377683685
1592284650.598248,4.577696643315154,8.793308992994547,0.6277331538233348,-0.6255555555555555,-0.35333333333333333,-0.1288888888888889,0.11089980199426608,0.1189045379707345,-0.19485792813890598
1592284650.608248,4.400714659188136,8.741429318376271,0.5099895427321989,-0.6255555555555555,-0.35333333333333333,-0.1288888888888889,0.10962934917411521,0.1300438755004638,-0.10432540615510626
1592284650.618248,4.393429109569295,8.748952739712863,0.2709897945455594,-0.6255555555555555,-0.35333333333333333,-0.1288888888888889,0.13144197502083035,0.1625877715099041,0.022074003159619666
1592284650.628248,4.151594434087372,8.587729622724915,0.5773137168226634,-0.6255555555555555,-0.35333333333333333,-0.1288888888888889,0.13935599626955208,0.17929514970164995,0.13726697911323577
1592284650.638248,3.86,8.53,0.76,-0.6177777777777778,-0.3333333333333333,-0.13666666666666666,0.12108221685710661,0.18216874067690814,0.284706834231575
1592284650.648248,4.458588988176533,8.462417372302651,0.702072033402271,-0.6177777777777778,-0.3333333333333333,-0.13666666666666666,0.13161381837914482,0.1337233736755324,0.4058202517350144
1592284650.658248,4.747022975825018,8.408660063315427,0.6878415195702225,-0.6177777777777778,-0.3333333333333333,-0.13666666666666666,0.1557965670401776,0.14668830267237123,0.5902366957043964
1592284650.668248,4.403484310612412,8.403122179210447,0.4789592735965178,-0.6177777777777778,-0.3333333333333333,-0.13666666666666666,0.19684314581624943,0.15753373523831973,0.7308221034490325
1592284650.678248,4.859898852953244,8.42556879604688,0.471477067984373,-0.6177777777777778,-0.3333333333333333,-0.13666666666666666,0.24744643107296005,0.16079846331939784,0.8246830357800281
1592284650.688248,4.841741538877255,8.114157265419172,0.7608146997230291,-0.6111111111111112,-0.3466666666666667,-0.1511111111111111,0.3120051637961923,0.20344299906417604,0.9642484292632936
1592284650.698248,5.050783128069699,8.29429153194955,0.3042508083026878,-0.6111111111111112,-0.3466666666666667,-0.1511111111111111,0.3939489184935469,0.2364836168119282,1.0669989150617893
1592284650.708248,5.655427008834666,8.32069228252232,-0.014840835787407095,-0.6111111111111112,-0.3466666666666667,-0.1511111111111111,0.4217976416705857,0.3131610325618525,1.1785321394889137
1592284650.718248,5.2002214792374755,8.056141938820748,0.14379137727205557,-0.6111111111111112,-0.3466666666666667,-0.1511111111111111,0.39882321720419456,0.39322150614267615,1.2723222674945092
1592284650.728248,5.564363824442146,8.009655681986109,0.43045662775232746,-0.6111111111111112,-0.3466666666666667,-0.1511111111111111,0.39375235321236857,0.41265981811134256,1.303592595444103
1592284650.7382479,5.73,8.41,0.0,-0.6377777777777778,-0.29444444444444445,-0.13444444444444445,0.3741549583962844,0.43524148221608594,1.2980886311707824
1592284650.7482479,5.647327058823529,8.244654117647059,0.21127529411764706,-0.6377777777777778,-0.29444444444444445,-0.13444444444444445,0.40521771242472,0.421213141687115,1.268027901465845
1592284650.7582479,5.7030593153316005,8.004788159529998,0.41917794599480285,-0.6377777777777778,-0.29444444444444445,-0.13444444444444445,0.43548552956841896,0.4248832114244827,1.2231088102911027
1592284650.7682478,5.871916053766168,8.208587370022826,-0.08384605630230796,-0.6377777777777778,-0.29444444444444445,-0.13444444444444445,0.4634489885346558,0.4223071284272327,1.1706658739373035
1592284650.7782478,5.800253164556962,8.196075949367088,0.017594936708860767,-0.6377777777777778,-0.29444444444444445,-0.13444444444444445,0.4351172103547888,0.41693209465165176,1.123044810541573
1592284650.7882478,5.79145623715244,8.029612679865844,-0.08747484582927621,-0.6377777777777778,-0.27535071585704496,-0.15099234255352398,0.40698592011180046,0.4299778666892296,1.0978100696126818
1592284650.7982478,6.105043491472633,8.111051392106962,-0.22466403312189007,-0.6377777777777778,-0.2611111111111111,-0.16333333333333333,0.3651394348538436,0.44447689556605163,1.0663832372990594
1592284650.8082478,6.055010009615536,8.080831665064077,-0.1491683349359227,-0.6377777777777778,-0.2611111111111111,-0.16333333333333333,0.2798057388680644,0.4810088310289564,1.015749267193424
1592284650.8182478,5.975671432399628,8.094054761266728,-0.13594523873327133,-0.6377777777777778,-0.2611111111111111,-0.16333333333333333,0.21922426528145517,0.49759661546338513,0.9840161143623432
1592284650.8282478,6.1140182622423875,8.113133453754143,-0.15298354406974926,-0.6377777777777778,-0.2611111111111111,-0.16333333333333333,0.1536631628943811,0.49430987056922493,0.9479008427951933
1592284650.8382478,6.430191013952694,8.136995548222846,-0.19474220938997855,-0.6377777777777778,-0.2611111111111111,-0.16333333333333333,0.08403423118440619,0.47478774018325065,0.9082058443437121
1592284650.8482478,6.439491514423858,8.014152415874355,-0.04364393029821203,-0.6644444444444444,-0.21444444444444444,-0.16333333333333333,-0.0799264956370255,0.44621447814355925,0.7651715122829436
1592284650.8582478,6.425881169484375,7.857633449070319,0.1264853814453062,-0.6644444444444444,-0.21444444444444444,-0.16333333333333333,-0.1170429536879786,0.418748299185854,0.6909385961810375
1592284650.8682477,6.5185492427041005,7.793519615810861,0.2598334687846324,-0.6644444444444444,-0.21444444444444444,-0.16333333333333333,-0.12770632808790028,0.38461191131069905,0.6158615736145205
1592284650.8782477,6.692085112670854,7.79971732545253,0.3651945326930181,-0.6644444444444444,-0.21444444444444444,-0.16333333333333333,-0.11824141464654846,0.34540012705367007,0.5401422660837061
1592284650.8882477,6.66,7.64,0.71,-0.6522222222222223,-0.2088888888888889,-0.1688888888888889,-0.15598880189699318,0.296705972839036,0.36760997370130566
1592284650.8982477,6.466948160535117,7.557263497372193,0.627263497372193,-0.6522222222222223,-0.2088888888888889,-0.1688888888888889,-0.13693570240646313,0.2746444892184222,0.30844508580965974
1592284650.9082477,6.964917182774017,7.648563541216573,0.7035911469585674,-0.6522222222222223,-0.2088888888888889,-0.1688888888888889,-0.09777701442136544,0.22910761502209628,0.22289712243945153
1592284650.9182477,6.56,7.61,0.8,-0.6522222222222223,-0.2088888888888889,-0.1688888888888889,-0.05781403147231216,0.20071286397934787,0.11562806294462433
1592284650.9282477,6.809420874384236,7.463997536945813,0.6114134852216749,-0.6522222222222223,-0.2088888888888889,-0.1688888888888889,-0.007380437482706011,0.16952366769630198,0.0466136711693738
1592284650.9382477,7.07,7.33,0.88,-0.6711111111111111,-0.15555555555555556,-0.19,0.05890486225480862,0.17562375598192942,-0.06326818538479445
1592284650.9482477,6.66,7.35,0.17,-0.6711111111111111,-0.15555555555555556,-0.19,0.08290313946973066,0.19416787928436915,-0.12435470920459597
1592284650.9582477,7.1959869217728265,7.431760716880601,0.8240857350448051,-0.6711111111111111,-0.15555555555555556,-0.19,0.06704765382131522,0.20011368640252492,-0.1679572947377384
1592284650.9682477,6.93,7.28,0.58,-0.6711111111111111,-0.15555555555555556,-0.19,0.044724062082354694,0.2247111411942699,-0.20725784867432664
1592284650.9782476,6.840197157267308,7.3328252016074655,0.5271747983925344,-0.6711111111111111,-0.15555555555555556,-0.19,0.04011419360195432,0.22240620695406974,-0.22223992123562786
1592284650.9882476,6.7982017732296995,7.294046010233176,0.6423575362262235,-0.6711111111111111,-0.16298367812799716,-0.1953058018374583,0.006827246692949249,0.19847019121720874,-0.28041649446800787
1592284650.9982476,6.8684003257797155,7.211828199108897,0.5815996742202846,-0.6711111111111111,-0.16333333333333333,-0.19555555555555557,-0.025457021029027502,0.19637446904766853,-0.3486111328863617
1592284651.0082476,7.059375618771038,7.363304072338459,0.7152682991221702,-0.6711111111111111,-0.16333333333333333,-0.19555555555555557,-0.045853915390368476,0.18749625137465797,-0.4160645028263817
1592284651.0182476,7.000400462525958,7.6276430054747975,0.703466820841986,-0.6711111111111111,-0.16333333333333333,-0.19555555555555557,-0.05667951700476057,0.20486276257616218,-0.47051625096094807
1592284651.0282476,6.687789259007478,7.4945036418374285,0.6496315431679129,-0.6711111111111111,-0.16333333333333333,-0.19555555555555557,-0.0711574439587098,0.2096125685248674,-0.5237874489617664
1592284651.0382476,6.63,7.68,0.63,-0.6588888888888889,-0.14333333333333334,-0.2111111111111111,-0.07744898555724837,0.17998707911191522,-0.6261368691529657
1592284651.0482476,6.4581720028393175,7.523792729853925,0.6534310905219113,-0.6588888888888889,-0.14333333333333334,-0.2111111111111111,-0.10471229735326096,0.16635542321390892,-0.6687357938342354
1592284651.0582476,6.804791310845432,7.48,0.8525811272416738,-0.6588888888888889,-0.14333333333333334,-0.2111111111111111,-0.10185189951098074,0.11316653248704706,-0.748952270337791
1592284651.0682476,6.197663533474007,7.713376174947247,0.8502759927105313,-0.6588888888888889,-0.14333333333333334,-0.2111111111111111,-0.09508291488382702,0.10277894263018066,-0.8120437140793204
1592284651.0782475,6.170056288584917,7.680225154339668,0.8649155671226244,-0.6588888888888889,-0.14333333333333334,-0.2111111111111111,-0.09544462340238336,0.07433613664469887,-0.8690789869119088
1592284651.0882475,6.236949718973113,7.870849156919338,1.0050432933313078,-0.6588888888888889,-0.1764644623356457,-0.20256114233632083,-0.08025452345462761,-0.0066470584853505765,-0.9921758012852528
1592284651.0982475,5.71062838864817,7.805702229985708,0.8614044599714162,-0.6588888888888889,-0.17777777777777778,-0.20222222222222222,-0.08570911921742366,-0.04823671487865711,-1.0302954275253315
1592284651.1082475,6.13338020960273,8.036418474287107,0.9351106507433584,-0.6588888888888889,-0.17777777777777778,-0.20222222222222222,-0.04491282392870431,-0.07912144210208154,-1.0227010490520148
1592284651.1182475,5.570940669856459,7.717466507177034,1.196525837320574,-0.6588888888888889,-0.17777777777777778,-0.20222222222222222,-0.044615187775546676,-0.04237491362831723,-1.007598932391885
1592284651.1282475,5.862163641956322,7.934300830513688,0.8536674869270993,-0.6588888888888889,-0.17777777777777778,-0.20222222222222222,-0.042061743766846196,-0.052607403203707964,-1.033459995399314
1592284651.1382475,5.58,7.84,0.64,-0.6666666666666666,-0.19666666666666666,-0.21444444444444444,-0.032724923474893676,-0.08726646259971647,-1.1115565673638887
1592284651.1482475,5.8659004739336496,7.960379146919431,0.9559952606635072,-0.6666666666666666,-0.19666666666666666,-0.21444444444444444,-0.01138651563245708,-0.06921088673303935,-1.1230464792790469
1592284651.1582475,5.473280802292264,8.21121776504298,0.5732808022922636,-0.6666666666666666,-0.19666666666666666,-0.21444444444444444,0.009661197560735087,-0.036220895481261256,-1.1558789911781895
1592284651.1682475,5.248091227787404,8.336636176814281,0.4986364185840351,-0.6666666666666666,-0.19666666666666666,-0.21444444444444444,-0.008250613807441664,-0.024236293441187023,-1.1646205158216525
1592284651.1782475,5.0949008749802935,8.554625571496137,0.43490087498029323,-0.6666666666666666,-0.19666666666666666,-0.21444444444444444,-0.04423271100251232,-0.04525025938437953,-1.1788216638755227
1592284651.1882474,5.014179743779447,8.28647171060317,0.9495958101320043,-0.6594307075269654,-0.2400824215048739,-0.2423545725547205,-0.10855607628249347,-0.09855964709304288,-1.1907312751683727
1592284651.1982474,5.004317024661893,8.424806284805092,0.876340493237868,-0.6588888888888889,-0.24333333333333335,-0.24444444444444444,-0.10243690750117514,-0.13182316850354736,-1.1986262118080997
1592284651.2082474,5.13042566282582,8.436964425550956,1.033461237274863,-0.6588888888888889,-0.24333333333333335,-0.24444444444444444,-0.09869620681953586,-0.15679493548566883,-1.2213498632166364
1592284651.2182474,4.669493018089495,8.518565534750874,1.2363293398920978,-0.6588888888888889,-0.24333333333333335,-0.24444444444444444,-0.0757459688385421,-0.1745513595819045,-1.2366799383897114
1592284651.2282474,4.395382240141607,8.713256760743436,0.9529208378404956,-0.6588888888888889,-0.24333333333333335,-0.24444444444444444,-0.041012920385294624,-0.22974159922468862,-1.2577895940441677
1592284651.2382474,4.343893604980193,8.393361629881154,1.1514282682512733,-0.6368534238822864,-0.2653687983399359,-0.23893557819279382,-0.039367678585932334,-0.2615641060323249,-1.233815193055118
1592284651.2482474,4.346652866981351,8.365509556604504,1.0290636849028862,-0.6322222222222222,-0.27,-0.23777777777777778,-0.021469563822781076,-0.27439500986436105,-1.199936440428398
1592284651.2582474,4.663588266253012,8.43529902218775,0.6997728594775768,-0.6322222222222222,-0.27,-0.23777777777777778,0.014783611011788135,-0.2790165114208353,-1.1688982610396859
1592284651.2682474,4.961000047440581,8.724035770197826,0.9884643484036245,-0.6322222222222222,-0.27,-0.23777777777777778,0.06924438972347456,-0.2744062742461493,-1.1953557519495606
1592284651.2782474,4.080812217356974,8.68584900581437,0.7292886368530616,-0.6322222222222222,-0.27,-0.23777777777777778,0.09227732703065342,-0.26744352291800827,-1.2366316586802473
1592284651.2882473,3.783391377081591,9.01288419131625,0.8057645806402555,-0.6275140884934818,-0.29259904189795455,-0.23024476381179293,0.1142230304281079,-0.26213216957235114,-1.3019346163348016
1592284651.2982473,3.3429531513571535,9.134347109339059,0.50580164085263,-0.6266666666666667,-0.2966666666666667,-0.2288888888888889,0.1081557215328131,-0.298028193236605,-1.3542210418565985
1592284651.3082473,3.368587141103012,8.84792930480445,0.8167844919925804,-0.6266666666666667,-0.2966666666666667,-0.2288888888888889,0.06830646308939808,-0.3217950808364545,-1.41650423029011
1592284651.3182473,2.816257676041194,8.931721105827819,0.5338393347829203,-0.6266666666666667,-0.2966666666666667,-0.2288888888888889,0.05924761212434169,-0.3788013433957097,-1.4290509062442545
1592284651.3282473,3.045023057821923,9.09800922312877,0.46,-0.6266666666666667,-0.2966666666666667,-0.2288888888888889,0.028795920483351993,-0.3873737069577264,-1.3869686255891773
1592284651.3382473,3.2882860801170657,9.22594329614048,0.682059264678983,-0.6368762880312177,-0.3400575574660082,-0.20676804259902853,0.01090830782496456,-0.41455336862206377,-1.3104051821815352
1592284651.3482473,3.3465726285759567,9.317621047626595,0.6335684285601078,-0.64,-0.35333333333333333,-0.2,-0.001369049252538843,-0.40884820082810364,-1.2596774961531971
1592284651.3582473,3.5190312473050276,9.401911058728835,0.533795670796562,-0.64,-0.35333333333333333,-0.2,-0.014078010529626912,-0.35707008427584525,-1.1361374969135785
1592284651.3682473,3.136714822305692,9.284652797842627,0.7220726187036501,-0.64,-0.35333333333333333,-0.2,0.04280693985188225,-0.3603505857200921,-1.096265710555794
1592284651.3782473,2.8667758749069248,9.357005510052122,0.46898346984363365,-0.64,-0.35333333333333333,-0.2,0.043916961016121574,-0.3341470865512482,-1.0718920432391628
1592284651.3882473,2.022205649368214,9.485902082769814,0.12093512114069323,-0.6133803899343526,-0.3851051259923318,-0.20686957679113482,-0.01274736447477021,-0.29527013452322165,-1.0012296494929018
1592284651.3982472,2.3456610954823764,9.43036157537647,0.6028098626510011,-0.6055555555555555,-0.39444444444444443,-0.2088888888888889,-0.037320384348763405,-0.29421329001999025,-0.9685044806231379
1592284651.4082472,2.9114517485553053,9.634418459534986,0.3227770693724735,-0.6055555555555555,-0.39444444444444443,-0.2088888888888889,-0.021151682091744402,-0.30370834351148246,-0.9005196539851451
1592284651.4182472,2.6909669679276975,9.355129968807487,0.5223722306646406,-0.6055555555555555,-0.39444444444444443,-0.2088888888888889,-0.015150534168090823,-0.24772310776405698,-0.843953432838895
1592284651.4282472,2.47559147431339,9.142152755088313,1.1297868578347523,-0.6055555555555555,-0.39444444444444443,-0.2088888888888889,0.021840641559036013,-0.1753304134686452,-0.7719090620200763
1592284651.4382472,2.206379440665155,9.495736961451247,0.5217460317460317,-0.6055555555555555,-0.40280507264634247,-0.19368774670361974,0.07319614717771948,-0.1526627162004016,-0.7407342907687008
1592284651.4482472,2.29820485396956,9.506994652406418,0.38674208144796385,-0.6055555555555555,-0.4066666666666667,-0.18666666666666668,0.08844578035477908,-0.13064293808972507,-0.7324885178924458
1592284651.4582472,2.302066108809875,9.457112118095132,0.3227880792860916,-0.6055555555555555,-0.4066666666666667,-0.18666666666666668,0.11552668552098068,-0.10392132072327522,-0.7267856975287516
1592284651.4682472,2.5279278595158994,9.775945894636925,0.19299549121974371,-0.6055555555555555,-0.4066666666666667,-0.18666666666666668,0.11104854098465726,-0.11784329848979992,-0.7490690718556507
1592284651.4782472,2.2387501562304712,9.590589390611887,0.6814998125234346,-0.6055555555555555,-0.4066666666666667,-0.18666666666666668,0.10611640883405331,-0.13092696126071698,-0.7709524413348107
1592284651.4882472,1.9185510462904247,9.668836398224476,0.3750824350031706,-0.5864898189248221,-0.4336764602268724,-0.1707785528077221,0.12733702811311434,-0.1530427979003842,-0.7797859531540844
1592284651.4982471,1.7301202318477324,9.71785971645649,0.1721402835435106,-0.5788888888888889,-0.4444444444444444,-0.16444444444444445,0.1260077873407556,-0.1528396015381576,-0.7670800754075404
1592284651.5082471,2.3437666023385173,10.032694971052333,0.5318878419797934,-0.5788888888888889,-0.4444444444444444,-0.16444444444444445,0.12081659850900184,-0.1480580200301541,-0.7236928540832507
1592284651.5182471,1.595112252209219,9.656344638165752,0.10392166228803446,-0.5788888888888889,-0.4444444444444444,-0.16444444444444445,0.12024897011918963,-0.1114551076323529,-0.6868918710786363
1592284651.528247,1.3109790256650806,9.45697044830128,0.08146853849762109,-0.5788888888888889,-0.4444444444444444,-0.16444444444444445,0.11443412844178269,-0.09853009632655836,-0.6761622752737285
1592284651.538247,1.499118285903619,9.358784743953171,0.7913264366969774,-0.5698711482531384,-0.4527685127235987,-0.16583178915763683,0.11887629943699358,-0.10852856691272732,-0.6854333590553429
1592284651.548247,1.4630985860783094,9.52851654754506,0.5996103946550653,-0.5644444444444444,-0.4577777777777778,-0.16666666666666666,0.13545636153160107,-0.11668118243919265,-0.6925486505505558
1592284651.558247,1.2446210850538257,9.728169619712727,-0.09206062639138787,-0.5644444444444444,-0.4577777777777778,-0.16666666666666666,0.11449987425999791,-0.09702575712141406,-0.6673844840365766
1592284651.568247,0.6689476471786514,9.138180077408842,-0.036186596048074976,-0.5644444444444444,-0.4577777777777778,-0.16666666666666666,0.08114692190884605,-0.10233099347536626,-0.6585916736832266
1592284651.578247,1.0162599577304503,9.923809136725737,0.4115615347098033,-0.5644444444444444,-0.4577777777777778,-0.16666666666666666,-0.012550760969508683,-0.17267163199870272,-0.648403578856866
1592284651.588247,0.8314212904760285,10.199001732866705,0.34128028269511734,-0.5644444444444444,-0.4675700225385931,-0.16666666666666666,-0.04895877310893721,-0.2517093049870757,-0.6982204690938848
1592284651.598247,1.3750333484917387,9.015927694406548,1.4173359102622405,-0.5644444444444444,-0.47555555555555556,-0.16666666666666666,-0.040553788056289536,-0.37688636207762405,-0.8825775941381461
1592284651.608247,1.6496219221604447,9.259969023034154,1.5372946783161239,-0.5644444444444444,-0.47555555555555556,-0.16666666666666666,0.035867278583676956,-0.37854566059912714,-0.9294118266970481
1592284651.618247,1.5163932948810381,10.012953960243074,0.2972134102379236,-0.5644444444444444,-0.47555555555555556,-0.16666666666666666,0.2072286370146862,-0.2625899002500347,-0.8745222347570886
1592284651.628247,1.099382104342757,9.78078402798018,0.3394841154182454,-0.5644444444444444,-0.47555555555555556,-0.16666666666666666,0.22298380699394837,-0.20225579659008974,-0.7967248720704936
1592284651.638247,0.762668799646955,9.499635922330096,0.38126544571932924,-0.5487309993135235,-0.483412278121016,-0.17517811611258213,0.24972081976577848,-0.20080926241897493,-0.7052438838022765
1592284651.648247,0.9204441196768562,9.682934681118825,0.3194020216782365,-0.5377777777777778,-0.4888888888888889,-0.1811111111111111,0.2682116996964844,-0.21048189508035325,-0.6680580191101991
1592284651.658247,0.9458787426867041,9.883468223012503,0.196501089824481,-0.5377777777777778,-0.4888888888888889,-0.1811111111111111,0.2850749599003153,-0.21768265329453373,-0.6052295711445429
1592284651.668247,1.3088291488646728,9.706800441649465,0.07162738226681387,-0.5377777777777778,-0.4888888888888889,-0.1811111111111111,0.2814331374720076,-0.2022816368938517,-0.5526997802276313
1592284651.678247,1.521123981959181,9.787554755183491,0.28685972938771537,-0.5377777777777778,-0.4888888888888889,-0.1811111111111111,0.27528245127620915,-0.18762289458939044,-0.5314292621976057
1592284651.688247,1.1095965417867435,10.133402685035497,-0.1080677584873832,-0.545183258749014,-0.5088267222729864,-0.17028771584545815,0.2838707887650436,-0.1630156781691133,-0.4711061765873899
1592284651.698247,0.7944701878126794,9.845218157959486,-0.47584146641515623,-0.5522222222222222,-0.5277777777777778,-0.16,0.2560858786469019,-0.12878602473962547,-0.4396388015485935
1592284651.708247,1.237988172251992,9.801913263181277,-0.26769247855179495,-0.5522222222222222,-0.5277777777777778,-0.16,0.16908092163221977,-0.07090615120753874,-0.39794453097389115
1592284651.718247,1.2041409188288503,9.916205189240657,-0.46207664841704355,-0.5522222222222222,-0.5277777777777778,-0.16,0.1654678383677151,-0.033705191118331104,-0.38404794450601026
1592284651.728247,1.1728539078278963,9.892483016096456,-0.34908409327376216,-0.5522222222222222,-0.5277777777777778,-0.16,0.16919767511360018,-0.009912446550277714,-0.3815958944408624
1592284651.738247,0.9816259909839888,9.699398414425618,0.03268614954142701,-0.5453828350346305,-0.5304083113114669,-0.15736946646631086,0.21695968035791668,0.0664172322465606,-0.3842576487725251
1592284651.748247,0.8725977512352644,9.937355172547951,-0.07718320818581488,-0.5377777777777778,-0.5333333333333333,-0.15444444444444444,0.22107332684640205,0.09209581743116102,-0.3908537132948604
1592284651.758247,0.7947747227356747,10.022960663123845,-0.07210489833641409,-0.5377777777777778,-0.5333333333333333,-0.15444444444444444,0.2485115352026052,0.1078845947180794,-0.41115297454364685
1592284651.768247,0.6299378238341968,9.93,-0.32345436428856117,-0.5377777777777778,-0.5333333333333333,-0.15444444444444444,0.2550959739542537,0.11591209632453861,-0.41862781201864446
1592284651.7782469,0.7246990526103608,9.89020560370893,-0.26245232815964525,-0.5377777777777778,-0.5333333333333333,-0.15444444444444444,0.20081378946396106,0.14728458352249113,-0.41062010557132345
1592284651.7882469,0.49824951365372144,9.85175048634628,-0.08649902730744291,-0.5411611867649767,-0.5386501188846459,-0.15734450929061491,0.1518050308184962,0.12410890091349015,-0.40237477196032734
1592284651.7982469,0.47457549994012693,9.85102183371253,-0.03610066658683591,-0.5455555555555556,-0.5455555555555556,-0.16111111111111112,0.11622143866425319,0.10220535380933345,-0.40660204723168936
1592284651.8082469,0.687584645302219,9.91068781800261,0.007240736300913722,-0.5455555555555556,-0.5455555555555556,-0.16111111111111112,0.03242422508289407,0.0823014520997322,-0.44129732349856665
1592284651.8182468,0.7850468112346963,10.043088741297911,0.06731935664559495,-0.5455555555555556,-0.5455555555555556,-0.16111111111111112,0.001989716546931801,0.06587703154205252,-0.45918380820018617
1592284651.8282468,0.5449875579113476,9.854987557911347,-0.015707175949341484,-0.5455555555555556,-0.5455555555555556,-0.16111111111111112,-0.08161470608903326,0.04244631366092144,-0.48534120006017456
1592284651.8382468,0.5149913030874039,9.838920495724018,0.08036563270039136,-0.5398806992961943,-0.5569052680742781,-0.15130908666312348,-0.132069028448343,0.011414155104411114,-0.49305551368839806
1592284651.8482468,0.29058613861386134,9.63820594059406,0.292380198019802,-0.5333333333333333,-0.57,-0.14,-0.14758184465842644,-0.004491198738547785,-0.4919685710156214
1592284651.8582468,0.284677065767285,9.759784710511523,0.08827768409218663,-0.5333333333333333,-0.57,-0.14,-0.14045884210074672,-0.018245294532428707,-0.46559686860504407
1592284651.8682468,0.28407357832400426,9.74917214245153,0.03400786890565425,-0.5333333333333333,-0.57,-0.14,-0.12736345358849072,-0.02854937863001027,-0.4553422981209664
1592284651.8782468,0.3251228209191759,9.74,0.2787264483183659,-0.5333333333333333,-0.57,-0.14,-0.10446558328783402,-0.028754695114476266,-0.42704997498764014
1592284651.8882468,0.2328411615360203,9.735810589230931,0.20391648154025177,-0.5272819622224573,-0.57,-0.14093098017090402,-0.08467157083985212,-0.056252215199626435,-0.40948876529848954
1592284651.8982468,0.3062230397792596,9.775923200735802,0.08029983904345828,-0.5188888888888888,-0.57,-0.14222222222222222,-0.06748633195536224,-0.07526732399225547,-0.4040193919709935
1592284651.9082468,0.22622360678435444,9.789000890075657,-0.012777283291301985,-0.5188888888888888,-0.57,-0.14222222222222222,-0.06068658489695032,-0.07427347752202369,-0.4023105884428704
1592284651.9182467,0.13112732095490715,9.749436339522546,-0.04,-0.5188888888888888,-0.57,-0.14222222222222222,-0.06096355217986493,-0.07051230002094216,-0.39763856312994234
1592284651.9282467,0.11388284833148822,9.76,-0.03611715166851178,-0.5188888888888888,-0.57,-0.14222222222222222,-0.06242107928804398,-0.06381953107940315,-0.4000272761673366
1592284651.9382467,0.167698200476982,9.81564790055648,0.021673050516730512,-0.5140307388403074,-0.5651418499514185,-0.1475220222752202,-0.06628959035479945,-0.04437277625690089,-0.40686616469576764
1592284651.9482467,0.2061860936854363,10.07752300815146,0.14755080575485519,-0.5066666666666667,-0.5577777777777778,-0.15555555555555556,-0.07521389086275711,-0.022038748314814484,-0.4102676406245561
1592284651.9582467,-0.514225181598063,10.862796610169491,-0.23062953995157387,-0.5066666666666667,-0.5577777777777778,-0.15555555555555556,-0.06855990323644492,0.007318867066096077,-0.3244931041883192
1592284651.9682467,-0.97,10.11,-1.05,-0.5066666666666667,-0.5577777777777778,-0.15555555555555556,-0.05235987755982988,0.020725784867432664,-0.23343778745424157
1592284651.9782467,-0.12420121826951383,9.948108964923803,0.18019564774348407,-0.5066666666666667,-0.5577777777777778,-0.15555555555555556,-0.12179250057239127,-0.004743870197197627,-0.002181661564992912
1592284651.9882467,-0.09805417756531673,9.648721024623434,0.46095336881031834,-0.505734710989514,-0.5736210242893746,-0.15555555555555556,-0.10447368604894419,-0.025264993433410442,-0.002639134238245161
1592284651.9982467,0.14,9.91,0.13,-0.5044444444444445,-0.5955555555555555,-0.15555555555555556,-0.11017390903214205,-0.02399827721492203,-0.0032724923474893677
1592284652.0082467,0.13119852686077232,9.848801473139227,0.26,-0.5044444444444445,-0.5955555555555555,-0.15555555555555556,-0.10690141668465267,-0.04363323129985824,-0.015882415845867574
1592284652.0182467,0.10002525192367248,9.850012625961837,0.2400252519236725,-0.5044444444444445,-0.5955555555555555,-0.15555555555555556,-0.10635668993279593,-0.03655178352572051,-0.013092723947523392
1592284652.0282466,0.08,9.84,0.22,-0.5044444444444445,-0.5955555555555555,-0.15555555555555556,-0.10581058590215622,-0.02945243112740431,-0.01090830782496456
1592284652.0382466,0.13,9.737631011965926,0.29,-0.5030312940803843,-0.5941424051914953,-0.16149078708460857,-0.10418386718743199,-0.007856122148486855,-0.009243479274158539
1592284652.0482466,0.09300639608150843,9.79236940342868,0.2715031980407542,-0.4988888888888889,-0.59,-0.17888888888888888,-0.10883711804538913,0.011683693283811636,-0.004363323129985824
1592284652.0582466,-0.07966556380219976,9.847288741840293,0.20245595993919344,-0.4988888888888889,-0.59,-0.17888888888888888,-0.11377000248138694,0.029184527457179275,-0.0034203685404845057
1592284652.0682466,-0.2282674372783397,9.826534874556678,0.2138907132536451,-0.4988888888888889,-0.59,-0.17888888888888888,-0.12226589649643449,0.035523284854396604,-0.0007592686610335899
1592284652.0782466,-0.21458421109008463,9.748123683364874,0.3610447388152962,-0.4988888888888889,-0.59,-0.17888888888888888,-0.13050197123968746,0.028940745141577653,0.0006931081226091934
1592284652.0882466,-0.23015956622773043,9.732140975987607,0.45,-0.5002556158017041,-0.59,-0.18763594113090626,-0.12819872590629186,0.01586056128446241,-0.0008050686053932014
1592284652.0982466,-0.2,9.8,0.45,-0.5044444444444445,-0.59,-0.21444444444444444,-0.12326387842209952,0.007635815477475192,-0.0032724923474893677
1592284652.1082466,-0.2033044891714873,9.773813644404072,0.43949084476741407,-0.5044444444444445,-0.59,-0.21444444444444444,-0.10549622304147409,-0.018655203742594526,-0.0031708511372256784
1592284652.1182466,-0.1561920678946495,9.753344475262546,0.39380793210535053,-0.5044444444444445,-0.59,-0.21444444444444444,-0.09770883416981484,-0.036098526420480885,-0.00820650851824788
1592284652.1282465,-0.15289501610070258,9.718685048302108,0.4,-0.5044444444444445,-0.59,-0.21444444444444444,-0.08815601578338615,-0.04785311545088838,-0.01090830782496456
1592284652.1382465,-0.17889684039967593,9.748398595733189,0.409448420199838,-0.5038612086296397,-0.5891834698592733,-0.21129497104449846,-0.07859998436224683,-0.0510943606703876,-0.011022825909408387
1592284652.1482465,-0.27737333460675234,9.797896471037678,0.4752643140251182,-0.4988888888888889,-0.5822222222222222,-0.18444444444444444,-0.068607609590078,-0.06493266470328452,-0.013606552593721252
1592284652.1582465,-0.17,9.74528720347636,0.4389654026072709,-0.4988888888888889,-0.5822222222222222,-0.18444444444444444,-0.06613944844866901,-0.08690297321708468,-0.016362461737446838
1592284652.1682465,-0.15556997197824193,9.716392492994562,0.4668975910707137,-0.4988888888888889,-0.5822222222222222,-0.18444444444444444,-0.06348225710498484,-0.1100495604363367,-0.014001353923683816
1592284652.1782465,-0.16511345588637982,9.715402070136367,0.5770103506818307,-0.4988888888888889,-0.5822222222222222,-0.18444444444444444,-0.05528149752214268,-0.11769052348250787,-0.011585300360654003
1592284652.1882465,-0.24646221853847217,9.729323110926924,0.6493231109269236,-0.4992649383739313,-0.5817709628401713,-0.18301545640128317,-0.04099182049914262,-0.12296852984720062,-0.016362461737446838
1592284652.1982465,-0.0884291861819738,9.72,0.6471072965454935,-0.5044444444444445,-0.5755555555555556,-0.16333333333333333,-0.01149445334017348,-0.12006348396993693,-0.016362461737446838
1592284652.2082465,-0.10509591620571967,9.695567141344004,0.6460383664822879,-0.5044444444444445,-0.5755555555555556,-0.16333333333333333,0.010506637664640337,-0.1172233692647103,-0.01598171724707047
1592284652.2182465,-0.08033122397609918,9.683609353313416,0.586390646686584,-0.5044444444444445,-0.5755555555555556,-0.16333333333333333,0.033163806508440384,-0.09955996051711227,-0.013805146267987447
1592284652.2282465,-0.12510046873296754,9.759971294647723,0.4925789397187602,-0.5044444444444445,-0.5755555555555556,-0.16333333333333333,0.056707544348872936,-0.07528924286957535,-0.01199600733927246
1592284652.2382464,-0.022785717193925328,9.790506494035258,0.40721428280607463,-0.50511976982479,-0.5755555555555556,-0.16333333333333333,0.07325141221270601,-0.05097862934780106,-0.015409755776153266
1592284652.2482464,-0.13,9.81,0.3,-0.5311111111111111,-0.5755555555555556,-0.16333333333333333,0.07963064712224129,0.002181661564992912,-0.020725784867432664
1592284652.2582464,-0.17284841041672483,9.84290953749965,0.17575794791637592,-0.5311111111111111,-0.5755555555555556,-0.16333333333333333,0.07279495284199791,-0.0043433193388757625,-0.020725784867432664
1592284652.2682464,-0.06516446789797713,9.816405076014576,0.1687088830255057,-0.5311111111111111,-0.5755555555555556,-0.16333333333333333,0.05115857943084616,-0.023857438200963824,-0.022515301058021898
1592284652.2782464,0.1,9.84,0.21,-0.5311111111111111,-0.5755555555555556,-0.16333333333333333,0.044724062082354694,-0.028361600344907853,-0.025089107997418484
1592284652.2882464,0.17357686201878555,9.866135732239714,0.265457071041143,-0.5273541841219443,-0.5746968293866032,-0.1667682380091429,0.03251416036365726,-0.004753498249469194,-0.051052619542772106
1592284652.2982464,-0.10301482182276885,9.810778934090193,0.40231157363607695,-0.4922222222222222,-0.5666666666666667,-0.1988888888888889,0.030543261909900768,0.018708556324840666,-0.08550138762494848
1592284652.3082464,-0.3,9.78,0.39,-0.4922222222222222,-0.5666666666666667,-0.1988888888888889,0.030543261909900768,0.02945243112740431,-0.09490227807719166
1592284652.3182464,-0.6596348954196453,9.69,0.385784220280646,-0.4922222222222222,-0.5666666666666667,-0.1988888888888889,0.0362472643026419,0.004730861190299562,-0.05752435626054518
1592284652.3282464,-0.41,9.69,0.46,-0.4922222222222222,-0.5666666666666667,-0.1988888888888889,0.04581489286485115,-0.02617993877991494,-0.020725784867432664
1592284652.3382463,-0.08802184679147203,9.725934459625584,0.477032770187208,-0.49398058062980266,-0.568974512076616,-0.1969107356803609,0.07263026519215479,-0.04212275001120872,0.0061134186125074465
1592284652.3482463,-0.07,9.78,0.45,-0.51,-0.59,-0.17888888888888888,0.08835729338221293,-0.028361600344907853,0.002181661564992912
1592284652.3582463,-0.22714986586751093,9.782570026826496,0.35116949029654154,-0.51,-0.59,-0.17888888888888888,0.09437214016953231,-0.018763359805502818,-0.004924016004822922
1592284652.3682463,-0.19269613153270262,9.798088394598107,0.19921547386918947,-0.51,-0.59,-0.17888888888888888,0.09599310885968812,-0.011031253101285506,-0.0056626777141193215
1592284652.3782463,-0.19590288690738944,9.822048556546305,0.1720485565463053,-0.51,-0.59,-0.17888888888888888,0.09398194317333312,-0.004113376788245618,-0.003049029493449924
1592284652.3882463,-0.1810911980224243,9.829454400988787,0.17945440098878784,-0.51,-0.59,-0.17888888888888888,0.08671127239391688,0.000733737064698552,-0.0022411771846258957
1592284652.3982463,-0.22747193234086752,9.827471932340867,0.185056135318265,-0.5044444444444445,-0.5811111111111111,-0.17888888888888888,0.06349496748055704,0.01665047796635813,-0.0016301227604298145
1592284652.4082463,-0.21727787577755084,9.81727787577755,0.18094513044285582,-0.5044444444444445,-0.5811111111111111,-0.17888888888888888,0.048596607571269324,0.02310128638393409,0.0020785638269387487
1592284652.4182463,-0.21257203245712064,9.81,0.13771609737136195,-0.5044444444444445,-0.5811111111111111,-0.17888888888888888,0.04089043929930389,0.03057469199852719,0.00903864156637879
1592284652.4282463,-0.21407536090891718,9.806050240605945,0.17777391727324846,-0.5044444444444445,-0.5811111111111111,-0.17888888888888888,0.03905448221334792,0.03252319851824314,0.012874543433432972
1592284652.4382463,-0.19221600680993,9.791477337873285,0.24335197957021004,-0.5044444444444445,-0.5811111111111111,-0.17888888888888888,0.0382596536687924,0.02775422725091008,0.012079714888877461
1592284652.4482462,-0.1946829849105855,9.792975522634123,0.30234149245529274,-0.5044444444444445,-0.5733333333333334,-0.16333333333333333,0.03574199861766139,0.02297660839603542,0.009631221801356293
1592284652.4582462,-0.20370169022437482,9.772099436591875,0.28480676089749923,-0.5044444444444445,-0.5733333333333334,-0.16333333333333333,0.035135598045918266,0.017802850036682794,0.004538101888355573
1592284652.4682462,-0.18724706851439094,9.784831379009594,0.19483137900959396,-0.5044444444444445,-0.5733333333333334,-0.16333333333333333,0.03705145921149751,0.009063731894014247,3.678739338199119e-05
1592284652.4782462,-0.21925590784115825,9.801851181568232,0.20814881843176836,-0.5044444444444445,-0.5733333333333334,-0.16333333333333333,0.040158806368507154,0.002464762012042509,-0.004080222682936226
1592284652.4882462,-0.2557496606689173,9.809149932133783,0.20085006786621656,-0.5044444444444445,-0.5733333333333334,-0.16333333333333333,0.03936263618944042,-0.0007199187042244213,-0.007264903399203158
1592284652.4982462,-0.22258951149764847,9.812589511497649,0.19187341951646067,-0.48444444444444446,-0.5877777777777777,-0.19333333333333333,0.03050420515109184,-0.01009994892779445,-0.01090830782496456
1592284652.5082462,-0.2226116590676468,9.817537219689216,0.11783497720294037,-0.48444444444444446,-0.5877777777777777,-0.19333333333333333,0.02458429298888158,-0.01090830782496456,-0.011445603139670522
1592284652.5182462,-0.20231181102362206,9.814623622047245,0.05693543307086615,-0.48444444444444446,-0.5877777777777777,-0.19333333333333333,0.014345026035141581,-0.009395231048235617,-0.012333431001592999
