time,acc_x,acc_y,acc_z,mag_x,mag_y,mag_z,gyr_x,gyr_y,gyr_z
1592284666.4782329,-0.2110108031939878,9.828989196806011,0.07404321277595115,-0.4777777777777778,-0.5822222222222222,-0.15555555555555556,-0.005744256490711257,-0.04668520059953808,-0.004653425708214801
1592284666.4882329,-0.19369640205049588,9.802178412302975,0.04260719589900829,-0.4777777777777778,-0.5822222222222222,-0.15555555555555556,-0.005169752958218603,-0.04702453760720032,-0.004078922175722147
1592284666.4982328,-0.19,9.790113486810734,0.04494325659463275,-0.4777777777777778,-0.5822222222222222,-0.15555555555555556,-0.0032601128568337115,-0.04581489286485115,-0.004927307757217536
1592284666.5082328,-0.27313390510444047,9.816626781020888,0.04554226034029603,-0.4894781051628472,-0.5785273819953582,-0.15986620248689692,0.0008411725269091841,-0.04641945968323157,-0.008358685150119994
1592284666.5182328,-0.3186375331512489,9.838010925068282,0.04732969164390611,-0.4988888888888889,-0.5755555555555556,-0.16333333333333333,0.002835564164451659,-0.049090364562536154,-0.010254405225505813
1592284666.5282328,-0.11019066491711967,9.906109846557587,-0.0075896419677047924,-0.4988888888888889,-0.5755555555555556,-0.16333333333333333,-0.00702924661052452,-0.07322628474970419,-0.01308996938995747
1592284666.5382328,0.02951988685705778,9.90776617125276,-0.0032985137582810242,-0.4988888888888889,-0.5755555555555556,-0.16333333333333333,-0.022431495279652824,-0.08848482717987373,-0.022431495279652824
1592284666.5482328,0.14536294794813936,9.869832485562398,0.050167514437602784,-0.4988888888888889,-0.5755555555555556,-0.16333333333333333,-0.03220082657256791,-0.09491446007086164,-0.035491591910562253
1592284666.5582328,0.22074005456934012,9.93129046383939,0.03166975443796949,-0.48635882522465873,-0.5755555555555556,-0.1681066909197067,-0.03658319492887944,-0.10001283517466655,-0.0401992840913762
1592284666.5682328,0.2467165544192234,10.006656689116156,-0.0066566891161553175,-0.47555555555555556,-0.5755555555555556,-0.17222222222222222,-0.039458787782789086,-0.10217339491191155,-0.040002570601152566
1592284666.5782328,0.3528813116808522,10.155889509686178,-0.10440655840426089,-0.47555555555555556,-0.5755555555555556,-0.17222222222222222,-0.06811680318695769,-0.09474051318646586,-0.06343917770942785
1592284666.5882328,0.5303916077162655,10.230648736087302,-0.2516890798908713,-0.47555555555555556,-0.5755555555555556,-0.17222222222222222,-0.09552579430828376,-0.07371586812499445,-0.10378512601685105
1592284666.5982327,0.639892256914147,10.150538715429265,-0.22570033005804468,-0.47555555555555556,-0.5755555555555556,-0.17222222222222222,-0.12306407831519513,-0.06596587997237317,-0.15994077186570527
1592284666.6082327,0.5644162341899996,10.142791882905,-0.1267174244072221,-0.47925361951030865,-0.5787253246596297,-0.16112803035796291,-0.16307274425414015,-0.05886794641770558,-0.2280943810530684
1592284666.6182327,0.45887204850031904,10.19741863433312,-0.06867142629227824,-0.48333333333333334,-0.5822222222222222,-0.14888888888888888,-0.19260141982788373,-0.04344453741410173,-0.26536172996607843
1592284666.6282327,0.3655811688311688,10.223256493506494,0.233487012987013,-0.48333333333333334,-0.5822222222222222,-0.14888888888888888,-0.2797427277842597,0.020919985802195288,-0.3511116303371647
1592284666.6382327,0.3626748351963313,10.16267483519633,0.38352560428011845,-0.48333333333333334,-0.5822222222222222,-0.14888888888888888,-0.31929175602409604,0.055018927402927374,-0.44503222780773616
1592284666.6482327,0.28450175533351335,10.136900351066702,0.4387330992888649,-0.48333333333333334,-0.5822222222222222,-0.14888888888888888,-0.3218098294892163,0.08654597814715642,-0.5784396475665244
1592284666.6582327,0.18716832637327338,10.115722775457757,0.45,-0.4747788842488489,-0.5855489524217439,-0.14603740586072742,-0.31057788533568825,0.11702129879146207,-0.7413652878613429
1592284666.6682327,0.15925890886155789,10.107314727215389,0.4526852727846105,-0.4633333333333333,-0.59,-0.14222222222222222,-0.30870511144649704,0.12502138534981141,-0.8131188017570244
1592284666.6782327,0.047721117223867966,10.047721117223867,0.42243625687685143,-0.4633333333333333,-0.59,-0.14222222222222222,-0.3104345779508132,0.13808331431637313,-0.9360505846377292
1592284666.6882327,-0.005347664224810856,10.003860934310076,0.38613906568992434,-0.4633333333333333,-0.59,-0.14222222222222222,-0.31203340947590585,0.13984956288722428,-0.9775160353664233
1592284666.6982327,-0.3081876196553925,9.871812380344608,0.5254626675175494,-0.4633333333333333,-0.59,-0.14222222222222222,-0.31267164226887406,0.142402494059097,-1.0640633126505377
1592284666.7082326,-0.37485884926559954,9.82954234522032,0.636231813604639,-0.45713620457500453,-0.5985210520427021,-0.14958131262273766,-0.3058935868625752,0.14190784650882557,-1.128206897219915
1592284666.7182326,-0.4505889875990591,9.79941101240094,0.7758834813985886,-0.44555555555555554,-0.6144444444444445,-0.16333333333333333,-0.2899039938226323,0.15656703912019931,-1.2177554349153012
1592284666.7282326,-0.45470942629047456,9.821743442257151,0.7159319680666436,-0.44555555555555554,-0.6144444444444445,-0.16333333333333333,-0.2696385271677043,0.16696050307134466,-1.3130672571994286
1592284666.7382326,-0.5319883765243902,9.762545731707316,0.737454268292683,-0.44555555555555554,-0.6144444444444445,-0.16333333333333333,-0.2433296771148754,0.17216159460070757,-1.4108444294111526
1592284666.7482326,-0.6658601976639712,9.652953638814015,0.8017674752920037,-0.44555555555555554,-0.6144444444444445,-0.16333333333333333,-0.2177222775582376,0.17517474141347217,-1.4828777767263337
1592284666.7582326,-0.9395018937220245,9.568323195225524,0.7372053253758751,-0.43382340563908334,-0.6195283760749157,-0.16841726496380463,-0.1879639696108275,0.17184538924194523,-1.5459758471974525
1592284666.7682326,-1.2859901636824713,9.5062376085453,0.6258910320448782,-0.4122222222222222,-0.6288888888888889,-0.17777777777777778,-0.17432771857870358,0.16453723358356998,-1.5832814899068466
1592284666.7782326,-1.4735889530478405,9.422015781360228,0.44201578136022784,-0.4122222222222222,-0.6288888888888889,-0.17777777777777778,-0.1775855299110704,0.1308160425436155,-1.6136862438312398
1592284666.7882326,-1.4680714982280045,9.385723188164498,0.37427681183550177,-0.4122222222222222,-0.6288888888888889,-0.17777777777777778,-0.18783326149908958,0.12861964662644426,-1.6227948600094648
1592284666.7982326,-1.5987488818120013,9.31366336279386,0.5483708448133968,-0.4122222222222222,-0.6288888888888889,-0.17777777777777778,-0.2095376955484178,0.11860894629021615,-1.620007424325737
1592284666.8082325,-1.915598885793872,9.156589942823633,0.8078111713824953,-0.394989819022952,-0.6347414031829807,-0.18167945397383897,-0.23543345925233178,0.08689448306591106,-1.5992132602948759
1592284666.8182325,-2.05,9.1,0.73,-0.35333333333333333,-0.6488888888888888,-0.19111111111111112,-0.23234695667174513,0.08072147790473774,-1.5729779883598896
1592284666.8282325,-2.4022372347013454,9.060110341721556,0.779862072848055,-0.35333333333333333,-0.6488888888888888,-0.19111111111111112,-0.20091779007973581,0.06391606382623663,-1.5229926620507936
1592284666.8382325,-2.6698948074665134,9.150315577600459,0.63,-0.35333333333333333,-0.6488888888888888,-0.19111111111111112,-0.18761141986402882,0.048088352232736914,-1.4820370520884554
1592284666.8482325,-2.68,9.12,0.63,-0.35333333333333333,-0.6488888888888888,-0.19111111111111112,-0.18871372537188688,0.039269908169872414,-1.4682582332402296
1592284666.8582325,-2.818429342394563,9.191093343993604,0.7102186687987208,-0.34029155839829434,-0.6570399982232882,-0.18785066737735137,-0.21254503112703763,0.0150525926571099,-1.4769371733688381
1592284666.8682325,-2.69,9.04,0.68,-0.3,-0.6822222222222222,-0.17777777777777778,-0.23561944901923448,0.007635815477475192,-1.48352986419518
1592284666.8782325,-2.9898258706467664,9.104156716417911,0.5579651741293532,-0.3,-0.6822222222222222,-0.17777777777777778,-0.27633864256455803,0.04664576944594671,-1.4534400297075558
1592284666.8882325,-3.05,9.05,0.57,-0.3,-0.6822222222222222,-0.17777777777777778,-0.30325095753401476,0.061086523819801536,-1.447532448372797
1592284666.8982325,-3.039627215596241,8.817728661205907,0.8805764927914081,-0.3,-0.6822222222222222,-0.17777777777777778,-0.33482405352098377,0.09998667395140998,-1.4510323731125512
1592284666.9082325,-3.2013388523047976,8.688752587017873,1.1042494825964253,-0.2897768579492004,-0.6826481864743388,-0.17777777777777778,-0.3529202696702858,0.12001905192399501,-1.478312470845386
1592284666.9182324,-3.46,8.81,1.08,-0.24666666666666667,-0.6844444444444444,-0.17777777777777778,-0.35997415822383044,0.13853550937704992,-1.4977106643676341
1592284666.9282324,-3.4719781346088143,8.658718824735223,1.0536487871540827,-0.24666666666666667,-0.6844444444444444,-0.17777777777777778,-0.35834853339525186,0.1711996862111691,-1.5111379080514622
1592284666.9382324,-3.9320924341633607,8.68395378291832,1.0077474549538785,-0.24666666666666667,-0.6844444444444444,-0.17777777777777778,-0.3525239190102895,0.1861408651844946,-1.5067457441653034
1592284666.9482324,-4.0650923261176555,8.457423806374345,1.126165740128345,-0.24666666666666667,-0.6844444444444444,-0.17777777777777778,-0.3489019225725347,0.17135083006889038,-1.493136576889508
1592284666.9582324,-4.059463792365461,8.27303552667419,1.066250048640025,-0.23662701964192295,-0.6905555339377667,-0.18367061407490998,-0.3267233234918789,0.13910042890248847,-1.4623560997145926
1592284666.9682324,-4.63,8.49,1.01,-0.19555555555555557,-0.7155555555555555,-0.20777777777777778,-0.29779680362153244,0.11017390903214205,-1.4158983556804
1592284666.9782324,-4.46609061648923,8.406902698687794,1.048375835602872,-0.19555555555555557,-0.7155555555555555,-0.20777777777777778,-0.26026563488659743,0.01583095518138023,-1.3533464077888413
1592284666.9882324,-4.5867520167527305,8.523440020940914,1.1389167836660876,-0.19555555555555557,-0.7155555555555555,-0.20777777777777778,-0.2450339289434993,-0.034857887932398704,-1.316778664090061
1592284666.9982324,-4.385447715343972,8.23045710674601,1.3472761423280146,-0.19555555555555557,-0.7155555555555555,-0.20777777777777778,-0.2475209112908956,-0.06867247668633318,-1.3079081570993378
1592284667.0082324,-4.442370001913144,8.16615496460685,1.3389600153051464,-0.18752388240545884,-0.7150288884637459,-0.20580277618349171,-0.23561944901923448,-0.07012841954983998,-1.2876657399136555
1592284667.0182323,-4.46,7.84,1.48,-0.12777777777777777,-0.7111111111111111,-0.19111111111111112,-0.23561944901923448,-0.0643590161672909,-1.2588187230009102
1592284667.0282323,-5.0853924812845825,8.23064717370077,1.1568663881957253,-0.12777777777777777,-0.7111111111111111,-0.19111111111111112,-0.2132799636289268,-0.03641962899549318,-1.1695215836871033
1592284667.0382323,-5.23764452938366,7.952586717630195,1.221501194457716,-0.12777777777777777,-0.7111111111111111,-0.19111111111111112,-0.22215662710094544,-0.04647241418123793,-1.1003963208861487
1592284667.0482323,-5.75,8.26,1.33,-0.12777777777777777,-0.7111111111111111,-0.19111111111111112,-0.2083486794568231,-0.04581489286485115,-1.0602875205865552
1592284667.0582323,-5.751471821919514,8.211800323933717,1.5302969392416628,-0.12471748088468051,-0.7114171408004208,-0.19233522986835003,-0.1931914364634078,-0.04851888836905184,-1.0083424749331718
1592284667.0682323,-4.96,7.56,1.94,-0.08333333333333333,-0.7155555555555555,-0.2088888888888889,-0.17998707911191522,-0.08508480103472357,-0.9992009967667536
1592284667.0782323,-5.3976637457711725,7.723841994343076,1.7094395762852865,-0.08333333333333333,-0.7155555555555555,-0.2088888888888889,-0.1401190924596647,-0.1005648761947148,-1.0045498244969762
1592284667.0882323,-5.59,7.56,2.03,-0.08333333333333333,-0.7155555555555555,-0.2088888888888889,-0.14944381720201447,-0.11999138607461016,-1.0231992739816758
1592284667.0982323,-5.5686278439231405,7.456540139101732,1.5634598608982673,-0.08333333333333333,-0.7155555555555555,-0.2088888888888889,-0.10966379165454408,-0.15371584128030014,-1.0331080500758438
1592284667.1082323,-6.2247926765605195,7.3861212618390635,1.645818107241405,-0.07904740597111393,-0.7152494178868255,-0.20960321011592548,-0.09494653282741003,-0.16812168096283472,-1.0205055101140639
1592284667.1182323,-5.58,7.15,2.0,-0.03666666666666667,-0.7122222222222222,-0.21666666666666667,-0.04145156973486533,-0.20180369476184434,-1.0046551506792358
1592284667.1282322,-6.24519893321722,7.2978691558264845,1.6441762368693191,-0.03666666666666667,-0.7122222222222222,-0.21666666666666667,-0.000790233370436392,-0.22490017974058615,-0.9728413407507521
1592284667.1382322,-6.063988075521696,7.301359721762173,1.651510433918516,-0.03666666666666667,-0.7122222222222222,-0.21666666666666667,-0.005536535303144483,-0.22213401282190953,-0.9372675344394424
1592284667.1482322,-5.931360608943863,7.050978555222133,1.8464678328331992,-0.03666666666666667,-0.7122222222222222,-0.21666666666666667,-0.021558897596361194,-0.21754653140209768,-0.8943770526570363
1592284667.1582322,-6.12537757360338,7.0984373952115885,1.8853906511971028,-0.033764484087064735,-0.7112832807994098,-0.21666666666666667,-0.03935228195171742,-0.20415723661142418,-0.8469093950240892
1592284667.1682322,-6.108627760964813,7.180039748859479,1.8007059939473329,0.0011111111111111111,-0.7,-0.21666666666666667,-0.050255227987837645,-0.16050614901298038,-0.7857318820337844
1592284667.1782322,-6.09828700727039,6.9676502299817,1.6444304861763688,0.0011111111111111111,-0.7,-0.21666666666666667,-0.04298166775268925,-0.1329277575993039,-0.7498693640336817
1592284667.1882322,-6.269250482752044,7.049625241376022,1.5171368631844946,0.0011111111111111111,-0.7,-0.21666666666666667,-0.048162362165062256,-0.08690361515155158,-0.7284466910169574
1592284667.1982322,-6.139901074656608,6.914891110952957,1.7248316845776102,0.0011111111111111111,-0.7,-0.21666666666666667,-0.058487969414298624,-0.061086523819801536,-0.7112151877757371
1592284667.2082322,-7.035417408013664,7.14623283040353,1.7397569568002278,0.0011111111111111111,-0.7,-0.21666666666666667,-0.04709130694999922,-0.061086523819801536,-0.6876078155282599
1592284667.2182322,-6.28,6.88,1.89,0.051111111111111114,-0.7,-0.18777777777777777,-0.028361600344907853,-0.06763150851478027,-0.6392268385429232
1592284667.2282321,-6.866143624788272,6.890142223000993,1.5517160212604404,0.051111111111111114,-0.7,-0.18777777777777777,0.01319907795341902,-0.05681679513053105,-0.5595804224458166
1592284667.2382321,-6.920829787234043,6.815399903288202,1.8982741779497099,0.051111111111111114,-0.7,-0.18777777777777777,0.03171084118313863,-0.09003716223763676,-0.4933690484162104
1592284667.2482321,-6.62,7.0,1.7,0.051111111111111114,-0.7,-0.18777777777777777,0.05781403147231216,-0.11017390903214205,-0.4516039439535327
1592284667.258232,-6.6390195481395775,6.781275196394859,1.9187248036051396,0.051111111111111114,-0.7,-0.18777777777777777,0.0733743629071803,-0.11951010789306295,-0.38832526278506896
1592284667.268232,-6.77,6.9,1.78,0.07111111111111111,-0.7088888888888889,-0.2,0.074176493209759,-0.1341721862470641,-0.3217950808364545
1592284667.278232,-6.674315312876793,7.1107057260267235,1.2983953837446787,0.07111111111111111,-0.7088888888888889,-0.2,0.06855036280121493,-0.07668103682112731,-0.20002036801838363
1592284667.288232,-6.738836407185628,6.543260359281438,1.7009331736526945,0.07111111111111111,-0.7088888888888889,-0.2,0.02970628769944588,-0.0590569253722728,-0.1557858420522403
1592284667.298232,-6.763311334510015,6.861237625661883,1.854035569027703,0.07111111111111111,-0.7088888888888889,-0.2,0.04352622842611669,-0.04717933123023377,-0.14873359687614573
1592284667.308232,-7.149556442329828,7.078500498810529,1.7172404266748522,0.07111111111111111,-0.7088888888888889,-0.2,0.06020379719855795,-0.03137952923528942,-0.11625622610876013
1592284667.318232,-6.35,6.61,1.8,0.09,-0.7033333333333334,-0.21666666666666667,0.074176493209759,-0.011999138607461015,-0.074176493209759
1592284667.328232,-7.122422570136626,6.862422570136626,1.6311856371857831,0.09,-0.7033333333333334,-0.21666666666666667,0.07562153770261199,0.004627584537764721,-0.022131448708950802
1592284667.338232,-7.001007776294085,6.746806221035268,1.684201555258817,0.09,-0.7033333333333334,-0.21666666666666667,0.056649913129585144,-0.007140853116292158,0.024374282955543763
1592284667.348232,-6.899944816712653,6.6240717382735514,1.6520220733149389,0.09,-0.7033333333333334,-0.21666666666666667,0.06849574575278494,-0.01570374957395272,0.06869224148301785
1592284667.358232,-6.975092629089477,6.526379582183681,1.6219629483642097,0.09,-0.7033333333333334,-0.21666666666666667,0.07997204232969189,-0.021441897862406193,0.10967901497197122
1592284667.368232,-7.29,6.91,1.56,0.09,-0.6966666666666667,-0.17777777777777778,0.07963064712224129,-0.0370882466048795,0.1778054175469223
1592284667.378232,-6.989747659449971,6.9523247025551,1.8261902672127952,0.09,-0.6966666666666667,-0.17777777777777778,0.06309401309118781,-0.03585685992503825,0.2560519414673827
1592284667.388232,-6.749004257950951,6.619656271557363,1.5004464901638954,0.09,-0.6966666666666667,-0.17777777777777778,0.049383478603217255,-0.03152160782258295,0.32660834344569745
1592284667.398232,-7.3001267262388305,6.5820814152901885,1.3852035382254717,0.09,-0.6966666666666667,-0.17777777777777778,0.01638319726978674,-0.010553913356283473,0.41698263494119425
1592284667.408232,-7.163837530463038,6.7335138550410685,1.7637846376026718,0.09,-0.6966666666666667,-0.17777777777777778,-0.005917070241301246,-0.000642683351355481,0.5012280899830822
1592284667.418232,-7.0338482808367395,6.85408271219043,1.6853931233469583,0.10222222222222223,-0.7111111111111111,-0.19111111111111112,-0.008643896293182123,0.026237116253005642,0.6513177758457133
1592284667.428232,-7.070726509829805,6.648883598133044,1.739049078308425,0.10222222222222223,-0.7111111111111111,-0.19111111111111112,-0.02100606527687143,0.040135228934866304,0.7623508853258917
1592284667.438232,-7.092845129475665,6.911168258808395,1.4199273411630178,0.10222222222222223,-0.7111111111111111,-0.19111111111111112,-0.0091327356098078,0.03366453944157798,0.8690025196724505
1592284667.448232,-6.76918774966711,6.944980026631159,1.4872436750998668,0.10222222222222223,-0.7111111111111111,-0.19111111111111112,-0.010195128178884984,0.04428831077110444,0.9917699844055661
1592284667.458232,-6.84365379494008,6.580096404793609,1.464903861517976,0.10222222222222223,-0.7111111111111111,-0.19111111111111112,0.00442624561933036,0.014233264630328459,1.0729998388400956
1592284667.468232,-6.744687382297552,6.733416195856874,1.6118493408662902,0.08333333333333333,-0.7244444444444444,-0.19111111111111112,0.001555923229120181,-0.03639060793494392,1.1745613920964872
1592284667.478232,-6.10152378456921,7.1545468187989805,1.5683440127676807,0.08333333333333333,-0.7244444444444444,-0.19111111111111112,-0.03299001138711656,-0.07534909537627482,1.2245267615128488
1592284667.488232,-6.00354813104344,6.896347957858277,0.9608002597777456,0.08333333333333333,-0.7244444444444444,-0.19111111111111112,-0.08462951417904746,-0.08239660922832752,1.288772016898485
1592284667.498232,-6.476738920139013,7.205124502884167,1.5244337358030884,0.08333333333333333,-0.7244444444444444,-0.19111111111111112,-0.12273204418870726,-0.06574511500043982,1.3607286049544933
1592284667.5082319,-5.545039590125757,7.332857475547275,1.5469748486259898,0.08333333333333333,-0.7244444444444444,-0.19111111111111112,-0.13666555004077688,-0.039517339278896994,1.4074468304584915
1592284667.5182319,-5.89,7.46,1.53,0.03666666666666667,-0.7122222222222222,-0.17888888888888888,-0.1854412330243975,0.008726646259971648,1.4377149713303288
1592284667.5282319,-5.493395956593669,7.588832122928526,1.8188859602389031,0.03666666666666667,-0.7122222222222222,-0.17888888888888888,-0.22852245739461682,0.028462629817318636,1.4529060662268907
1592284667.5382318,-5.440960254818839,7.979471625641145,1.4993877790008665,0.03666666666666667,-0.7122222222222222,-0.17888888888888888,-0.2509054891495679,0.029182667859905892,1.4940492520257203
1592284667.5482318,-4.66200065185507,7.087197566407735,1.6867983051768156,0.03666666666666667,-0.7122222222222222,-0.17888888888888888,-0.2735368550102552,0.019154926915127757,1.5457069817762856
1592284667.5582318,-4.54808083002879,7.512498234559183,1.982989841925145,0.03666666666666667,-0.7122222222222222,-0.17888888888888888,-0.2511687503010238,0.029924755108461362,1.587129397904492
1592284667.5682318,-4.78,8.23,2.32,0.01,-0.7122222222222222,-0.22666666666666666,-0.22907446432425577,0.05126904677733343,1.6318828506146983
1592284667.5782318,-4.790031205594717,8.550129280320972,2.409705775821237,0.01,-0.7122222222222222,-0.22666666666666666,-0.1363334237980747,0.06763588508920504,1.6624207633780799
1592284667.5882318,-4.724138581192553,8.77135423049729,1.858689135045958,0.01,-0.7122222222222222,-0.22666666666666666,-0.0874189166779678,0.0804130219130245,1.6349827844844096
1592284667.5982318,-3.8810472084578094,8.350016278778554,2.425138369617717,0.01,-0.7122222222222222,-0.22666666666666666,-0.06915796131456534,0.09545213281662719,1.523594074202256
1592284667.6082318,-3.6634577198976763,8.274985420654371,1.7873760755621544,0.01,-0.7122222222222222,-0.22666666666666666,-0.0724318001017247,0.07499064039688119,1.382000546657614
1592284667.6182318,-4.01,8.38,1.62,-0.04777777777777778,-0.7177777777777777,-0.21333333333333335,-0.053450708342326333,0.0818123086872342,1.1595531217937327
1592284667.6282318,-3.7069860493637896,8.787174996167408,1.3264552353211714,-0.04777777777777778,-0.7177777777777777,-0.21333333333333335,-0.030726293381837355,0.09420744412022819,0.9922187934483138
1592284667.6382318,-3.470895864520958,8.988670471556887,1.9673409431137723,-0.04777777777777778,-0.7177777777777777,-0.21333333333333335,-0.04036073895236887,0.12932335768740613,0.832855579203739
1592284667.6482317,-3.18,8.840739926475889,1.6906582930872918,-0.04777777777777778,-0.7177777777777777,-0.21333333333333335,-0.039691285100846144,0.16026250674799467,0.7320519147029664
1592284667.6582317,-3.18,8.946557341598789,2.091252793195416,-0.04777777777777778,-0.7177777777777777,-0.21333333333333335,-0.03309534831568809,0.18087480920161356,0.6578476258699383
1592284667.6682317,-3.16,8.97,2.12,-0.04777777777777778,-0.7177777777777777,-0.21333333333333335,0.0272707695624114,0.20507618710933373,0.5399612373357456
1592284667.6782317,-3.421573382322923,9.166180036742192,1.9892133088385384,-0.04777777777777778,-0.7177777777777777,-0.21333333333333335,0.09758479997330267,0.22036184589431007,0.4360187575979064
1592284667.6882317,-3.4787280598003503,9.57171050764063,2.084052609168756,-0.04777777777777778,-0.7177777777777777,-0.21333333333333335,0.16332224818514887,0.21679783141214018,0.26932324049181
1592284667.6982317,-3.251181343027146,9.15822798545928,1.565782467943501,-0.04777777777777778,-0.7177777777777777,-0.21333333333333335,0.19712724580797877,0.16651051612034815,0.057060098982053276
1592284667.7082317,-3.266352522019062,9.135471216971407,1.2547732986092273,-0.04777777777777778,-0.7177777777777777,-0.21333333333333335,0.22112356993213944,0.16154575940500454,-0.09271006193081166
1592284667.7182317,-3.2861904539728455,9.286095273643447,1.527809452713106,-0.09333333333333334,-0.7155555555555555,-0.21333333333333335,0.19452109001690895,0.13116979323063935,-0.32746747215832156
1592284667.7282317,-3.2422999901835676,9.358275007362325,1.3708000392657307,-0.09333333333333334,-0.7155555555555555,-0.21333333333333335,0.1712849810954782,0.1089958075038191,-0.4806200213518045
1592284667.7382317,-3.28,9.33,1.22,-0.09333333333333334,-0.7155555555555555,-0.21333333333333335,0.1538071403320003,0.12544553998709243,-0.5628686837681712
1592284667.7482316,-3.270571747093486,8.95286988373945,1.1540022296544035,-0.09333333333333334,-0.7155555555555555,-0.21333333333333335,0.13015249479215038,0.13264477993400325,-0.6338326203877209
1592284667.7582316,-3.5227146533572484,9.080049325430865,1.0236426733213757,-0.09333333333333334,-0.7155555555555555,-0.21333333333333335,0.11579605156567516,0.1304969593107863,-0.6786248808363342
1592284667.7682316,-3.84,9.29,1.32,-0.0811111111111111,-0.7111111111111111,-0.22666666666666666,0.08072147790473774,0.11017390903214205,-0.7613998861825263
1592284667.7782316,-3.284139146642895,8.752981887434661,1.4895846671258965,-0.0811111111111111,-0.7111111111111111,-0.22666666666666666,0.06736122081126854,0.09475822777044683,-0.8497831254162455
1592284667.7882316,-3.8010999623139248,8.756700113058224,1.0343998492557,-0.0811111111111111,-0.7111111111111111,-0.22666666666666666,0.04219338399791973,0.0826031712818268,-0.9550111992239512
1592284667.7982316,-3.830584753916816,8.70694624475791,1.1186001125574134,-0.0811111111111111,-0.7111111111111111,-0.22666666666666666,0.017345047125590672,0.0768716767873677,-1.0807993891075194
1592284667.8082316,-4.074249042354265,8.866850934044987,1.3165773469128408,-0.0811111111111111,-0.7111111111111111,-0.22666666666666666,0.014853204877878189,0.06358185146623448,-1.1763200086031642
1592284667.8182316,-3.9213905346562923,8.598481511885216,1.4301176029695197,-0.07078788635876936,-0.712932856655642,-0.2048057201322959,0.012988470501743885,0.07549597875653563,-1.2533656981516261
1592284667.8282316,-4.052661938534279,8.600551615445232,1.2520173364854215,-0.06222222222222222,-0.7144444444444444,-0.18666666666666668,-0.0029222918267730116,0.09759436936531019,-1.3619875901002545
1592284667.8382316,-4.1209896454645225,8.386746671756454,1.0131185284153266,-0.06222222222222222,-0.7144444444444444,-0.18666666666666668,-0.049905104904711534,0.13006726982699396,-1.491559835138631
1592284667.8482316,-4.63921671204114,8.539786117190697,1.3428824356305273,-0.06222222222222222,-0.7144444444444444,-0.18666666666666668,-0.07223941889169642,0.16549185398802693,-1.560004518664883
1592284667.8582315,-4.094395807754586,8.009891813021584,1.1562999341625297,-0.06222222222222222,-0.7144444444444444,-0.18666666666666668,-0.10724656789685133,0.18584484759567513,-1.6202493797435216
1592284667.8682315,-5.05,8.05,1.14,0.0033333333333333335,-0.7533333333333333,-0.21333333333333335,-0.16471544815696484,0.2399827721492203,-1.660244450959606
1592284667.8782315,-5.009806241076892,7.648062410768917,1.4776275749541097,0.0033333333333333335,-0.7533333333333333,-0.21333333333333335,-0.19540666080526253,0.25313614899849074,-1.6619982345395088
1592284667.8882315,-5.6819885117742395,7.686391219372677,1.262356754695395,0.0033333333333333335,-0.7533333333333333,-0.21333333333333335,-0.22687673513070952,0.26362756153596945,-1.635026801933761
1592284667.8982315,-5.952138380682332,7.200160378551175,1.5819780021311565,0.0033333333333333335,-0.7533333333333333,-0.21333333333333335,-0.22462366826403304,0.21557045639784386,-1.617585419868595
1592284667.9082315,-6.25514547851686,7.222885910888765,1.862259567628095,0.0033333333333333335,-0.7533333333333333,-0.21333333333333335,-0.21222881315280237,0.15690147553801853,-1.601058946386954
1592284667.9182315,-6.12,7.03,1.75,0.051111111111111114,-0.7266666666666667,-0.2222222222222222,-0.18216874067690814,0.07635815477475191,-1.5511613727099605
1592284667.9282315,-6.527770537677394,6.976143513891665,1.6576745952428542,0.051111111111111114,-0.7266666666666667,-0.2222222222222222,-0.14943753778435787,0.018449103503316834,-1.5016449375648202
1592284667.9382315,-6.738879606879607,6.9797510237510245,1.4324897624897623,0.051111111111111114,-0.7266666666666667,-0.2222222222222222,-0.08899553212997335,-0.040921967369702425,-1.3715364744327905
1592284667.9482315,-7.0291569871871635,6.891028619327027,1.6153570430686943,0.051111111111111114,-0.7266666666666667,-0.2222222222222222,-0.07056429456900984,-0.08674283944120044,-1.2706044239962768
1592284667.9582314,-6.717772984330644,6.661813934774348,2.028807474797148,0.051111111111111114,-0.7266666666666667,-0.2222222222222222,-0.045334519633611625,-0.16566483205278446,-1.1658665393308472
1592284667.9682314,-6.725170529655416,6.97470667724215,1.7840859551717048,0.12575867662851006,-0.7266666666666667,-0.20835910291184814,0.024548899856314366,-0.2638292540168645,-1.091019781643225
1592284667.9782314,-6.6521210230817225,7.184697442295696,1.5850374298190892,0.1288888888888889,-0.7266666666666667,-0.20777777777777778,0.08249008002807416,-0.29167746749452106,-1.0100677944995584
1592284667.9882314,-6.708633079003674,6.82354325622704,1.7339118323846434,0.1288888888888889,-0.7266666666666667,-0.20777777777777778,0.10398108508027518,-0.28834522674344054,-0.9495652677288249
1592284667.9982314,-7.02004805486465,7.031233005723117,1.8241233005723119,0.1288888888888889,-0.7266666666666667,-0.20777777777777778,0.10568132781494002,-0.3129444184618275,-0.8836296999068962
1592284668.0082314,-6.728736860319246,6.4617655837695205,1.8687799022364493,0.1288888888888889,-0.7266666666666667,-0.20777777777777778,0.10725789378576311,-0.31827780392850313,-0.8175599290242775
1592284668.0182314,-6.82,6.59,2.19,0.13666666666666666,-0.7233333333333334,-0.19333333333333333,0.11562806294462433,-0.3196134192714616,-0.6948592084502424
1592284668.0282314,-7.1775409374371355,6.793148259907463,1.9868517400925367,0.13666666666666666,-0.7233333333333334,-0.19333333333333333,0.11030965393700069,-0.32936383578543826,-0.6000142478142876
1592284668.0382314,-7.278815603552685,6.698882973354865,2.024670215987081,0.13666666666666666,-0.7233333333333334,-0.19333333333333333,0.14294873350140053,-0.316219078219034,-0.4662810291945978
1592284668.0482314,-6.75168854685378,6.5201856043458575,2.171511996378452,0.13666666666666666,-0.7233333333333334,-0.19333333333333333,0.16463347535936668,-0.29466801057585684,-0.36456216582916073
1592284668.0582314,-7.161678699386061,6.588362349891075,2.058894550168338,0.13666666666666666,-0.7233333333333334,-0.19333333333333333,0.20466085323488986,-0.2817771082029181,-0.3184745701740883
1592284668.0682313,-7.0005730031440985,6.344788921468188,1.9090892712050023,0.16418777451984784,-0.7345456365327775,-0.19333333333333333,0.2753860826911516,-0.2720675401516573,-0.2411176878017198
1592284668.0782313,-7.254535882067066,6.441943949457314,2.0151692855985743,0.16666666666666666,-0.7355555555555555,-0.19333333333333333,0.28995052654322245,-0.2487078280192612,-0.17428235043034498
1592284668.0882313,-7.599420922879039,6.49089474248352,2.03357896993408,0.16666666666666666,-0.7355555555555555,-0.19333333333333333,0.3133956721189569,-0.20899745455777996,-0.045757542256692665
1592284668.0982313,-6.99410362175437,6.628065377554183,1.6894387353663478,0.16666666666666666,-0.7355555555555555,-0.19333333333333333,0.31525009614147576,-0.2071710576507175,0.04633384440637739
1592284668.1082313,-7.398478812415655,6.584426810616284,1.7086265407107513,0.16666666666666666,-0.7355555555555555,-0.19333333333333333,0.3175233816037731,-0.2125621814196871,0.1315001758812016
1592284668.1182313,-7.199286369193154,6.340561583129585,1.7204591992665037,0.15500568799239337,-0.7355555555555555,-0.19969386715566423,0.29666705031646373,-0.18991590624037166,0.25635065136839563
1592284668.1282313,-7.057632727272727,6.221229090909091,1.72,0.15444444444444444,-0.7355555555555555,-0.2,0.2970982752549956,-0.1761070931850101,0.3415393163325099
1592284668.1382313,-7.6764470719228015,6.398410699610296,1.377383950584555,0.15444444444444444,-0.7355555555555555,-0.2,0.27000616806996547,-0.1835857709564105,0.46202272118582743
1592284668.1482313,-7.606173431734317,6.326849938499385,1.2450528905289053,0.15444444444444444,-0.7355555555555555,-0.2,0.26616271092913524,-0.19735503726806175,0.5356370928759306
1592284668.1582313,-7.172401072173137,6.195764916112379,1.3377406929415268,0.15444444444444444,-0.7355555555555555,-0.2,0.23603277999616615,-0.19736853035903928,0.6481303481836129
1592284668.1682312,-7.819052214798317,6.371492911938346,1.4961374482978047,0.16008425542946703,-0.733675618560548,-0.1896603465274586,0.21833417536729902,-0.22260702976550922,0.7787497913751504
1592284668.1782312,-7.48619708029197,6.373255474452555,1.6447299270072993,0.16111111111111112,-0.7333333333333333,-0.18777777777777777,0.21014974458821506,-0.22998773651952834,0.8573428327507565
1592284668.1882312,-7.145869210096432,6.546252041945513,1.533747958054487,0.16111111111111112,-0.7333333333333333,-0.18777777777777777,0.1892530476997982,-0.2247407155441458,0.9729862815404345
1592284668.1982312,-7.009953521630318,6.632018591347872,1.482660469550709,0.16111111111111112,-0.7333333333333333,-0.18777777777777777,0.1638346715251486,-0.2340232818742401,1.0513660301868142
1592284668.2082312,-6.780518849242069,6.54180571058222,1.7287588665250424,0.16111111111111112,-0.7333333333333333,-0.18777777777777777,0.1453562555282598,-0.20277135392680185,1.0842292001290048
1592284668.2182312,-6.509988282165456,6.9522560737442385,1.6999882821654557,0.1374056714319194,-0.7461737798262288,-0.16110915813868706,0.11514161598564604,-0.14859269480098525,1.1088910152748424
1592284668.2282312,-6.43477366255144,6.959794238683128,1.3837860082304527,0.13444444444444445,-0.7477777777777778,-0.15777777777777777,0.11509387009229068,-0.12153560742925533,1.1197759548649215
1592284668.2382312,-6.544973511997507,6.8275132440012465,1.0982486755998755,0.13444444444444445,-0.7477777777777778,-0.15777777777777777,0.11151118802819723,-0.07227187342966312,1.1533042148835948
1592284668.2482312,-6.384542905349207,7.0309514983008965,1.0490111926997934,0.13444444444444445,-0.7477777777777778,-0.15777777777777777,0.07680181269263474,-0.027606565336191942,1.2001774114356205
1592284668.2582312,-6.292179840934913,7.114971234828401,1.2134604771952606,0.13444444444444445,-0.7477777777777778,-0.15777777777777777,0.05058079784722398,-0.002504982164288287,1.2524008828774706
1592284668.2682312,-5.874055199430199,7.321157763532764,1.3808878205128206,0.09856295504906616,-0.752153569167458,-0.17002999366888255,0.00404333833100351,0.042003200686127784,1.3495343552415204
1592284668.2782311,-5.8815941103706955,7.37,1.3958668848010853,0.08888888888888889,-0.7533333333333333,-0.17333333333333334,-0.03475959427525268,0.07336084028157573,1.4019048958250868
1592284668.2882311,-5.628591344757479,6.990238164391519,1.5007638687191402,0.08888888888888889,-0.7533333333333333,-0.17333333333333334,-0.11950981105590709,0.14269321264707632,1.4891858360595793
1592284668.2982311,-6.000162462183472,7.560571714428643,1.4720493580123395,0.08888888888888889,-0.7533333333333333,-0.17333333333333334,-0.14534868684713395,0.16626224043784063,1.5089229465248515
1592284668.308231,-5.920225166508937,7.631809545917183,1.466199132189347,0.08888888888888889,-0.7533333333333333,-0.17333333333333334,-0.17472558286544498,0.1738123142387837,1.479018273938141
1592284668.318231,-5.365293956474088,7.832566932832315,2.100674025364021,0.056546631177913476,-0.7587237096184959,-0.15536541238279145,-0.19354138170837218,0.18377057282173892,1.3739777560353372
1592284668.328231,-4.8430506064077745,7.807478765851538,1.893855726306641,0.04888888888888889,-0.76,-0.1511111111111111,-0.20127446105426963,0.1897051820863378,1.2892879930310044
1592284668.338231,-4.162756831355231,7.631378415677616,1.3156306927960255,0.04888888888888889,-0.76,-0.1511111111111111,-0.21635236052912415,0.16947548082021519,1.0764518684253317
1592284668.348231,-4.681472748670915,7.971257659997565,1.3801075443366746,0.04888888888888889,-0.76,-0.1511111111111111,-0.2248131368163174,0.16666558320142463,0.9603237540341907
1592284668.358231,-4.577102526002972,8.062419811788013,1.4766841010401188,0.04888888888888889,-0.76,-0.1511111111111111,-0.22859218636997755,0.20978410254891647,0.7787753996041792
1592284668.368231,-4.767530008200999,8.108825766047865,1.5590080518899576,0.006093135183942611,-0.76,-0.15595591341733145,-0.25800575598590014,0.2571247066097595,0.5775485839564443
1592284668.378231,-4.766201239234636,8.194668173492849,1.6615217645454192,-0.01,-0.76,-0.15777777777777777,-0.27264529199258347,0.267513145919913,0.45375686924133585
1592284668.388231,-4.5538717283659516,8.049264029709974,1.6667840721527942,-0.01,-0.76,-0.15777777777777777,-0.28181482088314436,0.3025615362751999,0.13029241932341953
1592284668.398231,-4.41962924182571,7.998962924182571,1.7596668411784304,-0.01,-0.76,-0.15777777777777777,-0.2700735243689474,0.322378888944073,-0.11737362063198313
1592284668.408231,-4.538967806410165,8.181553822542652,1.89287458062674,-0.01,-0.76,-0.15777777777777777,-0.24843338192379327,0.337731379616331,-0.28541024060416986
1592284668.418231,-4.363196454339311,8.07679736136879,1.982800247371676,-0.019288989669942053,-0.7659111752445086,-0.16960012826679494,-0.2148934392846028,0.36595211778973413,-0.4996891860066744
1592284668.428231,-4.3509935236973805,8.070772740653519,1.954613629673241,-0.022222222222222223,-0.7677777777777778,-0.17333333333333334,-0.18573979055163511,0.36425318842464194,-0.6347962416275582
1592284668.438231,-4.307507617621236,8.30929582192842,1.6034904198729536,-0.022222222222222223,-0.7677777777777778,-0.17333333333333334,-0.11946366013570422,0.36232215134309287,-0.8067859506676655
1592284668.448231,-4.086379363681793,8.468133403136378,1.346574256954525,-0.022222222222222223,-0.7677777777777778,-0.17333333333333334,-0.10692267624277241,0.37586561302344806,-0.8965107896460532
1592284668.458231,-4.132756007793895,8.420078660604748,1.3856300064949123,-0.022222222222222223,-0.7677777777777778,-0.17333333333333334,-0.10799224746714915,0.3970452437469041,-0.9542837150729653
1592284668.468231,-4.29712893580894,8.33989332250563,1.3226577092023182,-0.006583695282156025,-0.7625649354644224,-0.15843949815231792,-0.14966491468186713,0.4657159305049581,-1.050099682112711
1592284668.478231,-4.523622817747136,8.317480262426331,1.3726776381630157,0.0011111111111111111,-0.76,-0.1511111111111111,-0.17016960206944715,0.49305551368839806,-1.0831949670189807
1592284668.488231,-4.78,7.899948879907931,1.7265163396943501,0.0011111111111111111,-0.76,-0.1511111111111111,-0.16021689155577692,0.4945866999212704,-1.1199434366079168
1592284668.498231,-5.014616904291529,7.803317782591103,1.7220186608906767,0.0011111111111111111,-0.76,-0.1511111111111111,-0.13279538659211348,0.4624464846499403,-1.2027357716688072
1592284668.508231,-5.204360266652369,7.7531029614140445,1.8437940771719121,0.0011111111111111111,-0.76,-0.1511111111111111,-0.09978936686411366,0.4385300193464108,-1.212205763027731
1592284668.518231,-5.3913912764363925,7.367933592496167,2.0117493491208673,0.013702184655499683,-0.76,-0.1643648727367833,-0.05751050203955646,0.3818538373460099,-1.1869020106974635
1592284668.528231,-5.5856917157825805,7.2879543222003935,1.9664243614931238,0.022222222222222223,-0.76,-0.17333333333333334,-0.02916597196317309,0.3441372883319775,-1.1632159683296375
1592284668.538231,-5.8988133738601825,7.533136778115502,1.727980547112462,0.022222222222222223,-0.76,-0.17333333333333334,0.05881931990165236,0.2643724222078076,-1.0182894081581133
1592284668.548231,-5.796897315250485,7.367078011941007,1.6342022853979676,0.022222222222222223,-0.76,-0.17333333333333334,0.07375919900151681,0.21112839802352,-0.9697699587067693
1592284668.5582309,-5.927207786935163,7.724060939466526,1.3056010718200641,0.022222222222222223,-0.76,-0.17333333333333334,0.11688689610515661,0.10424535378223532,-0.9022222163829442
1592284668.5682309,-5.761890558591378,7.542515938069217,1.532046903460838,0.05746348579909599,-0.7486961984753424,-0.17333333333333334,0.14180800172453928,0.04850281051932234,-0.8439417334896268
1592284668.5782309,-5.836992847268137,7.426266754823586,1.5073480795816554,0.0811111111111111,-0.7411111111111112,-0.17333333333333334,0.14555401573526056,0.026205772002749806,-0.8148101399601594
1592284668.5882308,-5.903656070907343,7.662023635781155,1.5597579468194924,0.0811111111111111,-0.7411111111111112,-0.17333333333333334,0.15455196345768452,0.010535896262122445,-0.7450408025918802
1592284668.5982308,-5.797282115026055,7.441691447148252,1.5508715398957786,0.0811111111111111,-0.7411111111111112,-0.17333333333333334,0.13610209155626019,0.02459685998116453,-0.6931138114026743
1592284668.6082308,-5.878296549974632,7.279934043632673,1.4826154236428208,0.0811111111111111,-0.7411111111111112,-0.17333333333333334,0.13049333037748032,0.0356833384661848,-0.6710539435313101
1592284668.6182308,-6.411646053438142,7.48427973893917,1.3961522374066997,0.08857109660773166,-0.7445541813403206,-0.15783951730189066,0.11241618323319406,0.08920795495265431,-0.5872036541464066
1592284668.6282308,-6.498582200895197,7.593676761159725,1.416644622767047,0.09555555555555556,-0.7477777777777778,-0.14333333333333334,0.09882225738457248,0.09963161608443678,-0.559546706174087
1592284668.6382308,-6.25100436183254,7.256597200444736,1.3281266927046214,0.09555555555555556,-0.7477777777777778,-0.14333333333333334,0.09800497437392325,0.09050735919856667,-0.5286096871826766
1592284668.6482308,-6.160552383671139,7.057063945189837,1.2409534684556094,0.09555555555555556,-0.7477777777777778,-0.14333333333333334,0.11214755604883134,0.07279139034919828,-0.5276158230131445
1592284668.6582308,-6.3689428827215755,7.000469829901522,1.2741190689346464,0.09555555555555556,-0.7477777777777778,-0.14333333333333334,0.11353608974047696,0.05472091584651389,-0.5295663133445845
1592284668.6682308,-6.508410671486385,6.970757926996975,1.3446210365015128,0.10870413299630226,-0.7477777777777778,-0.13556371939107392,0.10111655473249641,0.01697326011398831,-0.5393664686127602
1592284668.6782308,-6.560900958981384,6.969099041018616,1.3412112176645983,0.12,-0.7477777777777778,-0.1288888888888889,0.09681969293961512,-0.003767141780409632,-0.5429050475738181
1592284668.6882308,-6.662962899592209,6.970370148572732,1.252407676733111,0.12,-0.7477777777777778,-0.1288888888888889,0.08488282298496883,-0.01088811935210289,-0.5077817759126693
1592284668.6982307,-6.845753605740859,6.864246394259141,1.2883773575997923,0.12,-0.7477777777777778,-0.1288888888888889,0.06840852878465287,-0.018762531505285035,-0.48619671848079554
1592284668.7082307,-6.75944957735404,6.808010615293886,1.2264655002948694,0.12,-0.7477777777777778,-0.1288888888888889,0.06326818538479445,-0.0344183165728639,-0.4738003239667018
1592284668.7182307,-6.8274395107684125,6.706728833516921,1.3049067497246174,0.1295514110988719,-0.7477777777777778,-0.12570508518926493,0.0611843907362089,-0.05462208666313605,-0.4642218981395475
1592284668.7282307,-7.0753822861468585,6.57390234670704,1.5017562452687359,0.14,-0.7477777777777778,-0.12222222222222222,0.06325043151513231,-0.07379333992960885,-0.46199078346725847
1592284668.7382307,-6.7745216237141905,6.6454346864284926,1.0599126202853666,0.14,-0.7477777777777778,-0.12222222222222222,0.09927036703130188,-0.12257144640564702,-0.44257373279490375
1592284668.7482307,-7.060111412655335,6.411724039422939,1.248698757320383,0.14,-0.7477777777777778,-0.12222222222222222,0.10023630193206721,-0.1377989921496737,-0.43664658320116706
1592284668.7582307,-7.029145115328782,6.440512930802732,1.372292058712834,0.14,-0.7477777777777778,-0.12222222222222222,0.09132380883888645,-0.1590112694245577,-0.44278152229338813
1592284668.7682307,-7.068182641054008,6.5539183345066885,1.3560504877803479,0.14259143786248282,-0.7477777777777778,-0.1196307843597394,0.08962936246830831,-0.17519973295323096,-0.4282792764142145
1592284668.7782307,-7.684172541461683,6.552209514632043,1.5279137292691587,0.14666666666666667,-0.7477777777777778,-0.11555555555555555,0.10540248561980674,-0.19486405360863474,-0.35113996137090997
1592284668.7882307,-7.6458526228143215,6.51124354704413,1.5064929225645296,0.14666666666666667,-0.7477777777777778,-0.11555555555555555,0.11613083511752269,-0.21649376122884095,-0.3023526343155068
1592284668.7982306,-7.592547076313181,6.293819470915606,1.4179995425783336,0.14666666666666667,-0.7477777777777778,-0.11555555555555555,0.1340333895270834,-0.28514326633850046,-0.1968948314982017
1592284668.8082306,-7.540926279082439,6.7562344030948625,1.328868304909279,0.14666666666666667,-0.7477777777777778,-0.11555555555555555,0.14180800172453928,-0.3137788148692087,-0.14743612510797274
1592284668.8182306,-6.944895351061795,6.81275951788789,1.3961982016453032,0.15002895223518908,-0.7386515740917884,-0.11219326998703313,0.1257749804832181,-0.33420333837753063,-0.1108840446714531
1592284668.8282306,-6.816286341611145,6.589903089036947,1.4477180496668685,0.15444444444444444,-0.7266666666666667,-0.10777777777777778,0.10053374980387897,-0.3502811422647377,-0.10265198329187632
1592284668.8382306,-6.713356801130804,6.736643198869197,1.2389045340872022,0.15444444444444444,-0.7266666666666667,-0.10777777777777778,0.021855874646232953,-0.35163758152305585,-0.10496642852619419
1592284668.8482306,-6.806186089910759,6.471897265353973,1.442144412278393,0.15444444444444444,-0.7266666666666667,-0.10777777777777778,-0.09385082963435563,-0.31344719925209047,-0.0922548922900381
1592284668.8582306,-7.135029875277966,6.280577008604853,1.4203103548293532,0.15444444444444444,-0.7266666666666667,-0.10777777777777778,-0.15524653494860202,-0.27897834317982656,-0.08916250220539808
1592284668.8682306,-7.348548111766644,6.178384894133149,1.4545841693869606,0.15444444444444444,-0.7328638788229697,-0.09586006209257984,-0.18000132253742415,-0.23667823209433586,-0.060748405806000265
1592284668.8782306,-7.49560048931424,5.73598690364827,1.8254875152910701,0.15444444444444444,-0.7411111111111112,-0.08,-0.18846144573347975,-0.1968417765719666,-0.0026220127695554193
1592284668.8882306,-7.74495808554847,5.8859224761768285,1.7637106828114923,0.15444444444444444,-0.7411111111111112,-0.08,-0.15817960777677814,-0.19032367187103744,0.043250186113570704
1592284668.8982306,-7.517149244198425,5.864592292952949,1.940521609538003,0.15444444444444444,-0.7411111111111112,-0.08,-0.12286233564523422,-0.19561937862237275,0.06626175761949304
1592284668.9082305,-7.471511097119471,5.675002361089249,2.0849976389107505,0.15444444444444444,-0.7411111111111112,-0.08,-0.0815927002233883,-0.21478514769429552,0.07412223498100584
1592284668.9182305,-7.58953251968751,5.86168826279296,1.933428607285163,0.157370850284288,-0.7376969709646269,-0.07365945401367233,-0.026927944853464423,-0.2366026101866419,0.08886162251379351
1592284668.9282305,-7.41,6.03,1.81,0.16111111111111112,-0.7333333333333333,-0.06555555555555556,0.0,-0.2476185876266955,0.09926560120717749
1592284668.9382305,-7.354080006685796,6.09,1.6813600022285986,0.16111111111111112,-0.7333333333333333,-0.06555555555555556,0.05594414871413915,-0.29059890670010813,0.12114171616546462
1592284668.9482305,-7.112625880449267,6.126510803350467,1.8129856748524653,0.16111111111111112,-0.7333333333333333,-0.06555555555555556,0.05051566126831056,-0.2879361595413885,0.16138803010188546
1592284668.9582305,-6.99418324291742,6.199490054249548,1.9197954591119148,0.16111111111111112,-0.7333333333333333,-0.06555555555555556,0.02759352572281009,-0.24377821451620668,0.21211111416541203
1592284668.9682305,-7.101363532893239,6.198172376508081,1.9017613248349647,0.15535248627867568,-0.7364341313200293,-0.06555555555555556,0.011372121971983808,-0.1639758534641204,0.2737117416675978
1592284668.9782305,-7.435259901887339,6.130057755974964,2.095490925787197,0.14666666666666667,-0.7411111111111112,-0.06555555555555556,0.003846258636651492,-0.07126356036719345,0.33720531618120614
1592284668.9882305,-7.48,6.14,2.18,0.14666666666666667,-0.7411111111111112,-0.06555555555555556,0.008726646259971648,-0.039269908169872414,0.3610649890063269
1592284668.9982305,-7.745713441495648,6.071205544214033,1.8347292360588805,0.14666666666666667,-0.7411111111111112,-0.06555555555555556,0.06773951330322665,-0.01184348981846829,0.458556803487137
1592284669.0082304,-7.609482068539796,5.997864553256735,1.9721354467432644,0.14666666666666667,-0.7411111111111112,-0.06555555555555556,0.10978683233718423,-0.05476752935682848,0.5023540864005717
1592284669.0182304,-7.388576792716156,6.292122349970094,1.6619475642985313,0.13117908331671874,-0.7309335563382882,-0.057148010308440966,0.1677182957184174,-0.11857371202881302,0.5392476337730752
1592284669.0282304,-7.193585687070323,6.250965377288163,1.679448355835335,0.10777777777777778,-0.7155555555555555,-0.044444444444444446,0.1859376771339334,-0.15708699644233015,0.5601227230520079
1592284669.0382304,-7.332060648518815,6.3517529023218575,1.467627101681345,0.10777777777777778,-0.7155555555555555,-0.044444444444444446,0.22143864884678055,-0.2598653793196342,0.621031569300278
1592284669.0482304,-7.366703168796618,6.471187942420067,1.4271516461589624,0.10777777777777778,-0.7155555555555555,-0.044444444444444446,0.20841478020569829,-0.30886643769600586,0.6761339623588424
1592284669.0582304,-7.520480963511747,6.666701398518284,1.6060480963511747,0.10777777777777778,-0.7155555555555555,-0.044444444444444446,0.17821770413085386,-0.34517864480506183,0.7299083219129598
1592284669.0682304,-7.086158565642125,6.68046342625685,1.7257466642840125,0.10777777777777778,-0.7170660259974055,-0.044444444444444446,0.1378659557793471,-0.37168795114500763,0.7764928958710313
1592284669.0782304,-6.36,6.39,1.97,0.10777777777777778,-0.72,-0.044444444444444446,0.10690141668465267,-0.37960911230876665,0.7952156404399163
1592284669.0882304,-6.784030093093743,6.594338872050227,1.8775692790647327,0.10777777777777778,-0.72,-0.044444444444444446,0.10831440151373345,-0.32255684984333693,0.8415340595186949
1592284669.0982304,-6.673031223308342,6.875586979216096,1.9125111511815507,0.10777777777777778,-0.72,-0.044444444444444446,0.09419396791169476,-0.26686128985295476,0.876164042618663
1592284669.1082304,-6.594723791461544,7.018042732628521,1.9324255508030022,0.10777777777777778,-0.72,-0.044444444444444446,0.09186188768741774,-0.23487677117331118,0.9109736417458484
1592284669.1182303,-6.484363266438546,6.961869971330806,1.8787533524461297,0.09670228908275703,-0.7203819134032766,-0.03527852276580659,0.08770939928293862,-0.22096171512539126,0.9487828511306481
1592284669.1282303,-6.76,7.08,1.8,0.07555555555555556,-0.7211111111111111,-0.017777777777777778,0.09272061651219875,-0.21380283336930533,0.9795660426818175
1592284669.1382303,-6.241287984035969,7.275869054535351,1.9160327363661622,0.07555555555555556,-0.7211111111111111,-0.017777777777777778,0.1073431054730388,-0.1989461088258034,1.0205982422757447
1592284669.1482303,-5.811194680775005,7.184342603846429,1.8314349038392792,0.07555555555555556,-0.7211111111111111,-0.017777777777777778,0.10273805710126876,-0.16810102441341396,1.0225952499300253
1592284669.1582303,-6.046048369424468,7.222638603900632,1.7661567424348068,0.07555555555555556,-0.7211111111111111,-0.017777777777777778,0.07659732611152814,-0.14993535058985213,0.9927992410632971
1592284669.1682303,-6.0717726991970355,7.25848980852378,1.8661982705373688,0.06087399629400865,-0.717355363393041,-0.019826367442179672,0.04548542019490626,-0.15003471194954343,0.9616128141269067
1592284669.1782303,-5.67,7.21,1.79,0.027777777777777776,-0.7088888888888889,-0.024444444444444446,0.03490658503988659,-0.14398966328953217,0.9555677654668954
1592284669.1882303,-6.005626659214755,7.375063108378743,1.6395626659214755,0.027777777777777776,-0.7088888888888889,-0.024444444444444446,0.004124794392441188,-0.15524567945949258,0.9706348053193767
1592284669.1982303,-5.74015909719255,7.37728529419157,1.6959067031945108,0.027777777777777776,-0.7088888888888889,-0.024444444444444446,-0.019321470807306215,-0.14147716363540502,0.9980974446058402
1592284669.2082303,-5.843533446300331,7.647263777939159,1.9818897764867263,0.027777777777777776,-0.7088888888888889,-0.024444444444444446,-0.028811998240012703,-0.11086319297127945,1.0179893753279223
1592284669.2182302,-5.498695819071687,7.5521742746553215,2.119130865935191,0.02603865661509371,-0.710628010051573,-0.02502415149867247,-0.03661399814306097,-0.10196893259074057,0.996023416921372
1592284669.2282302,-5.41,7.36,1.89,0.021111111111111112,-0.7155555555555555,-0.02666666666666667,-0.022907446432425576,-0.11890055529211369,0.9653852425093635
1592284669.2382302,-5.949410386883128,7.753611986107745,1.771695339633309,0.021111111111111112,-0.7155555555555555,-0.02666666666666667,0.01834579844246079,-0.13645569745138872,0.9344908812804862
1592284669.2482302,-5.608109028144028,8.113390228700196,1.9989691710217194,0.021111111111111112,-0.7155555555555555,-0.02666666666666667,0.040763034123244966,-0.16569022420932947,0.9427459928575219
1592284669.2582302,-4.924754774089488,7.67757402576714,2.133835600071686,0.021111111111111112,-0.7155555555555555,-0.02666666666666667,0.03813617747309191,-0.19013715538856932,0.9411097992659532
1592284669.2682302,-5.468684918260659,7.9859160547547825,1.8020194603088266,0.006030144004942301,-0.7140218978837417,-0.024877399382883927,0.054039650825354904,-0.1779693075130956,0.9550556587664795
1592284669.2782302,-5.23,8.24,2.11,-0.044444444444444446,-0.7088888888888889,-0.01888888888888889,0.05235987755982988,-0.18216874067690814,0.9642944117268671
1592284669.2882302,-5.15875352922723,7.6370291749451,1.6667374254940917,-0.044444444444444446,-0.7088888888888889,-0.01888888888888889,0.06684158870208677,-0.2160626314067452,0.9641844503262265
1592284669.2982302,-5.417515378951618,7.776605942569413,1.7586060375745196,-0.044444444444444446,-0.7088888888888889,-0.01888888888888889,0.05431675590583747,-0.26618253102624495,0.9318736036766448
1592284669.3082302,-5.054606034717098,8.167253310551047,1.807107879305658,-0.044444444444444446,-0.7088888888888889,-0.01888888888888889,0.0628992870946554,-0.3044486220407726,0.9247624389911171
1592284669.3182302,-5.164492371189824,8.378908623431105,1.8433248756723841,-0.049258319519153784,-0.7100923576575662,-0.016281373223421332,0.0469368702078005,-0.3216293102801105,0.9415371625705591
1592284669.3282301,-4.05,7.92,2.04,-0.07111111111111111,-0.7155555555555555,-0.0044444444444444444,0.0272707695624114,-0.3010692959690219,0.9719302272043423
1592284669.3382301,-4.861288226093523,8.282753627096705,1.89219001132625,-0.07111111111111111,-0.7155555555555555,-0.0044444444444444444,0.03001629080160991,-0.26385808747775985,1.0340162428934303
1592284669.3482301,-4.54,8.35,1.81,-0.07111111111111111,-0.7155555555555555,-0.0044444444444444444,0.03490658503988659,-0.23125612588924865,1.0821041362364843
1592284669.35823,-4.416774061059645,7.912822297266462,2.1601615479395795,-0.07111111111111111,-0.7155555555555555,-0.0044444444444444444,0.06554659452546306,-0.22910965883724918,1.1305581197750931
1592284669.36823,-4.654743593524225,8.435012827696028,1.6507820471233523,-0.07499952490014712,-0.7081880346921189,-0.0044444444444444444,0.10586839083023697,-0.22634598808344505,1.1675045322347029
1592284669.37823,-4.41,7.97,1.92,-0.09222222222222222,-0.6755555555555556,-0.0044444444444444444,0.0916297857297023,-0.27707101875409984,1.1737339219661866
1592284669.38823,-4.053396176314392,8.540908125331917,1.9378943175783325,-0.09222222222222222,-0.6755555555555556,-0.0044444444444444444,0.14290404624949055,-0.3002602969314455,1.227941491921541
1592284669.39823,-3.49,7.97,1.69,-0.09222222222222222,-0.6755555555555556,-0.0044444444444444444,0.13962634015954636,-0.2945243112740431,1.2664545384783854
1592284669.40823,-4.40904945770065,8.551313015184382,2.4655472885032537,-0.09222222222222222,-0.6755555555555556,-0.0044444444444444444,0.13060512226375479,-0.26820900063064307,1.251015591591482
1592284669.41823,-3.651633174272465,8.201084750319243,2.338732441696351,-0.09803981749072145,-0.6747071562455661,-0.003596045134454974,0.1500979197788969,-0.25358923477546297,1.1976331527137953
1592284669.42823,-3.91,8.7,1.92,-0.14555555555555555,-0.6677777777777778,0.0033333333333333335,0.18216874067690814,-0.18653206380689397,1.1879147221386406
1592284669.43823,-3.5288242076548837,8.757240079867264,2.3818563514159563,-0.14555555555555555,-0.6677777777777778,0.0033333333333333335,0.18976108734989508,-0.14988905801241842,1.1900677623948206
1592284669.44823,-2.99,8.55,1.47,-0.14555555555555555,-0.6677777777777778,0.0033333333333333335,0.2159844949342983,-0.1308996938995747,1.1846422297911512
1592284669.45823,-2.7831401287595643,8.74,1.9390200183942234,-0.14555555555555555,-0.6677777777777778,0.0033333333333333335,0.20019019246221179,-0.0973650628914161,1.1682461058392748
1592284669.46823,-3.185309668708295,8.74,1.9964728098154707,-0.14555555555555555,-0.6677777777777778,0.0033333333333333335,0.1760169869991916,-0.09915567070349167,1.1610836745909725
1592284669.47823,-3.39,9.31,2.0,-0.16666666666666666,-0.6644444444444444,0.006666666666666667,0.19416787928436915,-0.0370882466048795,1.1857330605736476
1592284669.48823,-2.5036427354186133,8.383642735418615,1.7868902204386785,-0.16666666666666666,-0.6644444444444444,0.006666666666666667,0.1905877343982839,-0.019676540097121425,1.1938178370795736
1592284669.49823,-3.29,9.17,1.82,-0.16666666666666666,-0.6644444444444444,0.006666666666666667,0.22580197197676635,0.001090830782496456,1.2064588454410803
1592284669.50823,-2.7248501793838815,8.922078648307378,1.7475449461848356,-0.16666666666666666,-0.6644444444444444,0.006666666666666667,0.19568421562253366,-0.02383403932908407,1.1718807361728696
1592284669.51823,-3.3133114865812843,9.174276351391978,1.5710065540256148,-0.16666666666666666,-0.6644444444444444,0.006666666666666667,0.20760543306051565,-0.056846641465034174,1.1058555319009693
1592284669.52823,-2.87,9.36,1.71,-0.2,-0.65,0.044444444444444446,0.20071286397934787,-0.09926560120717749,1.016654289286697
1592284669.53823,-2.542108304219296,9.279079548508465,1.3882571889277076,-0.2,-0.65,0.044444444444444446,0.19985201351097895,-0.07228534852341537,0.9692978394022925
1592284669.54823,-2.3,8.87,1.43,-0.2,-0.65,0.044444444444444446,0.17344209441693648,-0.11235557059713495,0.9173886880795195
1592284669.55823,-2.31,9.387256727961487,1.5366119485439191,-0.2,-0.65,0.044444444444444446,0.1792393981596635,-0.1038488811400422,0.8901707770208136
1592284669.56823,-2.31,9.73482321837266,1.7848737274090443,-0.2,-0.65,0.044444444444444446,0.16208799742778107,-0.09572453342494,0.8703112603838972
1592284669.57823,-1.82,9.34,1.43,-0.22666666666666666,-0.6233333333333333,0.044444444444444446,0.13962634015954636,-0.07090400086226964,0.8235772407848243
1592284669.58823,-2.250824055430534,9.450141833471514,1.633721722136681,-0.22666666666666666,-0.6233333333333333,0.044444444444444446,0.09748991654924362,-0.057445264000922786,0.7805979200970601
1592284669.59823,-2.0005512257333145,9.529622124604412,1.46138585801332,-0.22666666666666666,-0.6233333333333333,0.044444444444444446,0.0784384671285989,-0.05472362764144187,0.7343301147251887
1592284669.6082299,-1.853399854540294,9.245091799265607,1.3550439039965942,-0.22666666666666666,-0.6233333333333333,0.044444444444444446,0.05635668789377389,-0.07090487162283254,0.6744920995337855
1592284669.6182299,-2.225413052347755,9.758470012239902,1.6005726145495183,-0.22666666666666666,-0.6233333333333333,0.044444444444444446,0.04012454998724103,-0.07577451299479239,0.6468974650926795
1592284669.6282299,-1.45,9.31,1.62,-0.23555555555555555,-0.6222222222222222,0.06666666666666667,0.02945243112740431,-0.08508480103472357,0.6370451769779303
1592284669.6382298,-1.807166418057471,9.602998508344825,1.7590554726858236,-0.23555555555555555,-0.6222222222222222,0.06666666666666667,0.02696167372164772,-0.06600752731803053,0.6230369154055053
1592284669.6482298,-1.7557575973240338,9.277272791972102,1.6977776196237515,-0.23555555555555555,-0.6222222222222222,0.06666666666666667,0.033705617948935104,-0.10010300979308087,0.575176312726453
1592284669.6582298,-1.7602325789747173,9.405066387141858,1.515764124066011,-0.23555555555555555,-0.6222222222222222,0.06666666666666667,0.092207813265239,-0.10409098672312644,0.5378556870622477
1592284669.6682298,-1.6550162160225053,9.698169112508735,1.493217760576251,-0.23555555555555555,-0.6222222222222222,0.06666666666666667,0.11270303603855909,-0.10655041345592484,0.50342371280307
1592284669.6782298,-1.65,9.49,1.82,-0.26222222222222225,-0.5966666666666667,0.07444444444444444,0.15489797111449674,-0.12762720155208535,0.4319689898685966
1592284669.6882298,-1.778467971096858,9.899545885091067,1.5182696002814537,-0.26222222222222225,-0.5966666666666667,0.07444444444444444,0.1534512645753768,-0.11365992683360551,0.3660193522460895
1592284669.6982298,-1.535139282341832,9.362896600566572,1.751402266288952,-0.26222222222222225,-0.5966666666666667,0.07444444444444444,0.14973944367470235,-0.11273282911846577,0.30920468928361766
1592284669.7082298,-1.8633700719817412,9.588390652127265,1.5935626085090613,-0.26222222222222225,-0.5966666666666667,0.07444444444444444,0.15760629053928693,-0.08911353151067092,0.29551910945366017
1592284669.7182298,-1.6097304098472582,9.563844878372315,1.4953795134892613,-0.26222222222222225,-0.5966666666666667,0.07444444444444444,0.16563887621691484,-0.050735622162004224,0.3106917712891796
1592284669.7282298,-1.37,9.19,1.61,-0.2788888888888889,-0.6144444444444445,0.09,0.17889624832941878,-0.05999569303730508,0.33052172709642613
1592284669.7382298,-1.8865552032285962,9.540867685211877,1.2493859901989046,-0.2788888888888889,-0.6144444444444445,0.09,0.19165415738316516,-0.054679897598244084,0.3549743861161067
1592284669.7482297,-0.6968836086524353,8.40072939840015,1.4276418800586927,-0.2788888888888889,-0.6144444444444445,0.09,0.19134112661337394,-0.058270613883899994,0.4152055534609709
1592284669.7582297,-1.4371692921881745,8.461001834268451,0.8567517263703064,-0.2788888888888889,-0.6144444444444445,0.09,0.27190522645330467,-0.008893601748207643,0.542875808188892
1592284669.7682297,-0.4490861027190334,7.291895770392749,2.8404607250755287,-0.2788888888888889,-0.6144444444444445,0.09,0.3870933319675264,0.09559846539683631,0.804517362142624
1592284669.7782297,-2.04,8.45,2.68,-0.27111111111111114,-0.5955555555555555,0.09777777777777778,0.8323038870447959,0.2617993877991494,1.1344640137963142
1592284669.7882297,-1.52416974319445,8.693316158870541,1.8235271207756907,-0.27111111111111114,-0.5955555555555555,0.09777777777777778,1.084980638732792,0.29471106554002285,1.2363840480906318
1592284669.7982297,-1.1209547692021917,9.255623432711062,0.990716076901644,-0.27111111111111114,-0.5955555555555555,0.09777777777777778,1.299130300103441,0.22157174803323032,1.2733177961280602
1592284669.8082297,-0.7780555156047749,9.469699410326477,0.7409664892852007,-0.27111111111111114,-0.5955555555555555,0.09777777777777778,1.3501110461945636,0.22484355327257094,1.2562995988998682
1592284669.8182297,-0.14896653037743213,9.771317416942326,0.3445542520186559,-0.27111111111111114,-0.5955555555555555,0.09777777777777778,1.3134494632211355,0.2483445679991272,1.2196380159264402
1592284669.8282297,-0.5,9.98,0.16,-0.2788888888888889,-0.5877777777777777,0.12555555555555556,1.263182046130896,0.32834006553143325,1.1911872144861297
1592284669.8382297,-0.9193140057166189,10.585675786035118,0.1320457329522254,-0.2788888888888889,-0.5877777777777777,0.12555555555555556,1.1483236669723695,0.4289682030243015,1.1230853436576231
1592284669.8482296,-2.3655141248284672,15.096932285998202,0.8396872190413098,-0.2788888888888889,-0.5877777777777777,0.12555555555555556,0.9679857793783814,0.43557436291055995,0.9994824665181828
1592284669.8582296,0.13132759525558937,11.533547811483153,-1.4280199433189882,-0.2788888888888889,-0.5877777777777777,0.12555555555555556,0.7741730371852508,0.36964212263527263,0.7617537793054968
1592284669.8682296,-0.09760449249501421,9.860582554844127,-0.17769854098876903,-0.2788888888888889,-0.5877777777777777,0.12555555555555556,0.4091886371874643,0.20732011316257284,0.15088515194078034
1592284669.8782296,-0.51,8.58,-0.67,-0.3111111111111111,-0.5688888888888889,0.15444444444444444,0.32070425005395803,0.12762720155208535,-0.16907877128695067
1592284669.8882296,0.39284206605413463,9.422516761857462,-0.6937186491184504,-0.3111111111111111,-0.5688888888888889,0.15444444444444444,0.2241393150751117,0.23112772911971716,0.12151562367409055
1592284669.8982296,-1.1645225846037663,10.03913956671544,-0.25448057771274835,-0.3111111111111111,-0.5688888888888889,0.15444444444444444,0.17820031404485726,0.13659078571081795,0.012788931603330918
1592284669.9082296,-0.6924031363389915,9.904949117904659,-0.4130548025190808,-0.3111111111111111,-0.5688888888888889,0.15444444444444444,0.1779209063045387,0.1356073450429619,0.023867206460266643
1592284669.9182296,-0.4125149101222005,9.983667681528132,0.015524043875380533,-0.3111111111111111,-0.5688888888888889,0.15444444444444444,0.09300636986519788,0.07168291873469412,0.039132741101047
1592284669.9282296,-0.71,9.75,0.16,-0.3388888888888889,-0.56,0.1688888888888889,0.0545415391248228,0.07853981633974483,0.02617993877991494
1592284669.9382296,-0.6628393129464645,9.787728549642827,0.2543213741070712,-0.3388888888888889,-0.56,0.1688888888888889,0.02881937454398344,0.07956870292297841,0.017948846114046346
1592284669.9482296,-0.71,9.73,0.21,-0.3388888888888889,-0.56,0.1688888888888889,0.028361600344907853,0.04799655442984406,0.014180800172453926
1592284669.9582295,-0.5483502833630929,9.721492120177006,0.2185078798229951,-0.3388888888888889,-0.56,0.1688888888888889,0.029289666065378212,0.026651042859025868,0.016036931613394638
1592284669.9682295,-0.5110410102055213,9.764794948972392,0.14832808164417063,-0.3388888888888889,-0.56,0.1688888888888889,0.0314069794969821,0.040498381758625655,0.018317010107024623
1592284669.9782295,-0.4490324805185849,9.741612532469025,0.1761299220743397,-0.3233333333333333,-0.5522222222222222,0.16111111111111112,0.035856695817984036,0.050565196006934245,0.02171107564662986
1592284669.9882295,-0.4201082683952831,9.789819552674528,0.06043307358113233,-0.3233333333333333,-0.5522222222222222,0.16111111111111112,0.03164983969217673,0.06213405035290435,0.01855593355227438
1592284669.9982295,-0.3425162830586654,9.848112787706,0.11811278770600098,-0.3233333333333333,-0.5522222222222222,0.16111111111111112,0.016842808565573478,0.05583823283365924,0.0164310827128935
1592284670.0082295,-0.48425277823851387,9.773065184939458,0.2642527782385139,-0.3233333333333333,-0.5522222222222222,0.16111111111111112,0.0016759604475476315,0.06087754893942612,0.013215354318182722
1592284670.0182295,-0.49,9.748185260652397,0.34271579782534217,-0.3233333333333333,-0.5522222222222222,0.16111111111111112,-0.004461613362420589,0.05712049228771793,0.009123937857873868
1592284670.0282295,-0.5095815227314223,9.73020923863429,0.4581168522914004,-0.3233333333333333,-0.5456950479784148,0.16655042298095063,-0.0033409655304403045,0.03640825492008866,0.009771828253834146
1592284670.0382295,-0.39495017381228276,9.806699884125145,0.38330011587485513,-0.3233333333333333,-0.5455555555555556,0.16666666666666666,0.01241499414331424,0.033905750956942565,0.009817477042468103
1592284670.0482295,-0.4833372066000465,9.82866744132001,0.2026593074599117,-0.3233333333333333,-0.5455555555555556,0.16666666666666666,0.031416687050038646,0.038906509162968235,0.01694453391027745
1592284670.0582294,-0.4615237933296087,9.83,0.1520317244394782,-0.3233333333333333,-0.5455555555555556,0.16666666666666666,0.032724923474893676,0.057907541852748684,0.012276172052477666
1592284670.0682294,-0.5430005033236718,9.767749622507246,0.2468339205442838,-0.3233333333333333,-0.5455555555555556,0.16666666666666666,0.032724923474893676,0.06946780438676069,0.01124464274089301
1592284670.0782294,-0.58,9.793866547844493,0.31693327392224574,-0.33729873462634963,-0.5455555555555556,0.16666666666666666,0.023911030194555268,0.08201106501450427,0.008949664873778245
1592284670.0882294,-0.6168102193209035,9.781594890339548,0.32,-0.3388888888888889,-0.5455555555555556,0.16666666666666666,0.02591897545835213,0.0788877674351619,0.010734332277256018
1592284670.0982294,-0.538988651223613,9.752996217074537,0.18498108537268823,-0.3388888888888889,-0.5455555555555556,0.16666666666666666,0.03305313556700247,0.07068473429735908,0.008944537314368124
1592284670.1082294,-0.492655165576046,9.75,0.2353534602419195,-0.3388888888888889,-0.5455555555555556,0.16666666666666666,0.03992628850092248,0.05148156734917613,0.013818758129581936
1592284670.1182294,-0.4761934984792278,9.763806501520772,0.18477399391691135,-0.3388888888888889,-0.5455555555555556,0.16666666666666666,0.04412587816672947,0.04490702109473213,0.012674744486709686
1592284670.1282294,-0.4745668537533084,9.788267415013234,0.1462994387400747,-0.3414260298629491,-0.5430184145814954,0.17377066139403533,0.04730939226083165,0.04204423405203495,0.011500972142134185
1592284670.1382294,-0.48,9.817611101352538,0.08813894256103988,-0.34444444444444444,-0.54,0.18222222222222223,0.04576641575472089,0.04186669091706778,0.010493186642762106
1592284670.1482294,-0.44434583714547116,9.83,0.014057639524245196,-0.34444444444444444,-0.54,0.18222222222222223,0.029989363388139074,0.03800492370801125,0.005928211205881929
1592284670.1582294,-0.35197526462395545,9.811447799442897,0.07802473537604455,-0.34444444444444444,-0.54,0.18222222222222223,0.012788790707057613,0.029509968653023678,0.0046216464442050955
1592284670.1682293,-0.35321358096343586,9.785595473012188,0.2208316889146837,-0.34444444444444444,-0.54,0.18222222222222223,0.002878641024337281,0.027227465542955357,0.0033591003864014484
1592284670.1782293,-0.3942440328432309,9.76424403284323,0.34726790147030745,-0.32909519869306003,-0.5431977595315385,0.17007073600237627,0.0007928050647962594,0.030873114807964806,0.0029744666297891716
1592284670.1882293,-0.455858158232027,9.74802578941236,0.35401289470617936,-0.31777777777777777,-0.5455555555555556,0.16111111111111112,0.008712580317539954,0.03207183159963897,0.005669506880495232
1592284670.1982293,-0.49502024291497976,9.73004048582996,0.29024291497975707,-0.31777777777777777,-0.5455555555555556,0.16111111111111112,0.020151663402960845,0.02565881314293283,0.006544984694978735
1592284670.2082293,-0.43694963035411216,9.767155884129679,0.2005275724189512,-0.31777777777777777,-0.5455555555555556,0.16111111111111112,0.03370065581047252,0.009990124712844524,0.008473950569397072
1592284670.2182293,-0.3709368763785317,9.823250498897174,0.11024850330847599,-0.31777777777777777,-0.5455555555555556,0.16111111111111112,0.04705590335427926,-0.006238392617049891,0.013621831028283807
1592284670.2282293,-0.35,9.834881151735045,0.04464345520513536,-0.3348406053276274,-0.5455555555555556,0.16509243753940936,0.052333948890658066,-0.01588186801912815,0.015245702285778567
1592284670.2382293,-0.31920612762205647,9.83,0.045396936188971754,-0.3511111111111111,-0.5455555555555556,0.1688888888888889,0.042031548204248204,-0.013505487717120533,0.011661482379794318
1592284670.2482293,-0.33592061608505075,9.786798973191582,0.05864020536168358,-0.3511111111111111,-0.5455555555555556,0.1688888888888889,0.02418990500888782,-0.009171638014776405,0.009023307429841485
1592284670.2582293,-0.35713746579866024,9.78,0.11141239739598074,-0.3511111111111111,-0.5455555555555556,0.1688888888888889,0.008730762990917948,-0.00031431240775018146,0.009661350021329588
1592284670.2682292,-0.3726968678110069,9.773651566094497,0.15174216952751726,-0.3511111111111111,-0.5455555555555556,0.1688888888888889,0.005852477982501999,-0.004449222917317433,0.0056624367676076865
1592284670.2782292,-0.38,9.77,0.27578627280625545,-0.32760305048749877,-0.5455555555555556,0.16203237120700198,0.003530905200105093,-0.023021805176492677,0.004234116703677961
1592284670.2882292,-0.35709971830985915,9.764274929577464,0.2957250704225352,-0.3244444444444444,-0.5455555555555556,0.16111111111111112,0.004521508957261648,-0.03320771596093831,0.004363323129985824
1592284670.2982292,-0.28355488126649075,9.76,0.23549129287598944,-0.3244444444444444,-0.5455555555555556,0.16111111111111112,0.013370563302848183,-0.05510272695060422,0.0026041210432378456
1592284670.3082292,-0.29412829750145264,9.776085531667634,0.22,-0.3244444444444444,-0.5455555555555556,0.16111111111111112,0.027554246122064925,-0.0632915105287781,0.0030589912197868073
1592284670.3182292,-0.2392045557590816,9.828636355392733,0.14096592248680606,-0.3244444444444444,-0.5455555555555556,0.16111111111111112,0.03717501611125484,-0.0636958407471555,0.001282966087083147
1592284670.3282292,-0.13985723268114064,9.82992861634057,0.05992861634057033,-0.3244444444444444,-0.5455555555555556,0.18115870021739755,0.036531151089670304,-0.05260727832020523,0.0008200697741991701
1592284670.3382292,-0.15464051323648698,9.863300641545608,0.00669935845439127,-0.3244444444444444,-0.5455555555555556,0.18777777777777777,0.03490658503988659,-0.04908738521234052,0.001090830782496456
1592284670.3482292,-0.2516612243965931,9.861667161418492,-0.08332838581508462,-0.3244444444444444,-0.5455555555555556,0.18777777777777777,0.019454066428404585,-0.016364404623319805,-0.0016360842665886037
1592284670.3582292,-0.3341889982628836,9.835929125651418,0.004307122177185874,-0.3244444444444444,-0.5455555555555556,0.18777777777777777,-0.016021480793831967,0.005061631688119454,-0.003056903255027474
1592284670.3682292,-0.35595617991549744,9.800219100422511,0.14316741839445207,-0.3244444444444444,-0.5455555555555556,0.18777777777777777,-0.031145180052624996,-0.0003694118971048557,-0.0019730554679070105
1592284670.3782291,-0.36867567567567566,9.710594594594594,0.40218918918918917,-0.3186606606606607,-0.5455555555555556,0.19452552552552554,-0.026533721736400277,-0.030204219909935652,-0.00014446137389817926
1592284670.3882291,-0.2622678831843847,9.711970235201735,0.4599255880043376,-0.31777777777777777,-0.5455555555555556,0.19555555555555557,-0.00484998139816685,-0.0344686293089789,0.0019586251547662873
1592284670.3982291,-0.24071672354948806,9.694641638225256,0.454641638225256,-0.31777777777777777,-0.5455555555555556,0.19555555555555557,0.03454421576970575,-0.01923163212326232,0.0032724923474893677
1592284670.408229,-0.16371722511966852,9.7417696649282,0.3378323926555691,-0.31777777777777777,-0.5455555555555556,0.19555555555555557,0.06750588022147568,0.0043439177670622255,0.009860885826196797
1592284670.418229,-0.1687362132352941,9.763115349264705,0.2769067095588235,-0.3190268586601307,-0.5445146548202615,0.19180831290849673,0.07649120003655088,0.013767226920818092,0.010703927443519796
1592284670.428229,-0.23298713235294116,9.80809099264706,0.12912959558823528,-0.32331025326797386,-0.5409451593137256,0.1789581290849673,0.09191031371953916,0.03479329103398393,0.0100030586397476
1592284670.438229,-0.29123806467142743,9.80350477413143,0.032266709460001604,-0.3244444444444444,-0.54,0.17555555555555555,0.08789603379593705,0.04755813900903649,0.00891780203538465
1592284670.448229,-0.2828859498537199,9.85134215043884,-0.09124132595082086,-0.3244444444444444,-0.54,0.17555555555555555,0.07590793882520733,0.039753118855965344,0.0059263663530590965
1592284670.458229,-0.29132411624813576,9.826027651255593,-0.0080829537667782,-0.3244444444444444,-0.54,0.17555555555555555,0.06861778064514336,0.03138509536395684,0.003601249724277066
1592284670.468229,-0.276285056946742,9.78814252847337,0.1292873576331451,-0.3244444444444444,-0.54,0.17555555555555555,0.062418841925717575,0.019065966560812744,0.002181661564992912
1592284670.478229,-0.26,9.773010009532888,0.18397998093422308,-0.34852107827560636,-0.5438833280372842,0.16468223705115984,0.06337399285106614,0.014943289849542131,0.0014191718879047075
1592284670.488229,-0.2838601633829889,9.77,0.2059067755886593,-0.35888888888888887,-0.5455555555555556,0.16,0.07043207632912135,0.015271630954950384,-0.0015119092868594562
1592284670.498229,-0.2598853526139153,9.800114647386085,0.05942676306957678,-0.35888888888888887,-0.5455555555555556,0.16,0.07692232930068123,0.01691413017358876,0.000282087262964656
1592284670.508229,-0.24259297347714825,9.817407026522853,0.017407026522851747,-0.35888888888888887,-0.5455555555555556,0.16,0.07934779759353426,0.01987723628131161,0.0018988120362858933
1592284670.518229,-0.2618893952457199,9.81452765118857,0.0035829535657100654,-0.35888888888888887,-0.5455555555555556,0.16,0.07604900320060186,0.02609825074989181,0.000987780257779769
1592284670.528229,-0.3255547972701726,9.82952348454436,-0.036031312725812926,-0.34587323252598245,-0.5419400954547482,0.17373874838306794,0.06811640491199357,0.03125315584065348,0.0007098939307527116
1592284670.538229,-0.31869108983799704,9.84,-0.06043630338733432,-0.3388888888888889,-0.54,0.1811111111111111,0.05805009030604276,0.025372760147690257,0.0016600428320152712
1592284670.548229,-0.29736617252246994,9.84736617252247,-0.12892938017975952,-0.3388888888888889,-0.54,0.1811111111111111,0.03921617517229876,0.009189132027239493,0.0013781367913239338
1592284670.558229,-0.32122162236987817,9.828778377630123,-0.11463062938353635,-0.3388888888888889,-0.54,0.1811111111111111,0.027190185394693752,0.000824314125366577,0.003405750676054308
1592284670.568229,-0.2879098788074945,9.825261265149063,-0.052648613658431334,-0.3388888888888889,-0.54,0.1811111111111111,0.01998087222929028,-0.00396040577223342,0.004937238127933216
