time,acc_x,acc_y,acc_z,mag_x,mag_y,mag_z,gyr_x,gyr_y,gyr_z
1592284707.8781934,-0.4564171515181147,9.83,0.3254478560602357,-0.29777777777777775,-0.5311111111111111,0.19555555555555557,-0.01328538346061053,-0.029248990359798933,0.03856187883172976
1592284707.8881934,-0.37586070439256036,9.83,0.33802532647407996,-0.29777777777777775,-0.5311111111111111,0.19555555555555557,-0.019648767533705452,-0.04104148297452831,0.05281140466647464
1592284707.8981934,-0.3163587004895416,9.83,0.3754348019581664,-0.29777777777777775,-0.5311111111111111,0.1930827275874005,-0.031035325141382034,-0.055184774899993155,0.06138294628343853
1592284707.9081933,-0.33074675324675323,9.829253246753247,0.432987012987013,-0.29777777777777775,-0.5311111111111111,0.18777777777777777,-0.04169594416341161,-0.059352882040476805,0.06460339059583718
1592284707.9181933,-0.3157321983515741,9.792866099175788,0.5057165247939468,-0.29777777777777775,-0.5311111111111111,0.18777777777777777,-0.04939831841309103,-0.07324027416768125,0.0741747834898459
1592284707.9281933,-0.2229104271008985,9.780464349533133,0.5209286990662674,-0.29777777777777775,-0.5311111111111111,0.18777777777777777,-0.04613237121203835,-0.07692889650422914,0.08367649190503991
1592284707.9381933,-0.07230544799639801,9.777573705538046,0.5317158036920306,-0.29777777777777775,-0.5311111111111111,0.18777777777777777,-0.037836907198474726,-0.07654531992315072,0.0879054605651641
1592284707.9481933,0.045069035156410996,9.752237563368091,0.5355248732638174,-0.29777777777777775,-0.5285236322338083,0.19079650313463115,-0.02806779582099843,-0.06425956771941216,0.0796457082569788
1592284707.9581933,-0.023923176871853177,9.745414568783499,0.56,-0.29777777777777775,-0.5244444444444445,0.19555555555555557,-0.02030390070293377,-0.04555569432095115,0.06653460968708315
1592284707.9681933,-0.26121331884201165,9.814747554589468,0.5410097816421302,-0.29777777777777775,-0.5244444444444445,0.19555555555555557,-0.013200119479841019,-0.025827286045962922,0.051379196867216974
1592284707.9781933,-0.41715660912392416,9.835431321824785,0.5560064175911646,-0.29777777777777775,-0.5244444444444445,0.19555555555555557,-0.008102814348117111,-0.02911089868973248,0.056942766947513365
1592284707.9881933,-0.510327488349321,9.866261990679456,0.5778035069904075,-0.29777777777777775,-0.5244444444444445,0.19555555555555557,-0.0041237229111456405,-0.04619738683263061,0.07145464817441964
1592284707.9981933,-0.5750271749458402,9.904010869978336,0.567005434989168,-0.30283725860328803,-0.5291147344372231,0.1978907005519449,-0.0017995743584448014,-0.07216705280969674,0.09136448885093697
1592284708.0081933,-0.64,9.93,0.58,-0.31222222222222223,-0.5377777777777778,0.20222222222222222,-0.001090830782496456,-0.09272061651219875,0.1090830782496456
1592284708.0181932,-0.7836968055709075,9.94,0.5837819166574555,-0.31222222222222223,-0.5377777777777778,0.20222222222222222,-0.005591668282708566,-0.13450204590365905,0.16918843311923545
1592284708.0281932,-0.8141179858877742,9.95035280564489,0.5551764028224452,-0.31222222222222223,-0.5377777777777778,0.20222222222222222,-0.0021046913134559375,-0.15577051007477713,0.22906121706327692
1592284708.0381932,-0.79,9.96,0.56,-0.31222222222222223,-0.5377777777777778,0.20222222222222222,0.0,-0.16471544815696484,0.2585268954516601
1592284708.0481932,-0.7586850773581767,9.96526335052404,0.5828950257860589,-0.3064329839738258,-0.5361988946191242,0.20064333906356865,0.007061673000406103,-0.1851539621661889,0.33703738584656184
1592284708.0581932,-0.7121664994984954,9.963299899699097,0.5777331995987964,-0.2877777777777778,-0.5311111111111111,0.19555555555555557,0.008243048260108625,-0.21002486075951574,0.41420278099580066
1592284708.0681932,-0.7189707558802317,9.967382453528138,0.5663532094083708,-0.2877777777777778,-0.5311111111111111,0.19555555555555557,0.007177028541105675,-0.2258532613007183,0.47970222018892794
1592284708.0781932,-0.6662348893435001,9.95,0.5239608517760833,-0.2877777777777778,-0.5311111111111111,0.19555555555555557,0.01000147992878469,-0.23516603507114453,0.5503652616164308
1592284708.0881932,-0.5814142245931867,9.947142013211364,0.5442899339431804,-0.2877777777777778,-0.5311111111111111,0.19555555555555557,0.01838921091996281,-0.23748935258772613,0.6147670462331493
1592284708.0981932,-0.4563946986042006,9.94,0.5809013253489498,-0.2899810175196552,-0.5298091967181835,0.194253641162628,0.02726145155916168,-0.2363170024274594,0.6718958539983186
1592284708.1081932,-0.42,9.94,0.59,-0.31222222222222223,-0.5166666666666667,0.1811111111111111,0.038179077387375956,-0.23234695667174513,0.7374016089676042
1592284708.1181931,-0.3607241584909751,9.937855168301805,0.45002764377473037,-0.31222222222222223,-0.5166666666666667,0.1811111111111111,0.05750107319100945,-0.22740022916586397,0.8361142561134284
1592284708.1281931,-0.27188044234413605,9.959373185885289,0.2425072564588481,-0.31222222222222223,-0.5166666666666667,0.1811111111111111,0.06953967082728071,-0.2168375969846005,0.9177568339830131
1592284708.1381931,-0.24,9.97,0.2,-0.31222222222222223,-0.5166666666666667,0.1811111111111111,0.074176493209759,-0.21162117180431245,0.9577494270318884
1592284708.1481931,-0.13354595261420124,10.008067559232249,0.13322702369289938,-0.31652492047942143,-0.5137982011618673,0.18344173933376068,0.0606976622967063,-0.199059222931364,1.0489965255283276
1592284708.158193,-0.048222191667812456,10.045685182638984,0.1197962784728906,-0.3388888888888889,-0.4988888888888889,0.19555555555555557,0.017170473429399157,-0.21733592223605605,1.1380859929481961
1592284708.168193,0.0747196973419152,9.997907925121604,0.08,-0.3388888888888889,-0.4988888888888889,0.19555555555555557,-0.02692025448760538,-0.25478978304553257,1.2085154685244948
1592284708.178193,0.21099703545594686,9.900787620064033,0.12792624214395826,-0.3388888888888889,-0.4988888888888889,0.19555555555555557,-0.07008506932141999,-0.2871919312109614,1.2861580235900696
1592284708.188193,0.4682277948268303,9.808625690486629,0.21546111354669006,-0.3388888888888889,-0.4988888888888889,0.19555555555555557,-0.09822605525287696,-0.303053699366034,1.3505037341312098
1592284708.198193,0.8769497144226545,9.712650077884732,0.2675500259615769,-0.3398416565704979,-0.49807223087608116,0.19555555555555557,-0.11382544950072096,-0.3134474826975724,1.4031001226374324
1592284708.208193,1.07,9.66,0.25,-0.3466666666666667,-0.4922222222222222,0.19555555555555557,-0.12435470920459597,-0.3239767424014474,1.4442599560253075
1592284708.218193,1.3028569817597473,9.590571452736038,0.21542866003213892,-0.3466666666666667,-0.4922222222222222,0.19555555555555557,-0.14436364747790972,-0.3270622272783732,1.4771407036826296
1592284708.228193,1.5154747513207367,9.553227833039836,0.1777373756603684,-0.3466666666666667,-0.4922222222222222,0.19555555555555557,-0.16348309128275046,-0.34065506794740924,1.487822424279307
1592284708.238193,1.6571133366245858,9.536185556104098,0.25783500246843927,-0.3466666666666667,-0.4922222222222222,0.19555555555555557,-0.17909865863964855,-0.3569040761865709,1.4929312499556726
1592284708.248193,1.754373887240356,9.537679525222552,0.33129376854599407,-0.34986086383119025,-0.4901688097593142,0.19555555555555557,-0.19607181597951578,-0.37320525586932757,1.4948861571248848
1592284708.258193,1.88,9.43,0.43,-0.37777777777777777,-0.4722222222222222,0.19555555555555557,-0.2127120025868089,-0.3839724354387525,1.4988014951501305
1592284708.268193,2.101429550321199,9.366752890792291,0.49675289079229124,-0.37777777777777777,-0.4722222222222222,0.19555555555555557,-0.20794249487251706,-0.3597001502516847,1.5089731768603882
1592284708.278193,2.4260627727508073,9.288196454547696,0.43049113636923986,-0.37777777777777777,-0.4722222222222222,0.19555555555555557,-0.1763931387624436,-0.3041459395589447,1.5260362524238325
1592284708.288193,2.55,9.3,0.46,-0.37777777777777777,-0.4722222222222222,0.19555555555555557,-0.15707963267948966,-0.26616271092913524,1.5369805725375063
1592284708.298193,2.7021676797317125,9.235767763571578,0.47476126598197443,-0.3813046414681292,-0.47122294417662264,0.19479140175597942,-0.12543991549804415,-0.18455873697445413,1.5515076217430799
1592284708.308193,2.92,9.16,0.56,-0.4444444444444444,-0.4533333333333333,0.1811111111111111,-0.10581058590215622,-0.11017390903214205,1.5577063574049392
1592284708.318193,3.196499228617002,9.03816986115106,0.6224401851319196,-0.4444444444444444,-0.4533333333333333,0.1811111111111111,-0.07641600078126037,-0.051060709878153074,1.544598988575154
1592284708.328193,3.54,9.1,0.54,-0.4444444444444444,-0.4533333333333333,0.1811111111111111,-0.062177354602297986,-0.04581489286485115,1.5206181108000596
1592284708.338193,3.063535879291187,9.206174045265804,0.5079144979238552,-0.4444444444444444,-0.4533333333333333,0.1811111111111111,-0.04065151658302674,0.021007567402451487,1.503772019133254
1592284708.348193,3.0035780942112504,9.220607502695469,0.777603450198907,-0.4459353170324654,-0.45154428622770815,0.18175715589925354,-0.018335138991096324,0.0896920676214784,1.528529178852945
1592284708.358193,3.08,9.02,0.94,-0.4777777777777778,-0.41333333333333333,0.19555555555555557,0.032724923474893676,0.09490227807719166,1.5577063574049392
1592284708.368193,3.374035970651339,8.952938309538315,0.7814910073371653,-0.4777777777777778,-0.41333333333333333,0.19555555555555557,0.060909577677455015,0.10471498762888787,1.5915078091900137
1592284708.378193,3.709662420231063,8.85290536853842,0.7312838943847413,-0.4777777777777778,-0.41333333333333333,0.19555555555555557,0.09282384342348332,0.12062161625696773,1.6156236157885357
1592284708.388193,3.8,8.84,0.77,-0.4777777777777778,-0.41333333333333333,0.19555555555555557,0.10690141668465267,0.13962634015954636,1.6297011890497053
1592284708.398193,3.9856163106796116,8.744784854368932,0.7291976699029126,-0.4787138295577131,-0.4123527076591154,0.19466407766990293,0.13321581359674797,0.16506870788105177,1.6499050272735984
1592284708.4081929,4.12,8.62,0.71,-0.5011111111111111,-0.3888888888888889,0.17333333333333334,0.16253378659197193,0.19962203319685143,1.663516943307095
1592284708.4181929,4.563865593674997,8.525976281236764,0.45218975010588736,-0.5011111111111111,-0.3888888888888889,0.17333333333333334,0.22184307093273786,0.25477667373987534,1.6731214288244765
1592284708.4281929,4.748545389563974,8.559709077912796,0.2535272813914701,-0.5011111111111111,-0.3888888888888889,0.17333333333333334,0.2608711809910652,0.3090620940721246,1.660819625732459
1592284708.4381928,4.85,8.60961280104855,0.26220960078641253,-0.5011111111111111,-0.3888888888888889,0.17333333333333334,0.27192828965296756,0.3456525685396459,1.6382572000100575
1592284708.4481928,4.8518248907358315,8.69918893745074,0.32918893745074157,-0.5017869965688264,-0.38769482458025845,0.17288274302818976,0.26244785258401526,0.3786509913255594,1.6132130516012706
1592284708.4581928,4.94,8.66,0.29,-0.5344444444444445,-0.33,0.1511111111111111,0.24107360293171679,0.3850632662212489,1.5544338650574498
1592284708.4681928,5.016195046529945,8.65,0.24760990694010912,-0.5344444444444445,-0.33,0.1511111111111111,0.19378617283913896,0.3470864821120996,1.4429751057182953
1592284708.4781928,5.09023979384887,8.646904631242395,0.20476295006084322,-0.5344444444444445,-0.33,0.1511111111111111,0.1401191413343164,0.28862787520444305,1.319202587408265
1592284708.4881928,5.18,8.64,0.26,-0.5344444444444445,-0.33,0.1511111111111111,0.10471975511965977,0.24870941840919195,1.244637922828456
1592284708.4981928,5.244575333353491,8.630774952378074,0.32457533335349076,-0.5344444444444445,-0.33,0.1511111111111111,0.06346159486408448,0.1933631058712251,1.1440082636685165
1592284708.5081928,5.45,8.67,0.32,-0.5688888888888889,-0.2911111111111111,0.1511111111111111,0.017453292519943295,0.12435470920459597,1.0231992739816758
1592284708.5181928,5.453864818024264,8.550478336221836,0.2653252455228192,-0.5688888888888889,-0.2911111111111111,0.1511111111111111,-0.031949935782049,0.07862816670121565,0.8925834103446292
1592284708.5281928,5.68233465085639,8.720050065876151,0.168832674571805,-0.5688888888888889,-0.2911111111111111,0.1511111111111111,-0.08134177114021267,0.05806870237436536,0.7543783277227571
1592284708.5381927,5.58,8.53,0.22,-0.5688888888888889,-0.2911111111111111,0.1511111111111111,-0.11562806294462433,0.04690572364734761,0.6523168079328807
1592284708.5481927,5.80311957739715,8.607798943492876,0.13013862654073954,-0.5698420930935738,-0.28972463226793305,0.14885808299094677,-0.161233101409859,0.032214483816914864,0.4766968585959102
1592284708.5581927,5.84,8.7,0.25,-0.5811111111111111,-0.2733333333333333,0.12222222222222222,-0.1974403716318585,0.02617993877991494,0.33488505022641196
1592284708.5681927,5.71522265907085,8.355519537831983,0.5552226590708498,-0.5811111111111111,-0.2733333333333333,0.12222222222222222,-0.21512674466000917,0.033511515486632074,0.15578469234192766
1592284708.5781927,5.815861208187719,8.55844732900649,0.6403444832750874,-0.5811111111111111,-0.2733333333333333,0.12222222222222222,-0.22980803849501097,0.05457911642087484,-0.016135364165654014
1592284708.5881927,5.850884741243485,8.61392316082899,0.7199806084111017,-0.5811111111111111,-0.2733333333333333,0.12222222222222222,-0.2213442538426959,0.058288121786944605,-0.17371258766393538
1592284708.5981927,5.702784785624416,8.482893183211278,0.9123689389295738,-0.5817982743849763,-0.271844479573292,0.121535058948357,-0.2129151630896754,0.05898376158746524,-0.318508828614269
1592284708.6081927,5.64,8.16,1.02,-0.5877777777777777,-0.2588888888888889,0.11555555555555555,-0.17671458676442586,0.05017821599483697,-0.44178646691106466
1592284708.6181927,5.703367287624215,8.142206659838902,1.0877678744429375,-0.5877777777777777,-0.2588888888888889,0.11555555555555555,-0.15902614075445898,0.06484599042089909,-0.5903662731838257
1592284708.6281927,5.492360417067077,8.28248750720738,1.043781231981549,-0.5877777777777777,-0.2588888888888889,0.11555555555555555,-0.09979987871925598,0.05410134393326041,-0.7091702300852715
1592284708.6381927,5.457801988827701,8.407943425379344,0.7261225783447565,-0.5877777777777777,-0.2588888888888889,0.11555555555555555,-0.04467263430092088,0.07115919502140128,-0.7948646782440979
1592284708.6481926,5.275785616124599,8.38156665139716,0.8255886394869445,-0.5883768514276988,-0.26019595867053497,0.1159912454827709,-7.495401620452049e-05,0.10328663432982935,-0.8717017167356573
1592284708.6581926,5.0,8.8,0.74,-0.6,-0.28555555555555556,0.12444444444444444,0.019634954084936207,0.11780972450961724,-0.9588402578143849
1592284708.6681926,4.736779375129749,8.988561604733237,0.5816446958687981,-0.6,-0.28555555555555556,0.12444444444444444,0.029908142274576062,0.11204926273182994,-1.0893892587887894
1592284708.6781926,4.4329804205946335,9.00163403432439,0.7180783176214649,-0.6,-0.28555555555555556,0.12444444444444444,0.018926981967217333,0.10633530266724396,-1.2232819504893855
1592284708.6881926,4.362570170287728,9.05763241338814,0.5150882755920924,-0.6,-0.28555555555555556,0.12444444444444444,0.01209259263633138,0.06160589079541763,-1.365972723912553
1592284708.6981926,3.85280678978287,8.95780338190906,0.4585424036869949,-0.6003254249023617,-0.2858131836032586,0.12426817262233185,-0.006558296576262,0.030024098539853446,-1.482346593726432
1592284708.7081926,4.08,8.78,1.15,-0.6266666666666667,-0.30666666666666664,0.11,-0.007635815477475192,-0.011999138607461015,-1.5631605113174214
1592284708.7181926,3.9050252146318662,8.871507711987405,0.5559796806966618,-0.6266666666666667,-0.30666666666666664,0.11,-0.006769719825809657,-0.10960381973608198,-1.6665098517348083
1592284708.7281926,3.7464759905536607,8.497541327735503,1.0479506691157177,-0.6266666666666667,-0.30666666666666664,0.11,-0.021449952245998927,-0.1367116380188585,-1.7299325375830812
1592284708.7381926,3.9277942211408927,8.631455371684797,0.9594371946192669,-0.6266666666666667,-0.30666666666666664,0.11,0.005909959001478698,-0.18533891211875447,-1.766372549708512
1592284708.7481925,3.6832187883296807,8.639889007298978,0.7823308467214928,-0.6266666666666667,-0.30666666666666664,0.11,0.0022300912669564413,-0.1531400694416847,-1.7682124835757735
1592284708.7581925,3.8,8.43,0.6,-0.5788888888888889,-0.3411111111111111,0.09333333333333334,0.07853981633974483,-0.14398966328953217,-1.738784267299351
1592284708.7681925,3.6939703468089475,8.39149445926534,0.6627724194541351,-0.5788888888888889,-0.3411111111111111,0.09333333333333334,0.12814989596561482,-0.08217198288378175,-1.7059286702210747
1592284708.7781925,3.5454472011090394,9.116782829007123,0.47245064295616424,-0.5788888888888889,-0.3411111111111111,0.09333333333333334,0.1885515530054466,-0.04682210840953829,-1.686216616172292
1592284708.7881925,3.0534040353841565,8.940212901302058,0.40446774674485636,-0.5788888888888889,-0.3411111111111111,0.09333333333333334,0.23782433451361917,-0.015132287378599677,-1.6393328746570388
1592284708.7981925,2.9450134181492893,9.006914819600437,0.23771295099890669,-0.5788888888888889,-0.3411111111111111,0.09333333333333334,0.24510038508676282,0.028524016060262166,-1.58112447007189
1592284708.8081925,2.72,9.42,0.5,-0.5666666666666667,-0.4,0.08888888888888889,0.234528618236738,0.08290313946973066,-1.5140731261050808
1592284708.8181925,2.2778304682868997,9.669364707095177,0.485131826499317,-0.5666666666666667,-0.4,0.08888888888888889,0.18955631420676744,0.11350411833528888,-1.447913301562418
1592284708.8281925,2.0649932718185315,9.309986543637063,0.11489907727797002,-0.5666666666666667,-0.4,0.08888888888888889,0.1193193414179294,0.11399255070162528,-1.3706369514449988
1592284708.8381925,2.1087702997816162,9.385481437363511,0.6147853881278539,-0.5666666666666667,-0.4,0.08888888888888889,0.06525433334437981,0.10359665636285481,-1.3248051278912798
1592284708.8481925,2.175386142545166,9.427116339090729,0.42326484018264837,-0.5666666666666667,-0.4,0.08888888888888889,0.03891268653482617,0.053638360689563416,-1.2957384831359102
1592284708.8581924,2.02,9.87,0.61,-0.52,-0.4533333333333333,0.09333333333333334,-0.05890486225480862,0.061086523819801536,-1.2522737383059315
1592284708.8681924,2.3227027743886266,9.966735451700176,0.3722083709087051,-0.52,-0.4533333333333333,0.09333333333333334,-0.054918593571735265,0.03363613838826547,-1.2043939573373934
1592284708.8781924,1.5886249821488077,9.703404341410007,0.637249964297615,-0.52,-0.4533333333333333,0.09333333333333334,-0.09524556756655636,0.13599290313794204,-1.0919697496209038
1592284708.8881924,1.6863388789660638,10.289995384214013,0.8945244737000542,-0.52,-0.4533333333333333,0.09333333333333334,-0.10908408525793382,0.20795384464189393,-0.9870991214224073
1592284708.8981924,1.1897130185233498,10.197404122097574,0.47365510044351683,-0.52,-0.4533333333333333,0.09333333333333334,-0.12928436503929558,0.24468162606255164,-0.9154799476521248
1592284708.9081924,0.74,9.73,0.8,-0.49333333333333335,-0.49,0.08,-0.16253378659197193,0.30325095753401476,-0.8213955792198314
1592284708.9181924,0.41935565023331306,9.758292148508826,0.8,-0.49333333333333335,-0.49,0.08,-0.15739012884257395,0.27753266878702487,-0.715436229582233
1592284708.9281924,1.0171661923325281,10.294136751727931,-0.29964102073517807,-0.49333333333333335,-0.49,0.08,-0.19312677283333513,0.26920066931028297,-0.5800482837585383
1592284708.9381924,1.0878320388548477,10.256789761665678,0.6942084554378343,-0.49333333333333335,-0.49,0.08,-0.16636176501676636,0.23797379881905298,-0.42133316060599957
1592284708.9481924,0.6150847388159107,10.944422198085947,0.4621325081459926,-0.49333333333333335,-0.49,0.08,-0.2226185621685366,0.2886049162556462,-0.21693346428790108
1592284708.9581923,0.73,9.96,0.76,-0.48333333333333334,-0.5111111111111111,0.057777777777777775,-0.24652775684419903,0.31197760379398637,0.07308566242726255
1592284708.9681923,1.5481740704427183,10.852144203936948,0.5131254242401387,-0.48333333333333334,-0.5111111111111111,0.057777777777777775,-0.2761091888515305,0.31724747073514414,0.3095953656057394
1592284708.9781923,0.2321531733837608,9.915805933104833,0.8782257416381043,-0.48333333333333334,-0.5111111111111111,0.057777777777777775,-0.29344528998211244,0.2963247944568673,0.5562714330527193
1592284708.9881923,1.363257218755117,9.67754025581776,0.8515574680227798,-0.48333333333333334,-0.5111111111111111,0.057777777777777775,-0.32774543860973254,0.3082089075857013,0.7901666108507237
1592284708.9981923,1.0351065300849693,9.433335092156256,0.882083113480468,-0.48333333333333334,-0.5111111111111111,0.057777777777777775,-0.3160910288074457,0.3198633173879881,0.9691450471001279
1592284709.0081923,1.51,9.77,1.08,-0.4955555555555556,-0.5111111111111111,0.03888888888888889,-0.3141592653589793,0.34470252726888007,1.1955505376161157
1592284709.0181923,1.6887826733448112,9.795540381906402,0.6628404288621067,-0.4955555555555556,-0.5111111111111111,0.03888888888888889,-0.28722770507143486,0.328915060893423,1.3032767787662936
1592284709.0281923,1.781908310536742,9.633320913121404,0.9466231959249127,-0.4955555555555556,-0.5111111111111111,0.03888888888888889,-0.3013274692011022,0.37539988021705917,1.443905829609124
1592284709.0381923,1.8255514749437272,9.487971804288591,0.5142340954863167,-0.4955555555555556,-0.5111111111111111,0.03888888888888889,-0.28450497690634585,0.35535595037481327,1.5505854374905164
1592284709.0481923,1.9746203056509892,9.16498933775619,1.433491884847767,-0.4955555555555556,-0.5111111111111111,0.03888888888888889,-0.2790846812648047,0.31922064609787226,1.6815759154944274
1592284709.0581923,2.58,8.79,1.85,-0.5155555555555555,-0.48444444444444446,0.017777777777777778,-0.28034351110158917,0.3436116964863836,1.804234114249138
1592284709.0681922,2.8287728396062066,9.416221285905278,1.5068650488190252,-0.5155555555555555,-0.48444444444444446,0.017777777777777778,-0.21203336556958993,0.3314468760491783,1.8697369935263977
1592284709.0781922,2.4253169089737163,8.892282460789229,1.9262135644202534,-0.5155555555555555,-0.48444444444444446,0.017777777777777778,-0.17095387838725,0.3714019836813669,1.932356380949736
1592284709.0881922,3.404922006239501,9.363155747540196,1.3972858171346292,-0.5155555555555555,-0.48444444444444446,0.017777777777777778,-0.0727555598074574,0.3917286690011685,1.9944721755093082
1592284709.0981922,3.211999640028798,9.103129949604032,1.6740874730021598,-0.5155555555555555,-0.48444444444444446,0.017777777777777778,-0.018771674216211058,0.3963035745597487,2.010941835520197
1592284709.1081922,3.02,9.13,1.07,-0.5488888888888889,-0.4577777777777778,-0.017777777777777778,0.06763150851478027,0.3839724354387525,2.0104011321409683
1592284709.1181922,3.2735234337637493,8.861111509644507,1.3773011318348478,-0.5488888888888889,-0.4577777777777778,-0.017777777777777778,0.10450499726594016,0.34123270984081716,1.9961545569416563
1592284709.1281922,4.009809191517199,8.691368914572315,1.1253235566701194,-0.5488888888888889,-0.4577777777777778,-0.017777777777777778,0.09521752062083304,0.2918159371625436,1.9972282041868947
1592284709.1381922,3.803679821330989,8.906320178669011,1.0413381168476323,-0.5488888888888889,-0.4577777777777778,-0.017777777777777778,0.06486989683408198,0.29661474414853756,1.9983837477954074
1592284709.1481922,3.9168527363989636,8.359122814119171,1.365518337111399,-0.5488888888888889,-0.4577777777777778,-0.017777777777777778,0.027939998486452698,0.2420774463177787,1.9383106143601243
1592284709.1581922,4.91,8.84,1.39,-0.6,-0.3977777777777778,-0.03888888888888889,-0.007635815477475192,0.17998707911191522,1.8773197766764007
1592284709.1681921,5.01678684402628,8.371780760807852,1.611788060669965,-0.6,-0.3977777777777778,-0.03888888888888889,-0.04168567941533298,0.1701305395509564,1.8289331279226027
1592284709.1781921,4.700929032258065,8.492818064516129,1.0302967741935483,-0.6,-0.3977777777777778,-0.03888888888888889,-0.06599568459811267,0.14368226013740673,1.7550087917249462
1592284709.1881921,5.070445205479452,8.32440990516333,1.5562802950474184,-0.6,-0.3977777777777778,-0.03888888888888889,-0.08356637378111152,0.05351392825069021,1.6476185731696833
1592284709.1981921,4.943604263592806,8.436910631206166,0.9724567738351504,-0.6,-0.3977777777777778,-0.03888888888888889,-0.1073744180610362,0.020095116365587966,1.5890014449472036
1592284709.208192,5.87,8.53,0.66,-0.6466666666666666,-0.3388888888888889,-0.07222222222222222,-0.10362892433716332,-0.09708393964218458,1.4486232791552935
1592284709.218192,5.566663427275672,7.946077097505668,1.3652575315840623,-0.6466666666666666,-0.3388888888888889,-0.07222222222222222,-0.11438281264416514,-0.1202461606111116,1.3526655065697386
1592284709.228192,5.964567085261071,8.054838070059485,0.8671711830799735,-0.6466666666666666,-0.3388888888888889,-0.07222222222222222,-0.023399149402460323,-0.20647559394927134,1.1695775178279897
1592284709.238192,6.236533595061845,8.22171298157652,0.9343026748338575,-0.6466666666666666,-0.3388888888888889,-0.07222222222222222,0.028000836499806267,-0.22294233030241492,1.006584917351239
1592284709.248192,6.242087853034254,7.858129092609916,1.2169251438011266,-0.6466666666666666,-0.3388888888888889,-0.07222222222222222,0.025364773830377454,-0.21930490367883737,0.8738264520756978
1592284709.258192,6.506938651794374,8.16040797769156,1.0611954413191076,-0.6805636383230951,-0.30816975832525056,-0.057392297122534755,0.028158061477999263,-0.2504044845381398,0.707917436886296
1592284709.268192,6.4819628609757824,8.122944291463671,1.011962860975782,-0.6822222222222222,-0.30666666666666664,-0.056666666666666664,-0.027652710524806362,-0.2364223799595385,0.58833826935265
1592284709.278192,6.8253978329425085,8.126516940244198,0.9708983585348103,-0.6822222222222222,-0.30666666666666664,-0.056666666666666664,-0.03694125303335607,-0.26903118044172325,0.48440110729345964
1592284709.288192,6.735190336146002,7.900991946788335,1.0324428991561994,-0.6822222222222222,-0.30666666666666664,-0.056666666666666664,-0.1183011575238244,-0.2509159949174346,0.28907822248759474
1592284709.298192,6.717684312446894,7.887684312446894,0.9554725630841584,-0.6822222222222222,-0.30666666666666664,-0.056666666666666664,-0.14891593675339393,-0.2560008721860889,0.16701048869948915
1592284709.308192,6.954855921776857,8.105284594962118,1.194212911998964,-0.6735238547490053,-0.26861130897134267,-0.07080151381064416,-0.15598880189699318,-0.2606617960260415,-0.022743005969973223
1592284709.318192,6.568920657612581,7.948602176157572,1.1255086966881105,-0.6733333333333333,-0.2677777777777778,-0.07111111111111111,-0.15598880189699318,-0.24648851084749734,-0.11894881140726345
1592284709.328192,6.5336219858691,7.955883432651933,1.1940283120866964,-0.6733333333333333,-0.2677777777777778,-0.07111111111111111,-0.1577657389384258,-0.2351357050220785,-0.28490538403003346
1592284709.338192,6.517058089019536,8.042941910980463,1.0761327749017977,-0.6733333333333333,-0.2677777777777778,-0.07111111111111111,-0.16503636086265025,-0.2090267136056998,-0.41180356075314634
1592284709.348192,6.323381812239561,8.003345453059891,1.3865818285807663,-0.6733333333333333,-0.2677777777777778,-0.07111111111111111,-0.152235021353942,-0.21210444308549484,-0.5055180927208356
1592284709.358192,6.589410485482544,7.807479722581403,1.5073780416127895,-0.6794173425806199,-0.27487578856627876,-0.0832791296056842,-0.13839804956761811,-0.18891549123955564,-0.6196428548630701
1592284709.368192,6.202089914945322,7.615870797893884,1.5169651680842446,-0.68,-0.27555555555555555,-0.08444444444444445,-0.1237686030417528,-0.1569005667758259,-0.6974586904571175
1592284709.378192,6.046114311704063,7.7576192642005255,1.1631044067111382,-0.68,-0.27555555555555555,-0.08444444444444445,-0.11591063817158394,-0.11455382505001606,-0.8044971286154847
1592284709.388192,6.1112246400912245,7.632565211193994,1.5035869720150141,-0.68,-0.27555555555555555,-0.08444444444444445,-0.12516888038159207,-0.08823002892711625,-0.8884516378283038
1592284709.398192,6.200943646142731,7.911699044713815,1.5379244601428916,-0.68,-0.27555555555555555,-0.08444444444444445,-0.09763955666995532,-0.06822832614327065,-0.9614543286596191
1592284709.408192,5.95999191252588,8.187591226708074,1.4368937629399585,-0.68,-0.2931422892224523,-0.06375416954221302,-0.09945404053101713,-0.042880356211071946,-1.088539409722134
1592284709.418192,5.563712177121771,8.211232472324724,1.1435719557195572,-0.68,-0.29444444444444445,-0.06222222222222222,-0.10035643198967394,-0.04206420606363271,-1.1465211153678636
1592284709.428192,5.34598719403469,8.17778489220295,1.2492778408169882,-0.68,-0.29444444444444445,-0.06222222222222222,-0.08654157026824554,-0.054515280675933066,-1.2446764705850755
1592284709.438192,4.727073258405426,8.334734357401327,0.8851587624913129,-0.68,-0.29444444444444445,-0.06222222222222222,-0.06697001475861374,-0.05861475130021719,-1.2631124330950267
1592284709.448192,4.812943950861029,8.369381741069796,1.0029439508610287,-0.68,-0.29444444444444445,-0.06222222222222222,-0.06026545938635286,-0.06299841903574666,-1.2581325417419853
1592284709.4581919,5.053709702203509,8.422137127754388,1.0414514889824518,-0.6575268651976602,-0.31598119863002005,-0.0734587896233921,-0.06298668607379462,-0.029021348640784504,-1.233716406628056
1592284709.4681919,4.500229894427913,8.576026984062283,0.9856621693229527,-0.6533333333333333,-0.32,-0.07555555555555556,-0.06037674793503445,0.0020769937436096036,-1.21054578149472
1592284709.4781919,4.705070668653955,8.827887392712134,0.8287323328365113,-0.6533333333333333,-0.32,-0.07555555555555556,-0.046029981125993547,0.04555372026885693,-1.1641929789646634
1592284709.4881918,4.38149836667541,8.71664369679773,0.7409709339755359,-0.6533333333333333,-0.32,-0.07555555555555556,-0.08134779720759461,0.11106043175301306,-1.1316151713161393
1592284709.4981918,4.5214821047688005,8.959931315186974,1.1729642095376005,-0.6533333333333333,-0.32,-0.07555555555555556,-0.08835729338221293,0.1304780303714563,-1.1260731998886704
1592284709.5081918,3.8923724606440655,9.345370043765106,0.8563805604546345,-0.6371638324587571,-0.3608993257415754,-0.10028538042255464,-0.11543710164753827,0.17619257838291374,-1.1285387270120657
1592284709.5181918,3.849064346819854,9.202222176302847,0.9923684754308385,-0.6344444444444445,-0.36777777777777776,-0.10444444444444445,-0.13185018677960758,0.173556916337134,-1.1317050418622403
1592284709.5281918,3.77039226222461,8.890294196668457,1.1800980655561526,-0.6344444444444445,-0.36777777777777776,-0.10444444444444445,-0.15704754080128347,0.13924991268586595,-1.1283703376241636
1592284709.5381918,3.7135219222668963,9.206039632395175,1.0958486502010338,-0.6344444444444445,-0.36777777777777776,-0.10444444444444445,-0.2025928919319302,0.10432168438034553,-1.066612636986249
1592284709.5481918,3.340874592351023,8.84251803537899,0.9569581974503409,-0.6344444444444445,-0.36777777777777776,-0.10444444444444445,-0.23921038332062194,0.104885659712432,-0.9620270489589802
1592284709.5581918,2.9879418228435384,8.917045052194617,1.097889322996154,-0.6282878877290086,-0.3985605613549573,-0.10444444444444445,-0.2312589893117288,0.07690786529972038,-0.8012770063962418
1592284709.5681918,3.3601268344241637,9.125374202203341,1.3740676450262206,-0.6266666666666667,-0.4066666666666667,-0.10444444444444445,-0.257372873731928,0.0952011601241865,-0.7105491855819509
1592284709.5781918,3.7029243937232525,9.17338563956253,1.08169757489301,-0.6266666666666667,-0.4066666666666667,-0.10444444444444445,-0.3108782144247514,0.11547712059668971,-0.5411537337546517
1592284709.5881917,3.1661894556365193,8.897013859122731,1.9446506643806258,-0.6266666666666667,-0.4066666666666667,-0.10444444444444445,-0.33087629775368854,0.13629618137549124,-0.3529489835530164
1592284709.5981917,3.382705844943061,8.836531589721167,2.2757211280481746,-0.6266666666666667,-0.4066666666666667,-0.10444444444444445,-0.33203510657581703,0.14147386068173826,-0.1708611892624916
1592284709.6081917,2.653035338938518,8.791738702049395,1.8173870204939568,-0.5953861957727564,-0.4164976718047527,-0.10980681088340047,-0.2892832147270202,0.08631743122069876,0.05821854311068471
1592284709.6181917,3.2788317112902554,8.888971638611586,1.9982381688317115,-0.5877777777777777,-0.41888888888888887,-0.1111111111111111,-0.2648632002676098,0.02428655616571168,0.2142370971088306
1592284709.6281917,3.8408716173694146,8.670443675267464,1.9511674008810573,-0.5877777777777777,-0.41888888888888887,-0.1111111111111111,-0.2223249059520058,-0.006971980759618632,0.5099493177956702
1592284709.6381917,3.750554544735385,8.53370302982359,1.8584257574558976,-0.5877777777777777,-0.41888888888888887,-0.1111111111111111,-0.18746092248443463,-0.0033498972372844253,0.6753738865602947
1592284709.6481917,4.0178969957081545,8.643043857296137,1.9639974517167382,-0.5877777777777777,-0.41888888888888887,-0.1111111111111111,-0.11505733723613201,-0.006440963680177907,0.9799059763356708
1592284709.6581917,3.483598246850768,8.429719250927146,2.202040334692126,-0.5966266861461026,-0.43095558211842266,-0.12156891191004042,-0.03269861140740893,0.044375117929447115,1.256227301970742
1592284709.6681917,3.524465923172243,8.328312267657992,2.3921239157372987,-0.6,-0.43555555555555553,-0.12555555555555556,0.05040611447058531,0.07265608866929801,1.414346591444581
1592284709.6781917,3.7197279253049547,8.542953917976005,2.152137693890869,-0.6,-0.43555555555555553,-0.12555555555555556,0.21839389432492257,0.06475573666421308,1.5814217830357544
1592284709.6881917,4.089173671802444,8.617443621555973,2.2407522682351817,-0.6,-0.43555555555555553,-0.12555555555555556,0.34619539620108475,0.03210974821732501,1.5756599051866955
1592284709.6981916,4.3186831868606825,8.507595447341881,1.5668894971906064,-0.6,-0.43555555555555553,-0.12555555555555556,0.4338300499645947,0.001449935859287179,1.5328493711573763
1592284709.7081916,5.4687410532660286,8.18100806147819,0.2962175092292624,-0.605163406079175,-0.40900089571979875,-0.12186740835614489,0.5516488156707405,-0.06451491957981223,1.5285289556765873
1592284709.7181916,5.863071963154864,7.746143926309729,0.6712654001151409,-0.6077777777777778,-0.39555555555555555,-0.12,0.5897070145989609,-0.040397916374547226,1.5793241492058536
1592284709.7281916,4.761181494259374,7.839416888185058,1.0034101577965047,-0.6077777777777778,-0.39555555555555555,-0.12,0.6520410617543632,0.052571183222973966,1.7315890472651876
1592284709.7381916,4.7998609812804105,8.261810598978931,0.9316159727715059,-0.6077777777777778,-0.39555555555555555,-0.12,0.7071470233279161,0.023509062316638407,1.8050120054176346
1592284709.7481916,5.079466101694916,7.973306850282485,1.3280158898305083,-0.6077777777777778,-0.39555555555555555,-0.12,0.7837579883840209,-0.003056059502614804,1.827571807144858
1592284709.7581916,5.402133779264214,7.7966038647342994,1.4387517651430695,-0.6189082538502828,-0.3641283289978942,-0.11476212890705643,0.9065944492929029,-0.04020402576748848,1.8055988080106962
1592284709.7681916,5.488681183073922,7.901428685163807,1.4357143425819034,-0.6266666666666667,-0.3422222222222222,-0.1111111111111111,0.976892962305252,-0.06403538407374582,1.7729715927125793
1592284709.7781916,5.6955296784830995,7.885443116240725,1.1807089859851607,-0.6266666666666667,-0.3422222222222222,-0.1111111111111111,1.116542419437966,-0.11163636868592182,1.6679769394042026
1592284709.7881916,6.0063072473083725,7.863229953398682,0.7571171460710269,-0.6266666666666667,-0.3422222222222222,-0.1111111111111111,1.1401069552313337,-0.13437762633658454,1.6139934361299708
1592284709.7981915,6.318405320939178,7.952361166760157,0.2592952159628175,-0.6266666666666667,-0.3422222222222222,-0.1111111111111111,1.1137665726969097,-0.18798426124175363,1.4686344820098074
1592284709.8081915,6.711068106574176,7.795233328078196,0.15369856534762733,-0.6384260864995533,-0.31543687704731377,-0.11960402543486258,1.031561679409655,-0.18646645574390763,1.3238534248286817
1592284709.8181915,6.866738312043502,7.89,-0.14812735287493162,-0.6466666666666666,-0.2966666666666667,-0.12555555555555556,0.9753316719729163,-0.18835206893561662,1.245863567505723
1592284709.8281915,6.9441151769646074,7.959388788908885,-0.39871359061521033,-0.6466666666666666,-0.2966666666666667,-0.12555555555555556,0.798733884173451,-0.18827878904309306,1.0376048857771036
1592284709.8381915,7.083355789674861,8.086778948374304,-0.5501684225614563,-0.6466666666666666,-0.2966666666666667,-0.12555555555555556,0.648875292712048,-0.17742098562777978,0.8626744516710634
1592284709.8481915,7.075113360825472,8.164659917523585,-0.4163981168474894,-0.6466666666666666,-0.2966666666666667,-0.12555555555555556,0.5371586434044822,-0.1669300850494122,0.7374208960590135
1592284709.8581915,6.786645606645607,8.104863694863695,-0.3614203814203814,-0.6577643877643877,-0.277975767975768,-0.11153738153738155,0.43322445990573444,-0.1539323427419253,0.5927493045849725
1592284709.8681915,6.604729347002274,7.977635326498863,-0.43564841038733093,-0.6677777777777778,-0.2611111111111111,-0.09888888888888889,0.38289587696455146,-0.1443407272630924,0.512099298320584
1592284709.8781915,7.062459189976176,7.775081620047648,-0.3438774669843231,-0.6677777777777778,-0.2611111111111111,-0.09888888888888889,0.23969115883759023,-0.09582059210573995,0.3228447475878341
1592284709.8881915,7.085032930188001,7.798053726100666,-0.42825649622799666,-0.6677777777777778,-0.2611111111111111,-0.09888888888888889,0.184724157538151,-0.06453483442058275,0.2608700067648467
1592284709.8981915,7.29082679601573,7.750897059704174,-0.037862746272231865,-0.6677777777777778,-0.2611111111111111,-0.09888888888888889,0.042437774653340074,-0.030596021216565614,0.11912692167762248
1592284709.9081914,7.247952596288788,7.76898331514112,0.23694994542335882,-0.6742633886030113,-0.25049829339709273,-0.09417208101599182,-0.09152194435809731,-0.024198821342875147,-0.023401237444679937
1592284709.9181914,7.074807508749602,7.791971046770602,0.42325962456251986,-0.68,-0.2411111111111111,-0.09,-0.1599682692059669,-0.027626339443629223,-0.10272273306350813
1592284709.9281914,6.810895483572687,7.536436559077644,0.5402984945242292,-0.68,-0.2411111111111111,-0.09,-0.2915764172852138,-0.05270584683392707,-0.2854964548844001
1592284709.9381914,6.866316943537432,7.4839480897108945,0.5075446290249541,-0.68,-0.2411111111111111,-0.09,-0.29446708796083493,-0.07889378971972169,-0.3970045835435782
1592284709.9481914,6.763061657091948,7.413061657091948,0.48281803938435075,-0.68,-0.2411111111111111,-0.09,-0.277456500812748,-0.08318560737135157,-0.433726128550954
1592284709.9581914,6.671541297127632,7.227829847804664,0.7412577101354064,-0.667505140090271,-0.22861625120138204,-0.09676804911776991,-0.2091167080938222,-0.07073587142709015,-0.5002420815820312
1592284709.9681914,6.710666113875069,7.1866287609571184,0.7183428097607202,-0.6533333333333333,-0.21444444444444444,-0.10444444444444445,-0.1546817517933196,-0.06315387341698485,-0.5168730194907742
1592284709.9781914,6.549338228814804,7.3317509179027756,0.5365372301365839,-0.6533333333333333,-0.21444444444444444,-0.10444444444444445,-0.058463467487304695,-0.044851392425419495,-0.5103178106937442
1592284709.9881914,6.683055731130533,7.343055731130534,0.6880525707809333,-0.6533333333333333,-0.21444444444444444,-0.10444444444444445,-0.05548073156615924,-0.06538905371705826,-0.5121652018794415
1592284709.9981914,6.577918864870012,7.246289877154557,0.8011768403009237,-0.6533333333333333,-0.21444444444444444,-0.10444444444444445,-0.06134073590350073,-0.10793785655221579,-0.5150498243327599
1592284710.0081913,6.658309462408252,7.134528466574093,0.9534072604641937,-0.6533333333333333,-0.226017192356014,-0.11098556282924464,-0.03883708140312982,-0.154671841741811,-0.5103234450402624
1592284710.0181913,6.892826891923166,7.231926637352465,1.2472668363804675,-0.6533333333333333,-0.24,-0.11888888888888889,-0.010830553628943057,-0.1623022911447261,-0.5077983908655335
1592284710.0281913,6.511770207080828,7.94625918503674,0.2576553106212425,-0.6533333333333333,-0.24,-0.11888888888888889,0.056116576356864276,-0.14544228263816725,-0.5575886838683921
1592284710.0381913,6.298499051309999,7.8454971539299985,-0.018723911024988896,-0.6533333333333333,-0.24,-0.11888888888888889,0.05748864498602311,-0.14407359706174316,-0.5946419761740832
1592284710.0481913,6.234318290926549,7.9803404544727155,0.36056849095855337,-0.6533333333333333,-0.24,-0.11888888888888889,0.09713351492498647,-0.1904243344698344,-0.6708980690572081
1592284710.0581913,6.053581146556068,8.081419047249893,0.23513508275514555,-0.6594819781989827,-0.24567567218367636,-0.10895646256745524,0.08953657790310943,-0.2166404563575957,-0.7353231152428102
1592284710.0681913,5.905155000590853,7.784253751920274,0.36574624807972583,-0.6677777777777778,-0.25333333333333335,-0.09555555555555556,0.07661927182935588,-0.2478120729149762,-0.7811638304596495
1592284710.0781913,6.172963652812517,7.826705337661647,0.4173178649353414,-0.6677777777777778,-0.25333333333333335,-0.09555555555555556,0.1284074030164434,-0.32177702706745037,-0.8485173616499306
1592284710.0881913,6.379779891736985,7.954898901448813,0.35622472536220345,-0.6677777777777778,-0.25333333333333335,-0.09555555555555556,0.1475514055444006,-0.34544380071059166,-0.881206442347843
1592284710.0981913,5.5600794284268105,8.010476570560865,0.22984114314637802,-0.6677777777777778,-0.25333333333333335,-0.09555555555555556,0.19012647302381047,-0.3680334199956771,-0.893889393692022
1592284710.1081913,5.528333392157554,8.328333392157555,0.060483888045741716,-0.6590322631246642,-0.25770609065989014,-0.08863202312184065,0.21519862552645871,-0.4052025750603836,-0.9188431162893937
1592284710.1181912,5.46333990124945,8.374826491110131,-0.07432439324045528,-0.6411111111111111,-0.26666666666666666,-0.07444444444444444,0.22484591780176444,-0.4515913260309925,-0.9799303693911572
1592284710.1281912,5.403691541800525,8.434983937023322,-0.23049267969688797,-0.6411111111111111,-0.26666666666666666,-0.07444444444444444,0.21237630267044555,-0.46332112566255806,-0.9960694828684821
1592284710.1381912,5.24,8.241329266562632,-0.34244715562491135,-0.6411111111111111,-0.26666666666666666,-0.07444444444444444,0.18251476105280004,-0.45982966536700975,-1.0069587550242838
1592284710.1481912,5.272304382127232,8.256532668722656,-0.3175053790432475,-0.6411111111111111,-0.26666666666666666,-0.07444444444444444,0.1411184969985953,-0.4550447980484174,-1.0281275908148453
1592284710.1581912,5.333333333333334,8.306666666666667,-0.22666666666666666,-0.6362962962962962,-0.27555555555555555,-0.07666666666666666,0.09344783703386306,-0.4552400465618543,-1.0613783513690516
1592284710.1681912,5.369237484761493,8.268636202760629,-0.21016123323764208,-0.6266666666666667,-0.29333333333333333,-0.0811111111111111,0.07402296442881776,-0.46952588747425367,-1.0877598208035801
1592284710.1781912,5.246863774393258,8.336863774393258,-0.22563357736399803,-0.6266666666666667,-0.29333333333333333,-0.0811111111111111,0.028251595423361402,-0.43719507101889965,-1.083927562820036
1592284710.1881912,5.2672666381644575,8.257158567288965,-0.07212222697259038,-0.6266666666666667,-0.29333333333333333,-0.0811111111111111,0.0021698728612250164,-0.4044941591394249,-1.0714273274624344
1592284710.1981912,5.390255560368368,8.479473059756303,-0.0989500743893482,-0.6266666666666667,-0.29333333333333333,-0.0811111111111111,-0.011252757997851394,-0.3637339385835388,-1.0493500412195438
1592284710.2081912,4.8653134843257835,8.489943752812358,-0.2515996700164992,-0.6266666666666667,-0.3053081512591037,-0.08081904238121428,-0.004369458746356547,-0.29357639944887537,-0.9972744950345647
1592284710.2181911,4.74,8.63,-0.2,-0.6266666666666667,-0.3388888888888889,-0.08,0.01090830782496456,-0.22362031041177347,-0.9337511498169663
1592284710.2281911,4.277520243202545,8.702412137398074,-0.15021621160894394,-0.6266666666666667,-0.3388888888888889,-0.08,0.04789852625229949,-0.15778572688404163,-0.8221053614905002
1592284710.2381911,4.522819305473808,8.932255444379047,-0.058457916421424366,-0.6266666666666667,-0.3388888888888889,-0.08,0.05363523145409178,-0.110889401571291,-0.711209086148056
1592284710.248191,4.452581209707663,8.907418790292338,0.03729235494758648,-0.6266666666666667,-0.3388888888888889,-0.08,0.054738444629572586,-0.08688644354682185,-0.6197336221363169
1592284710.258191,4.392070668276089,8.860201909360255,-0.0740151432020191,-0.6228984234975676,-0.3399971957033298,-0.07556677274223636,0.06413864752133722,-0.07747101045179236,-0.54676513424213
1592284710.268191,4.28,8.54,-0.05,-0.6077777777777778,-0.34444444444444444,-0.057777777777777775,0.06763150851478027,-0.042542400517361786,-0.48214720586343357
1592284710.278191,4.5983585776668745,8.849621210230817,-0.20012626325639427,-0.6077777777777778,-0.34444444444444444,-0.057777777777777775,0.08545300235711482,0.02581541212141981,-0.3598327517131612
1592284710.288191,4.277107394323889,8.782600869920456,-0.22369956503977123,-0.6077777777777778,-0.34444444444444444,-0.057777777777777775,0.09586107044257244,0.11276657523123397,-0.2266700387194278
1592284710.298191,4.187535870938964,8.807994387034421,-0.2095414839045424,-0.6077777777777778,-0.34444444444444444,-0.057777777777777775,0.11777535981226515,0.17669587371684123,-0.09636805913274382
1592284710.308191,4.1841596730963575,8.915280108967881,-0.1345331517201986,-0.6077777777777778,-0.34802866753567574,-0.057777777777777775,0.13386289625016395,0.21131188180741234,0.017264353860749086
1592284710.318191,3.961684210526316,8.986350877192983,-0.005508771929824562,-0.6077777777777778,-0.3655555555555556,-0.057777777777777775,0.14905724208260343,0.22494461725648843,0.1150501140037227
1592284710.328191,4.160619315384416,8.817032986965872,-0.025774144230520046,-0.6077777777777778,-0.3655555555555556,-0.057777777777777775,0.17685080281326757,0.17906734518429301,0.23902705502380278
1592284710.338191,4.4110060337988894,8.701276232601746,-0.18926416500396642,-0.6077777777777778,-0.3655555555555556,-0.057777777777777775,0.18506779805784707,0.14462679195902703,0.31394636468533116
1592284710.348191,4.566747525368307,8.61665049492634,-0.12338415880293581,-0.6077777777777778,-0.3655555555555556,-0.057777777777777775,0.19308007261024238,0.1305343195755269,0.3712622048875987
1592284710.358191,4.813388591666039,8.568326426041745,-0.29175646145731293,-0.6098232570600892,-0.36202245497701757,-0.05554634583343799,0.19979555017235065,0.13347811834506723,0.42965449863405997
1592284710.368191,4.88,8.56,-0.4,-0.62,-0.34444444444444444,-0.044444444444444446,0.18980455615438332,0.17344209441693648,0.4886921905584123
1592284710.378191,4.973014438932461,8.586746390266885,-0.301818584929191,-0.62,-0.34444444444444444,-0.044444444444444446,0.19299878004038437,0.24512385221574928,0.5543143248631713
1592284710.388191,4.957833201562089,8.706500395313736,-0.50168355734445,-0.62,-0.34444444444444444,-0.044444444444444446,0.20192187528362132,0.2895556331184226,0.5663647834894606
1592284710.398191,4.893691669914609,8.895770825213479,-0.5369166991460865,-0.62,-0.34444444444444444,-0.044444444444444446,0.20645245123799238,0.32895410474206005,0.5479565790130856
1592284710.408191,4.892859869881959,8.918426117106236,-0.4540114535042269,-0.6192855627843357,-0.3428726825699828,-0.04344423234251432,0.20803671604670557,0.35825940062109896,0.5065789001631925
1592284710.418191,4.98,8.84,-0.82,-0.6144444444444445,-0.3322222222222222,-0.03666666666666667,0.19853120241435498,0.3392483733563978,0.4134248665661568
1592284710.428191,5.180389374503348,8.414011806107391,-0.7580236122147803,-0.6144444444444445,-0.3322222222222222,-0.03666666666666667,0.13530871081531842,0.3667331235740656,0.35438614257041523
1592284710.438191,5.29047254301202,8.391070233325477,-0.4817164741927881,-0.6144444444444445,-0.3322222222222222,-0.03666666666666667,0.09568912622541431,0.4407934329774161,0.41906096272345944
1592284710.448191,5.26,8.51842715473239,-0.426698993729036,-0.6144444444444445,-0.3322222222222222,-0.03666666666666667,0.06796828680944922,0.48213026354487787,0.4731981618443938
1592284710.458191,5.274120004452855,8.388826672603807,-0.23705666258488256,-0.6157518522641533,-0.3292151842368919,-0.03915074152411345,0.05396376189415173,0.4965207198789045,0.497996614049055
1592284710.468191,5.38,8.53,-0.14,-0.6255555555555555,-0.30666666666666664,-0.057777777777777775,0.04145156973486533,0.5061454830783556,0.5105088062083414
1592284710.478191,5.374732325748768,8.362366162874384,0.0017184299396556524,-0.6255555555555555,-0.30666666666666664,-0.057777777777777775,0.04563897579296873,0.47980116178224974,0.4940288248615971
1592284710.488191,5.516395726232498,8.423770818033214,-0.27918717869749593,-0.6255555555555555,-0.30666666666666664,-0.057777777777777775,0.052109878815666734,0.45675359763834555,0.4449136219692038
1592284710.4981909,5.649344680547378,8.376951595924995,-0.28156702171314385,-0.6255555555555555,-0.30666666666666664,-0.057777777777777775,0.06195048499835214,0.43444900530066416,0.3718831873463237
1592284710.5081909,5.873805926574702,8.25351434201883,0.025786803882928255,-0.6255555555555555,-0.3051650731090188,-0.06053069930013218,0.06883037939448479,0.3981088093958474,0.2889198805130124
1592284710.5181909,5.77,8.48,-0.38,-0.6255555555555555,-0.28,-0.10666666666666667,0.05235987755982988,0.3425208657038872,0.17671458676442586
1592284710.5281909,5.742397683831797,8.032222284686306,0.1497076680908478,-0.6255555555555555,-0.28,-0.10666666666666667,0.029433298048691756,0.28457290268058716,0.019156565793152155
1592284710.5381908,6.007054427758871,8.090436707203883,-0.03644303767343345,-0.6255555555555555,-0.28,-0.10666666666666667,0.0005534241800437753,0.19769802877544307,-0.129109074103228
1592284710.5481908,6.277692581771538,8.30970426850994,-0.072855055939571,-0.6255555555555555,-0.28,-0.10666666666666667,-0.03213271266348847,0.14952048162581816,-0.23389200230280016
1592284710.5581908,5.5217361772623725,7.963038310209153,0.003906398840339615,-0.6263754170405651,-0.27942127424587565,-0.10763120959020732,-0.03215305617131778,0.10396405719053083,-0.3196515046038138
1592284710.5681908,5.56,8.03,0.09,-0.6444444444444445,-0.26666666666666666,-0.1288888888888889,-0.06763150851478027,0.06326818538479445,-0.4406956361285682
1592284710.5781908,6.145766239226403,8.056453647256674,0.20071473617826363,-0.6444444444444445,-0.26666666666666666,-0.1288888888888889,-0.04169372178580421,0.050893435925593006,-0.5949923547074951
1592284710.5881908,5.863170077972709,8.198031189083821,-0.012992202729044834,-0.6444444444444445,-0.26666666666666666,-0.1288888888888889,-0.018516214620139037,0.0180029606627802,-0.7202491986225601
1592284710.5981908,6.048113225554007,8.11844114447138,-0.02687331793628677,-0.6444444444444445,-0.26666666666666666,-0.1288888888888889,-0.017861987094004165,0.0035111421619417427,-0.8354430836226008
1592284710.6081908,5.72,8.221773967809657,0.022128761371588524,-0.6454694036233575,-0.26666666666666666,-0.12802161573750098,-0.007945431268504277,0.002544330357689949,-0.9249183975536588
1592284710.6181908,5.72,8.27,0.08,-0.6733333333333333,-0.26666666666666666,-0.10444444444444445,-0.016362461737446838,-0.04690572364734761,-1.0406525665016189
1592284710.6281908,5.365342855466917,8.270866670577194,0.034476184889723135,-0.6733333333333333,-0.26666666666666666,-0.10444444444444445,-0.0370882466048795,-0.11367495883828212,-1.1813385763343778
1592284710.6381907,5.245790693783906,8.28917596730636,-0.0688418612432187,-0.6733333333333333,-0.26666666666666666,-0.10444444444444445,-0.04359678598202897,-0.16594960966723335,-1.2882517061976273
1592284710.6481907,5.0717893515276415,8.305964505092138,-0.17092959042797976,-0.6733333333333333,-0.26666666666666666,-0.10444444444444445,-0.06503836547271888,-0.208869180717372,-1.35103407264873
1592284710.6581907,5.086485375798633,8.544864031848974,-0.3182797701223232,-0.6722194753908883,-0.2733498143213364,-0.10054594164588707,-0.08581381935329185,-0.23908498272778977,-1.3822702493933636
1592284710.6681907,4.72,8.27,-0.21,-0.6666666666666666,-0.30666666666666664,-0.0811111111111111,-0.08944812416470939,-0.2617993877991494,-1.3940817400304706
1592284710.6781907,4.640466066004747,8.581165165011868,-0.14139819801424233,-0.6666666666666666,-0.30666666666666664,-0.0811111111111111,-0.10190370831310425,-0.2516774281145164,-1.3727724098359408
1592284710.6881907,4.630679064724461,8.669720925847358,-0.2687627869702541,-0.6666666666666666,-0.30666666666666664,-0.0811111111111111,-0.08527861337711876,-0.24827613032295637,-1.3826965119164256
1592284710.6981907,4.5066444951851485,8.622832721135708,-0.2013022932592078,-0.6666666666666666,-0.30666666666666664,-0.0811111111111111,-0.07201971727107581,-0.2559294338397622,-1.4396405210318648
1592284710.7081907,4.543268785323821,8.951962383026036,-0.3695914018345224,-0.6625370353212473,-0.3111959397551911,-0.08364217548411007,-0.0698993813887206,-0.27305840282463867,-1.5166412730691534
1592284710.7181907,3.98,9.26,-0.44,-0.6322222222222222,-0.34444444444444444,-0.10222222222222223,-0.07853981633974483,-0.2596177262341565,-1.5675238344474072
1592284710.7281907,3.08346324795822,9.079528584921384,-0.4859836657592088,-0.6322222222222222,-0.34444444444444444,-0.10222222222222223,-0.08948172967995437,-0.29261758464125726,-1.6183458581761438
1592284710.7381907,3.084241194029851,9.082230447761194,-0.49294328358208955,-0.6322222222222222,-0.34444444444444444,-0.10222222222222223,-0.1404599302500511,-0.3012607611929346,-1.6429706408060245
1592284710.7481906,2.88,9.25,-0.42,-0.6322222222222222,-0.34444444444444444,-0.10222222222222223,-0.16035212502697901,-0.33706671179140485,-1.6493361431346414
1592284710.7581906,2.8000463101782445,9.18057204730968,-0.6944047976011993,-0.6311952542247395,-0.3486313139726433,-0.10222222222222223,-0.23972989856652466,-0.3654182088227184,-1.6650056556623645
1592284710.7681906,2.67,9.58,-0.36,-0.6177777777777778,-0.4033333333333333,-0.10222222222222223,-0.29343348049154666,-0.3937899124812206,-1.6417003276571662
1592284710.7781906,2.3923946037099495,9.63553962900506,-0.5042242833052277,-0.6177777777777778,-0.4033333333333333,-0.10222222222222223,-0.37645986728408887,-0.42308874433318067,-1.6149979673895127
1592284710.7881906,2.44,9.58,-0.29,-0.6177777777777778,-0.4033333333333333,-0.10222222222222223,-0.44396812847605754,-0.4308781590861001,-1.6046120810522868
1592284710.7981906,2.018154670291231,9.17860261048592,0.04151991844730057,-0.6177777777777778,-0.4033333333333333,-0.10222222222222223,-0.45073069498115703,-0.4425590687609313,-1.5766042065021066
1592284710.8081906,2.0013871954266524,9.438498470886886,0.41878810290031787,-0.6177777777777778,-0.4033333333333333,-0.10222222222222223,-0.4626195055037187,-0.4297557343520188,-1.550083013797931
1592284710.8181906,1.7119912749425643,9.539450682774465,0.8671160845659412,-0.593501180263358,-0.44195519301536496,-0.08125606982340507,-0.4213527979613795,-0.46553007896692483,-1.51647200207045
1592284710.8281906,1.529531024614284,9.817830988841063,-0.09589646537498414,-0.5933333333333334,-0.44222222222222224,-0.0811111111111111,-0.41744287806493635,-0.4287924174186645,-1.47329033960346
1592284710.8381906,1.490810090356232,9.638746667897573,0.2429117093829696,-0.5933333333333334,-0.44222222222222224,-0.0811111111111111,-0.38893223682933575,-0.43671203998410907,-1.4384440003155037
1592284710.8481905,1.4520891560981801,9.459662346954083,0.5817198841409233,-0.5933333333333334,-0.44222222222222224,-0.0811111111111111,-0.3604215955937352,-0.44463166254955366,-1.4035976610275473
1592284710.8581905,1.0546644967451178,9.597098147220832,0.2632448673009514,-0.5931981305291271,-0.4426278306348412,-0.08097590830690479,-0.39580988856217797,-0.42459017783787373,-1.2791310081676168
1592284710.8681905,1.28,9.94,0.42,-0.5866666666666667,-0.4622222222222222,-0.07444444444444444,-0.4406956361285682,-0.33161255787892263,-1.2064588454410803
1592284710.8781905,1.2297092825328377,9.917455885273341,0.48936650685125815,-0.5866666666666667,-0.4622222222222222,-0.07444444444444444,-0.4397497971167232,-0.3155332946775568,-1.1712736342004446
1592284710.8881905,1.1434410905273908,9.878783937132969,0.6083571165139436,-0.5866666666666667,-0.4622222222222222,-0.07444444444444444,-0.4381273143686222,-0.28795108795984037,-1.1109172759710884
1592284710.8981905,1.057172898521944,9.840111988992597,0.727347726176629,-0.5866666666666667,-0.4622222222222222,-0.07444444444444444,-0.4365048316205212,-0.2603688812421239,-1.0505609177417323
1592284710.9081905,1.0041438147471053,9.795856185252894,0.8270719073735526,-0.5769755343399463,-0.47296104453020965,-0.07811135937887918,-0.398470203605186,-0.18772072148162527,-0.956764510755594
1592284710.9181905,1.05,9.75,0.85,-0.5455555555555556,-0.5077777777777778,-0.09,-0.2792526803190927,-0.02181661564992912,-0.8050331174823844
1592284710.9281905,0.7008408877774304,9.488130665833074,0.7724090861727624,-0.5455555555555556,-0.5077777777777778,-0.09,-0.2792526803190927,-0.02181661564992912,-0.8050331174823844
1592284710.9381905,0.18742129494105436,9.115133193176678,0.8466343774117145,-0.5455555555555556,-0.5077777777777778,-0.09,-0.2046205735922546,0.038004756956024566,-0.7378413725337228
1592284710.9481905,-0.09853263265558045,9.741175516250198,0.5914754792177332,-0.5455555555555556,-0.5077777777777778,-0.09,-0.2066960728411486,0.059579170228244535,-0.6971359356284241
1592284710.9581904,0.3008752005925195,9.85951857795334,-0.01503271201086287,-0.5455555555555556,-0.5077777777777778,-0.09,-0.24623057581260177,-0.009807916619612014,-0.8439783752366787
1592284710.9681904,0.23,9.73,0.58,-0.5244444444444445,-0.5111111111111111,-0.11333333333333333,-0.13308135546456762,-0.0839939702522271,-0.9795660426818175
1592284710.9781904,0.8418427030096536,9.28614196479273,1.3244338444065873,-0.5244444444444445,-0.5111111111111111,-0.11333333333333333,-0.12818413849503965,0.0012373898757041001,-0.9880728503019776
1592284710.9881904,0.02644631194550434,9.918347105503406,0.7896694679182565,-0.5244444444444445,-0.5111111111111111,-0.11333333333333333,-0.06821748629508245,0.015280644819184593,-0.9565504043435552
1592284710.9981904,0.11241897689174088,9.897538303471647,1.01832203756444,-0.5244444444444445,-0.5111111111111111,-0.11333333333333333,-0.041779558275959514,0.009693898840874855,-0.9030369036523234
1592284711.0081904,-0.20511337827607343,9.814375067594362,1.2073293918309962,-0.5244444444444445,-0.5111111111111111,-0.11333333333333333,-0.02940905586682918,0.008869198680266166,-0.8436584920884977
1592284711.0181904,-0.02,10.08,1.47,-0.5188888888888888,-0.5244444444444445,-0.09,0.016362461737446838,-0.025089107997418484,-0.7864889941799448
1592284711.0281904,-0.2277104680711534,9.704142962537912,0.8171956717763752,-0.5188888888888888,-0.5244444444444445,-0.09,0.01959927562914343,-0.027246983925216215,-0.7498051034073834
1592284711.0381904,-0.08961441424287142,9.98316846765364,0.759572523444566,-0.5188888888888888,-0.5244444444444445,-0.09,0.09296475136838513,-0.05231781667851308,-0.6839847310748802
1592284711.0481904,0.0330075779239348,9.392689805547613,1.4259819130683442,-0.5188888888888888,-0.5244444444444445,-0.09,0.1411554762332225,-0.03461679899558027,-0.6420227357855207
1592284711.0581903,-0.10192486416928796,9.969900807835288,0.7588159493851873,-0.5188888888888888,-0.5244444444444445,-0.09,0.21393199325517254,-0.014991670809885883,-0.6035901930885358
1592284711.0681903,0.4,11.77,0.33,-0.5022222222222222,-0.5644444444444444,-0.1288888888888889,0.3010692959690219,-0.004363323129985824,-0.5148721293383272
1592284711.0781903,-1.355116363636364,9.095974545454546,0.7435090909090909,-0.5022222222222222,-0.5644444444444444,-0.1288888888888889,0.31610491080921393,0.22117089947289506,-0.11191765162118006
1592284711.0881903,0.2525194311036867,10.184008723695507,0.14158604208719056,-0.5022222222222222,-0.5644444444444444,-0.1288888888888889,0.3873630941611166,0.12993862088190644,-0.0641321994931364
1592284711.0981903,-0.6668699598596898,9.962403355874589,0.4801723140346436,-0.5022222222222222,-0.5644444444444444,-0.1288888888888889,0.26871882413419784,0.15755721877444082,-0.059883406854164864
1592284711.1081903,0.5086200412251836,9.992738581709038,0.22990670090044485,-0.5022222222222222,-0.5644444444444444,-0.1288888888888889,0.3009821573150409,0.1360483299872121,-0.030929133486741624
1592284711.1181903,0.15,9.65,0.22,-0.49,-0.5688888888888889,-0.08444444444444445,0.24216443371421323,0.17998707911191522,-0.04799655442984406
1592284711.1281903,0.0866699383612736,9.921414549880256,0.1928585450119744,-0.49,-0.5688888888888889,-0.08444444444444445,0.24216443371421323,0.18492153487569526,-0.0322062959857479
1592284711.1381903,0.001859032519936965,9.932609235471086,0.16201566305334034,-0.49,-0.5688888888888889,-0.08444444444444445,0.2181405278881939,0.18871372537188688,-0.02050591013686022
1592284711.1481903,-0.23563457694870085,9.84010900140647,0.18574357835517064,-0.49,-0.5688888888888889,-0.08444444444444445,0.17107442880223742,0.18761100438043915,-0.017453292519943295
1592284711.1581903,-0.02605929380413058,9.987587904360057,0.12364719816418683,-0.49,-0.5688888888888889,-0.08444444444444445,0.15244685197890714,0.17152355166938119,-0.017453292519943295
1592284711.1681902,-0.1792413289854742,9.776993136159442,0.2153793355072629,-0.4955555555555556,-0.5811111111111111,-0.09333333333333334,0.09941756082796217,0.17795737716770701,-0.017042536386694396
1592284711.1781902,0.010102811870305917,9.898457821945412,0.31071968309214143,-0.4955555555555556,-0.5811111111111111,-0.09333333333333334,0.08274612897562064,0.16138688063300763,-0.009795046971880958
1592284711.1881902,0.019706906026744825,9.754396409598828,0.3779483421872138,-0.4955555555555556,-0.5811111111111111,-0.09333333333333334,0.06807911081424758,0.15614865986108867,-0.0076997586631133794
1592284711.1981902,0.16649813858532486,9.73046691485529,0.36046691485529003,-0.4955555555555556,-0.5811111111111111,-0.09333333333333334,0.07508906020832114,0.14640052114815497,-0.0044397218945291085
1592284711.2081902,0.1140538009870667,9.737992314144705,0.44791545559175233,-0.4955555555555556,-0.5811111111111111,-0.09333333333333334,0.09096019611862187,0.14355584616679737,-0.0034914969007432454
1592284711.2181902,0.17931090647121467,9.809397043162313,0.32129205036647246,-0.4955555555555556,-0.5667910863315863,-0.13078570583362917,0.10679806007508517,0.15371317977784804,-0.0032724923474893677
1592284711.2281902,0.20904705472289997,9.9165058673173,0.20381178110840015,-0.4955555555555556,-0.5666666666666667,-0.13111111111111112,0.1121823202567524,0.16120040533293992,-0.010665757348428983
1592284711.2381902,0.09516226415094338,9.900860377358491,0.027743396226415085,-0.4955555555555556,-0.5666666666666667,-0.13111111111111112,0.09460919448581905,0.1656185737180204,-0.017171734687781947
1592284711.2481902,0.24276517765772626,9.909547823603608,0.20140864846854994,-0.4955555555555556,-0.5666666666666667,-0.13111111111111112,0.07610584547717028,0.12831206332587908,-0.013287268562878603
1592284711.2581902,0.46154851585888435,9.878659479132017,0.2570107813019743,-0.4955555555555556,-0.5666666666666667,-0.13111111111111112,0.0530456408057811,0.09747724660266088,-0.01308996938995747
1592284711.2681901,0.394612837732313,9.821774168358582,0.3760968296111198,-0.501985666441078,-0.5870286844708209,-0.12253762993041456,0.027967483847605452,0.09996936849789946,-0.018350591556552512
1592284711.2781901,0.39893557852325484,9.78425768590698,0.424677892616274,-0.5022222222222222,-0.5877777777777777,-0.12222222222222222,0.028245489973669453,0.09060922787709338,-0.01854412330243975
1592284711.2881901,0.3530678884220118,9.770613577684403,0.2798172429504379,-0.5022222222222222,-0.5877777777777777,-0.12222222222222222,0.02631380066503474,0.09149592384458251,-0.014448523942693525
1592284711.29819,0.37792796400555934,9.853783892016677,0.18621610798332194,-0.5022222222222222,-0.5877777777777777,-0.12222222222222222,0.03125738591820114,0.09569174344033125,-0.009103353034167734
1592284711.30819,0.2618158867368166,9.86,0.19575788176842446,-0.5022222222222222,-0.5877777777777777,-0.12222222222222222,0.025617878817419244,0.10458770010965665,-0.010445564509965356
1592284711.31819,0.2999530420114431,9.839812168045773,0.08009391597711368,-0.4955555555555556,-0.5866666666666667,-0.13111111111111112,0.008603710533407046,0.09048260940586374,-0.006529617729158161
1592284711.32819,0.29039207640930953,9.80156830563724,0.09921584718138093,-0.4955555555555556,-0.5866666666666667,-0.13111111111111112,-0.016426838880666046,0.0790102742577469,-0.003400799052399024
1592284711.33819,0.38381676540560716,9.865671735783923,0.024946587675514303,-0.4955555555555556,-0.5866666666666667,-0.13111111111111112,-0.03894431779986712,0.0590955553721947,-0.0002023458789288217
1592284711.34819,0.3808433734939759,9.961566265060242,0.056626506024096385,-0.4955555555555556,-0.5866666666666667,-0.13111111111111112,-0.06233506507687578,0.0458280354043993,-0.007990664045275243
1592284711.35819,0.22428071125902133,9.925508774645435,0.2379649014182613,-0.4955555555555556,-0.5866666666666667,-0.13111111111111112,-0.07972760892041068,0.030164342632030695,-0.016006505985133646
1592284711.36819,-0.01,9.78,0.48,-0.49,-0.5911111111111111,-0.13111111111111112,-0.09817477042468103,0.016362461737446838,-0.02945243112740431
1592284711.37819,-0.2146783238569982,9.717706597087002,0.4888990575589999,-0.49,-0.5911111111111111,-0.13111111111111112,-0.08846740450411615,0.0037428860407124863,-0.03139390431151729
1592284711.38819,-0.26,9.68,0.41,-0.49,-0.5911111111111111,-0.13111111111111112,-0.07308566242726255,-0.017453292519943295,-0.02399827721492203
1592284711.39819,-0.2518266054306664,9.794427523970672,0.26287889775199424,-0.49,-0.5911111111111111,-0.13111111111111112,-0.06506145107291589,-0.03261013618926477,-0.01775722393931907
1592284711.40819,-0.22087433821239488,9.863688492681408,0.16446726097788852,-0.49,-0.5911111111111111,-0.13111111111111112,-0.067239581439607,-0.03917453266623309,-0.01159678647167178
1592284711.41819,-0.15,9.86,0.13,-0.49,-0.5866666666666667,-0.15222222222222223,-0.09490227807719166,-0.03599741582238304,-0.002181661564992912
1592284711.42819,-0.1566889065204847,9.839933280438546,0.17682234564339297,-0.49,-0.5866666666666667,-0.15222222222222223,-0.11314344091165662,-0.024323071608325475,0.0014665710019000785
1592284711.43819,-0.18578196317087248,9.838593987723623,0.25156392634174496,-0.49,-0.5866666666666667,-0.15222222222222223,-0.14373459625225257,-0.004482243772450942,0.0032724923474893677
1592284711.44819,-0.20735271795844795,9.813970923062328,0.3988217436675837,-0.49,-0.5866666666666667,-0.15222222222222223,-0.15672659509154863,0.008229221834986842,0.004218936292942073
1592284711.45819,-0.24512082987231248,9.774879170127688,0.5253624896169374,-0.49,-0.5866666666666667,-0.15222222222222223,-0.15893668110861692,0.012882347628991264,0.007428193716508985
1592284711.46819,-0.16123868562316107,9.699256788626103,0.6812386856231611,-0.5166666666666667,-0.5911111111111111,-0.13666666666666666,-0.14012264452270765,0.006599032551281931,0.008672598403668451
1592284711.47819,-0.20834130674033643,9.670995215955799,0.7283413067403365,-0.5166666666666667,-0.5911111111111111,-0.13666666666666666,-0.11751500934031936,0.008654272113317232,0.006617358841633151
1592284711.48819,-0.19518036234228406,9.721868731802006,0.5818036234228405,-0.5166666666666667,-0.5911111111111111,-0.13666666666666666,-0.0973200333961445,0.003068645330103565,0.003311841306482689
1592284711.49819,-0.18034424670561064,9.720688493411222,0.6362132862382829,-0.5166666666666667,-0.5911111111111111,-0.13666666666666666,-0.07895288273332324,-0.009441962139215011,-0.0030847348958628214
1592284711.50819,-0.18446858210698436,9.72,0.64,-0.5166666666666667,-0.5911111111111111,-0.13666666666666666,-0.07171556265676887,-0.008355136967544682,-0.0037599390391305078
1592284711.51819,-0.17361969035331482,9.711809845176658,0.6727606192933704,-0.49027616779145167,-0.5811009218825813,-0.13666666666666666,-0.05165389049166634,-0.00475817009603595,-0.006150137728928609
1592284711.52819,-0.19618782982300473,9.718729276607668,0.6712707233923318,-0.48444444444444446,-0.5788888888888889,-0.13666666666666666,-0.03670857248999854,-0.004363323129985824,-0.006544984694978735
1592284711.53819,-0.19144674868189807,9.745659753954305,0.5759142355008788,-0.48444444444444446,-0.5788888888888889,-0.13666666666666666,-0.019978345314744232,0.006832856663870947,-0.005611969712157338
1592284711.5481899,-0.18175905446502627,9.741759054465026,0.6094456732098424,-0.48444444444444446,-0.5788888888888889,-0.13666666666666666,-0.0039690769203041855,0.013221384793184684,-0.006353101619124887
1592284711.5581899,-0.18624974952181436,9.746249749521814,0.6449989980872575,-0.48444444444444446,-0.5788888888888889,-0.13666666666666666,0.0077718141271774545,0.016226025920840215,-0.006544984694978735
1592284711.5681899,-0.19780469977707124,9.726585900668788,0.6678046997770712,-0.49831946627034884,-0.5944982884430313,-0.13666666666666666,0.021603576154929992,0.02341281725542406,-0.004842263341984231
1592284711.5781898,-0.2771416304918189,9.72,0.7728555073224253,-0.5022222222222222,-0.5988888888888889,-0.13666666666666666,0.04176295319154895,0.02321914210514197,-0.004363323129985824
1592284711.5881898,-0.2327747333954842,9.72,0.6918995429636873,-0.5022222222222222,-0.5988888888888889,-0.13666666666666666,0.06790977838332726,0.014881621559011998,-0.002579806491449473
1592284711.5981898,-0.24415167339188226,9.687797768810823,0.6780505577972942,-0.5022222222222222,-0.5988888888888889,-0.13666666666666666,0.09328379382883964,0.009577250885335368,-0.0030598411911484376
1592284711.6081898,-0.23219112988384372,9.703745160154876,0.6147008095740936,-0.5022222222222222,-0.5988888888888889,-0.13666666666666666,0.1156585877764471,0.0016036095611039955,-0.0032724923474893677
1592284711.6181898,-0.2535594004770551,9.760271280572466,0.5230168393321228,-0.507442573407542,-0.5757701907824732,-0.14114125339694067,0.1422702523850845,-0.009861865222338994,-0.006933255055739161
1592284711.6281898,-0.2613308418150975,9.788669158184902,0.4306467345207803,-0.51,-0.5644444444444444,-0.14333333333333334,0.1541721095052258,-0.025383529378306992,-0.010617963181256188
1592284711.6381898,-0.22065267313968012,9.806863140082994,0.3300632528906974,-0.51,-0.5644444444444444,-0.14333333333333334,0.15121900465608074,-0.03156289709723006,-0.008455663519353899
1592284711.6481898,-0.19845643063190552,9.828456430631906,0.20926141620856692,-0.51,-0.5644444444444444,-0.14333333333333334,0.13451618415452526,-0.03951885246155084,-0.01115725211664298
1592284711.6581898,-0.18045568028738213,9.823485226762461,0.2195443197126179,-0.51,-0.5644444444444444,-0.14333333333333334,0.12275205493703163,-0.042492693508916456,-0.009867184050913429
1592284711.6681898,-0.1522268659070299,9.82,0.24777313409297008,-0.5030882256305117,-0.5841923712144111,-0.14333333333333334,0.10036099091657316,-0.03975573494584844,-0.0058185239944643
1592284711.6781898,-0.18949652451625024,9.824937065564532,0.22037760661281233,-0.5022222222222222,-0.5866666666666667,-0.14333333333333334,0.09171216671308828,-0.03603860631407604,-0.0043770532938834875
1592284711.6881897,-0.2526229768747848,9.822459007708405,0.16737702312521524,-0.5022222222222222,-0.5866666666666667,-0.14333333333333334,0.07521366520803528,-0.027789355561549538,-0.004917681651937415
1592284711.6981897,-0.20554721924496844,9.81222103132071,0.1988948433964511,-0.5022222222222222,-0.5866666666666667,-0.14333333333333334,0.06011507775674228,-0.02278572338333671,-0.0029084923650486067
1592284711.7081897,-0.22455601659751037,9.81,0.21575933609958506,-0.5022222222222222,-0.5866666666666667,-0.14333333333333334,0.0498124934752282,-0.02307310787076321,-0.0009251693441588199
1592284711.7181897,-0.2222925924494764,9.823853703775262,0.2615611113257854,-0.5076097736903796,-0.5766612139400886,-0.11793487641202005,0.03867924347049752,-0.027020686520850615,0.0
1592284711.7281897,-0.22636888995906573,9.805446665061401,0.28,-0.51,-0.5722222222222222,-0.10666666666666667,0.029747924657456924,-0.027468815892775552,0.0026783533563969086
1592284711.7381897,-0.20723063007412637,9.8,0.22687147017296153,-0.51,-0.5722222222222222,-0.10666666666666667,0.020910341460950253,-0.02395909894731913,0.002444574693716301
1592284711.7481897,-0.16999105091304875,9.815004474543477,0.21,-0.51,-0.5722222222222222,-0.10666666666666667,0.015270654760998214,-0.017178876484902888,0.0038183958357136797
1592284711.7581897,-0.14315699749613767,9.836843002503862,0.22122866833590824,-0.51,-0.5722222222222222,-0.10666666666666667,0.0074440827854653545,-0.009759771274687006,0.004975751983348421
1592284711.7681897,-0.17395485162934646,9.831162206444565,0.29279264518478065,-0.5051161275967393,-0.5764083985678743,-0.1296906365677529,-0.0067228379716588425,0.006190191635446937,0.004769192409662914
