time,acc_x,acc_y,acc_z,mag_x,mag_y,mag_z,gyr_x,gyr_y,gyr_z
1592284853.928054,-0.22451489760149818,9.806287244003746,0.977257448800749,-0.5255555555555556,-0.5722222222222222,-0.15555555555555556,-0.016256628811657105,0.029047432274543032,-0.005260820911200466
1592284853.938054,-0.2205669056961169,9.772641726424029,0.9488661886077662,-0.5255555555555556,-0.5722222222222222,-0.15555555555555556,-0.012801801739730934,0.025377275647645022,-0.01022932432951402
1592284853.948054,-0.2607867667500695,9.76921323324993,0.9180455935501807,-0.5255555555555556,-0.5722222222222222,-0.15555555555555556,-0.012705130840336119,0.025709277291331538,-0.018865276985693503
1592284853.958054,-0.3072531196213425,9.73,1.0301543674698797,-0.5255555555555556,-0.5722222222222222,-0.15555555555555556,-0.014163961293657861,0.024314754261005607,-0.025105946876214553
1592284853.968054,-0.3448526247848537,9.73,1.0827936746987952,-0.5255555555555556,-0.5722222222222222,-0.15555555555555556,-0.008421903624198918,0.025955342166565306,-0.030848004545673498
1592284853.978054,-0.3064760974214766,9.670315046947238,1.1613185739478575,-0.5244444444444445,-0.56,-0.16333333333333333,0.0062229501939166775,0.02867726590402931,-0.030227596350779314
1592284853.988054,-0.21238302190650576,9.709532087626023,1.0166376933089192,-0.5244444444444445,-0.56,-0.16333333333333333,0.03194982213417519,0.03480450239567758,-0.024880201954425002
1592284853.998054,-0.22583401075127835,9.74972335125213,0.8808299462436082,-0.5244444444444445,-0.56,-0.16333333333333333,0.04966342166960848,0.04357287590583523,-0.020513654250335675
1592284854.008054,-0.25,9.79,0.76,-0.5244444444444445,-0.56,-0.16333333333333333,0.061086523819801536,0.05235987755982988,-0.019634954084936207
1592284854.018054,-0.28982584657912924,9.909477539737388,0.63056599861783,-0.5244444444444445,-0.56,-0.16333333333333333,0.05348395342698984,0.07516758873826496,-0.014204546661499288
1592284854.028054,-0.36,10.0,0.46,-0.5311111111111111,-0.5788888888888889,-0.16333333333333333,0.014180800172453926,0.09599310885968812,-0.006544984694978735
1592284854.038054,-0.33355574112734865,9.9182791927627,0.48827919276270004,-0.5311111111111111,-0.5788888888888889,-0.16333333333333333,-0.039071660871920585,0.12283003596641938,-0.004515599159887556
1592284854.048054,-0.6965468005078939,9.891270932656141,0.47436453367192927,-0.5311111111111111,-0.5788888888888889,-0.16333333333333333,-0.10371006828626975,0.12719033089275775,0.01235755704932726
1592284854.058054,-0.72,9.86,0.49,-0.5311111111111111,-0.5788888888888889,-0.16333333333333333,-0.13526301702956053,0.11780972450961724,0.0370882466048795
1592284854.068054,-0.39860948373523225,9.850547337756918,0.631789933646221,-0.5311111111111111,-0.5788888888888889,-0.16333333333333333,-0.17341466034935277,0.11059184604371061,0.07420876442954219
1592284854.078054,-0.31,9.76,0.85,-0.5133333333333333,-0.5788888888888889,-0.16333333333333333,-0.210530341021816,0.13308135546456762,0.10471975511965977
1592284854.088054,-0.3013282082289597,9.586766865336443,1.3868673519334314,-0.5133333333333333,-0.5788888888888889,-0.16333333333333333,-0.24054048376722123,0.14402245322753932,0.09971121772101411
1592284854.098054,0.14005210811839724,9.427321071666508,2.0770743313981157,-0.5133333333333333,-0.5788888888888889,-0.16333333333333333,-0.18286386369053761,0.044939720999547114,0.041556557136483256
1592284854.108054,-0.025874909687371855,9.700015816914334,1.5905463669914666,-0.5133333333333333,-0.5788888888888889,-0.16333333333333333,-0.05581461880257692,-0.04260545062605307,0.0025003628238574526
1592284854.118054,0.03964695085040323,9.839249770557107,1.2219859014664818,-0.5133333333333333,-0.5788888888888889,-0.16333333333333333,0.034420374978742216,-0.0327778770459094,-0.01626136855641682
1592284854.128054,0.0,9.71,1.17,-0.5188888888888888,-0.56,-0.17,0.0545415391248228,-0.038179077387375956,-0.042542400517361786
1592284854.138054,-0.23777708625071314,9.798888543125358,0.819996888128209,-0.5188888888888888,-0.56,-0.17,0.06944944666808968,-0.026543322739044382,-0.0786617363820808
1592284854.148054,-0.18860209096164965,9.814010165735208,0.7363061283484293,-0.5188888888888888,-0.56,-0.17,0.06372010549939683,-0.02475517377155693,-0.09748687853259701
1592284854.1580539,-0.026556981569043715,9.921562867895396,0.7293772073723825,-0.5188888888888888,-0.56,-0.17,0.04717746819507441,-0.04186047075365195,-0.10165235538016193
1592284854.1680539,0.09486442149956577,9.92965762809997,0.7779457685998263,-0.5188888888888888,-0.56,-0.17,0.02598543553569059,-0.038328465310421306,-0.11401437443146915
1592284854.1780539,0.14,9.97,0.84,-0.4988888888888889,-0.56,-0.16333333333333333,-0.006544984694978735,-0.01854412330243975,-0.14289883250703572
1592284854.1880538,0.1788341954502475,9.980291451137438,0.9662111352133044,-0.4988888888888889,-0.56,-0.16333333333333333,-0.03445160200201235,0.015261741338311697,-0.17904532064893564
1592284854.1980538,0.1279279936490227,10.00358100714485,0.8550900079387216,-0.4988888888888889,-0.56,-0.16333333333333333,-0.05908910539253068,0.05521960161757507,-0.22199388258105146
1592284854.2080538,0.06828457993910968,10.08,0.9526705340245206,-0.4988888888888889,-0.56,-0.16333333333333333,-0.07949668308514131,0.07617316323005306,-0.23008662208931963
1592284854.2180538,0.21496256068460462,10.08,1.1770015633999835,-0.4988888888888889,-0.56,-0.16333333333333333,-0.09643795024519396,0.05358480701664953,-0.20938062889369974
1592284854.2280538,-0.16,10.05,1.48,-0.5155555555555555,-0.5722222222222222,-0.16333333333333333,-0.11890055529211369,0.053450708342326333,-0.2596177262341565
1592284854.2380538,0.8736652052610602,10.233548027102431,0.9583371861299321,-0.5155555555555555,-0.5722222222222222,-0.16333333333333333,-0.08834068527703502,0.07241890352409931,-0.3776420518096328
1592284854.2480538,0.6676591012364576,10.34094157319494,1.0123408987635425,-0.5155555555555555,-0.5722222222222222,-0.16333333333333333,-0.04688907930134917,0.09964315132518596,-0.4888838092439272
1592284854.2580538,0.7222663184424882,10.411954743032473,0.9560150856558425,-0.5155555555555555,-0.5722222222222222,-0.16333333333333333,-0.0591005599349135,0.15767602947798498,-0.5900106550508435
1592284854.2680538,0.6533239580669905,10.251089235489646,1.0096369215034517,-0.5155555555555555,-0.5722222222222222,-0.16333333333333333,-0.09001794448908684,0.17271691926109636,-0.6861052286651661
1592284854.2780538,0.58,9.89,1.5,-0.5155555555555555,-0.5866666666666667,-0.17,-0.11671889372712078,0.1832595714594046,-0.8323038870447959
1592284854.2880538,0.07472162349017852,10.093884257188172,1.4202192037089756,-0.5155555555555555,-0.5866666666666667,-0.17,-0.07610613111883413,0.1368449856213627,-0.924166088182587
1592284854.2980537,0.25712889846990183,9.843130257515758,1.7870447782177754,-0.5155555555555555,-0.5866666666666667,-0.17,-0.007873371568402907,0.08361506649798647,-1.053827344489564
1592284854.3080537,0.4818328056658675,9.872722398111376,1.59,-0.5155555555555555,-0.5866666666666667,-0.17,0.061052027990653165,0.006196572828007474,-1.1461772841899995
1592284854.3180537,0.3897229288289442,9.903425690390351,1.59,-0.5155555555555555,-0.5866666666666667,-0.17,0.12217510381460438,0.01456959691348024,-1.2290702226361798
1592284854.3280537,0.2,10.04,1.43,-0.4888888888888889,-0.5866666666666667,-0.17,0.20398535632683729,0.04581489286485115,-1.3646293089030663
1592284854.3380537,-0.1757711861014371,10.049888715423723,1.172893398983227,-0.4888888888888889,-0.5866666666666667,-0.17,0.2320313358040503,0.0997494687825685,-1.485442758958753
1592284854.3480537,-1.0336689765709706,9.727536416348466,0.6393244708433508,-0.4888888888888889,-0.5866666666666667,-0.17,0.2254754375182338,0.17263012920430185,-1.6294844935838382
1592284854.3580537,-1.4180757431693007,9.686540428051165,0.5210767657559068,-0.4888888888888889,-0.5866666666666667,-0.17,0.19473886239807178,0.2394705174971217,-1.728831916362389
1592284854.3680537,-1.530945085305251,9.498424857824581,0.5361260113740335,-0.4888888888888889,-0.5866666666666667,-0.17,0.15698164753878605,0.27804854137508755,-1.787930165707358
1592284854.3780537,-1.89,9.41,0.46,-0.41888888888888887,-0.6311111111111111,-0.15555555555555556,0.08508480103472357,0.3141592653589793,-1.8555031610264714
1592284854.3880537,-2.155691056910569,9.326971544715448,0.3935772357723577,-0.41888888888888887,-0.6311111111111111,-0.15555555555555556,0.041611203507913586,0.3204991649983057,-1.8718057600990254
1592284854.3980536,-2.2847008069220296,9.24529919307797,0.2560438946140385,-0.41888888888888887,-0.6311111111111111,-0.15555555555555556,-0.029915896344904325,0.32004496342484223,-1.8861196770062743
1592284854.4080536,-2.35,9.18,0.34,-0.41888888888888887,-0.6311111111111111,-0.15555555555555556,-0.0818123086872342,0.3108867730114899,-1.8871372537188686
1592284854.4180536,-2.5552135367307636,9.160140625477668,0.346619791507444,-0.41888888888888887,-0.6311111111111111,-0.15555555555555556,-0.1186397776723796,0.2993330572514443,-1.8690845728437973
1592284854.4280536,-2.99,9.12,0.48,-0.3688888888888889,-0.6577777777777778,-0.14888888888888888,-0.19634954084936207,0.27707101875409984,-1.8129607605091096
1592284854.4380536,-3.015815188956413,9.059764559101703,0.5746556928401819,-0.3688888888888889,-0.6577777777777778,-0.14888888888888888,-0.24609887907568745,0.25360434977941804,-1.7801074239445553
1592284854.4480536,-3.0256998980429213,8.939641658170244,0.7260918111058613,-0.3688888888888889,-0.6577777777777778,-0.14888888888888888,-0.29429343914836664,0.20939675915600783,-1.776028870023652
1592284854.4580536,-2.91,8.93,0.89,-0.3688888888888889,-0.6577777777777778,-0.14888888888888888,-0.3174317577064687,0.17889624832941878,-1.780235837034216
1592284854.4680536,-2.9228810209005553,8.987964594052498,0.8642379581988896,-0.3688888888888889,-0.6577777777777778,-0.14888888888888888,-0.32305216334979103,0.15922482857779058,-1.7774256342125547
1592284854.4780536,-2.95,9.06,0.73,-0.28888888888888886,-0.6844444444444444,-0.14888888888888888,-0.3403392041388943,0.14508049407202864,-1.7507834059068117
1592284854.4880536,-3.3664136586828595,8.926747629221486,0.6800303609580569,-0.28888888888888886,-0.6844444444444444,-0.14888888888888888,-0.3675934143674884,0.1587075991863257,-1.7362478271182282
1592284854.4980536,-3.6653325737074494,8.67822247543085,0.5727650382186773,-0.28888888888888886,-0.6844444444444444,-0.14888888888888888,-0.41084178880237315,0.1720496447540688,-1.7052191198005655
1592284854.5080535,-3.9292280089609646,8.588713348268273,0.7146319462342142,-0.28888888888888886,-0.6844444444444444,-0.14888888888888888,-0.44532562792846464,0.15670068246435345,-1.6629415003878143
1592284854.5180535,-3.8793364524890466,8.50556075414841,1.0139812850657204,-0.28888888888888886,-0.6844444444444444,-0.14888888888888888,-0.4625596556974369,0.13221022195055082,-1.6257522825705584
1592284854.5280535,-3.83,8.49,1.6,-0.21444444444444444,-0.6933333333333334,-0.17222222222222222,-0.4657847441259867,0.0839939702522271,-1.6035212502697902
1592284854.5380535,-3.9131948701403454,8.431763590901758,1.7913482013227942,-0.21444444444444444,-0.6933333333333334,-0.17222222222222222,-0.47304486614957736,0.03771069235183636,-1.6452669519054368
1592284854.5480535,-3.6030294287362956,8.063304831348686,1.8993573939044222,-0.21444444444444444,-0.6933333333333334,-0.17222222222222222,-0.45505668688932743,-0.004062905482810332,-1.7196292947809875
1592284854.5580535,-4.2415017558845864,8.425162537965072,1.7815689066059226,-0.21444444444444444,-0.6933333333333334,-0.17222222222222222,-0.39351200221851024,-0.018358720376874495,-1.7719154569085
1592284854.5680535,-4.652230683801364,8.372538473742662,1.6814945264159924,-0.21444444444444444,-0.6933333333333334,-0.17222222222222222,-0.33449548016590114,-0.02481220346751299,-1.81468570266509
1592284854.5780535,-4.71,7.81,1.67,-0.15555555555555556,-0.7,-0.16444444444444445,-0.26070855701665296,-0.00545415391248228,-1.8478673455489965
1592284854.5880535,-4.8020524455867,7.676105533692073,1.67,-0.15555555555555556,-0.7,-0.16444444444444445,-0.2552314493121047,-0.025536882162492728,-1.8716014789353723
1592284854.5980535,-5.178271983640082,7.48538854805726,1.3988752556237218,-0.15555555555555556,-0.7,-0.16444444444444445,-0.22036343322885973,-0.03156493982070522,-1.8508788415742934
1592284854.6080534,-5.658624883068288,7.694786404739633,1.39,-0.15555555555555556,-0.7,-0.16444444444444445,-0.21925698728178766,-0.03695899319130025,-1.8138396837214485
1592284854.6180534,-5.71856324110672,7.635249011857708,1.6975671936758894,-0.15555555555555556,-0.7,-0.16444444444444445,-0.20954503626066975,-0.03443953269002916,-1.7652839100418038
1592284854.6280534,-5.621597607859889,7.235664246048698,1.9572404955147373,-0.07890739949689117,-0.6945251317100953,-0.1666343917604063,-0.20940782442419362,-0.043490645131791635,-1.7304061650057643
1592284854.6380534,-5.6408725728155344,7.508300970873787,1.7860618932038834,-0.07777777777777778,-0.6944444444444444,-0.16666666666666666,-0.1798405318211114,-0.0717143133889275,-1.705771279773157
1592284854.6480534,-5.584566043884423,7.396307299587225,1.8969541603302194,-0.07777777777777778,-0.6944444444444444,-0.16666666666666666,-0.1373264835363805,-0.08807267731230672,-1.6564033189287362
1592284854.6580534,-5.513994610578528,7.521440120188869,1.8251359278866792,-0.07777777777777778,-0.6944444444444444,-0.16666666666666666,-0.13423443544968044,-0.07601431442365167,-1.6547280478445072
1592284854.6680534,-5.957315387937239,7.058285590902548,1.6248078307182958,-0.07777777777777778,-0.6944444444444444,-0.16666666666666666,-0.12707479868857266,-0.02913430486206131,-1.6485800829334438
1592284854.6780534,-6.069986325929078,6.77024613327661,1.7597538667233887,-0.015640638663519946,-0.6966636279842393,-0.19551605268400069,-0.16466175020601997,0.0391908528532036,-1.6613158908153722
1592284854.6880534,-6.224450268262484,6.702847709451094,1.739854312835328,-0.015555555555555555,-0.6966666666666667,-0.19555555555555557,-0.17350566243447196,0.0671055867153117,-1.6811132638664934
1592284854.6980534,-6.5737554374093765,6.587873368777187,1.9216288061865634,-0.015555555555555555,-0.6966666666666667,-0.19555555555555557,-0.1837778347069609,0.08470308934476348,-1.7216452015297061
1592284854.7080534,-6.717122544884926,6.404316182672611,2.1221906253765517,-0.015555555555555555,-0.6966666666666667,-0.19555555555555557,-0.17441344511974993,0.0701793653514969,-1.7402186854617057
1592284854.7180533,-6.743399167712531,6.368561331659951,2.161438668340049,-0.015555555555555555,-0.6966666666666667,-0.19555555555555557,-0.15310864547728592,0.047804241373599725,-1.7661688827324502
1592284854.7280533,-7.052527760223887,6.255613433240047,1.9608179109867292,0.04914908769923665,-0.6916893864162981,-0.16469641800327006,-0.037806046151111924,0.042542400517361786,-1.7110309599709168
1592284854.7380533,-7.077215075788612,6.099365833674724,1.9655698484227775,0.056666666666666664,-0.6911111111111111,-0.16111111111111112,-0.025089107997418484,0.042542400517361786,-1.7038776822594641
1592284854.7480533,-7.42796694393432,5.939457437614777,1.962101652803284,0.056666666666666664,-0.6911111111111111,-0.16111111111111112,0.00029218050396456405,0.057185451575852,-1.6648295461034903
1592284854.7580533,-7.542526624258452,5.630827674933886,1.8784075477092417,0.056666666666666664,-0.6911111111111111,-0.16111111111111112,0.027006774634991414,0.06582736125533005,-1.6078312442413722
1592284854.7680533,-8.17699464064862,5.7716771039871215,2.0566055478120893,0.056666666666666664,-0.6911111111111111,-0.16111111111111112,0.10110381778719468,0.06165535591457083,-1.483554255256278
1592284854.7780533,-8.577670125755665,5.529727798790935,1.979247405683251,0.10671203353484413,-0.68798327568185,-0.18300595911593875,0.15103508375325003,0.02212316826339182,-1.334669459674303
1592284854.7880533,-8.656836215666328,5.59911495422177,1.7769175991861648,0.11,-0.6877777777777778,-0.18444444444444444,0.1681077876300998,-0.02329916898198941,-1.2262813380837396
1592284854.7980533,-8.574559082892417,5.348824221046443,1.8066541740152853,0.11,-0.6877777777777778,-0.18444444444444444,0.18590239921279422,-0.06022423202620113,-1.0454974968730244
1592284854.8080533,-8.912394788863221,5.706444137471122,1.5116545597446829,0.11,-0.6877777777777778,-0.18444444444444444,0.1991549870878906,-0.10074748600492,-0.8783467561907913
1592284854.8180532,-9.094411544758172,5.461307678315177,1.4774673080421206,0.11,-0.6877777777777778,-0.18444444444444444,0.18116349723999955,-0.12861818043139595,-0.724081929491691
1592284854.8280532,-9.174513025111477,5.411769537667214,1.894156301337714,0.15601736681530157,-0.6705212652220397,-0.1585596756108373,0.19147446678433508,-0.16835453747242765,-0.5260228724486764
1592284854.8380532,-9.043724831447834,5.462585990172552,1.661898068792138,0.16333333333333333,-0.6677777777777778,-0.15444444444444444,0.1923097149250367,-0.2198962034002475,-0.34383818940511246
1592284854.8480532,-9.061429072213134,5.28771208226221,1.7508588455246554,0.16333333333333333,-0.6677777777777778,-0.15444444444444444,0.19560158630020466,-0.2722718986569072,-0.1635916043839722
1592284854.8580532,-8.822757371960682,5.446088980858769,1.7885256078634248,0.16333333333333333,-0.6677777777777778,-0.15444444444444444,0.22331952779042294,-0.30468433062637945,0.024249399666143395
1592284854.8680532,-8.680138461843645,5.394404395865982,1.86846263712285,0.16333333333333333,-0.6677777777777778,-0.15444444444444444,0.2194246875568139,-0.3141517134369169,0.15319831259804698
1592284854.8780532,-8.454280658859863,5.3953751125981215,1.7673433277570454,0.1878993837486953,-0.6628645676947055,-0.17311464276011954,0.1889727117048821,-0.3298468185386803,0.2935326533068643
1592284854.8880532,-8.369809543065102,5.50700525677315,1.8570052567731499,0.19111111111111112,-0.6622222222222223,-0.17555555555555555,0.16428489420355005,-0.3184810372315,0.38093540021689865
1592284854.8980532,-8.274147257517743,5.642315928102822,1.9017684071897178,0.19111111111111112,-0.6622222222222223,-0.17555555555555555,0.1187879685089143,-0.3056921114154838,0.49052031579024435
1592284854.9080532,-8.26,5.589362362039797,1.9612192862321758,0.19111111111111112,-0.6622222222222223,-0.17555555555555555,0.10766890001977979,-0.2961227259282627,0.5534050918107845
1592284854.9180532,-8.188897863938251,5.425970202836115,2.1722042721234964,0.19111111111111112,-0.6622222222222223,-0.17555555555555555,0.0831811828571198,-0.29958019740487074,0.6417566417577597
1592284854.9280531,-7.934034642878964,5.523976904747357,2.1460166799046863,0.19288860376231307,-0.6639997148734241,-0.1702230776019497,0.0763574549688488,-0.32397394317783496,0.7003070641095968
1592284854.9380531,-7.9003102344984,5.686938965615001,2.175853144870601,0.19333333333333333,-0.6644444444444444,-0.1688888888888889,0.08963425150206542,-0.30784666371515,0.7555486488358745
1592284854.9480531,-7.661306052631579,5.982462631578947,1.9791452631578947,0.19333333333333333,-0.6644444444444444,-0.1688888888888889,0.10230238798742795,-0.24522306581618683,0.8885119859566875
1592284854.958053,-7.727777564210374,5.916536123591456,2.055882126810985,0.19333333333333333,-0.6644444444444444,-0.1688888888888889,0.10342216419100839,-0.18216169054643336,0.9970120754019782
1592284854.968053,-7.757019784392993,5.8542374127159125,2.0691384907509494,0.19333333333333333,-0.6644444444444444,-0.1688888888888889,0.10102819559908344,-0.16724378223910727,1.0420113944829756
1592284854.978053,-7.8351242685025815,5.815836144578313,2.262276764199656,0.17587194492254732,-0.6688097915471409,-0.17761958309428189,0.11918773855629727,-0.15106650778496805,1.1517385677784027
1592284854.988053,-7.50339284798112,5.921871120004105,2.20169642399056,0.16666666666666666,-0.6711111111111111,-0.18222222222222223,0.14538665536676193,-0.16224668167615403,1.2111410341184097
1592284854.998053,-7.375653964153076,5.944927337316325,2.041743904408203,0.16666666666666666,-0.6711111111111111,-0.18222222222222223,0.16286519271457278,-0.17333112664800823,1.232970190343596
1592284855.008053,-7.314727319989602,6.1561811801403685,1.92,0.16666666666666666,-0.6711111111111111,-0.18222222222222223,0.1753064311239383,-0.1844098917917237,1.2803972386747378
1592284855.018053,-7.263296605651324,6.295893015816598,1.9375137728807534,0.16666666666666666,-0.6711111111111111,-0.18222222222222223,0.16179655014878125,-0.17907304549907166,1.3299355783503277
1592284855.028053,-7.089333232077765,6.420333383961118,1.8304332472660996,0.15807036418253004,-0.6812703776832726,-0.1626851711219117,0.13200141807878277,-0.16225743395752418,1.402582979960007
1592284855.038053,-6.951484764542936,6.436914127423823,1.809443213296399,0.15444444444444444,-0.6855555555555556,-0.15444444444444444,0.11541291848004331,-0.15386787633955756,1.4427642185257625
1592284855.048053,-6.782868580578749,6.666731099165046,1.7416344504174768,0.15444444444444444,-0.6855555555555556,-0.15444444444444444,0.07981767163819257,-0.140260900992187,1.503916534563376
1592284855.058053,-6.533986701358774,6.754624168834924,2.0052045388840707,0.15444444444444444,-0.6855555555555556,-0.15444444444444444,0.051029294218098695,-0.1508626225476206,1.5108006337575914
1592284855.068053,-6.457600060459492,6.742800181378477,2.1119996977025393,0.15444444444444444,-0.6855555555555556,-0.15444444444444444,0.03922641343583031,-0.1567305206633382,1.5087062914160583
1592284855.078053,-6.145791292897703,6.941242696074397,2.1085169944860502,0.12141168079444764,-0.6940057974195083,-0.16443109392002486,0.03539189745945501,-0.16328796891472339,1.4990572582066142
1592284855.088053,-6.089906976744186,7.006705426356589,1.973468992248062,0.10666666666666667,-0.6977777777777778,-0.1688888888888889,0.042177944651271886,-0.15926636787602907,1.5126013501539683
1592284855.098053,-6.098504607845867,6.981316925132946,1.767544616755297,0.10666666666666667,-0.6977777777777778,-0.1688888888888889,0.05339834895070054,-0.14527650771098044,1.5777393825722648
1592284855.108053,-6.052094533433036,7.0505017907040815,1.9378180959502538,0.10666666666666667,-0.6977777777777778,-0.1688888888888889,0.06229000523684758,-0.1404886927876705,1.5974911356434676
1592284855.118053,-5.786110578459572,7.258090444231384,2.0396784116331097,0.10666666666666667,-0.6977777777777778,-0.1688888888888889,0.09927985103403417,-0.1427530223521047,1.6126579167771455
1592284855.128053,-5.7581674126043305,7.750930607636789,1.7104886899721785,0.08163532832457474,-0.7029312886129144,-0.167416457221707,0.11461719387184034,-0.15487131721125927,1.6343392760963982
1592284855.138053,-5.688212332928311,7.8649813942891855,1.4777840218712028,0.06888888888888889,-0.7055555555555556,-0.16666666666666666,0.08823440095619278,-0.1594989608236884,1.6445228771587315
1592284855.148053,-5.004232625482626,7.658846525096525,1.3606397468897469,0.06888888888888889,-0.7055555555555556,-0.16666666666666666,0.01970509062012568,-0.18141344214282437,1.6219117049500926
1592284855.158053,-4.8454400600980545,7.711535663450894,1.4862078918235015,0.06888888888888889,-0.7055555555555556,-0.16666666666666666,-0.010386397999763325,-0.1939339881198318,1.5781634887477722
1592284855.168053,-4.8909421094369545,8.152826328310864,1.8356780333068992,0.06888888888888889,-0.7055555555555556,-0.16666666666666666,-0.06285019217773474,-0.2029466016847899,1.4496689542146761
1592284855.178053,-4.4898335580949675,8.39797004755483,2.3207321314500673,0.03278424460374918,-0.7159585886546637,-0.16666666666666666,-0.07558313765978353,-0.2030052422750506,1.3103055642981642
1592284855.188053,-4.3721777135384405,8.299377796131875,2.339066694197811,0.0033333333333333335,-0.7244444444444444,-0.16666666666666666,-0.04014015523435836,-0.16734153060514706,1.1493639759520617
1592284855.198053,-4.598995665634675,8.08200866873065,1.8487133126934983,0.0033333333333333335,-0.7244444444444444,-0.16666666666666666,-0.011991438625466923,-0.15392439619815593,0.9975363146945921
1592284855.2080529,-4.159295885509839,8.292602504472272,1.89383542039356,0.0033333333333333335,-0.7244444444444444,-0.16666666666666666,0.01430459678218841,-0.17498760064186886,0.8198309493067621
1592284855.2180529,-3.9995314240775937,8.401425715970902,1.9380857199030082,0.0033333333333333335,-0.7244444444444444,-0.16666666666666666,0.022772370427213764,-0.18136850738643923,0.7416992349032054
1592284855.2280529,-4.226900181208312,8.252414311601187,1.80481859891275,-0.02467350374625696,-0.7244444444444444,-0.162758735911375,0.008388508484158272,-0.18077661399566453,0.45194645565082436
1592284855.2380528,-3.935957054059145,8.282783198342438,1.9081054812582408,-0.044444444444444446,-0.7244444444444444,-0.16,-1.3848558059947327e-05,-0.18011171613445476,0.2981856316819575
1592284855.2480528,-3.239505520629722,8.17875376406572,1.8266221142162817,-0.044444444444444446,-0.7244444444444444,-0.16,-0.012421548118565618,-0.12419179628673885,0.05442127055051513
1592284855.2580528,-4.018854687761794,8.468506666028388,2.119384858421695,-0.044444444444444446,-0.7244444444444444,-0.16,-0.003779722525606575,-0.06752644369588164,-0.16592988153704233
1592284855.2680528,-4.33994149119239,8.606892775570227,2.199407402772129,-0.044444444444444446,-0.7244444444444444,-0.16,0.004363323129985824,-0.050532895557169284,-0.26593902252925783
1592284855.2780528,-3.3950325460293844,8.385055979170541,2.175037753394086,-0.050557146694769906,-0.7244444444444444,-0.16222280081830018,0.03000452093426424,-0.02835506793813895,-0.60653031683659
1592284855.2880528,-3.6037008328523132,8.598390368598993,2.307122948791952,-0.056666666666666664,-0.7244444444444444,-0.16444444444444445,0.05528120281118119,0.004102016671409737,-0.7496482016430662
1592284855.2980528,-3.951496844003607,8.483796212804329,2.304902314397355,-0.056666666666666664,-0.7244444444444444,-0.16444444444444445,0.05859961324413708,0.040611561179182756,-1.0507798827654453
1592284855.3080528,-3.8314751249185313,8.188906027470008,2.0963922079803026,-0.056666666666666664,-0.7244444444444444,-0.16444444444444445,0.07423616015530507,0.04494464019481692,-1.2671645119350308
1592284855.3180528,-3.908668051023435,8.112108869771582,1.9654334025511717,-0.056666666666666664,-0.7244444444444444,-0.16444444444444445,0.08279590086951727,0.052589919566141584,-1.3551393076101936
1592284855.3280528,-4.320032777929527,8.120030436648847,2.044994732118469,-0.052778233026798994,-0.7299993496442554,-0.16833287808431213,0.08944889034702043,0.08508441794356805,-1.5402446368795744
1592284855.3380527,-4.112981778689514,7.864054543260528,2.0462109327862916,-0.04888888888888889,-0.7355555555555555,-0.17222222222222222,0.08414152923704411,0.08924185750172255,-1.6215358197846128
1592284855.3480527,-5.015831529515354,7.846807058737205,1.566851451003412,-0.04888888888888889,-0.7355555555555555,-0.17222222222222222,0.08346910523727899,0.10707798583798483,-1.746086314250355
1592284855.3580527,-5.182397003745319,7.757453183520599,1.596367041198502,-0.04888888888888889,-0.7355555555555555,-0.17222222222222222,0.06007331769972992,0.11586502244044754,-1.7805177371240748
1592284855.3680527,-5.509122283257703,7.538244566515405,1.7691234774301408,-0.04888888888888889,-0.7355555555555555,-0.17222222222222222,0.02761518759309215,0.08801274508752663,-1.8554649936728447
1592284855.3780527,-5.433173414820474,7.235426661573721,1.717613063407181,-0.019416263475087008,-0.7355555555555555,-0.16866518122400476,0.01948224610870055,0.06554293006545187,-1.8800599369353808
1592284855.3880527,-5.5098410270857645,7.2280649575401466,1.440158972914235,0.015555555555555555,-0.7355555555555555,-0.16444444444444445,0.02524816462095391,0.06398962548817771,-1.8732203040314959
1592284855.3980527,-5.655452673131382,7.153361080122429,1.545785634600532,0.015555555555555555,-0.7355555555555555,-0.16444444444444445,-0.06340326380401201,0.05501033519096389,-1.8738429661286256
1592284855.4080527,-5.976065884498189,7.0775388085126805,1.4963953069891311,0.015555555555555555,-0.7355555555555555,-0.16444444444444445,-0.12607335852425805,0.06602273005634136,-1.8796092414994638
1592284855.4180527,-6.012001994661348,7.052526473262738,1.527579419788214,0.015555555555555555,-0.7355555555555555,-0.16444444444444445,-0.15338246795086471,0.07555447061283341,-1.8903640854660055
1592284855.4280527,-6.348572697239885,6.9657269723988495,1.5604816880395014,0.04348896230250356,-0.7380949561689144,-0.15936564321772662,-0.1860124360567864,0.11630047907792905,-1.9360689443525416
1592284855.4380527,-6.5231140419977045,6.597921046116451,1.6400087776552408,0.08888888888888889,-0.7422222222222222,-0.1511111111111111,-0.21519603573734403,0.17080974795459067,-1.9328392359859683
1592284855.4480526,-6.6744962770476235,6.411473939333367,1.6599255409524762,0.08888888888888889,-0.7422222222222222,-0.1511111111111111,-0.2487175406312994,0.18287899901884697,-1.9168522397642629
1592284855.4580526,-6.99469933396765,6.340124643196955,1.7067155090390105,0.08888888888888889,-0.7422222222222222,-0.1511111111111111,-0.2721974649745657,0.17565094890914293,-1.883463302430685
1592284855.4680526,-7.412766741157433,6.372490097865454,1.7695652307929415,0.08888888888888889,-0.7422222222222222,-0.1511111111111111,-0.27370367447974225,0.15985629590979988,-1.828206534983464
1592284855.4780526,-7.708927644514353,6.464629571372395,1.7139406213134094,0.09166906977760302,-0.7413484510857692,-0.1511111111111111,-0.2584489115600919,0.14246897740395287,-1.7559608414009737
1592284855.4880526,-7.936598030438675,6.1808146821844225,2.059811996418979,0.16666666666666666,-0.7177777777777777,-0.1511111111111111,-0.2349407315672783,0.08443342759522031,-1.5523088446611093
1592284855.4980526,-8.230277046457937,6.254619061120336,2.0390623354530355,0.16666666666666666,-0.7177777777777777,-0.1511111111111111,-0.2128142859219573,0.06323796430434454,-1.457888072725031
1592284855.5080526,-8.53466501873041,5.79018271705614,2.2457613210672513,0.16666666666666666,-0.7177777777777777,-0.1511111111111111,-0.17106111946261868,0.006438684220672106,-1.219566049740575
1592284855.5180526,-8.419509433962265,5.666757232704403,2.3538691823899374,0.16666666666666666,-0.7177777777777777,-0.1511111111111111,-0.1139011200228004,-0.03202349870003558,-1.0682680111490153
1592284855.5280526,-8.349659402078098,5.4662125361041305,2.3594891031171463,0.18195731272740912,-0.7155933997691003,-0.1511111111111111,-0.056718740636726994,-0.07470556189266832,-0.9215342869665231
1592284855.5380526,-8.39,5.52,2.42,0.21333333333333335,-0.7111111111111111,-0.1511111111111111,-0.014180800172453926,-0.09817477042468103,-0.818123086872342
1592284855.5480525,-8.471281636297682,5.513591818511594,2.537689817786087,0.21333333333333335,-0.7111111111111111,-0.1511111111111111,0.04601167889629462,-0.16952667638404126,-0.6343853542732707
1592284855.5580525,-8.45482937508924,5.42005187758793,2.5475593736614157,0.21333333333333335,-0.7111111111111111,-0.1511111111111111,0.10523524028644894,-0.18562735592931634,-0.49409453117686136
1592284855.5680525,-8.48923626214296,5.315312635928665,2.6278472524285923,0.21333333333333335,-0.7111111111111111,-0.1511111111111111,0.15794708197345073,-0.1977434065425825,-0.3765220034658349
1592284855.5780525,-8.527471510516254,5.286322753346081,2.6432183556405353,0.22191561504142768,-0.7053895899723815,-0.15325668153813468,0.19623666176341806,-0.20518906619527771,-0.24881020032775839
1592284855.5880525,-8.48,5.11,2.65,0.24,-0.6933333333333334,-0.15777777777777777,0.20289452554434081,-0.19853120241435498,-0.15707963267948966
1592284855.5980525,-8.461816608521275,5.090967777380985,2.6865873691728703,0.24,-0.6933333333333334,-0.15777777777777777,0.2743819229537198,-0.16824165762214774,0.006750577365876961
1592284855.6080525,-8.410352676218313,5.210088169054578,2.520352676218314,0.24,-0.6933333333333334,-0.15777777777777777,0.35041636048211666,-0.12142085058293933,0.12044342041296031
1592284855.6180525,-8.328737922920602,5.212421120182538,2.529684480730151,0.24,-0.6933333333333334,-0.15777777777777777,0.3882897514805821,-0.08288031093148239,0.20474289822894604
1592284855.6280525,-8.257246398447414,5.27157609912667,2.368659401358513,0.2417673110895474,-0.6983407147537177,-0.15394860375042504,0.4002031539347214,-0.04595783183914931,0.2925837447263654
1592284855.6380525,-8.61,5.47,2.06,0.24666666666666667,-0.7122222222222222,-0.14333333333333334,0.3937899124812206,-0.01308996938995747,0.3839724354387525
1592284855.6480525,-8.41258847234441,5.345516360643642,2.1751201861679483,0.24666666666666667,-0.7122222222222222,-0.14333333333333334,0.36896155504942824,0.028457257384891792,0.5553809664393314
1592284855.6580524,-8.341706303724928,5.239336676217765,2.137898758357211,0.24666666666666667,-0.7122222222222222,-0.14333333333333334,0.3749442218721967,0.06022490294384683,0.6929705448669187
1592284855.6680524,-8.374749122333244,5.4945734089477,1.8500878566927716,0.24666666666666667,-0.7122222222222222,-0.14333333333333334,0.38129668418689616,0.08765790087781027,0.7895274326744177
1592284855.6780524,-8.116413623899554,5.383586376100448,1.8001327752922498,0.2429770208944693,-0.7106409454627091,-0.14517815621943203,0.37644839508836236,0.10272023978288859,0.8695121738389745
1592284855.6880524,-8.33,5.17,2.09,0.2311111111111111,-0.7055555555555556,-0.1511111111111111,0.36979163526629855,0.12435470920459597,0.9435686268594343
1592284855.6980524,-7.905466150115666,5.586946403188494,2.0067947824632792,0.2311111111111111,-0.7055555555555556,-0.1511111111111111,0.36319834013587327,0.14024422120396443,1.039105325236477
1592284855.7080524,-7.806946236559139,5.7792616487455195,1.6369175627240142,0.2311111111111111,-0.7055555555555556,-0.1511111111111111,0.3540969652767026,0.12645113739661965,1.1067811526049596
1592284855.7180524,-7.92,5.93,1.61,0.2311111111111111,-0.7055555555555556,-0.1511111111111111,0.33706671179140485,0.11999138607461016,1.1431906600562858
1592284855.7280524,-7.5746565167432705,6.012619829284308,1.8634504267892318,0.2282836324505727,-0.708854280659517,-0.1440424144597651,0.30949883766959474,0.12932356696995728,1.2269058345881672
1592284855.7380524,-7.36,6.15,1.52,0.2111111111111111,-0.7288888888888889,-0.10111111111111111,0.3010692959690219,0.13962634015954636,1.2980886311707824
1592284855.7480524,-7.622441393168118,6.13784215226613,1.5848705068095557,0.2111111111111111,-0.7288888888888889,-0.10111111111111111,0.2461753495786772,0.2057540900972951,1.4145116196956857
1592284855.7580523,-7.444212639581849,6.159528629128059,1.4742126395818484,0.2111111111111111,-0.7288888888888889,-0.10111111111111111,0.20759701955697168,0.2342540056691131,1.4687910790679353
1592284855.7680523,-7.295914374619979,6.228240280410601,1.6057841839836904,0.2111111111111111,-0.7288888888888889,-0.10111111111111111,0.17832705306900742,0.2631990252501054,1.5157264805193966
1592284855.7780523,-6.9809384291826815,6.067012473710929,1.8315798825150482,0.2060219095736537,-0.7317970040531503,-0.103001385967881,0.14731333900900467,0.25169640721806147,1.5255632393539245
1592284855.7880523,-7.12,6.18,1.51,0.17222222222222222,-0.7511111111111111,-0.11555555555555555,0.15489797111449674,0.2498002491916884,1.5511613727099605
1592284855.7980523,-6.947431510678744,6.562490215811249,1.219960863244996,0.17222222222222222,-0.7511111111111111,-0.11555555555555555,0.15618719575450526,0.25429725794591845,1.6063756091137127
1592284855.8080523,-6.8452173297131385,6.6186594262778895,1.4077898713256995,0.17222222222222222,-0.7511111111111111,-0.11555555555555555,0.17076244432614138,0.24572148725437884,1.6345625007054934
1592284855.8180523,-6.528184045159229,6.605907977420386,1.4388619661305784,0.17222222222222222,-0.7511111111111111,-0.11555555555555555,0.156079481780446,0.21564553457558772,1.6371166076804027
1592284855.8280523,-6.748023182562681,6.538624165301751,1.2574612574020412,0.1672480506208615,-0.7509926784539358,-0.11176571052594739,0.12380716355290568,0.19741288440034796,1.632087905361767
1592284855.8380523,-6.48,7.03,1.32,0.12555555555555556,-0.75,-0.08,0.0643590161672909,0.17889624832941878,1.6155203888772514
1592284855.8480523,-5.955910760190966,6.912743297833272,1.5858960705104663,0.12555555555555556,-0.75,-0.08,0.07576526841481994,0.17775594358377933,1.5440689696292742
1592284855.8580523,-5.784398644294341,7.316148650261355,1.28573310738239,0.12555555555555556,-0.75,-0.08,0.11848522883336048,0.1849709966169538,1.4844751276362216
1592284855.8680522,-5.490728105906314,7.463273203375037,1.2067267966249635,0.12555555555555556,-0.75,-0.08,0.11273229917985922,0.19529842208364181,1.4236128810892277
1592284855.8780522,-5.576361307766196,7.561965206873243,1.2056038991070475,0.11937734454366139,-0.7512822702100158,-0.08046628007636937,0.09600762274181318,0.20059842163071995,1.3355101537641383
1592284855.8880522,-5.46,7.92,1.68,0.06666666666666667,-0.7622222222222222,-0.08444444444444445,0.05890486225480862,0.19962203319685143,1.2173671532660448
1592284855.8980522,-5.075625018224231,7.584374398600379,1.2781253827088497,0.06666666666666667,-0.7622222222222222,-0.08444444444444445,0.03378168865692203,0.216768480854315,1.005439359250236
1592284855.9080522,-4.9730476372680315,8.089130954658504,1.2724483451310502,0.06666666666666667,-0.7622222222222222,-0.08444444444444445,-0.003603633679826513,0.25022749298726255,0.7638231082278596
1592284855.9180522,-4.923318502171282,8.01018402505873,1.7502760375880972,0.06666666666666667,-0.7622222222222222,-0.08444444444444445,-0.03965197462177549,0.2409580122988595,0.5236385936009844
1592284855.9280522,-5.177516339869281,7.854338951955051,1.4910663914688682,0.06535183274089362,-0.7630111225776861,-0.08488272241970213,-0.0534355735499078,0.25701854452789846,0.30657360733406475
1592284855.9380522,-4.63,7.96,1.03,0.03333333333333333,-0.7822222222222223,-0.09555555555555556,-0.07963064712224129,0.2999784651865254,0.06872233929727672
1592284855.9480522,-4.680580415045396,7.711796368352789,1.3587840466926069,0.03333333333333333,-0.7822222222222223,-0.09555555555555556,-0.037312850219304035,0.29315511349225204,-0.27447127613044575
1592284855.9580522,-4.459726611303006,7.903272580289557,0.97,0.03333333333333333,-0.7822222222222223,-0.09555555555555556,-0.0036095940922088207,0.34229311158813264,-0.5475789350975713
1592284855.9680521,-4.4,7.89,0.97,0.03333333333333333,-0.7822222222222223,-0.09555555555555556,0.002181661564992912,0.3719732968312915,-0.7024950239277177
1592284855.9780521,-4.693482594694065,7.89,1.0412743444257015,0.03333333333333333,-0.7822222222222223,-0.09555555555555556,-0.0129106455747702,0.3856935760492579,-0.7935062094068952
1592284855.9880521,-5.099606832319483,7.885773447434443,1.1399017080798708,0.033158592141992495,-0.781960110435211,-0.09511870257720346,-0.03418030175469211,0.40513782169999046,-0.9235696501296194
1592284855.9980521,-5.137953030509145,7.472992171751525,1.1040156564969514,0.015555555555555555,-0.7555555555555555,-0.051111111111111114,-0.07143546064519626,0.44835936282268657,-1.3567434391425086
1592284856.008052,-5.386931400798901,7.514488566799817,1.021022866400366,0.015555555555555555,-0.7555555555555555,-0.051111111111111114,-0.07313291858574544,0.4449644469415882,-1.4534985417538113
1592284856.018052,-5.5372364662618665,7.404586846831438,0.9976353373813392,0.015555555555555555,-0.7555555555555555,-0.051111111111111114,-0.06452994066568224,0.44106856909154674,-1.595882356248244
1592284856.028052,-5.530062430513983,7.053059095185153,1.069375694860173,0.015555555555555555,-0.7555555555555555,-0.051111111111111114,-0.039487831774414596,0.43637317367443407,-1.8110879795325752
1592284856.038052,-5.65,7.01,0.88,0.07444444444444444,-0.7822222222222223,-0.06666666666666667,-0.01308996938995747,0.4308781590861001,-1.9373154697137058
1592284856.048052,-5.823085881631819,6.9234570591840905,0.8319205884356058,0.07444444444444444,-0.7822222222222223,-0.06666666666666667,-0.02253033977493378,0.4392695994283013,-2.0443063340767704
1592284856.058052,-5.996896468428426,6.641962896758297,0.8108222619450215,0.07444444444444444,-0.7822222222222223,-0.06666666666666667,-0.04778243560916272,0.4192001987096611,-2.1818264623076824
1592284856.068052,-6.249435851806978,6.505396512882646,0.8691005811862257,0.07444444444444444,-0.7822222222222223,-0.06666666666666667,-0.057054107159700475,0.4044654252091425,-2.2660288169069984
1592284856.078052,-6.455883421994207,6.219546031084944,0.9167423281525093,0.07444444444444444,-0.7822222222222223,-0.06666666666666667,-0.058786409963791454,0.3975362139927786,-2.3136671440195005
1592284856.088052,-6.669544303797468,6.126594936708861,0.8810189873417721,0.11333333333333333,-0.7422222222222222,-0.08333333333333333,-0.05724376170880452,0.37150244455682147,-2.3692464876246837
1592284856.098052,-6.798180201101861,5.968572275613311,0.9612990093139313,0.11333333333333333,-0.7422222222222222,-0.08333333333333333,-0.05915985745860291,0.371619046994695,-2.394345162914238
1592284856.108052,-7.206588551671149,5.734402612370341,0.9,0.11333333333333333,-0.7422222222222222,-0.08333333333333333,-0.059137025241171676,0.4012157755107393,-2.4071232547586194
1592284856.118052,-7.513379923761118,5.55792249047014,0.8900968869123252,0.11333333333333333,-0.7422222222222222,-0.08333333333333333,-0.052402152450384064,0.44174419202051046,-2.395538379420687
1592284856.128052,-7.750245658619229,5.587530707327404,0.8530866158407454,0.11333333333333333,-0.7422222222222222,-0.08333333333333333,-0.03625337526901712,0.45789296920187744,-2.3672780193532947
1592284856.138052,-8.06,5.31,0.89,0.22,-0.7555555555555555,-0.04555555555555556,-0.01090830782496456,0.4232423436086249,-2.3245603974999476
1592284856.148052,-8.996568727433091,5.307574763650395,0.706753672721259,0.22,-0.7555555555555555,-0.04555555555555556,0.022146411489437502,0.3640646308438757,-2.2395485670644115
1592284856.158052,-9.857392569117613,5.335986330203628,0.6709296880543009,0.22,-0.7555555555555555,-0.04555555555555556,0.07649173852689264,0.27662573958029735,-2.0620163925053485
1592284856.168052,-10.644760007245065,5.305428002173519,0.49259481977902553,0.22,-0.7555555555555555,-0.04555555555555556,0.10931523296245729,0.18170992393300062,-1.8581300854517133
1592284856.178052,-11.936248867958703,5.692874660387611,-0.17594059047274035,0.22,-0.7555555555555555,-0.04555555555555556,0.15489392075567748,0.09552476883309337,-1.6028894338096804
1592284856.188052,-11.38,5.35,-0.26,0.2588888888888889,-0.7033333333333334,-0.017777777777777778,0.22907446432425577,-0.014180800172453926,-1.0548333666740728
1592284856.198052,-10.070936114441873,5.382007473299685,-0.10228688547447087,0.2588888888888889,-0.7033333333333334,-0.017777777777777778,0.27950621687892396,-0.12015600993325522,-0.4570219913397379
1592284856.208052,-8.917067706962161,5.610603355431635,0.34793169470837426,0.2588888888888889,-0.7033333333333334,-0.017777777777777778,0.3875176681156759,-0.2250496973914653,-0.02024598954108655
1592284856.218052,-7.930791753809381,5.519919330743949,0.9211951000896325,0.2588888888888889,-0.7033333333333334,-0.017777777777777778,0.4232863418624752,-0.25212107560404495,0.1544749360515507
1592284856.228052,-7.800863977037155,5.440079732100143,1.2411519693828736,0.2613528234022573,-0.7033333333333334,-0.01752178458158366,0.4711987855239667,-0.29673738793061927,0.23634199612565032
1592284856.238052,-7.83,5.78,1.28,0.34444444444444444,-0.7033333333333334,-0.008888888888888889,0.43305982065109305,-0.29779680362153244,0.26070855701665296
1592284856.248052,-7.759544069699075,5.704707627345128,1.4061050831150783,0.34444444444444444,-0.7033333333333334,-0.008888888888888889,0.3834945956996991,-0.31726526739167804,0.2273674065632888
1592284856.2580519,-8.132390137815285,5.68912110252228,1.1408788974777202,0.34444444444444444,-0.7033333333333334,-0.008888888888888889,0.28530251968902365,-0.33217668110963144,0.22206122924090377
1592284856.2680519,-8.090803094345642,5.449926628917776,1.3724092830369248,0.34444444444444444,-0.7033333333333334,-0.008888888888888889,0.18658008506791462,-0.35762529219564604,0.22838963938448287
1592284856.2780519,-8.040628040513596,5.558639245553872,1.2218841215407927,0.34444444444444444,-0.7033333333333334,-0.008888888888888889,0.11542784386448114,-0.3567130839750892,0.24845822023673333
1592284856.2880518,-7.85,5.31,1.25,0.3111111111111111,-0.7177777777777777,-0.0033333333333333335,0.08508480103472357,-0.3621558197888234,0.2683443724941282
1592284856.2980518,-7.926874278473884,5.13496438124736,1.5662100520906659,0.3111111111111111,-0.7177777777777777,-0.0033333333333333335,0.08441516024294578,-0.3292581571242701,0.2945644246064925
1592284856.3080518,-7.803231578453013,5.35344291551214,0.9131376508711783,0.3111111111111111,-0.7177777777777777,-0.0033333333333333335,0.10726417311967157,-0.24964704722601633,0.298338376796621
1592284856.3180518,-8.01615787065587,5.118719290218624,1.304385804372476,0.3111111111111111,-0.7177777777777777,-0.0033333333333333335,0.11215656108617841,-0.17669920155634952,0.3075013762385827
1592284856.3280518,-7.99112673814876,5.110375579382921,1.1375115876583977,0.3111111111111111,-0.7177777777777777,-0.0033333333333333335,0.13218002964981554,-0.09842564262576801,0.3138724798724673
1592284856.3380518,-8.24,5.19,1.15,0.3055555555555556,-0.7111111111111111,0.01,0.1287180323345818,-0.04799655442984406,0.3621558197888234
1592284856.3480518,-8.256093107253937,5.294139660880907,1.3833028995685763,0.3055555555555556,-0.7111111111111111,0.01,0.13924580252226934,-0.008635369760262402,0.38304391047048725
1592284856.3580518,-8.18241145591069,5.228623164329855,1.0103462024054755,0.3055555555555556,-0.7111111111111111,0.01,0.1475252046708231,0.025239732382163496,0.4191802692481291
1592284856.3680518,-8.03230216956334,5.389136686413747,1.1034532543450117,0.3055555555555556,-0.7111111111111111,0.01,0.1309938668030579,0.03659384421111002,0.4410409367746733
1592284856.3780518,-8.098123504256737,5.364453685903723,1.2021852563851072,0.3055555555555556,-0.7111111111111111,0.01,0.1336863644791289,0.053646329492892914,0.4509134282536002
1592284856.3880517,-7.992062692625724,5.376322884562379,0.9545561151619935,0.2788888888888889,-0.7033333333333334,0.04555555555555556,0.159133130032422,0.05353093055652932,0.46077964328237697
1592284856.3980517,-8.285227240582715,5.370996416953467,0.7354021498279195,0.2788888888888889,-0.7033333333333334,0.04555555555555556,0.17547690447566291,0.05096392683803064,0.45473912461419613
1592284856.4080517,-8.356774208697287,5.672619986850756,0.5615971635202405,0.2788888888888889,-0.7033333333333334,0.04555555555555556,0.204727740082822,0.019168069903867706,0.4730231906554096
1592284856.4180517,-8.007887699993931,5.619332713040313,0.6584445478266147,0.2788888888888889,-0.7033333333333334,0.04555555555555556,0.17893289692525863,-0.024531391828216783,0.49886106166309924
1592284856.4280517,-8.203014826351666,5.721138170270435,0.6414769716215943,0.2788888888888889,-0.7033333333333334,0.04555555555555556,0.13173557313184267,-0.05414539891428169,0.5145935029275712
1592284856.4380517,-7.9,5.72,0.7,0.26666666666666666,-0.7288888888888889,0.04555555555555556,0.08944812416470939,-0.09708393964218458,0.5465062220307244
1592284856.4480517,-8.19622577714978,5.811943379087606,0.649480218005652,0.26666666666666666,-0.7288888888888889,0.04555555555555556,0.08178395897725309,-0.15295791513611956,0.5637610665807999
1592284856.4580517,-7.671201790716046,5.521997558114482,0.6371985348686888,0.26666666666666666,-0.7288888888888889,0.04555555555555556,0.08028523438120219,-0.2064717224373323,0.5568471913014352
1592284856.4680517,-7.607741126850231,5.687257480502945,0.7234945487824288,0.26666666666666666,-0.7288888888888889,0.04555555555555556,0.07656339086241047,-0.251735505920129,0.5627162053128589
1592284856.4780517,-8.058346331370364,6.0126945726563745,0.7652172529046634,0.26666666666666666,-0.7288888888888889,0.04555555555555556,0.09203761025748906,-0.3008889087044963,0.5608957089134379
1592284856.4880517,-7.76,6.06,0.89,0.22555555555555556,-0.7288888888888889,0.04555555555555556,0.08617563181722002,-0.28579766501407144,0.5846852994181004
1592284856.4980516,-7.72302002825563,5.939815091830798,1.1026348375301256,0.22555555555555556,-0.7288888888888889,0.04555555555555556,0.06701465834778142,-0.293865443316993,0.6058632174632694
1592284856.5080516,-7.817264341103654,5.769833526998506,0.9708503877255804,0.22555555555555556,-0.7288888888888889,0.04555555555555556,0.053273279227641544,-0.2885479326980156,0.6549743127060128
1592284856.5180516,-7.782445802201038,6.02190106371232,0.7251639736464353,0.22555555555555556,-0.7288888888888889,0.04555555555555556,0.037064598353898956,-0.28271496092190473,0.6772221902995912
1592284856.5280516,-7.821040340093489,5.736301483308182,0.9644501085796312,0.22555555555555556,-0.7288888888888889,0.04555555555555556,0.05390464234162351,-0.3029230137071742,0.691536227689157
1592284856.5380516,-7.950416984052879,6.051474310145711,1.1495085632847628,0.22,-0.7288888888888889,0.04555555555555556,0.09817477042468103,-0.3359758810089084,0.7570365630525404
1592284856.5480516,-7.566858375101994,6.093244667210631,1.1357596456463457,0.22,-0.7288888888888889,0.04555555555555556,0.0991457484159919,-0.33717532440993947,0.7592069844448823
1592284856.5580516,-7.512963539758153,5.800965097105167,1.2308130267497253,0.22,-0.7288888888888889,0.04555555555555556,0.11804430908839247,-0.3591096178688682,0.7994902761093429
1592284856.5680516,-7.609022077684133,6.156381687431294,0.9330315591791866,0.22,-0.7288888888888889,0.04555555555555556,0.1610055892258101,-0.3664444705752566,0.8319731952376342
1592284856.5780516,-7.35553998283823,6.210892003432354,1.0317840068647082,0.22,-0.7288888888888889,0.04555555555555556,0.22343421886121068,-0.3785472984363101,0.8887436937038383
1592284856.5880516,-7.51818286300667,5.88112201128784,1.5726218573627502,0.1811111111111111,-0.7355555555555555,0.06666666666666667,0.22689815337100253,-0.3468549283755308,0.9280575616260068
1592284856.5980515,-7.371845048742945,6.018851718830169,1.3574191893278604,0.1811111111111111,-0.7355555555555555,0.06666666666666667,0.29450606546413577,-0.3600009112825289,0.9656175127888587
1592284856.6080515,-7.542027671530434,6.102811068612174,1.157972328469566,0.1811111111111111,-0.7355555555555555,0.06666666666666667,0.2870719750073745,-0.36702183062747346,0.9944707152151545
1592284856.6180515,-7.29,6.33,0.94,0.1811111111111111,-0.7355555555555555,0.06666666666666667,0.27052603405912107,-0.3981532356112064,1.014472627721704
1592284856.6280515,-7.2546157524923665,6.216770407975573,0.9116926019938932,0.1811111111111111,-0.7355555555555555,0.06666666666666667,0.217260481631537,-0.40510091636263046,1.020648343945192
1592284856.6380515,-7.49,6.21,0.93,0.14,-0.7233333333333334,0.07444444444444444,0.17453292519943295,-0.4461497900410505,1.0461067204141012
1592284856.6480515,-7.192226216814159,6.371648625158028,1.091648625158028,0.14,-0.7233333333333334,0.07444444444444444,0.15040337939398138,-0.43037277932210133,1.0748765634898318
1592284856.6580515,-7.070173806225661,6.828932333185228,0.7309683489715376,0.14,-0.7233333333333334,0.07444444444444444,0.13420197946124324,-0.4199888105792495,1.1256236116276583
1592284856.6680515,-7.07,6.72073888585602,0.9584550568465026,0.14,-0.7233333333333334,0.07444444444444444,0.05941044371952127,-0.4004667879930809,1.1593259764979922
1592284856.6780515,-6.922889708478833,6.646444854239416,1.237874995095539,0.14,-0.7233333333333334,0.07444444444444444,0.09456540323554574,-0.3450610586560568,1.222850582034541
1592284856.6880515,-6.75,6.56,1.57,0.11333333333333333,-0.7288888888888889,0.1111111111111111,0.14508049407202864,-0.3076142806640006,1.2893619849108109
1592284856.6980515,-6.62846166191871,6.665333226337118,1.4322565501745375,0.11333333333333333,-0.7288888888888889,0.1111111111111111,0.1530351596979806,-0.32175590844347074,1.2937812435918952
1592284856.7080514,-6.512055981514546,6.758400903266463,1.3315990967335365,0.11333333333333333,-0.7288888888888889,0.1111111111111111,0.15489797111449674,-0.30588116468386994,1.2937502272399557
1592284856.7180514,-6.51,7.022428652562828,0.9217776515689338,0.11333333333333333,-0.7288888888888889,0.1111111111111111,0.11460878743992331,-0.3626856695839278,1.2735807162035102
1592284856.7280514,-6.460017781592986,7.146625176283034,0.8350266723894781,0.11333333333333333,-0.7288888888888889,0.1111111111111111,0.0471111281070353,-0.3634287789802191,1.2693647136789752
1592284856.7380514,-6.45,7.01,1.24,0.05333333333333334,-0.7177777777777777,0.08666666666666667,0.014180800172453926,-0.35452000431134817,1.275181184738357
1592284856.7480514,-6.4421344592137695,7.28529392751808,1.2006722960688456,0.05333333333333334,-0.7177777777777777,0.08666666666666667,-0.010701124458291869,-0.3519460121081676,1.2786131743425977
1592284856.7580514,-6.750072790649989,7.594903629280296,1.631618823046955,0.05333333333333334,-0.7177777777777777,0.08666666666666667,-0.05640178920028374,-0.3215236592341253,1.305168518842251
1592284856.7680514,-5.497598298653907,7.619566930085309,1.1816534957345513,0.05333333333333334,-0.7177777777777777,0.08666666666666667,-0.043251009508238916,-0.3133518781728337,1.3203819498111147
1592284856.7780514,-5.858432370683608,7.1291466420826906,1.8842098723370142,0.05333333333333334,-0.7177777777777777,0.08666666666666667,-0.006553947971745341,-0.24723589943206253,1.3280182146852795
1592284856.7880514,-5.5339827066281,6.970370484337497,1.2971318234968305,0.01370381767083103,-0.7199794175368056,0.12409454257014106,0.008666025902005355,-0.21612594243621966,1.3124310856311467
1592284856.7980514,-5.926480981085013,7.48617335273332,1.2451153606318852,0.013333333333333334,-0.72,0.12444444444444444,0.016070878202570422,-0.18987167024950263,1.2828925035728416
1592284856.8080513,-5.237016385922887,7.531980326699116,1.4403180347085955,0.013333333333333334,-0.72,0.12444444444444444,0.021536576168191414,-0.16212570841131782,1.2600322274217737
1592284856.8180513,-5.391697211346768,7.844376095885476,1.3302495616458099,0.013333333333333334,-0.72,0.12444444444444444,0.04203601167838047,-0.1573192156227113,1.25477484379522
1592284856.8280513,-5.4456067834383814,7.763179649684856,1.391213566876763,0.013333333333333334,-0.72,0.12444444444444444,0.022270694807708925,-0.1771474699902966,1.2337402129694464
1592284856.8380513,-5.411409214092141,8.227082204155375,1.0786901535682025,-0.018132088728294686,-0.7058948107999599,0.1309545317675399,0.003374973288211708,-0.20367791350467027,1.208896709357879
1592284856.8480513,-4.965512510088781,7.774677158999193,1.3408595641646488,-0.01888888888888889,-0.7055555555555556,0.13111111111111112,-0.008091428818832671,-0.21231889851547345,1.2177316439391308
1592284856.8580513,-4.940265401360898,7.973260161117918,1.2270052402429803,-0.01888888888888889,-0.7055555555555556,0.13111111111111112,-0.0013596068005733118,-0.24433287119197666,1.2148877648855565
1592284856.8680513,-4.634644889407395,7.694644889407395,0.8475319635246781,-0.01888888888888889,-0.7055555555555556,0.13111111111111112,-0.02070292990948888,-0.2633922485101156,1.2012785614507766
1592284856.8780513,-5.362054405677114,7.906547013601419,1.3703341218214073,-0.01888888888888889,-0.7055555555555556,0.13111111111111112,0.03984547031367455,-0.24388258358302056,1.2129534278621743
1592284856.8880513,-4.713473657989788,8.651764229667457,1.4602821023788766,-0.07428772090062413,-0.6985047951176984,0.13715462005784587,0.06701972485385344,-0.26736515181099907,1.2064896180369498
1592284856.8980513,-4.974636239672736,8.25371901820807,1.3252205823373706,-0.08,-0.6977777777777778,0.13777777777777778,0.0017240498707235125,-0.2963159091807085,1.1788617541169524
1592284856.9080513,-4.880723622294259,8.673281397051134,1.0941796507372163,-0.08,-0.6977777777777778,0.13777777777777778,-0.035580954127633006,-0.3288361465805891,1.1631032552710554
1592284856.9180512,-4.460630369083598,8.311227423077838,1.7758039644956334,-0.08,-0.6977777777777778,0.13777777777777778,-0.06486914173037826,-0.34508602996932036,1.1782238679588195
1592284856.9280512,-4.233022185014651,8.168885168131716,1.70039626063904,-0.08,-0.6977777777777778,0.13777777777777778,-0.010806484775782173,-0.35090612317564346,1.2237157975522863
1592284856.9380512,-4.1237787988817844,8.648433212300375,1.3904055139616336,-0.09437992923677832,-0.6813435729357454,0.11518074611998329,0.02090976901888422,-0.35435512310570366,1.2744774252045707
1592284856.9480512,-3.978997986306887,8.83741119613371,1.6776407571486107,-0.09555555555555556,-0.68,0.11333333333333333,0.012028748754356004,-0.3447321374157751,1.2675749794077769
1592284856.9580512,-3.4587235026593692,8.818166962152162,1.3153765512988516,-0.09555555555555556,-0.68,0.11333333333333333,-0.015671537776930894,-0.32814011212044303,1.2408003813128194
1592284856.9680512,-3.3713875152296997,8.54162545689099,1.194162545689099,-0.09555555555555556,-0.68,0.11333333333333333,-0.08445882224339202,-0.2820030155106806,1.2548521580033096
1592284856.9780512,-3.9208832018863324,8.81583970241483,1.4764592649808927,-0.09555555555555556,-0.68,0.11333333333333333,-0.14457836068922486,-0.21639977604913235,1.3226272904696184
1592284856.9880512,-2.849555965047851,8.269025738572193,1.6057522439517329,-0.13084566763755967,-0.6637856241785386,0.12096362783755044,-0.18500685892869853,-0.19713146609492616,1.4172499146669275
1592284856.9980512,-3.334490153870685,8.468118871083472,2.0599513672965,-0.13666666666666666,-0.6611111111111111,0.12222222222222222,-0.15510317044729593,-0.14409028444996813,1.4647328834822237
1592284857.0080512,-3.4180516296112624,8.605439843513238,2.417659035181971,-0.13666666666666666,-0.6611111111111111,0.12222222222222222,-0.15763020214625922,-0.15138042726962533,1.4145418570984358
1592284857.0180511,-2.9158723568600946,8.719473785845322,1.676564642270928,-0.13666666666666666,-0.6611111111111111,0.12222222222222222,-0.11562500857630412,-0.13485204650592422,1.3362253686938577
1592284857.0280511,-3.2818829268292684,8.9404,1.7304,-0.13666666666666666,-0.6611111111111111,0.12222222222222222,-0.08757402366912279,-0.10642890071642983,1.305603124980741
1592284857.0380511,-2.9615084594245604,9.09107439658312,1.9241528987186702,-0.16059916785308304,-0.6486662104941745,0.1451974233611819,-0.07029998622774755,-0.07414268803767621,1.242404433889597
1592284857.048051,-2.7122676003186714,9.268371839490126,1.8905669000796679,-0.16444444444444445,-0.6466666666666666,0.14888888888888888,-0.06961973960557395,-0.033273563469696184,1.2172894883463972
1592284857.058051,-2.6058755224104706,9.512580895417802,1.8458755224104708,-0.16444444444444445,-0.6466666666666666,0.14888888888888888,-0.08451177295705938,0.04103695630798887,1.153400119861232
1592284857.068051,-2.632419822302466,9.54,1.718425666365753,-0.16444444444444445,-0.6466666666666666,0.14888888888888888,-0.1396358765715756,0.08153562316757071,1.0782369397594869
1592284857.078051,-2.6264919467090873,9.44544362696361,1.9061288526546032,-0.16444444444444445,-0.6466666666666666,0.14888888888888888,-0.17446472929606907,0.12445804421847176,1.0377737623367167
1592284857.088051,-2.6435540913269997,9.706203187250996,1.9628918173460006,-0.21242500085129568,-0.6309639391153335,0.15150601014744441,-0.19229284045725725,0.15551121659025877,0.9791325853748654
1592284857.098051,-2.280642066420664,9.451421894218942,1.9910397703977039,-0.22555555555555556,-0.6266666666666667,0.15222222222222223,-0.21543241559116025,0.15870170118377755,0.9323408965888532
1592284857.108051,-1.7524386298274446,8.952438629827444,1.6285569022185702,-0.22555555555555556,-0.6266666666666667,0.15222222222222223,-0.20530284597056936,0.17669727643617034,0.8864613497601694
1592284857.118051,-2.0560884549109706,9.097826919394985,1.7473923032739804,-0.22555555555555556,-0.6266666666666667,0.15222222222222223,-0.16700132656294298,0.24259153479600631,0.9342730694274313
1592284857.128051,-1.7547020010816659,8.970319091400757,1.7141701820804038,-0.22555555555555556,-0.6266666666666667,0.15222222222222223,-0.11875432457823876,0.2774737038439354,0.9799455227901612
1592284857.138051,-1.9932075252583905,9.49807029768126,2.0693396043819923,-0.2323327612829413,-0.6173480087915113,0.13866781076745077,-0.04339186604020006,0.33008202512847296,1.0155213589303937
1592284857.148051,-1.585384862477414,9.179380847219432,2.7389508130897413,-0.23444444444444446,-0.6144444444444445,0.13444444444444445,-0.023962317685814236,0.32812321336503536,1.0183270424854252
1592284857.158051,-1.1813115763546795,9.144291871921183,0.7108990147783252,-0.23444444444444446,-0.6144444444444445,0.13444444444444445,0.28085802857658443,0.41430915149544045,1.1138379754628722
1592284857.168051,-1.8620470336718333,7.7291608765366115,2.5094869053981825,-0.23444444444444446,-0.6144444444444445,0.13444444444444445,0.5250230939316174,0.5836072950798663,1.2861903550568394
1592284857.178051,-1.938373287671233,8.265,2.7117808219178086,-0.23444444444444446,-0.6144444444444445,0.13444444444444445,0.671781786673284,0.5880904098915439,1.3254303794484934
1592284857.188051,-1.3000000000000003,9.4096,1.1636,-0.2624444444444444,-0.6136444444444444,0.16164444444444445,0.8798204759303415,0.5144357970253286,1.3006629918174741
1592284857.198051,-1.0530146213892302,9.11,0.8221432816895827,-0.2733333333333333,-0.6133333333333333,0.17222222222222222,0.8916233920739631,0.5095685227815304,1.2840861278235376
1592284857.208051,-1.1097597537689874,9.525242953632192,0.7403630767476987,-0.2733333333333333,-0.6133333333333333,0.17222222222222222,0.8233401982724546,0.543135306523345,1.2529964925839745
1592284857.218051,-1.2401050959305877,10.471313699132349,0.4266723695466211,-0.2733333333333333,-0.6133333333333333,0.17222222222222222,0.6520989883681001,0.5836403253860841,1.219231683408386
1592284857.228051,-1.1625525975352353,10.61074079117587,0.36744740246476476,-0.2733333333333333,-0.6133333333333333,0.17222222222222222,0.54966299882302,0.6016625093264959,1.1950384331533042
1592284857.238051,-1.022450537310435,10.691355830069298,0.6213347393793311,-0.29861895037550357,-0.5801459609654849,0.16194994029884055,0.2282872081222853,0.6161976774374682,1.0875536888741988
1592284857.248051,-1.038622754491018,10.689520958083833,0.584191616766467,-0.3088888888888889,-0.5666666666666667,0.15777777777777777,0.08545712052336008,0.5953911176966135,1.0298814290145732
1592284857.258051,-0.99,10.155345599340931,0.4934159000411918,-0.3088888888888889,-0.5666666666666667,0.15777777777777777,-0.21135444772667006,0.5040121997012998,0.9010070548001038
1592284857.268051,-0.99,9.827781899109793,0.6003565616923519,-0.3088888888888889,-0.5666666666666667,0.15777777777777777,-0.378723614993656,0.43274007368414563,0.8360774703203221
1592284857.278051,-0.9391100558254187,9.764233306749801,0.7078532588994417,-0.3088888888888889,-0.5666666666666667,0.15777777777777777,-0.43949788131084117,0.39918372390932355,0.8166708338701683
1592284857.288051,-1.5872463130090249,11.752247413603346,1.6610785824345147,-0.32212243500379095,-0.5571091055836818,0.1768928999437474,-0.5458269439581551,0.3108279454654385,0.791992131028731
1592284857.2980509,-1.1200293173804525,11.821412384612337,1.4461986450616062,-0.3288888888888889,-0.5522222222222222,0.18666666666666668,-0.5586475433280319,0.2819667274634832,0.7367736714346351
1592284857.3080509,-0.4460447586009025,8.894691567333524,1.9706119095438068,-0.3288888888888889,-0.5522222222222222,0.18666666666666668,-0.5154137463543058,0.21234567987821865,0.21530883937228712
1592284857.3180509,-1.3902726202771842,9.655126462181443,1.9256070905291476,-0.3288888888888889,-0.5522222222222222,0.18666666666666668,-0.4172351104804311,0.176217918536986,0.03696714507780486
1592284857.3280509,-1.2583712173079558,10.083980555935916,1.561170067095714,-0.3288888888888889,-0.5522222222222222,0.18666666666666668,-0.35508842229612025,0.154158452669455,0.03491972937904306
1592284857.3380508,-0.8018073787933349,9.478017153894,1.51,-0.33787569610400003,-0.5379931107982963,0.16569744983140733,-0.2156191110810065,0.0951617463217204,0.011100570008909332
1592284857.3480508,-0.9893306264043836,9.50619821027319,1.4577108053770647,-0.3422222222222222,-0.5311111111111111,0.15555555555555556,-0.17026743153411303,0.07881434086828416,0.025972583316785765
1592284857.3580508,-0.9540720325377288,9.751556780477364,1.336407203253773,-0.3422222222222222,-0.5311111111111111,0.15555555555555556,-0.1098798937674496,0.035500949463090466,0.03446239519593842
1592284857.3680508,-0.9751120567375886,9.696502127659574,1.3344170212765958,-0.3422222222222222,-0.5311111111111111,0.15555555555555556,-0.08812736791515056,0.020165670337980585,0.02851323356006339
1592284857.3780508,-0.8779411703086045,9.57747899687834,1.3145798328130565,-0.3422222222222222,-0.5311111111111111,0.15555555555555556,-0.04678197076793552,-0.030392016008525105,0.017137042779351522
1592284857.3880508,-0.9095069813419003,9.644753490670949,1.305105646855307,-0.3400156513859714,-0.5344209673654873,0.15224569930117934,-0.018605586151422625,-0.07348894498023789,0.014722374135640726
1592284857.3980508,-0.7846360383239063,9.77472192081265,1.272239639847628,-0.3377777777777778,-0.5377777777777778,0.14888888888888888,0.0005150816574950954,-0.12028862896335092,0.015917415873698083
1592284857.4080508,-0.6614897746638895,9.713612478697216,1.3059590986555578,-0.3377777777777778,-0.5377777777777778,0.14888888888888888,0.0007424455394500476,-0.13352214942212254,0.014482451754349071
1592284857.4180508,-0.67,9.733056057866184,1.270910186859554,-0.3377777777777778,-0.5377777777777778,0.14888888888888888,-0.007789018354100673,-0.12021691648955668,0.01308996938995747
1592284857.4280508,-0.6559784703024211,9.78921420792494,1.2548073217726396,-0.3377777777777778,-0.5377777777777778,0.14888888888888888,-0.011935262364102967,-0.11253710158058385,0.013325278870139122
1592284857.4380507,-0.5278803534211994,9.7,1.478179469868201,-0.3270047585966217,-0.5323912681871997,0.14350237929831086,-0.027469358593234277,-0.08012852858632785,0.018576751845233774
1592284857.4480507,-0.4887345916016651,9.696091823950207,1.4841377359253123,-0.32,-0.5288888888888889,0.14,-0.027032570527620616,-0.061926326413495714,0.021578416615138336
1592284857.4580507,-0.3368333070493613,9.708958366188298,1.3441665352468064,-0.32,-0.5288888888888889,0.14,-0.02927971481994075,-0.004813262873183979,0.029511522812278545
1592284857.4680507,-0.5107669672520171,9.680769814902705,1.3584603701945894,-0.32,-0.5288888888888889,0.14,-0.03775941557803014,0.03725577998941479,0.032724923474893676
1592284857.4780507,-0.7186689636413093,9.673333937800344,1.4433339378003445,-0.32,-0.5288888888888889,0.14,-0.04719670416798453,0.06406843126938769,0.03221585592230421
1592284857.4880507,-0.8911293984108967,9.68103216042376,1.5221615588346575,-0.3247419598940598,-0.5288888888888889,0.16002160844158575,-0.049199976448611814,0.07641445039288756,0.03215136027457763
1592284857.4980507,-0.97,9.658165162281545,1.5928438640291915,-0.33,-0.5288888888888889,0.18222222222222223,-0.04570482516884124,0.07366612602091363,0.03332537271414686
1592284857.5080507,-1.013977888806208,9.578535930689911,1.655497236100776,-0.33,-0.5288888888888889,0.18222222222222223,-0.029566941109089785,0.059344812503431085,0.034198449515169864
1592284857.5180507,-1.0927465253181563,9.556639878844134,1.66,-0.33,-0.5288888888888889,0.18222222222222223,0.005253355144146626,0.05744749911333854,0.028728132703881477
1592284857.5280507,-1.1144456158847305,9.584628653429391,1.656297077256487,-0.33,-0.5288888888888889,0.18222222222222223,0.024745080682456136,0.05938980372023052,0.025675031015686144
1592284857.5380507,-1.038725084131504,9.640637457934249,1.5668127103287601,-0.33078795984698134,-0.5288888888888889,0.1684329249000489,0.058865752738014476,0.05499786388395152,0.01917862932580748
1592284857.5480506,-0.9653902000449539,9.694609799955046,1.4106689143627782,-0.3322222222222222,-0.5288888888888889,0.14333333333333334,0.07411568717827798,0.05349935316751117,0.016901796525546964
1592284857.5580506,-0.8768245072039806,9.703412253601991,1.3340473521611942,-0.3322222222222222,-0.5288888888888889,0.14333333333333334,0.07557026461309913,0.04096662019405621,0.014553019299127473
1592284857.5680506,-0.8106715328467153,9.679447758081334,1.3244179353493222,-0.3322222222222222,-0.5288888888888889,0.14333333333333334,0.07199483164476608,0.032912150530992654,0.011999138607461015
1592284857.5780506,-0.44256234111505693,9.662512468223012,1.4673877859928974,-0.3322222222222222,-0.5288888888888889,0.14333333333333334,0.07362835767421799,0.02276225211566201,0.012815901622186971
1592284857.5880506,-0.3263210715555731,9.638497372476195,1.5953368366984078,-0.33477836167195685,-0.5310190050970011,0.15227982140740448,0.08346835954486828,0.0429267708566997,0.015435542190709757
1592284857.5980506,-0.25198315967549695,9.6160056134415,1.6146741512553349,-0.3388888888888889,-0.5344444444444445,0.16666666666666666,0.09867851791703233,0.0660246836103624,0.0180342524953034
1592284857.6080506,-0.3453981106612686,9.65672514619883,1.415753486279802,-0.3388888888888889,-0.5344444444444445,0.16666666666666666,0.14118039373047137,0.11497150352627963,0.023496288960088978
1592284857.6180506,-0.36,9.714357223300507,1.2825711067979777,-0.3388888888888889,-0.5344444444444445,0.16666666666666666,0.16740343524582948,0.13890160277890562,0.02324251364064981
1592284857.6280506,-0.36,9.71,1.3,-0.3388888888888889,-0.5344444444444445,0.16666666666666666,0.17453292519943295,0.14508049407202864,0.02181661564992912
1592284857.6380506,-0.3948074104693548,9.721730863176882,1.3517308631768818,-0.3377349801043011,-0.5319443087445042,0.16782057545125448,0.17381971018366293,0.16242901174397445,0.028214808979227506
1592284857.6480505,-0.3652182463545664,9.710872985418266,1.3504364927091328,-0.3322222222222222,-0.52,0.17333333333333334,0.17771018961023086,0.17965378133349513,0.03428974869611976
1592284857.6580505,-0.26356606606606603,9.708368368368369,1.2711186186186185,-0.3322222222222222,-0.52,0.17333333333333334,0.18098891819393775,0.20014588311467194,0.04250936985552943
1592284857.6680505,-0.3392768794104627,9.772587297867354,1.1426807801473844,-0.3322222222222222,-0.52,0.17333333333333334,0.18578194899023467,0.22573328909178145,0.05017821599483697
1592284857.6780505,-0.5926615222478253,9.831634960613043,1.0628517585695658,-0.3322222222222222,-0.52,0.17333333333333334,0.18642008330375895,0.2272246329260262,0.047216802250540646
1592284857.6880505,-0.6228889302325582,9.861418790697675,0.991453023255814,-0.32905033591731264,-0.52,0.17333333333333334,0.17204733281027879,0.188732396335978,0.044099396566350216
1592284857.6980505,-0.5231383213288255,9.888856386888138,0.9211436131118624,-0.3211111111111111,-0.52,0.17333333333333334,0.14813395439704408,0.13180195831426053,0.047934180010559754
1592284857.7080505,-0.19778123849704107,9.832434521618485,0.973174108786137,-0.3211111111111111,-0.52,0.17333333333333334,0.08542600803572134,0.023964672325170463,0.037192458827326004
1592284857.7180505,-0.07865035420568357,9.808729745134762,0.9924611188014005,-0.3211111111111111,-0.52,0.17333333333333334,0.061995490256791796,-0.011159453825901677,0.025911472365120092
1592284857.7280505,0.06987596129992557,9.63658397419995,1.3469560903001736,-0.3211111111111111,-0.52,0.17333333333333334,0.04146510025809153,-0.04217653516932527,-0.022270429398935955
1592284857.7380505,-0.5189569142388182,9.642119819450144,1.46627985227739,-0.32435553731819633,-0.5242177540692108,0.1694400218848311,0.05377791281586139,-0.034125591379935906,-0.06178023311266695
1592284857.7480505,-1.6550448780076694,9.685751127217564,1.528682735662214,-0.3322222222222222,-0.5344444444444445,0.16,0.07725270864345377,-0.016362461737446838,-0.07807022267432896
1592284857.7580504,-0.37,9.46,1.52,-0.3322222222222222,-0.5344444444444445,0.16,0.10471975511965977,-0.016362461737446838,-0.017453292519943295
1592284857.7680504,-0.5600106623670454,9.649349335552493,1.2185519985436768,-0.3322222222222222,-0.5344444444444445,0.16,0.1265546964317087,-0.0725591542400435,-0.012333369181912248
1592284857.7780504,-0.25363734387635906,9.793635546769702,1.1327280079072692,-0.3322222222222222,-0.5344444444444445,0.16,0.11523168234579104,-0.04055932131963797,-0.012197426923840774
1592284857.7880504,-0.3131356713500756,9.744455138842792,1.185181620385736,-0.3357021630547463,-0.5298937525865284,0.16294456531982807,0.1361306693933053,-0.05290004335056494,-0.007938240739222743
1592284857.7980504,-0.26,9.79,1.17,-0.3466666666666667,-0.5155555555555555,0.17222222222222222,0.13199052468207118,-0.030543261909900768,-0.00545415391248228
1592284857.8080504,-0.40456777580221825,9.750288149465188,1.0915635142381395,-0.3466666666666667,-0.5155555555555555,0.17222222222222222,0.14116159374497,-0.014710499448372816,-0.0029762104788712464
1592284857.8180504,-0.33,9.8,0.93,-0.3466666666666667,-0.5155555555555555,0.17222222222222222,0.14726215563702155,-0.011999138607461015,0.001090830782496456
1592284857.8280504,-0.38718213435841115,9.738453596924767,1.0440893282079444,-0.3466666666666667,-0.5155555555555555,0.17222222222222222,0.13962634015954636,-0.01308996938995747,0.0032724923474893677
1592284857.8380504,-0.37629887886245555,9.763701121137544,1.0772241591468417,-0.3453301507003312,-0.5166864536809164,0.17088570625588673,0.14023193468953363,-0.012888104546628382,0.0032724923474893677
1592284857.8480504,-0.34,9.79645283192774,1.0287169915664316,-0.3322222222222222,-0.5277777777777778,0.15777777777777777,0.14578438884213396,-0.007812819725835486,0.0028855563350982335
1592284857.8580503,-0.34,9.79,0.9216816154487085,-0.3322222222222222,-0.5277777777777778,0.15777777777777777,0.1409816852436848,0.00042667132577135563,0.002181661564992912
1592284857.8680503,-0.36506281615883346,9.800741206925213,0.8079020115420239,-0.3322222222222222,-0.5277777777777778,0.15777777777777777,0.12839461980249245,0.004673031302136419,0.0006194163443011913
1592284857.8780503,-0.4071711499791327,9.831315400083469,0.8173691998330614,-0.3322222222222222,-0.5277777777777778,0.15777777777777777,0.115979850388234,0.0020381736747582414,-0.002181661564992912
1592284857.8880503,-0.39673937007874016,9.863260629921259,0.7518484251968504,-0.3304107611548556,-0.5301326771653544,0.15777777777777777,0.10225379041371699,-0.003936267173247841,-0.0020038217905709505
1592284857.8980503,-0.38,9.88,0.71,-0.3211111111111111,-0.5422222222222223,0.15777777777777777,0.0839939702522271,-0.01854412330243975,-0.001090830782496456
1592284857.9080503,-0.3635246254847786,9.827049250969557,0.7235246254847786,-0.3211111111111111,-0.5422222222222223,0.15777777777777777,0.04170197057556107,-0.02573286157218421,-0.0029193154550195386
1592284857.9180503,-0.3646048603138155,9.814604860313816,0.7355585055491771,-0.3211111111111111,-0.5422222222222223,0.15777777777777777,0.016430847392845883,-0.03083752113217868,-0.001783375784883641
1592284857.9280503,-0.384625157057099,9.83193773558565,0.7934371073572526,-0.3211111111111111,-0.5422222222222223,0.15777777777777777,-0.001124790752410836,-0.02857297450742427,-0.0005045263691764287
1592284857.9380503,-0.36994217510564165,9.81001445622359,0.8301156497887167,-0.3211368110641593,-0.5422013410103707,0.15778741526017082,-0.013115200259861756,-0.02618151570928396,0.0010939846412344916
1592284857.9480503,-0.34083477758521086,9.816388407471596,0.91,-0.3388888888888889,-0.5277777777777778,0.16444444444444445,-0.03605875273524439,-0.02530095141050296,0.0020906014563443053
1592284857.9580503,-0.36350881589138456,9.81,0.8784206569775388,-0.3388888888888889,-0.5277777777777778,0.16444444444444445,-0.050790674564616695,-0.019137348580824595,0.0003827524384435034
1592284857.9680502,-0.3636001522866797,9.80040022843002,0.8647989339932423,-0.3388888888888889,-0.5277777777777778,0.16444444444444445,-0.06348626848179476,-0.014180800172453926,0.0017889458713943923
1592284857.9780502,-0.35477756528266813,9.772833652075997,0.9862766090546747,-0.3388888888888889,-0.5277777777777778,0.16444444444444445,-0.073249182736344,-0.013659648644881848,0.0035330681112754076
1592284857.9880502,-0.3697708627500045,9.750343705874993,1.0687397451250247,-0.3388888888888889,-0.5277777777777778,0.16444444444444445,-0.08060900042016747,-0.012024133604032186,0.004350825631700238
1592284857.9980502,-0.3366249220286935,9.726624922028694,1.1235003118852263,-0.3322222222222222,-0.5277777777777778,0.18666666666666668,-0.0814304838919599,-0.0025088427569407716,0.0036406562419320563
1592284858.0080502,-0.3532716178278926,9.723324516832557,1.113430314841883,-0.3322222222222222,-0.5277777777777778,0.18666666666666668,-0.07781451928016887,0.006536329115581186,0.0036380260704098645
1592284858.0180502,-0.3878215441516413,9.73304461396209,1.0552230698104486,-0.3322222222222222,-0.5277777777777778,0.18666666666666668,-0.07336911200715257,0.015746896294490217,0.0031780091541926915
1592284858.0280502,-0.36,9.742183418982888,1.09,-0.3322222222222222,-0.5277777777777778,0.18666666666666668,-0.06511163334971068,0.018958526884782854,0.005215979848720091
1592284858.0380502,-0.36,9.749909008859664,1.09,-0.3322222222222222,-0.5277777777777778,0.18666666666666668,-0.060055246599393076,0.008845753384147644,0.004373248723667157
1592284858.0480502,-0.37,9.75,1.13,-0.3322222222222222,-0.5155555555555555,0.16444444444444445,-0.056723200689815706,0.00545415391248228,0.002181661564992912
1592284858.0580502,-0.36216128476212367,9.765296770857274,1.1174580556193978,-0.3322222222222222,-0.5155555555555555,0.16444444444444445,-0.04857434249973854,0.002181661564992912,0.0032724923474893677
1592284858.0680501,-0.317122157467718,9.742877842532282,1.061511370129128,-0.3322222222222222,-0.5155555555555555,0.16444444444444445,-0.04393134933201668,0.0028095094092710684,0.0032724923474893677
1592284858.0780501,-0.3254734991208239,9.748065812609896,1.097736749560412,-0.3322222222222222,-0.5155555555555555,0.16444444444444445,-0.03800398548332792,0.0058402329309543985,0.0028505181186412034
1592284858.0880501,-0.3856780421286827,9.740540244733914,1.1278390210643412,-0.3322222222222222,-0.5155555555555555,0.16444444444444445,-0.03307851282639511,0.011586617697376008,0.0012086938996636013
1592284858.09805,-0.34879983125922803,9.74293327708641,1.13,-0.32666666666666666,-0.5277777777777778,0.16444444444444445,-0.03118320369779013,0.017133321625998614,0.0
1592284858.10805,-0.37281068967983405,9.752810689679833,1.1075144825613272,-0.32666666666666666,-0.5277777777777778,0.16444444444444445,-0.032111726110332056,0.015442665690604403,-0.00030659868228081187
1592284858.11805,-0.3827885297875361,9.751634410637392,1.0639426489376804,-0.32666666666666666,-0.5277777777777778,0.16444444444444445,-0.031455806148946566,0.012177425150911672,-0.00078664936948119
