time,acc_x,acc_y,acc_z,mag_x,mag_y,mag_z,gyr_x,gyr_y,gyr_z
1592284876.2280328,-0.30881128070352776,9.948959870615585,-0.039405640351763874,-0.4988888888888889,-0.587678717836405,-0.15734851803182945,-0.009493304142383238,0.0454583026747578,-0.022793985917395874
1592284876.2380328,-0.31,9.936024932424255,0.015900270302981405,-0.4988888888888889,-0.5877777777777777,-0.15777777777777777,-0.031159684501195713,0.05115044472953305,-0.019858559652607344
1592284876.2480328,-0.3451491053677932,9.868489065606362,0.11029821073558646,-0.4988888888888889,-0.5877777777777777,-0.15777777777777777,-0.0710341198422891,0.05057507888389631,-0.016627036996819736
1592284876.2580328,-0.35,9.771280509627084,0.35954262400687137,-0.4988888888888889,-0.5877777777777777,-0.15777777777777777,-0.09946181176879897,0.03662930283997261,-0.007652446137891176
1592284876.2680328,-0.3096069612150988,9.782440577102722,0.40346434626163374,-0.4988888888888889,-0.5877777777777777,-0.15777777777777777,-0.10204851610905416,0.02021926167150543,-0.007034562140591441
1592284876.2780328,-0.1765925609234716,9.81,0.4478024796921761,-0.504037496239292,-0.5877777777777777,-0.12482669073519864,-0.09335984925804817,-0.00994945870619042,-0.004603035409679359
1592284876.2880328,-0.21284884471408289,9.788575577642959,0.47142442235704146,-0.5044444444444445,-0.5877777777777777,-0.12222222222222222,-0.0894487577956015,-0.006701632332196666,-0.0034285063538151807
1592284876.2980328,-0.302214024592888,9.727785975407112,0.451678963110668,-0.5044444444444445,-0.5877777777777777,-0.12222222222222222,-0.07102878117311552,-0.0028478332651974605,0.001332343400409098
1592284876.3080328,-0.251714852673112,9.761632248090635,0.4150206511456194,-0.5044444444444445,-0.5877777777777777,-0.12222222222222222,-0.049466013410062994,-0.007813866123668689,0.0030899363202287755
1592284876.3180327,-0.20820872816583882,9.814507780567826,0.34641745633167764,-0.5044444444444445,-0.5877777777777777,-0.12222222222222222,-0.03402406756816985,-0.01358169197036983,0.0018853364302327447
1592284876.3280327,-0.3074190574133835,9.785204439873754,0.411763183091599,-0.500095590466171,-0.6034336520995622,-0.14483626290924423,-0.01958571022571716,-0.025755312037850912,-0.0006169601812133754
1592284876.3380327,-0.20018803695898849,9.793301993840169,0.43067920246393254,-0.4988888888888889,-0.6077777777777778,-0.1511111111111111,-0.015928180589479375,-0.0314118242058357,-0.003124313356448352
1592284876.3480327,0.063676360511214,9.82,0.37214937207174736,-0.4988888888888889,-0.6077777777777778,-0.1511111111111111,-0.00896110638186167,-0.04186617676067626,-0.010673847703074536
1592284876.3580327,-0.013383382693941279,9.788189728401864,0.45543081479440733,-0.4988888888888889,-0.6077777777777778,-0.1511111111111111,-0.0006958907857113443,-0.01934349487868477,-0.037156365615104964
1592284876.3680327,-0.16747449682933555,9.78,0.4860702141347302,-0.4988888888888889,-0.6077777777777778,-0.1511111111111111,0.0037394613563000003,0.0034639716963146775,-0.06151148767303216
1592284876.3780327,-0.41051706192848114,9.672988625381013,0.5435056873094938,-0.518422711239974,-0.5924904385464939,-0.14007025499962827,0.019628669096039955,0.011679415140061395,-0.08726017761082022
1592284876.3880327,-0.47854340271290313,9.677086805425807,0.5090056425395165,-0.5244444444444445,-0.5877777777777777,-0.13666666666666666,0.0386633702212327,-0.008308020941925292,-0.0855614713822634
1592284876.3980327,-0.3829727666072792,9.75120726223806,0.34857639772630866,-0.5244444444444445,-0.5877777777777777,-0.13666666666666666,0.0820147976795225,-0.0909675319688179,-0.05641261885338081
1592284876.4080327,-0.3448604498440322,9.801116401247743,0.34055820062387127,-0.5244444444444445,-0.5877777777777777,-0.13666666666666666,0.10514598681598904,-0.1377060589142142,-0.05410268165765688
1592284876.4180326,-0.36299102539621925,9.822756730952836,0.37724326904716443,-0.5244444444444445,-0.5877777777777777,-0.13666666666666666,0.12626121563044856,-0.17959990396230582,-0.06659179285048596
1592284876.4280326,-0.06216478190630048,9.85651247094054,0.12642933133693213,-0.4994655248652648,-0.6084499870846851,-0.1418347189933935,0.13343655565317045,-0.20079762375329815,-0.07985062710351781
1592284876.4380326,0.03421879936808847,9.92484439178515,-0.07234518167456554,-0.4922222222222222,-0.6144444444444445,-0.14333333333333334,0.13371198662547534,-0.18971916805758604,-0.07582971360658045
1592284876.4480326,0.06295373665480428,10.0,-0.4312811387900356,-0.4922222222222222,-0.6144444444444445,-0.14333333333333334,0.10804271294818989,-0.11424996711620355,-0.05260832300495363
1592284876.4580326,0.22396927590562732,10.06843078929139,-0.4044615133857626,-0.4922222222222222,-0.6144444444444445,-0.14333333333333334,0.06909824720353858,-0.08682005807061775,-0.040531913286886365
1592284876.4680326,0.3180923024954609,10.271907697504538,-0.3960178186885107,-0.4922222222222222,-0.6144444444444445,-0.14333333333333334,-0.033122924943945406,-0.029396606826919337,-0.02283342856866373
1592284876.4780326,0.020895590290189475,10.459552204854905,-0.5649452442075845,-0.5011486981733627,-0.5949684969146835,-0.13278386175471282,-0.1397988993591432,0.09748985077500773,-0.03737044541095802
1592284876.4880326,-0.24350511280636258,10.455242655413082,-0.5686698587891577,-0.5044444444444445,-0.5877777777777777,-0.1288888888888889,-0.21049439902395092,0.18434517914368914,-0.07792349075073815
1592284876.4980326,-0.4104555844565303,10.050176558682116,-0.15784740285331444,-0.5044444444444445,-0.5877777777777777,-0.1288888888888889,-0.3641498725599795,0.28983796053707067,-0.17167477143008264
1592284876.5080326,-0.20736776205438354,9.899561293675731,0.24394835691842467,-0.5044444444444445,-0.5877777777777777,-0.1288888888888889,-0.47260031690989296,0.30102144053272295,-0.19976559950574813
1592284876.5180326,-0.0953474676089517,9.868138987043581,0.4584334511189635,-0.5044444444444445,-0.5877777777777777,-0.1288888888888889,-0.5034820057967122,0.2975937985995838,-0.20170219225087002
1592284876.5280325,0.2965958624507023,9.686702068774649,1.0683543209022348,-0.4955798872975238,-0.6071186297346955,-0.13936518369888604,-0.4979819886819138,0.26909934241852534,-0.20881628079308245
1592284876.5380325,0.4723202570625251,9.694880171375017,1.23585620565002,-0.4922222222222222,-0.6144444444444445,-0.14333333333333334,-0.4683380972616656,0.24723893645262943,-0.22169174962949126
1592284876.5480325,0.7222444628309572,9.917386710794299,1.2939199338085539,-0.4922222222222222,-0.6144444444444445,-0.14333333333333334,-0.3462795872637756,0.17433752402597724,-0.2918656195215163
1592284876.5580325,0.7585058977719529,10.006264744429883,1.1467234600262124,-0.4922222222222222,-0.6144444444444445,-0.14333333333333334,-0.27236886614121536,0.14674175930041775,-0.348384855559116
1592284876.5680325,0.7265275559105432,10.173676118210862,0.7836661341853035,-0.4922222222222222,-0.6144444444444445,-0.14333333333333334,-0.14761654495074394,0.1410515210321251,-0.47121885881482883
1592284876.5780325,0.5011756695415343,10.227597972461796,0.5565929036162809,-0.4832652023335183,-0.6054874245557404,-0.14815634404263547,-0.09780311386325172,0.16177186382003983,-0.5924845579553981
1592284876.5880325,0.3673805393471061,10.222130973032645,0.5427858381958681,-0.4777777777777778,-0.6,-0.1511111111111111,-0.10187587101922763,0.16752303430831847,-0.6512781016933737
1592284876.5980325,0.10068125310790652,10.191416912861614,0.628583087138386,-0.4777777777777778,-0.6,-0.1511111111111111,-0.14656663016251786,0.15388145351807786,-0.7851841261058174
1592284876.6080325,-0.0463468099005589,10.054870920132588,0.6428044325082868,-0.4777777777777778,-0.6,-0.1511111111111111,-0.1460908275550014,0.12135997212929922,-0.9045965323052425
1592284876.6180325,-0.10090953141032949,10.003030156196557,0.6260603123931137,-0.4777777777777778,-0.6,-0.1511111111111111,-0.13167077483122197,0.10188780493831999,-0.965661308138077
1592284876.6280324,-0.22689197725837018,9.948393345967572,0.5673573383870288,-0.4700517067920732,-0.6126426616129711,-0.1511111111111111,-0.07886736418051972,0.05642344617914864,-1.127173892218114
1592284876.6380324,-0.3086375510504434,9.970531292542036,0.47488428566172414,-0.46555555555555556,-0.62,-0.1511111111111111,-0.06807363633037249,0.04048038156477631,-1.2050053542608268
1592284876.6480324,-0.5871971170050037,10.056735111871614,0.26979466438515987,-0.46555555555555556,-0.62,-0.1511111111111111,-0.08038773249849365,0.04622143385415364,-1.3247927038049405
1592284876.6580324,-0.9197296780972395,9.930769892062278,0.28569204317508834,-0.46555555555555556,-0.62,-0.1511111111111111,-0.10288204545198473,0.07732301226313831,-1.42196893474421
1592284876.6680324,-1.0388055789572217,9.829702330805953,0.3194027894786109,-0.46555555555555556,-0.62,-0.1511111111111111,-0.11676759973510083,0.08653383029938772,-1.4600361077044288
1592284876.6780324,-1.2307555197792088,9.53734360625575,0.33101540938362467,-0.44317987836042116,-0.6236284881938056,-0.14687787488500462,-0.1865719538930064,0.030159539351982567,-1.516558730055767
1592284876.6880324,-1.3046889621845517,9.554066886553654,0.254746490757076,-0.42444444444444446,-0.6266666666666667,-0.14333333333333334,-0.21905341350762075,-0.01725599413955466,-1.5076638572595467
1592284876.6980324,-1.415506230946141,9.785843718243568,0.012695352195539411,-0.42444444444444446,-0.6266666666666667,-0.14333333333333334,-0.2895240332813571,-0.006679639315827098,-1.498433849529127
1592284876.7080324,-1.4667313962408899,9.631132527809742,0.11521049098580742,-0.42444444444444446,-0.6266666666666667,-0.14333333333333334,-0.3849856486109102,0.03262256655883376,-1.5130882088407354
1592284876.7180324,-1.6794561789835285,9.495064740597199,0.2897928300889633,-0.42444444444444446,-0.6266666666666667,-0.14333333333333334,-0.4623964332789623,0.07954307703722699,-1.513540422500367
1592284876.7280324,-2.001383310184316,9.373805323022635,0.4712575547130147,-0.3912544681774007,-0.6469181776092696,-0.14727112712772836,-0.5414773197296474,0.1267009842965845,-1.5008871321577093
1592284876.7380323,-2.175860713851639,9.284249078313008,0.614615322286594,-0.35888888888888887,-0.6666666666666666,-0.1511111111111111,-0.5815886092361813,0.14078509651481344,-1.4891758183586867
1592284876.7480323,-2.473545538664904,9.192908922670192,1.0417781890284203,-0.35888888888888887,-0.6666666666666666,-0.1511111111111111,-0.5967670614278576,0.12755775751971915,-1.463328543269862
1592284876.7580323,-2.390347731466149,8.962562804560722,1.4089246345271325,-0.35888888888888887,-0.6666666666666666,-0.1511111111111111,-0.5660962258572723,0.09089788611493366,-1.4466418036434445
1592284876.7680323,-2.4812362914862915,8.99329834054834,1.4298973665223667,-0.35888888888888887,-0.6666666666666666,-0.1511111111111111,-0.5235089552064861,0.05928730233271958,-1.4415047622366677
1592284876.7780323,-2.5702909898328854,9.105080830509134,1.3050808305091348,-0.33563099736408136,-0.6805106497171473,-0.15443366704322647,-0.4626074779786288,0.02840039620422067,-1.4442529022327053
1592284876.7880323,-2.543855325278067,9.06935744578699,1.2917068096343123,-0.31222222222222223,-0.6944444444444444,-0.15777777777777777,-0.4286483148699159,0.01705901528184323,-1.4465577098476998
1592284876.7980323,-3.0414527226263024,8.902905445252605,1.3955067539105281,-0.31222222222222223,-0.6944444444444444,-0.15777777777777777,-0.3723860535490695,0.003084555397543688,-1.4427268990310074
1592284876.8080323,-3.0534278234548204,8.862657994845993,1.4084967480672475,-0.31222222222222223,-0.6944444444444444,-0.15777777777777777,-0.35402409506617843,-0.018239144024885724,-1.4366431487661555
1592284876.8180323,-3.5098174397329958,9.036200816293706,1.6373245270120835,-0.31222222222222223,-0.6944444444444444,-0.15777777777777777,-0.3114007708444631,-0.07327794007710364,-1.3959186747675634
1592284876.8280323,-3.2833756792480537,8.798025407548833,2.0937090615362024,-0.28968424144514615,-0.691994663925197,-0.15777777777777777,-0.2607849744470026,-0.08998953444954516,-1.3551378475225722
1592284876.8380322,-3.0323419213101657,8.606433393249452,2.2875706011583783,-0.2611111111111111,-0.6888888888888889,-0.15777777777777777,-0.21519792903513207,-0.09783342557346963,-1.3402801445185242
1592284876.8480322,-3.5554659683093934,8.578564135121551,2.0316374361823137,-0.2611111111111111,-0.6888888888888889,-0.15777777777777777,-0.0965014014352423,-0.060188016058370576,-1.326315590973111
1592284876.8580322,-3.836261965690456,8.44403279310018,1.9714756895081036,-0.2611111111111111,-0.6888888888888889,-0.15777777777777777,-0.027871651801807607,-0.037106132466444466,-1.3060248877679559
1592284876.8680322,-4.054496139414057,8.507442091210853,1.5876737263674412,-0.2611111111111111,-0.6888888888888889,-0.15777777777777777,0.011001388168470266,-0.02313571957928946,-1.282664745962618
1592284876.8780322,-4.143332910830851,8.430580518410546,1.343623170036124,-0.24420298427586595,-0.6888888888888889,-0.16542669229848392,0.03302530117626557,-0.007145740097722522,-1.2569691015048905
1592284876.8880322,-4.462750785146868,8.299717347127286,1.3154498429706263,-0.21444444444444444,-0.6888888888888889,-0.17888888888888888,0.04733758220395021,-0.015041695997841859,-1.2107520394167508
1592284876.8980322,-4.645604110074406,8.389780323609306,1.2874725404511633,-0.21444444444444444,-0.6888888888888889,-0.17888888888888888,0.05959411992415503,-0.029662171592020378,-1.1781152817454636
1592284876.9080322,-4.830945182592092,8.30762113135492,1.400957116715729,-0.21444444444444444,-0.6888888888888889,-0.17888888888888888,0.08207267087575272,-0.10664279024405761,-1.0256898118896478
1592284876.9180322,-4.711905745027197,8.517145352761345,1.2152332552507246,-0.21444444444444444,-0.6888888888888889,-0.17888888888888888,0.08934409527919081,-0.1559891483712164,-0.8859612672612664
1592284876.9280322,-4.775096605414946,8.881232388817097,1.0908459671573107,-0.1790310391079452,-0.6954267483356272,-0.16962692133934293,0.07588650549576914,-0.17089416373334004,-0.7403972592102408
1592284876.9380322,-4.711893533404787,8.992330594259855,1.3079611766106944,-0.14222222222222222,-0.7022222222222222,-0.16,0.06765800958416567,-0.15977494732462916,-0.6602280266804395
1592284876.9480321,-4.6812901534023865,8.503707879900354,1.4166553035269438,-0.14222222222222222,-0.7022222222222222,-0.16,0.01618911875745658,-0.12518552551710704,-0.5371439848441218
1592284876.9580321,-5.264086253875787,8.76370196373203,1.686682326411726,-0.14222222222222222,-0.7022222222222222,-0.16,-0.04176612011271759,-0.09573615943079414,-0.444151795558857
1592284876.9680321,-4.812821136413885,8.496760195365104,1.5567601953651038,-0.14222222222222222,-0.7022222222222222,-0.16,-0.07716420270930259,-0.08430672930419005,-0.38704407355034753
1592284876.978032,-4.783838674414591,8.371700419998849,1.5838217018583511,-0.12391132718357849,-0.7087953640309661,-0.16,-0.08800470795352268,-0.07011984660118559,-0.35235302857588774
1592284876.988032,-4.78992039279245,8.286393364477071,1.779369815997712,-0.09888888888888889,-0.7177777777777777,-0.16,-0.10633280982953786,-0.08747435379374931,-0.3410933427049418
1592284876.998032,-4.381859324143213,8.272933180164657,1.325531064522305,-0.09888888888888889,-0.7177777777777777,-0.16,-0.06757984390348024,-0.10416551575740628,-0.33723423670838937
1592284877.008032,-4.73,8.54,1.13,-0.09888888888888889,-0.7177777777777777,-0.16,-0.032724923474893676,-0.09272061651219875,-0.3294308963139297
1592284877.018032,-5.060299869621904,7.966907431551499,1.747650586701434,-0.09888888888888889,-0.7177777777777777,-0.16,-0.05788343504752185,-0.10125839402651783,-0.3340004390833705
1592284877.028032,-5.7830680197121,8.738138697963947,1.3351219037738296,-0.09480673352641969,-0.718684923413882,-0.16,-0.048199590985488996,-0.09797452778784746,-0.3247329041496175
1592284877.038032,-5.833482882214807,8.449393152885923,1.5754051827133029,-0.08888888888888889,-0.72,-0.16,-0.07796130257288136,-0.10020224254400405,-0.3152940924886955
1592284877.048032,-4.898770571399366,7.974590105284677,1.8289341204129612,-0.08888888888888889,-0.72,-0.16,-0.048497257243786646,-0.12667048062583416,-0.23768484115782976
1592284877.058032,-5.333285697441339,8.01441150807688,1.4797953071571748,-0.08888888888888889,-0.72,-0.16,-0.03005087676645625,-0.11128706834002954,-0.1399110288582821
1592284877.068032,-5.629571257813572,8.307886465620285,1.5280857484372856,-0.08888888888888889,-0.72,-0.16,-0.006404679142565459,-0.11439857248532943,-0.0425391087661321
1592284877.078032,-5.267935772313397,8.381209857695874,1.5714650237173546,-0.08434394101860435,-0.717552720377539,-0.16,0.012060278896671328,-0.1292210717958083,0.03879470300373389
1592284877.088032,-4.922674998277011,8.01246203680305,1.4469907418043142,-0.07444444444444444,-0.7122222222222222,-0.16,0.016554771127161232,-0.1239700904251672,0.0980620511602902
1592284877.098032,-5.506694791101465,8.141924850786761,1.3422878459034182,-0.07444444444444444,-0.7122222222222222,-0.16,0.025919778893617428,-0.10163743310880421,0.1419875774485813
1592284877.108032,-5.88406158496269,8.162889392651365,1.6395872296212335,-0.07444444444444444,-0.7122222222222222,-0.16,0.025044081733892373,-0.10558545458452566,0.21513919638517193
1592284877.118032,-6.046555704117346,8.109559361359079,1.7243255731644973,-0.07444444444444444,-0.7122222222222222,-0.16,0.02233946715775318,-0.1419885127919326,0.28361012654408024
1592284877.128032,-5.790833742994789,7.992462884672108,1.7572352767672796,-0.07164563737860365,-0.7174200067730694,-0.1572011929341592,0.017540057056669243,-0.20432823175812634,0.3577302921702083
1592284877.138032,-5.65,7.73,1.61,-0.06666666666666667,-0.7266666666666667,-0.15222222222222223,0.019634954084936207,-0.2301652951067522,0.43524148221608594
1592284877.148032,-5.627455948520725,7.890177462735339,1.3390531131387777,-0.06666666666666667,-0.7266666666666667,-0.15222222222222223,0.03852116332464629,-0.2183855949215399,0.7108216468036851
1592284877.158032,-5.911758351337876,7.981570312685486,1.089355872646549,-0.06666666666666667,-0.7266666666666667,-0.15222222222222223,0.020251396884741063,-0.21437825249904507,0.9188205799169957
1592284877.168032,-5.797410820660173,8.083608346765716,1.1024435839932722,-0.06666666666666667,-0.7266666666666667,-0.15222222222222223,-0.01516575103107642,-0.2355770970496849,1.0593573635441325
1592284877.178032,-5.4854572624028695,7.995742179717075,1.435172345088663,-0.067844413451108,-0.7248159217196875,-0.14986672865333953,-0.06352986306204604,-0.259349528349,1.1583870912800658
1592284877.188032,-5.46,8.14,1.24,-0.07444444444444444,-0.7144444444444444,-0.13666666666666666,-0.08944812416470939,-0.2945243112740431,1.2435470920459597
1592284877.198032,-5.063889427203012,8.176763378644003,1.3336718252540072,-0.07444444444444444,-0.7144444444444444,-0.13666666666666666,-0.1812806381423256,-0.3518824231338487,1.369116237979531
1592284877.208032,-4.8883295133131766,8.219345557397835,1.3700229201209402,-0.07444444444444444,-0.7144444444444444,-0.13666666666666666,-0.2532230193583796,-0.3779002274227671,1.483756531022656
1592284877.218032,-4.86,8.31,1.54,-0.07444444444444444,-0.7144444444444444,-0.13666666666666666,-0.28907015736156083,-0.3785182815262702,1.5467980495799747
1592284877.2280319,-4.131986509407913,7.895756380418918,2.30322788055698,-0.07988714010843315,-0.7161550059388408,-0.1425758791018544,-0.32733787470049464,-0.3891877348021583,1.6447733801136504
1592284877.2380319,-4.39,8.73,1.77,-0.11333333333333333,-0.7266666666666667,-0.17888888888888888,-0.3010692959690219,-0.36760997370130566,1.7038776822594641
1592284877.2480319,-3.8912566917211917,8.353482939490618,2.3413464554155627,-0.11333333333333333,-0.7266666666666667,-0.17888888888888888,-0.3243958389628294,-0.33568407654878785,1.6738416422118187
1592284877.2580318,-3.5158836843610026,8.528692699895169,2.1709444391499093,-0.11333333333333333,-0.7266666666666667,-0.17888888888888888,-0.3066211703556818,-0.304883227316124,1.6233991800762921
1592284877.2680318,-3.38,8.83,2.36,-0.11333333333333333,-0.7266666666666667,-0.17888888888888888,-0.29888763440402893,-0.28361600344907856,1.5969762655748114
1592284877.2780318,-3.1767161621930327,8.841679040548257,2.330913763563678,-0.11781077479535502,-0.7239615457833619,-0.17767624849292465,-0.23595336409600096,-0.24059141959325175,1.564951566999704
1592284877.2880318,-3.25,8.86,2.45,-0.16666666666666666,-0.6944444444444444,-0.16444444444444445,-0.19198621771937624,-0.19962203319685143,1.5249814339300454
1592284877.2980318,-2.8475188135733385,9.030396394409681,2.453896132535766,-0.16666666666666666,-0.6944444444444444,-0.16444444444444445,-0.14553532513347367,-0.1669783875455123,1.3438849110231363
1592284877.3080318,-2.6288069637682896,9.211169568236787,2.4651150650159246,-0.16666666666666666,-0.6944444444444444,-0.16444444444444445,-0.09905040774023131,-0.12270591138471539,1.129855273984857
1592284877.3180318,-2.41,9.12,2.69,-0.16666666666666666,-0.6944444444444444,-0.16444444444444445,-0.0818123086872342,-0.09817477042468103,0.9959285044192642
1592284877.3280318,-2.230521269412559,9.522842673869008,2.3808831870357867,-0.17213159276764947,-0.6944444444444444,-0.16368189661640034,-0.04687361006050301,-0.027295517647686132,0.7536493161905927
1592284877.3380318,-1.77,9.39,2.62,-0.21444444444444444,-0.6944444444444444,-0.15777777777777777,-0.038179077387375956,0.031634092692397225,0.5585053606381855
1592284877.3480318,-2.02234175119646,9.469443457845468,2.26036450651657,-0.21444444444444444,-0.6944444444444444,-0.15777777777777777,-0.009032327101107065,0.13342893198274802,0.34387334746629855
1592284877.3580317,-2.25,9.65,1.86,-0.21444444444444444,-0.6944444444444444,-0.15777777777777777,-0.002181661564992912,0.17453292519943295,0.1974403716318585
1592284877.3680317,-1.8448372093023255,9.511627906976743,2.3033953488372094,-0.21444444444444444,-0.6944444444444444,-0.15777777777777777,0.03297860505221843,0.21264097174515798,-0.05153794924929767
1592284877.3780317,-2.3211336828309306,9.78113368283093,2.1974049803407603,-0.21487694772098442,-0.6937236056502112,-0.15758555409931554,0.07704224721174346,0.23829648786618676,-0.21380354819943806
1592284877.3880317,-1.92,9.38,2.08,-0.23444444444444446,-0.6611111111111111,-0.14888888888888888,0.10799224746714915,0.26070855701665296,-0.4112432050011639
1592284877.3980317,-2.11943659167828,9.707547282500498,1.8077125223969739,-0.23444444444444446,-0.6611111111111111,-0.14888888888888888,0.13239793032570313,0.2969952395327022,-0.6125875911615789
1592284877.4080317,-1.89,9.13,2.14,-0.23444444444444446,-0.6611111111111111,-0.14888888888888888,0.12980886311707826,0.32288591161895097,-0.7472190860100723
1592284877.4180317,-2.303863320493984,9.622615057777072,1.849318587936306,-0.23444444444444446,-0.6611111111111111,-0.14888888888888888,0.16397170974075295,0.36332098109678396,-0.8919770479768526
1592284877.4280317,-2.4197731648405503,9.101020758217523,1.7000567087898624,-0.23429322100481131,-0.6611804218542763,-0.1490212093985679,0.1604325426286851,0.3795596245538706,-0.9812136107068944
1592284877.4380317,-2.38,9.28,1.71,-0.20777777777777778,-0.6733333333333333,-0.17222222222222222,0.17453292519943295,0.370882466048795,-1.0788316438889949
1592284877.4480317,-2.6722679584775086,9.29073079584775,1.6370012456747405,-0.20777777777777778,-0.6733333333333333,-0.17222222222222222,0.1507288989028168,0.35298752671847683,-1.1782699662609026
1592284877.4580317,-2.653981620004274,9.374090617653344,1.394191066467194,-0.20777777777777778,-0.6733333333333333,-0.17222222222222222,0.12555161564557413,0.3464855308646341,-1.269174738001824
1592284877.4680316,-2.42,9.03,1.58,-0.20777777777777778,-0.6733333333333333,-0.17222222222222222,0.08726646259971647,0.3359758810089084,-1.34499435481813
1592284877.4780316,-2.7054576951130564,9.115637308533916,1.208904996353027,-0.20777777777777778,-0.6733333333333333,-0.17222222222222222,0.07584897443229012,0.36503857816235735,-1.4051956560645602
1592284877.4880316,-3.11,9.15,1.53,-0.1688888888888889,-0.6933333333333334,-0.17777777777777778,0.03490658503988659,0.3981532356112064,-1.4409874636778182
1592284877.4980316,-2.98255809910171,8.973565922920892,1.6943152709359606,-0.1688888888888889,-0.6933333333333334,-0.17777777777777778,0.00843350326730656,0.38302817615258855,-1.4850773203466694
1592284877.5080316,-3.501777883698761,8.598493803622498,1.4115061963775024,-0.1688888888888889,-0.6933333333333334,-0.17777777777777778,0.01282064129399314,0.39056187486771765,-1.4898364571295417
1592284877.5180316,-3.7214936644802146,8.6521096988925,1.4916118107324288,-0.1688888888888889,-0.6933333333333334,-0.17777777777777778,0.03143249590239773,0.40611215798180567,-1.4556929675333958
1592284877.5280316,-3.9905828602653224,8.871501472329316,1.6401235542333261,-0.16305846479733127,-0.6943050706819263,-0.17662936091125886,0.04110466031264278,0.40152593299035344,-1.4463780373983697
1592284877.5380316,-3.65,8.31,1.41,-0.09555555555555556,-0.7055555555555556,-0.16333333333333333,0.0370882466048795,0.37742745074377376,-1.48352986419518
1592284877.5480316,-4.450008350393277,8.548564271091477,1.2020100204719317,-0.09555555555555556,-0.7055555555555556,-0.16333333333333333,0.03876965512407987,0.3875867453299543,-1.4807558031202768
1592284877.5580316,-4.700286911440949,8.3,1.4864590583055182,-0.09555555555555556,-0.7055555555555556,-0.16333333333333333,-0.024737711901302875,0.34251908393355857,-1.463379901016995
1592284877.5680315,-4.59,8.361770715096482,1.448984108967083,-0.09555555555555556,-0.7055555555555556,-0.16333333333333333,-0.05665987696350896,0.3092338999375418,-1.4283297052521917
1592284877.5780315,-4.571050060313631,8.53999457177322,1.925261158021713,-0.09146143278380914,-0.707544129473261,-0.1611108095429567,-0.08623290372289934,0.287175447452651,-1.3909234954304965
1592284877.5880315,-4.41,8.2,1.8,-0.056666666666666664,-0.7244444444444444,-0.14222222222222222,-0.07744898555724837,0.28034351110158917,-1.3548118318605984
1592284877.5980315,-4.795709180254635,8.092854590127317,1.7230623185168639,-0.056666666666666664,-0.7244444444444444,-0.14222222222222222,-0.0759127586008847,0.30616869231632327,-1.3081061466480128
1592284877.6080315,-4.7073708965023275,7.901537543273248,1.7032863793720903,-0.056666666666666664,-0.7244444444444444,-0.14222222222222222,-0.0674087326639154,0.34830918339266675,-1.3147929395084692
1592284877.6180315,-4.962034015350315,7.542133654282502,1.501458082591796,-0.056666666666666664,-0.7244444444444444,-0.14222222222222222,-0.04494673507479216,0.3772365881788273,-1.3707080061071155
1592284877.6280315,-5.509335526117264,7.7936874981140045,1.3043190802377864,-0.05511622760694851,-0.7245182748758596,-0.14321893304632674,-0.014144558744181239,0.4034986652388706,-1.4056786349926165
1592284877.6380315,-5.49,7.61,1.43,-0.01,-0.7266666666666667,-0.17222222222222222,-0.01308996938995747,0.4003348971761993,-1.4257158327228678
1592284877.6480315,-5.999730793237266,7.391369915058753,1.562281473038617,-0.01,-0.7266666666666667,-0.17222222222222222,-0.021649153039367573,0.3756961354213958,-1.424590988410314
1592284877.6580315,-6.407226759463106,7.767365480671354,1.11134578510049,-0.01,-0.7266666666666667,-0.17222222222222222,-0.033400240252202285,0.34689932097028714,-1.352969171467696
1592284877.6680315,-6.392340662998571,7.3114898866284195,1.4953186740028588,-0.01,-0.7266666666666667,-0.17222222222222222,-0.050410325374198824,0.2872829984409788,-1.2760862126782042
1592284877.6780314,-6.5483816647412425,7.656422627322747,1.1832366705175148,-0.01,-0.7266666666666667,-0.17222222222222222,-0.062056568871158645,0.2523442679500994,-1.1909790486619594
1592284877.6880314,-6.63,7.24,1.47,0.05444444444444444,-0.7266666666666667,-0.16444444444444445,-0.10144726277217041,0.1974403716318585,-1.0919216132789524
1592284877.6980314,-6.463248552002015,7.082270069112175,1.5912915862223342,0.05444444444444444,-0.7266666666666667,-0.16444444444444445,-0.10243349417886968,0.1657358338389828,-0.9981058928845746
1592284877.7080314,-6.87674290595046,7.205472145772041,1.5958631489038626,0.05444444444444444,-0.7266666666666667,-0.16444444444444445,-0.11914217995248635,0.16801992937337246,-0.923606744463677
1592284877.7180314,-7.137534014942981,6.972033621706646,1.5187670074714903,0.05444444444444444,-0.7266666666666667,-0.16444444444444445,-0.12408571196365868,0.18446306708854782,-0.8674506435967233
1592284877.7280314,-6.923118364136847,6.88131930790405,1.411559182068423,0.05444444444444444,-0.7266666666666667,-0.16444444444444445,-0.10069659274882442,0.20155511574554205,-0.8080782640513747
1592284877.7380314,-7.14,6.691909892036541,1.5740772353972503,0.10111111111111111,-0.7266666666666667,-0.16444444444444445,-0.09011760054510838,0.17410923049875718,-0.7210742517088319
1592284877.7480314,-7.1312591377355306,6.875733552076046,1.4387408622644695,0.10111111111111111,-0.7266666666666667,-0.16444444444444445,-0.05607508156316512,0.1486276876597819,-0.6338499525784592
1592284877.7580314,-7.162694827302825,6.951817370682571,1.4400178449834464,0.10111111111111111,-0.7266666666666667,-0.16444444444444445,-0.021521682299522987,0.13229129778965426,-0.5070487756939677
1592284877.7680314,-7.492785237534354,6.951644287396937,1.2962080879466038,0.10111111111111111,-0.7266666666666667,-0.16444444444444445,0.005882434549504838,0.09136622182567862,-0.3805315431447858
1592284877.7780313,-7.509252846486062,6.9022414605418145,1.5102870043188066,0.10111111111111111,-0.7266666666666667,-0.16444444444444445,0.014864121928823422,0.044661447453222,-0.2763439695446903
1592284877.7880313,-7.64,7.3,1.28,0.1111111111111111,-0.7288888888888889,-0.16,0.042542400517361786,0.015271630954950384,-0.08617563181722002
1592284877.7980313,-7.809885223453255,6.758543259056393,1.2183961160214116,0.1111111111111111,-0.7288888888888889,-0.16,0.03704362479545235,-0.051672571332700847,0.11960584060496446
1592284877.8080313,-7.409892522295906,6.577795563686256,1.3366396066773383,0.1111111111111111,-0.7288888888888889,-0.16,0.05533328321438231,-0.13532163702358904,0.2950109819478713
1592284877.8180313,-7.311424149761336,6.769303028042959,1.6039394391408115,0.1111111111111111,-0.7288888888888889,-0.16,0.03947155077834627,-0.17701540320373677,0.44190549177941135
1592284877.8280313,-6.990782928102625,6.761482510441527,1.760349791169451,0.1111111111111111,-0.7288888888888889,-0.16,0.05397401504733177,-0.21711045147681432,0.5289202773933243
1592284877.8380313,-7.08,6.67,1.57,0.13777777777777778,-0.7233333333333334,-0.16666666666666666,0.0839939702522271,-0.234528618236738,0.6610434541928523
1592284877.8480313,-7.352383947411135,6.801495698750203,1.7578509982145756,0.13777777777777778,-0.7233333333333334,-0.16666666666666666,0.0870676750228543,-0.23862689126424094,0.7471071877704136
1592284877.8580313,-6.92574759552278,6.840826471921911,2.0791358201474903,0.13777777777777778,-0.7233333333333334,-0.16666666666666666,0.08111651063172758,-0.2939358754807025,0.7835771182377713
1592284877.8680313,-7.048167144154847,6.9654716651526805,1.4176280483544126,0.13777777777777778,-0.7233333333333334,-0.16666666666666666,0.10329079804611767,-0.3182844289767081,0.8343914510204524
1592284877.8780313,-6.828355460834323,7.221918629026623,1.2930680944727833,0.13777777777777778,-0.7233333333333334,-0.16666666666666666,0.08890415701501433,-0.3158866554715242,0.9103209453512756
1592284877.8880312,-6.82,7.54,1.55,0.10111111111111111,-0.7333333333333333,-0.14555555555555555,0.025089107997418484,-0.3567016658763411,1.05265170510908
1592284877.8980312,-6.622184733462517,7.243277100193776,1.3611763364869487,0.10111111111111111,-0.7333333333333333,-0.14555555555555555,-0.039645786598629607,-0.3988774305374027,1.1526965422120634
1592284877.9080312,-6.302745764300612,7.306343823963631,1.1627602933939492,0.10111111111111111,-0.7333333333333333,-0.14555555555555555,-0.10551582411477389,-0.4317735385958253,1.29453564093994
1592284877.9180312,-6.399557420623362,7.158512234197495,1.381384175648121,0.10111111111111111,-0.7333333333333333,-0.14555555555555555,-0.12404142899060891,-0.44903504619883877,1.421685311483595
1592284877.9280312,-5.994849621322459,7.005792309933003,1.2668442324497524,0.10111111111111111,-0.7333333333333333,-0.14555555555555555,-0.11987663912840303,-0.4148837693287507,1.5566245030190653
1592284877.9380312,-5.31,7.36,2.04,0.06,-0.7333333333333333,-0.16666666666666666,-0.09708393964218458,-0.3850632662212489,1.7289667902568826
1592284877.9480312,-5.405715723776928,7.333895711697202,2.2314314475538555,0.06,-0.7333333333333333,-0.16666666666666666,-0.06291350615915889,-0.3945550532998672,1.797307657222934
1592284877.9580312,-4.8316419153696035,7.351844447617688,1.8472373744585655,0.06,-0.7333333333333333,-0.16666666666666666,0.014554327548782144,-0.3650836534312715,1.8498766777614686
1592284877.9680312,-4.361398167520381,7.76,1.941069908376019,0.06,-0.7333333333333333,-0.16666666666666666,0.07900200876349504,-0.33165300856950797,1.8312940129449669
1592284877.9780312,-4.663995382728519,7.76,1.956199769136426,0.06,-0.7333333333333333,-0.16666666666666666,0.13181518589097369,-0.31679930250240457,1.7974605713476761
1592284877.9880311,-4.39,8.14,1.83,0.013333333333333334,-0.76,-0.16666666666666666,0.17453292519943295,-0.2792526803190927,1.7038776822594641
1592284877.9980311,-4.263654274656972,8.257922676986826,1.8721152417810092,0.013333333333333334,-0.76,-0.16666666666666666,0.16534480477003177,-0.26914574784675144,1.624859846566614
1592284878.0080311,-4.314361367679672,8.492180683839836,1.6387663587843933,0.013333333333333334,-0.76,-0.16666666666666666,0.13239899140332134,-0.19659783757415716,1.5431900376432306
1592284878.0180311,-4.03,8.35,1.98,0.013333333333333334,-0.76,-0.16666666666666666,0.11999138607461016,-0.16144295580947549,1.4180800172453927
1592284878.028031,-4.04887408836116,8.68344222771382,2.086953167379905,0.013333333333333334,-0.76,-0.16666666666666666,0.0952852621835169,-0.14085451923356443,1.3020984912010938
1592284878.038031,-3.19,8.16,2.21,-0.06555555555555556,-0.7411111111111112,-0.15222222222222223,0.09381144729469522,-0.14944381720201447,0.9686577348568529
1592284878.048031,-3.533836990092656,8.79036781516987,2.160880429986763,-0.06555555555555556,-0.7411111111111112,-0.15222222222222223,0.14203447238878064,-0.08157437447700533,0.776658653463735
1592284878.058031,-3.1464556389186615,9.16362581874479,1.822789091342146,-0.06555555555555556,-0.7411111111111112,-0.15222222222222223,0.14832700497894408,-0.0261754959535768,0.48720961161494203
1592284878.068031,-3.710675452456191,9.278851084458488,1.9240541511060039,-0.06555555555555556,-0.7411111111111112,-0.15222222222222223,0.1853748971320477,0.01272883342330902,0.239798375211968
1592284878.078031,-3.3642631427750644,8.864662453318012,2.07466819879345,-0.06555555555555556,-0.7411111111111112,-0.15222222222222223,0.18291048053963985,0.03983741593979516,0.030322964857302348
1592284878.088031,-3.41,9.25,1.7,-0.10222222222222223,-0.7477777777777778,-0.16,0.2127120025868089,0.0839939702522271,-0.3196134192714616
1592284878.098031,-3.0551237455670415,8.997643552403229,2.1495099222817475,-0.10222222222222223,-0.7477777777777778,-0.16,0.2376590877580599,0.09775787931222767,-0.5303732767527201
1592284878.108031,-3.2462978723404254,9.13859574468085,1.2598723404255319,-0.10222222222222223,-0.7477777777777778,-0.16,0.2465834588416031,0.15477264162033758,-0.8307256637850138
1592284878.118031,-2.96,9.03,1.25,-0.10222222222222223,-0.7477777777777778,-0.16,0.25089107997418486,0.14508049407202864,-1.0461067204141012
1592284878.128031,-3.38932400229254,8.8040399987934,1.7132180024735302,-0.10222222222222223,-0.7477777777777778,-0.16,0.2755394924670944,0.15493985906919247,-1.1465490013227078
1592284878.138031,-3.06,8.8,1.59,-0.07111111111111111,-0.76,-0.13111111111111112,0.29343348049154666,0.17889624832941878,-1.3777192782930239
1592284878.148031,-3.4668741941425676,8.600714680419967,1.5567857800699945,-0.07111111111111111,-0.76,-0.13111111111111112,0.3052085858843303,0.17889624832941878,-1.4682970120836671
1592284878.158031,-4.083710625231616,8.56,1.461048229128064,-0.07111111111111111,-0.76,-0.13111111111111112,0.31408303598564585,0.1832087518771823,-1.5579586650807677
1592284878.168031,-4.011218649899157,8.658476687626052,1.391066318661763,-0.07111111111111111,-0.76,-0.13111111111111112,0.3163076934033951,0.21441177810343265,-1.5845783247204246
1592284878.178031,-4.047228231476473,8.540869659275284,1.419782585181179,-0.07111111111111111,-0.76,-0.13111111111111112,0.3017214346098934,0.2254521863786365,-1.5987844252639805
1592284878.188031,-4.63,8.66,1.39,-0.051111111111111114,-0.7555555555555555,-0.11,0.27052603405912107,0.2301652951067522,-1.624247035137223
1592284878.198031,-4.285116177115301,8.473187929270788,1.1744476106970627,-0.051111111111111114,-0.7555555555555555,-0.11,0.265823410429275,0.2489757896261365,-1.6203281821123512
1592284878.208031,-4.712952372989996,8.476332525151186,0.6606295460245799,-0.051111111111111114,-0.7555555555555555,-0.11,0.21818482188681323,0.262590173997212,-1.6135887644659532
1592284878.218031,-5.084370118926104,8.336512450447456,0.5921708168158188,-0.051111111111111114,-0.7555555555555555,-0.11,0.15963706598981428,0.2941943457730259,-1.5882954255591544
1592284878.228031,-5.0431440568361,8.038613291285014,0.8174237726555995,-0.051111111111111114,-0.7555555555555555,-0.11,0.1113397256133396,0.32274898523137435,-1.5608001980196469
1592284878.238031,-5.4,8.02,1.07,0.006666666666666667,-0.7677777777777778,-0.11,0.04581489286485115,0.3337942194439155,-1.5326172494075205
1592284878.248031,-5.4,7.682214342001576,1.07,0.006666666666666667,-0.7677777777777778,-0.11,0.04507795887759015,0.33305728545665453,-1.5223001735858666
1592284878.258031,-5.737916016930273,7.548159668077522,1.0042941078191134,0.006666666666666667,-0.7677777777777778,-0.11,0.052915377486046605,0.29072289721749794,-1.487652100114187
1592284878.268031,-6.321022093597798,7.924014729065199,0.9345474224135903,0.006666666666666667,-0.7677777777777778,-0.11,0.049370840546612435,0.23188114438799823,-1.4377730791605348
1592284878.2780309,-6.064371788883699,7.612139187295656,1.0496590378327886,0.006666666666666667,-0.7677777777777778,-0.11,0.03910585048095889,0.19419997752785223,-1.4083369266084569
1592284878.2880309,-6.173265633351149,7.499158204168894,0.8375761624799571,0.06498307500445394,-0.7677777777777778,-0.1164796009264208,0.0073408072594403385,0.12909641244032216,-1.3666077879305394
1592284878.2980309,-6.378079933025152,7.281429039420522,0.8914730826629782,0.06666666666666667,-0.7677777777777778,-0.11666666666666667,-0.015807258926263206,0.11794122931621383,-1.3321917742537
1592284878.3080308,-6.542142178808845,6.801253561253561,0.7937511870845204,0.06666666666666667,-0.7677777777777778,-0.11666666666666667,-0.04486997975316483,0.07016420123105273,-1.2989263998669855
1592284878.3180308,-7.201845383546548,7.1823223611710025,0.8259046044751089,0.06666666666666667,-0.7677777777777778,-0.11666666666666667,-0.052914622321720416,0.036406836690318745,-1.2639488576792355
1592284878.3280308,-7.207253560092024,7.066555811176796,0.9019269635108769,0.06666666666666667,-0.7677777777777778,-0.11666666666666667,-0.05135843778528197,0.029631213143301395,-1.2296163262102375
1592284878.3380308,-7.023074270879811,6.821891859002961,1.2143244229911168,0.09270271366567964,-0.760183930736399,-0.08954578437602817,-0.05228248888345839,-0.0026017904856031338,-1.1284533605226403
1592284878.3480308,-7.142751701898961,6.697248298101039,1.0604227875313508,0.09333333333333334,-0.76,-0.08888888888888889,-0.04767333083359735,-0.01197607912477836,-1.0672421042281681
1592284878.3580308,-7.407785605325198,6.45904090972126,1.022595201775066,0.09333333333333334,-0.76,-0.08888888888888889,-0.02521526981583508,-0.06720071279956832,-0.9595126065171837
1592284878.3680308,-7.4238582517991425,6.593543705021428,1.0054330071965716,0.09333333333333334,-0.76,-0.08888888888888889,0.007240789548841702,-0.09519436881352522,-0.8902380095747913
1592284878.3780308,-7.330460135415227,6.792331273811168,0.7725460431512663,0.09333333333333334,-0.76,-0.08888888888888889,0.036644885981661476,-0.12722232006600626,-0.7891491579192529
1592284878.3880308,-7.4560237829803055,6.814795243403939,1.0020475659606094,0.1451625583219786,-0.7590220900945538,-0.06933069077996615,0.054063130172945305,-0.16624650273351227,-0.6596781118511189
1592284878.3980308,-7.5607869217908235,6.561424856028237,1.3234326583689393,0.15222222222222223,-0.7588888888888888,-0.06666666666666667,0.03936316477884601,-0.16678018433434855,-0.5790742993184265
1592284878.4080307,-7.575195374582123,6.218574560201677,1.4551953745821231,0.15222222222222223,-0.7588888888888888,-0.06666666666666667,0.010469452737864954,-0.16851204383487273,-0.47133915140736504
1592284878.4180307,-7.6040176343370485,6.1106255198802195,1.7901763433704874,0.15222222222222223,-0.7588888888888888,-0.06666666666666667,0.0026881511198003664,-0.17464489368933486,-0.4224585641793116
1592284878.4280307,-7.6798760257044,6.243269599604548,1.9003719228868017,0.15222222222222223,-0.7588888888888888,-0.06666666666666667,0.019991612074444092,-0.14761262344492634,-0.33217206833524965
1592284878.4380307,-7.554708212870756,6.041243173787343,1.6874012206874398,0.158579195964355,-0.7588888888888888,-0.06121783203055288,0.04609837571195671,-0.10197112786045572,-0.2367719522134622
1592284878.4480307,-7.887544166799299,6.094316409358586,1.6924303676587618,0.16,-0.7588888888888888,-0.06,0.07856742132055287,-0.07122987852878974,-0.1664290403618415
1592284878.4580307,-7.872476722018069,6.057233442930953,1.4176708203243722,0.16,-0.7588888888888888,-0.06,0.13569183863521245,0.002038530147700182,-0.028033564475079667
1592284878.4680307,-7.9801373504652195,6.009377290852701,1.3135989044185765,0.16,-0.7588888888888888,-0.06,0.16655347627651912,0.010311947160735116,0.03970743557681243
1592284878.4780307,-7.844586381794516,6.090709188024597,1.283427891736613,0.16,-0.7588888888888888,-0.06,0.21177589262987412,0.0006704895522916861,0.18540509885690876
1592284878.4880307,-7.957970329774166,6.354975274811805,1.204009890075278,0.16382178266332098,-0.7588888888888888,-0.04662376067837657,0.18969924901562774,-0.03610272296113865,0.4510553160932883
1592284878.4980307,-7.74490712514734,6.2137540137381615,1.440454822582612,0.16444444444444445,-0.7588888888888888,-0.044444444444444446,0.18435040224190105,-0.04145156973486533,0.48651052899341934
1592284878.5080307,-7.394865627482672,5.773709832068597,1.533091526723831,0.16444444444444445,-0.7588888888888888,-0.044444444444444446,0.20325225875249534,-0.03200064147956818,0.5810198115463908
1592284878.5180306,-7.866170920396211,6.220891475670595,1.4305588894512327,0.16444444444444445,-0.7588888888888888,-0.044444444444444446,0.23351689260027902,0.01369307711852015,0.770095300500493
1592284878.5280306,-7.779469964664311,6.278398115429917,1.4239693757361602,0.16444444444444445,-0.7588888888888888,-0.044444444444444446,0.2427888668829921,0.02593838850063422,0.8470333147132757
1592284878.5380306,-7.736003498971793,6.223062828028606,1.4069371719713943,0.15504847746982733,-0.7494929219142717,-0.029069225758707358,0.2805757658862237,0.022995969086393245,0.9854780435281152
1592284878.5480306,-7.682680248871538,6.225284453661909,1.263249156195356,0.15222222222222223,-0.7466666666666667,-0.024444444444444446,0.2896466018338695,0.010438058663676083,1.048049775221376
1592284878.5580306,-7.376085960039906,6.282443443794321,1.1880543047429017,0.15222222222222223,-0.7466666666666667,-0.024444444444444446,0.3060989650255441,-0.017268198063280577,1.1483560689693946
1592284878.5680306,-7.313867904268773,6.622641914624544,0.8389617981817747,0.15222222222222223,-0.7466666666666667,-0.024444444444444446,0.29944847171511846,-0.05877112753051392,1.2079099114482241
1592284878.5780306,-7.238798160486674,6.879878331402086,0.7762322566628042,0.15222222222222223,-0.7466666666666667,-0.024444444444444446,0.2811721411767344,-0.07662477947716541,1.2450290118919518
1592284878.5880306,-6.748044696398729,6.913162499590392,0.9089458334698692,0.13065959592649634,-0.7466666666666667,-0.024444444444444446,0.20674197654230222,-0.10397840339999607,1.3431666761885197
1592284878.5980306,-6.741302211302211,6.858130221130221,0.864958230958231,0.12555555555555556,-0.7466666666666667,-0.024444444444444446,0.19392840574526338,-0.10379737326758076,1.3971420966127646
1592284878.6080306,-6.882899171347534,7.045560313664423,1.090588398865469,0.12555555555555556,-0.7466666666666667,-0.024444444444444446,0.20697369031910648,-0.07844966704088549,1.5214630026474443
1592284878.6180305,-6.826078088103575,7.16818337268952,1.194261460793095,0.12555555555555556,-0.7466666666666667,-0.024444444444444446,0.20836719897625558,-0.07245968490591707,1.56412170546389
1592284878.6280305,-6.082563919821826,7.284808908685968,1.1193710467706013,0.12555555555555556,-0.7466666666666667,-0.024444444444444446,0.21142749467740687,-0.06361384998108308,1.6367412019857563
1592284878.6380305,-6.008348430217219,7.540788848825961,1.0991865271304195,0.08826165977779732,-0.7604491933671426,-0.0130941283381702,0.21678043398999902,-0.02836428641138485,1.6783448936386136
1592284878.6480305,-6.133857334338611,7.653144006031666,0.9827079668258357,0.07444444444444444,-0.7655555555555555,-0.008888888888888889,0.20571453832246342,-0.01534944300247453,1.6808765689465779
1592284878.6580305,-5.642524361696336,7.801375142903805,0.7874250095269204,0.07444444444444444,-0.7655555555555555,-0.008888888888888889,0.17871352274186686,-0.004709652550396261,1.6585072811147383
1592284878.6680305,-5.414701341080026,7.774332842532532,0.8625794898324645,0.07444444444444444,-0.7655555555555555,-0.008888888888888889,0.17072263578224928,8.039391178253944e-05,1.6552477002050352
1592284878.6780305,-5.455068611610495,7.754449400359557,0.7446792435655281,0.07444444444444444,-0.7655555555555555,-0.008888888888888889,0.15701208721015045,0.0005654357591357959,1.6621433946450308
1592284878.6880305,-5.2149118886476815,7.574934874217853,0.4399693525731069,0.03860195944891386,-0.7763916556704834,0.005281395876785994,0.1227105231311447,-0.0398249350186602,1.6512419628330735
1592284878.6980305,-5.237888954752025,7.580341039320293,0.4380383323453863,0.02666666666666667,-0.78,0.01,0.09887022085005212,-0.06065855432726548,1.6409304739940718
1592284878.7080305,-5.177227454191831,7.885435561469956,0.5386958747057018,0.02666666666666667,-0.78,0.01,0.04957931427491479,-0.10582850773044884,1.6076532645691957
1592284878.7180305,-4.997455770850884,8.029368155012637,0.5871440606571189,0.02666666666666667,-0.78,0.01,0.02623140173174291,-0.13074438606280817,1.5770113972094066
1592284878.7280304,-4.51523297734848,8.000861846132915,0.6444371131215564,0.02666666666666667,-0.78,0.01,-0.01954094125578016,-0.15028184474146858,1.4784949466558088
1592284878.7380304,-4.601324431937251,8.419347064634913,1.0351938448642337,-0.007568581664321564,-0.7621381313055713,0.015209711702541689,-0.04403467975685997,-0.11841655077074195,1.369393068133252
1592284878.7480304,-4.340138433223974,8.512030887412978,1.0796247099303833,-0.024444444444444446,-0.7533333333333333,0.017777777777777778,-0.05135179524350984,-0.09947290880967641,1.282238633826713
1592284878.7580304,-3.672132859661307,8.449589721673167,0.9397948608365831,-0.024444444444444446,-0.7533333333333333,0.017777777777777778,-0.02810478687952712,-0.07761095810706134,1.0555000793714682
1592284878.7680304,-4.035543548425658,8.503942668611185,1.0673715542592106,-0.024444444444444446,-0.7533333333333333,0.017777777777777778,-0.0040111183407918905,-0.05743999807085942,0.8640311881723342
1592284878.7780304,-4.13030667587023,8.612527955822898,1.1137546593038161,-0.024444444444444446,-0.7533333333333333,0.017777777777777778,0.01166054111834334,-0.04932562325760954,0.7027463850728254
1592284878.7880304,-4.131337197681391,9.030057965220868,1.3575967752681724,-0.053684307933758266,-0.7485917338485798,0.012245911712231921,0.04446191093088127,-0.04101397281692201,0.490994425663825
1592284878.7980304,-4.062567423121197,9.155924601216906,1.1769482815326426,-0.06555555555555556,-0.7466666666666667,0.01,0.06476635114498434,-0.029287936500278958,0.3547766571878581
1592284878.8080304,-3.764585453457049,8.943983837174498,0.9997505736805348,-0.06555555555555556,-0.7466666666666667,0.01,0.08562341437829085,-0.004376927225347696,0.10895661457916161
1592284878.8180304,-3.63360248447205,8.929906832298137,0.9917391304347827,-0.06555555555555556,-0.7466666666666667,0.01,0.09566789222888172,0.004183776448394792,0.005471092278670112
1592284878.8280303,-3.207588741484403,8.909361778415203,0.8610164933667982,-0.06555555555555556,-0.7466666666666667,0.01,0.11368107275628896,0.021697128807314323,-0.21186699007136123
1592284878.8380303,-3.4043714613477407,8.915017577619064,0.9753717203863376,-0.09524285896376337,-0.7386263553269438,0.014329398413696974,0.13081859709159502,0.06260112478157667,-0.4022027879654699
1592284878.8480303,-3.605821351112539,9.026701743111897,0.975660293999518,-0.11888888888888889,-0.7322222222222222,0.017777777777777778,0.14175998378986115,0.09276863444687689,-0.5276571235063007
1592284878.8580303,-3.343386048988285,8.933847177848776,1.0356916932907347,-0.11888888888888889,-0.7322222222222222,0.017777777777777778,0.1527427961755325,0.14038887618258222,-0.7841855870707498
1592284878.8680303,-3.6342490417829936,8.952471490086594,0.9062357450432972,-0.11888888888888889,-0.7322222222222222,0.017777777777777778,0.18815690253243292,0.19664920573876649,-0.9564315054422375
1592284878.8780303,-3.6206189005558986,8.751326215476926,1.0138064060707668,-0.11888888888888889,-0.7322222222222222,0.017777777777777778,0.2158301827565432,0.21975900237304224,-1.084160919670602
1592284878.8880303,-3.709897869624192,8.909135881273437,1.0647211362004307,-0.1224421748805376,-0.7399210085374611,0.04146635105543586,0.24855431903518663,0.23575783734957592,-1.2309939649337043
1592284878.8980303,-4.111746464348851,9.063668238067176,0.9382969946965233,-0.12555555555555556,-0.7466666666666667,0.06222222222222222,0.260741902241663,0.26200419979565676,-1.3303514621419832
1592284878.9080303,-4.0755382585751985,8.409633245382587,0.83,-0.12555555555555556,-0.7466666666666667,0.06222222222222222,0.265309330119082,0.30552313790668445,-1.4758212307261558
1592284878.9180303,-4.569112366783492,8.416708389957801,0.849746799227523,-0.12555555555555556,-0.7466666666666667,0.06222222222222222,0.2665631477495367,0.343915411573001,-1.5679517871576563
1592284878.9280303,-4.952247784859319,8.494654127156847,0.8431556039173014,-0.12555555555555556,-0.7466666666666667,0.06222222222222222,0.26428440647122864,0.3603650124059623,-1.6024943466138288
1592284878.9380302,-4.632925457102672,8.000928270042195,0.49028129395218,-0.09789185810282856,-0.7430129707766839,0.06117830911079856,0.28138831526879043,0.3549004909977886,-1.7066730320283932
1592284878.9480302,-5.0343606252181665,8.123676065624636,0.32351588255827485,-0.06666666666666667,-0.7388888888888889,0.06,0.3084909476400743,0.3564102897137901,-1.7282893523136902
1592284878.9580302,-5.332195864445721,7.687867892016083,0.23300689259046525,-0.06666666666666667,-0.7388888888888889,0.06,0.2859720976906062,0.3241954098012701,-1.7774284984908195
1592284878.9680302,-5.802843127825334,7.643877801288833,0.013877801288833317,-0.06666666666666667,-0.7388888888888889,0.06,0.28105621798871994,0.27331021254978305,-1.7856899909466986
1592284878.9780302,-6.108687507910391,7.607325654980382,0.15470067080116442,-0.06666666666666667,-0.7388888888888889,0.06,0.27547101395238466,0.21117550647512645,-1.7821257728121676
1592284878.9880302,-6.114964701392863,7.398936462507155,0.21070940660179355,-0.050827450232143995,-0.7457525493438487,0.06739163433611058,0.26763263714899843,0.13470605019613935,-1.775980826886335
1592284878.9980302,-6.052818072770892,7.211861655337865,0.12350979608156737,-0.03333333333333333,-0.7533333333333333,0.07555555555555556,0.25667313735819086,0.09649800518668447,-1.7713554887479543
1592284879.0080302,-6.577865483157393,7.310899112368046,0.2234824853694733,-0.03333333333333333,-0.7533333333333333,0.07555555555555556,0.21386407481412675,0.03419563448145163,-1.7244808315154465
1592284879.0180302,-6.640681353895453,7.366673342679752,0.006012016823552974,-0.03333333333333333,-0.7533333333333333,0.07555555555555556,0.19744255635203176,0.008583459699817796,-1.6961730044021286
1592284879.0280302,-6.666457086913956,7.231407592733602,-0.20300989883607093,-0.03333333333333333,-0.7533333333333333,0.07555555555555556,0.1449850923588635,-0.037591360117093686,-1.6046225230308422
1592284879.0380301,-7.00115872171273,7.159806879714545,-0.32606216157000223,-0.0004888346357562884,-0.738043652905151,0.09141152044404102,0.09229929340800125,-0.07447141938269726,-1.5061084805776441
1592284879.0480301,-7.067119393300349,7.125794062778814,-0.3401313975180469,0.03111111111111111,-0.7233333333333334,0.10666666666666667,0.05941024188248482,-0.09861206713507838,-1.4511514159692325
1592284879.0580301,-7.164146379566225,6.812146223344703,-0.13790246569635745,0.03111111111111111,-0.7233333333333334,0.10666666666666667,-0.015723930801625628,-0.17507037386496738,-1.3355599622549057
1592284879.06803,-7.51001043296818,6.883468961919666,-0.22769431403234222,0.03111111111111111,-0.7233333333333334,0.10666666666666667,-0.02513121622793739,-0.20881073193224672,-1.2525241115684762
1592284879.07803,-7.725223268258844,6.786833217718759,-0.11236785254186898,0.03111111111111111,-0.7233333333333334,0.10666666666666667,-0.04920402443682903,-0.25421675721365605,-1.1817062291748832
1592284879.08803,-7.745588457371721,6.586765372115163,0.1418830635895079,0.06238589234321482,-0.7159411123148361,0.11633341722931691,-0.05915500023503703,-0.3130237069691378,-1.0791712370839135
1592284879.09803,-7.763498464687819,6.648947389969294,0.22617645854657115,0.09222222222222222,-0.7088888888888889,0.12555555555555556,-0.047756772629589266,-0.3345034269291169,-1.0217994377464015
1592284879.10803,-7.6605613099980765,6.400498942220513,0.29931395444679504,0.09222222222222222,-0.7088888888888889,0.12555555555555556,-0.049486530316642734,-0.36548954155875524,-0.83672619182107
1592284879.11803,-7.4805023072486065,6.33665016343011,0.3792217842722554,0.09222222222222222,-0.7088888888888889,0.12555555555555556,-0.029932828725425485,-0.38838090398806774,-0.6779056091314716
1592284879.12803,-7.343250303333096,6.290238384126758,0.5184940403968311,0.09222222222222222,-0.7088888888888889,0.12555555555555556,-0.030671489609477645,-0.39864605973890627,-0.6092786247859466
1592284879.13803,-7.92910931174089,6.719802631578947,0.7481578947368421,0.11184154295996401,-0.7057073774179037,0.13669084570400358,-0.004413006718257424,-0.41979485462244553,-0.4531960269377027
1592284879.14803,-7.732364606856908,6.377056045986451,1.012934510367481,0.13333333333333333,-0.7022222222222222,0.14888888888888888,0.00032422599197256576,-0.4396078957720209,-0.3848001769165319
1592284879.15803,-7.740244401858609,6.2900514530228655,0.8101157693014465,0.13333333333333333,-0.7022222222222222,0.14888888888888888,0.07034244909042821,-0.5202898009990335,-0.22423237607068924
1592284879.16803,-7.55,6.25,0.72,0.13333333333333333,-0.7022222222222222,0.14888888888888888,0.08290313946973066,-0.5486878835957173,-0.17235126363444003
1592284879.17803,-7.54043838888766,6.3996582690053305,0.9959509853796642,0.13333333333333333,-0.7022222222222222,0.14888888888888888,0.060240442931305295,-0.5488742689398767,-0.0698188159270914
1592284879.18803,-7.668982458476184,6.400596478380987,1.0444912292380921,0.13333333333333333,-0.693239763746038,0.14888888888888888,0.06288926483604322,-0.48859266763544107,0.0383053963399541
1592284879.19803,-7.68,6.34,1.05,0.13333333333333333,-0.6822222222222222,0.14888888888888888,0.061086523819801536,-0.4483314516060434,0.09599310885968812
1592284879.20803,-7.7119115720815845,6.2491175920233095,1.0833810045710925,0.13333333333333333,-0.6822222222222222,0.14888888888888888,-0.0011388566131460762,-0.3932285905382909,0.19979833202630354
1592284879.21803,-7.75,6.26,1.35,0.13333333333333333,-0.6822222222222222,0.14888888888888888,-0.020725784867432664,-0.3665191429188092,0.23125612588924865
1592284879.22803,-7.428233147179104,6.216372191196517,1.2782331471791037,0.13333333333333333,-0.6822222222222222,0.14888888888888888,0.034459527175550494,-0.3314300891969554,0.3382886859431175
1592284879.23803,-7.397982385908727,6.174079263410729,1.2958767013610888,0.13599412863624233,-0.6773440975002224,0.14667155946979807,0.0863620948853249,-0.29000814956364346,0.4127165689163532
1592284879.24803,-7.41,6.12,1.38,0.14,-0.67,0.14333333333333334,0.10799224746714915,-0.2454369260617026,0.4494222823885398
1592284879.25803,-7.575553012145531,6.002635391700105,1.2704004524277597,0.14,-0.67,0.14333333333333334,0.23731851644707577,-0.189591548479165,0.5529022687980577
1592284879.26803,-7.597614104286767,6.115796671145595,0.9349239304754887,0.14,-0.67,0.14333333333333334,0.2716622786930582,-0.18966831460006128,0.6264015035376752
1592284879.27803,-7.690640116229382,6.298079651311854,1.0183215109819674,0.14,-0.67,0.14333333333333334,0.26700630786536383,-0.21060016687055455,0.6963198645223863
1592284879.28803,-7.5004109871244635,6.417344549356224,0.9797998283261803,0.1350737625178827,-0.6664172818311874,0.15139444921316167,0.26876737139052354,-0.21051367425106196,0.792387982331181
1592284879.29803,-7.188759004584153,6.670382285527177,0.5562049770792404,0.12777777777777777,-0.6611111111111111,0.16333333333333333,0.26457209462849596,-0.20698710547421784,0.837919397475285
1592284879.30803,-7.217047122724604,6.334241534546878,0.8751546290859268,0.12777777777777777,-0.6611111111111111,0.16333333333333333,0.21928188807255075,-0.1951181393648836,0.8872671382755648
1592284879.3180299,-7.341607305062867,6.442560118563848,0.9699005593536358,0.12777777777777777,-0.6611111111111111,0.16333333333333333,0.22874549933998517,-0.1989641032283103,0.9049783432417202
1592284879.3280299,-7.567195699708455,6.5609347667638485,0.9748159620991255,0.12777777777777777,-0.6611111111111111,0.16333333333333333,0.23300825295697938,-0.21565076591028012,0.916427651848949
1592284879.3380299,-7.588052378584452,6.536302005635671,1.0236979943643296,0.1193058548354421,-0.6611111111111111,0.16849015599388548,0.2598301787734294,-0.23557171500189997,0.9394893572947232
1592284879.3480299,-6.998581260565081,6.6314332286887225,0.864288819125815,0.10222222222222223,-0.6611111111111111,0.17888888888888888,0.306368689416709,-0.24980064432479002,0.9938996276535585
1592284879.3580298,-6.9077473541120495,6.5445052917759,0.7634474220798135,0.10222222222222223,-0.6611111111111111,0.17888888888888888,0.3032360233520231,-0.23527326197072593,1.0401461812242994
1592284879.3680298,-6.753473781880472,6.572421012561858,0.8203157118385992,0.10222222222222223,-0.6611111111111111,0.17888888888888888,0.33440277699575127,-0.2106796191589715,1.0855488486323333
1592284879.3780298,-6.641497230659281,6.716387350366268,1.005036626764338,0.10222222222222223,-0.6611111111111111,0.17888888888888888,0.36421411242665525,-0.20168032583468332,1.1295752520760818
1592284879.3880298,-6.729824477725842,6.94362587045693,1.0099561194314606,0.09516974572588424,-0.6525739027208072,0.18371426754427803,0.37379294367794946,-0.21636086953510814,1.1420974359600435
1592284879.3980298,-6.57,7.21,0.97,0.0811111111111111,-0.6355555555555555,0.19333333333333333,0.3752457891787809,-0.22798363354175932,1.1399181677087964
1592284879.4080298,-6.753221792035398,7.249951327433628,0.966741703539823,0.0811111111111111,-0.6355555555555555,0.19333333333333333,0.32070425005395803,-0.24289652114312982,1.111183223288552
1592284879.4180298,-7.12,7.41,0.72,0.0811111111111111,-0.6355555555555555,0.19333333333333333,0.32070425005395803,-0.22689280275926282,1.1431906600562858
1592284879.4280298,-6.294750503468338,7.251756545088387,0.6565070485567241,0.0811111111111111,-0.6355555555555555,0.19333333333333333,0.32538220305161847,-0.24864082958621556,1.2106164021021368
1592284879.4380298,-6.2258357399003526,7.205388277109581,0.6067912792358224,0.07350910969361668,-0.6393565562643028,0.19143283297895972,0.2977919225596705,-0.25511112143717335,1.2629899538452791
1592284879.4480298,-6.09,7.57,1.0,0.05444444444444444,-0.6488888888888888,0.18666666666666668,0.30325095753401476,-0.24107360293171679,1.3035427850832648
1592284879.4580297,-5.597092492633446,7.480458682103836,0.5491319199979139,0.05444444444444444,-0.6488888888888888,0.18666666666666668,0.2982725434018984,-0.21971887442998392,1.3196157922314737
1592284879.4680297,-5.732320428883196,7.397679571116804,0.4514465319290255,0.05444444444444444,-0.6488888888888888,0.18666666666666668,0.2422359292415886,-0.1878998459572873,1.2854969568842158
1592284879.4780297,-5.43359795436664,7.60178127458694,0.6832627852084973,0.05444444444444444,-0.6488888888888888,0.18666666666666668,0.21306791724101917,-0.1397783355423789,1.2463847969234156
1592284879.4880297,-5.265413677982349,7.734746636697187,0.8018579975539615,0.04455800526669531,-0.6474765404349246,0.1906212423377663,0.2104750657238433,-0.07306817480853017,1.2073654252303345
1592284879.4980297,-5.78,7.69,1.13,0.015555555555555555,-0.6433333333333333,0.20222222222222222,0.20071286397934787,-0.02181661564992912,1.174824752748683
1592284879.5080297,-5.562589549786395,8.095483075911929,0.533550772264213,0.015555555555555555,-0.6433333333333333,0.20222222222222222,0.2218949839063001,0.032444060537632435,1.179540095539665
1592284879.5180297,-5.875652985074627,8.033162313432836,0.5326492537313433,0.015555555555555555,-0.6433333333333333,0.20222222222222222,0.1598046745036739,0.07446955222595208,1.198697869342106
1592284879.5280297,-5.74,7.99,0.36,0.015555555555555555,-0.6433333333333333,0.20222222222222222,0.13962634015954636,0.09599310885968812,1.2195488148310378
1592284879.5380297,-4.9747598760650655,7.294620126516912,0.7754286083139685,0.007609590613076282,-0.6416973993745876,0.20666261439596065,0.06773628234671641,0.06383581592656408,1.3139484531237697
1592284879.5480297,-4.88,9.94,2.26,-0.022222222222222223,-0.6355555555555555,0.22333333333333333,0.1090830782496456,0.09053895494720585,1.4922565104551517
1592284879.5580297,-5.020684907055614,7.906560165234465,1.4275798760741516,-0.022222222222222223,-0.6355555555555555,0.22333333333333333,0.21218534858380542,0.19082034138390083,1.8388028274091006
1592284879.5680296,-4.435206674071798,8.696660600760994,0.8570087207241273,-0.022222222222222223,-0.6355555555555555,0.22333333333333333,0.19157329883763197,0.17956150223111145,1.9303089192037337
1592284879.5780296,-4.281806673103744,8.226499123842219,1.304024603940922,-0.022222222222222223,-0.6355555555555555,0.22333333333333333,0.15819845298694557,0.11425388454604009,1.9247630552421335
1592284879.5880296,-3.662538861963741,8.528632920481062,1.2120326691796806,-0.02278641376972018,-0.6354253575061329,0.22337673268314087,0.139583732947507,0.1145115816806152,1.8811335529253679
1592284879.5980296,-3.79,8.46,0.31,-0.051111111111111114,-0.6288888888888889,0.22555555555555556,0.13744467859455345,0.1679879405044542,1.7987799603366559
1592284879.6080296,-4.31421157237634,8.634569045152983,0.6591870783528819,-0.051111111111111114,-0.6288888888888889,0.22555555555555556,0.13599914382948333,0.2043507478433211,1.693622169005734
1592284879.6180296,-4.193414174999389,8.87694961249786,0.3496513703151358,-0.051111111111111114,-0.6288888888888889,0.22555555555555556,0.09015825892441688,0.18906465909965428,1.6107647954986348
1592284879.6280296,-4.3,9.25,-0.11,-0.051111111111111114,-0.6288888888888889,0.22555555555555556,0.06763150851478027,0.17235126363444003,1.5729779883598896
1592284879.6380296,-3.8169735410343053,8.599392932821717,0.2645919477693145,-0.051111111111111114,-0.6288888888888889,0.22555555555555556,-0.00011279393951076078,0.16159819975280654,1.5020077667411085
1592284879.6480296,-3.77,9.27,0.0,-0.09777777777777778,-0.6311111111111111,0.22555555555555556,-0.07308566242726255,0.11671889372712078,1.4104442017679175
1592284879.6580296,-3.254408967013406,9.687795516493297,0.03127802191689381,-0.09777777777777778,-0.6311111111111111,0.22555555555555556,-0.1672734727373905,0.11653418610616516,1.2834025245878464
1592284879.6680295,-3.1310401146131803,9.558636103151862,-0.027255014326647592,-0.09777777777777778,-0.6311111111111111,0.22555555555555556,-0.2599924844313523,0.10754122488286764,1.1580140814576259
1592284879.6780295,-3.0,9.2,0.29,-0.09777777777777778,-0.6311111111111111,0.22555555555555556,-0.2923426497090502,0.09926560120717749,1.0842857978014773
1592284879.6880295,-3.117835874636025,9.602605905006419,0.10342653182629385,-0.09777777777777778,-0.6311111111111111,0.22555555555555556,-0.29127149138125547,0.09605212622379325,1.0243009314449716
1592284879.6980295,-3.0,9.37,0.57,-0.11888888888888889,-0.6088888888888889,0.23222222222222222,-0.2825251726665821,0.06544984694978735,0.9675669040743565
1592284879.7080295,-3.041300083537019,9.404185204665696,0.1542297577426441,-0.11888888888888889,-0.6088888888888889,0.23222222222222222,-0.2242322637470114,0.0363830422733222,0.9463000744287857
1592284879.7180295,-2.86,8.96,0.68,-0.11888888888888889,-0.6088888888888889,0.23222222222222222,-0.2301652951067522,-0.002181661564992912,0.9304786574694769
1592284879.7280295,-2.7102119746362083,9.386937647345745,-0.07369827656288107,-0.11888888888888889,-0.6088888888888889,0.23222222222222222,-0.16020822244570138,-0.010416210213407088,0.9289561189431476
1592284879.7380295,-2.5823473701325095,9.625618242419316,0.5485761320217869,-0.11888888888888889,-0.6088888888888889,0.23222222222222222,-0.1592783648018056,-0.00018777613055330836,0.9261665460114602
1592284879.7480295,-2.75,9.65,0.34,-0.17222222222222222,-0.5955555555555555,0.22555555555555556,-0.1341721862470641,0.0032724923474893677,0.9195703496445125
1592284879.7580295,-2.292983751846381,9.242304283604135,0.7826440177252585,-0.17222222222222222,-0.5955555555555555,0.22555555555555556,-0.17856352077168536,-0.021383989261302385,0.8724761072356403
1592284879.7680295,-2.0257612935252816,9.54693189608302,0.7003519844928257,-0.17222222222222222,-0.5955555555555555,0.22555555555555556,-0.14784721720769176,-0.01031824374450061,0.8482882725008215
1592284879.7780294,-1.975677163815918,9.590605317845153,0.5025068826486208,-0.17222222222222222,-0.5955555555555555,0.22555555555555556,-0.12487027743823713,0.013495487733817275,0.8402415065950042
1592284879.7880294,-2.0352753947532016,9.478858634837747,0.7781487007335572,-0.17222222222222222,-0.5955555555555555,0.22555555555555556,-0.1102426708382748,0.019184001411580404,0.8248012551839329
1592284879.7980294,-1.6965281297516472,9.50183983781044,0.6571515458692347,-0.22555555555555556,-0.6077777777777778,0.2111111111111111,-0.10124656760032741,0.03481591284103742,0.8067033657306976
1592284879.8080294,-1.7388119691882282,9.393910231088288,0.6171047303969979,-0.22555555555555556,-0.6077777777777778,0.2111111111111111,-0.10100440227969135,0.0572038190520622,0.798728441968529
1592284879.8180294,-1.762515169026293,9.334646056053163,0.8201415775787345,-0.22555555555555556,-0.6077777777777778,0.2111111111111111,-0.07746222302990508,0.06353151653728673,0.8058385546579607
1592284879.8280294,-1.74,9.86,0.61,-0.22555555555555556,-0.6077777777777778,0.2111111111111111,-0.05781403147231216,0.07744898555724837,0.8246680715673207
1592284879.8380294,-1.4520599765358972,9.512778206999169,0.669281769536727,-0.22555555555555556,-0.6077777777777778,0.2111111111111111,-0.05411880981222516,0.07190615306711787,0.8329823203025165
1592284879.8480294,-1.36,9.7,0.43,-0.20555555555555555,-0.5955555555555555,0.19666666666666666,-0.07635815477475191,0.042542400517361786,0.8235772407848243
1592284879.8580294,-1.48583706754989,9.71332906565727,0.5949967992429513,-0.20555555555555555,-0.5955555555555555,0.19666666666666666,-0.09326638105187857,0.06790508908148336,0.8356673401488985
1592284879.8680294,-1.4989831548152692,9.659131316944274,0.520868683055726,-0.20555555555555555,-0.5955555555555555,0.19666666666666666,-0.09416428290145279,0.07942496789764562,0.8341165510219194
1592284879.8780293,-1.2915366379310345,9.734615840517241,0.5023128591954024,-0.20555555555555555,-0.5955555555555555,0.19666666666666666,-0.06788250930474696,0.061002066716652426,0.8238288880801038
1592284879.8880293,-1.2011422413793102,9.757214439655172,0.7584303160919541,-0.20555555555555555,-0.5955555555555555,0.19666666666666666,-0.03172734618601581,0.03388569437760408,0.8197203468166117
1592284879.8980293,-0.86,9.95,0.27,-0.24666666666666667,-0.5866666666666667,0.21777777777777776,-0.02617993877991494,-0.008726646259971648,0.8006697943523986
1592284879.9080293,-0.9413593854375417,9.974757849031397,0.6364061456245825,-0.24666666666666667,-0.5866666666666667,0.21777777777777776,-0.031189234848232838,-0.011924995633433617,0.763919836452111
1592284879.9180293,-0.9399872213545364,10.076023001561834,0.42398338776089733,-0.24666666666666667,-0.5866666666666667,0.21777777777777776,-0.03403963554321984,-0.017894085421687567,0.6686632394295225
1592284879.9280293,-0.8862725203018841,10.24043418245702,0.31562124661635266,-0.24666666666666667,-0.5866666666666667,0.21777777777777776,-0.0682210104198255,-0.051705883606657566,0.5504906494892395
1592284879.9380293,-1.0216137532940144,10.345699585895344,0.2930643744509976,-0.24666666666666667,-0.5866666666666667,0.21777777777777776,-0.060019100248223246,-0.0820529512415859,0.4586292555672943
1592284879.9480293,-0.9,10.05,0.33,-0.26666666666666666,-0.5666666666666667,0.21777777777777776,-0.08726646259971647,-0.11999138607461016,0.31197760379398637
1592284879.9580293,-0.9,9.895804635044401,0.3878232618583496,-0.26666666666666666,-0.5666666666666667,0.21777777777777776,-0.08621520603339246,-0.17360547095713497,0.20264692089628877
1592284879.9680293,-0.9537501179579126,9.886249882042087,0.2637501179579126,-0.26666666666666666,-0.5666666666666667,0.21777777777777776,-0.11049908921916726,-0.19546849709477235,0.1375285728181766
1592284879.9780293,-1.0625970005870737,9.739746490900357,0.4089550088061056,-0.26666666666666666,-0.5666666666666667,0.21777777777777776,-0.14145304654063143,-0.2064503067100843,0.12553018896813262
1592284879.9880292,-1.0775204141538133,9.508433580615893,0.6328062123071997,-0.26666666666666666,-0.5666666666666667,0.21777777777777776,-0.17075510055797608,-0.2080781985999368,0.13855332408695242
1592284879.9980292,-1.02,9.41,0.75,-0.26666666666666666,-0.5666666666666667,0.2111111111111111,-0.21489366415180183,-0.1974403716318585,0.1854412330243975
1592284880.0080292,-1.1298389851183215,9.340102464015613,0.8997804342522566,-0.26666666666666666,-0.5666666666666667,0.2111111111111111,-0.21598289820712216,-0.19635113757653821,0.2529737444542574
1592284880.0180292,-1.118004357089847,9.377193028656245,0.8260087141796941,-0.26666666666666666,-0.5666666666666667,0.2111111111111111,-0.2165514417703328,-0.16981796968127555,0.35570646656844435
1592284880.0280292,-1.1347822052592877,9.297991526313947,0.902794915788368,-0.26666666666666666,-0.5666666666666667,0.2111111111111111,-0.21406481762425625,-0.14141271450271584,0.44759763596147173
1592284880.0380292,-0.9805745999509786,9.22455933330999,0.8587355999859939,-0.26666666666666666,-0.5666666666666667,0.2111111111111111,-0.21566685955535503,-0.1189841274673335,0.5164854389987175
1592284880.0480292,-0.9886270477757214,9.288735348550277,0.8724648707930632,-0.2877777777777778,-0.5577777777777778,0.18222222222222223,-0.21940675313670166,-0.08662492938196203,0.6527897330613536
1592284880.0580292,-0.540831649913598,10.24583298853652,0.8170134105678195,-0.2877777777777778,-0.5577777777777778,0.18222222222222223,-0.21223809771501095,-0.06767804942459885,0.7659459746423416
1592284880.0680292,4.524500084875233,13.091487014089289,0.33335329922157286,-0.2877777777777778,-0.5577777777777778,0.18222222222222223,-0.19988182535231616,-0.08817746779695186,0.8230457792029648
1592284880.0780292,1.6445248389816824,8.37023053876101,2.579513626006925,-0.2877777777777778,-0.5577777777777778,0.18222222222222223,-0.14245247235548694,-0.1174803558078211,0.47393929084587477
1592284880.0880291,-2.486641310393082,9.107670033549221,1.6765264895315668,-0.2877777777777778,-0.5577777777777778,0.18222222222222223,-0.17446517270712053,0.2239884479429373,0.10374114062570161
1592284880.0980291,1.12,10.11,1.02,-0.30666666666666664,-0.5511111111111111,0.20444444444444446,0.00545415391248228,0.296705972839036,-0.08617563181722002
1592284880.1080291,-1.5443697985767701,9.94765488682507,0.4183681099987939,-0.30666666666666664,-0.5511111111111111,0.20444444444444446,0.07524886060788562,0.0883635647930559,-0.03304831776549509
1592284880.118029,-0.33677003942181344,9.360638633377135,1.3532299605781868,-0.30666666666666664,-0.5511111111111111,0.20444444444444446,-0.03272893704413282,0.10363293790640246,0.004114481837158774
1592284880.128029,-0.40372109761583447,9.50093207377418,1.249812145748988,-0.30666666666666664,-0.5511111111111111,0.20444444444444446,0.02852396385786891,0.043760126864569704,0.0422988552479202
1592284880.138029,-0.4414565901934323,9.916022492127755,0.8422688259109312,-0.30666666666666664,-0.5511111111111111,0.20444444444444446,0.030170485333721322,0.05610903793346278,0.039829073034141585
1592284880.148029,-0.55,9.64,1.0,-0.3022222222222222,-0.5455555555555556,0.2111111111111111,0.0643590161672909,0.062177354602297986,0.02617993877991494
1592284880.158029,-0.47443865929059553,9.841496908558412,0.7817116823950536,-0.3022222222222222,-0.5455555555555556,0.2111111111111111,0.06344318687381845,0.05851403742840816,0.018853304432135298
1592284880.168029,-0.2919400178630189,9.76402999106849,0.8174625111643868,-0.3022222222222222,-0.5455555555555556,0.2111111111111111,0.04848497464341425,0.03992113512129934,0.01551584106173548
1592284880.178029,-0.4408791509288852,9.691758301857769,0.9086812736066723,-0.3022222222222222,-0.5455555555555556,0.2111111111111111,0.05473334010396046,0.049195310549454425,0.01835232232330209
1592284880.188029,-0.45521594230144763,9.720431884602895,0.8871760865478286,-0.3022222222222222,-0.5455555555555556,0.2111111111111111,0.057861142774244596,0.06874407723873031,0.015224519653017951
1592284880.198029,-0.5559038102978439,9.773413491418463,0.9065865085815366,-0.31222222222222223,-0.5511111111111111,0.20444444444444446,0.0708295300319687,0.09403485978559806,0.01767670501084614
1592284880.208029,-0.5026044754814766,9.816093286777786,0.8521865735555701,-0.31222222222222223,-0.5511111111111111,0.20444444444444446,0.07002624823183208,0.09608957493257639,0.020867836968805262
1592284880.218029,-0.5394474822671674,9.760828776599249,0.7416575531984979,-0.31222222222222223,-0.5511111111111111,0.20444444444444446,0.07304045967594888,0.08202325486003136,0.022877311264883127
1592284880.228029,-0.4426256245875365,9.818424625247479,0.6328881870462901,-0.31222222222222223,-0.5511111111111111,0.20444444444444446,0.07521004174978818,0.06587946376829201,0.025031825754951196
1592284880.238029,-0.49148304932089204,9.812645278668445,0.615290557336888,-0.31222222222222223,-0.5511111111111111,0.20444444444444446,0.07286049706471207,0.05582253923961382,0.025891383639932947
1592284880.248029,-0.58,9.81,0.63,-0.32666666666666666,-0.5377777777777778,0.18222222222222223,0.04690572364734761,0.038179077387375956,0.01090830782496456
1592284880.258029,-0.5171460750084469,9.84928370311972,0.6142865187521117,-0.32666666666666666,-0.5377777777777778,0.18222222222222223,0.03233608695877685,0.02189536579426747,0.0066231205636202205
1592284880.268029,-0.5763926736065358,9.840901831598366,0.6290981684016339,-0.32666666666666666,-0.5377777777777778,0.18222222222222223,0.008570373862194582,-0.004421220960950323,0.009620727908842969
1592284880.278029,-0.4917224565424092,9.810574152180804,0.6986603115781261,-0.32666666666666666,-0.5377777777777778,0.18222222222222223,-0.01269331090394107,-0.0354128664745694,0.0055376609621699425
1592284880.288029,-0.44681594823817433,9.79560531607939,0.7359867098015214,-0.32666666666666666,-0.5377777777777778,0.18222222222222223,-0.023296376201146746,-0.052484688363534954,0.008594586777463595
1592284880.298029,-0.36,9.76,0.85,-0.3022222222222222,-0.5311111111111111,0.2111111111111111,-0.03490658503988659,-0.06654067773228381,0.01090830782496456
1592284880.308029,-0.33080239633944997,9.750267465446484,0.8986626727675834,-0.3022222222222222,-0.5311111111111111,0.2111111111111111,-0.037029894696423864,-0.05910909393440334,0.007723343340158643
1592284880.318029,-0.3969004227011295,9.75,0.8713283902709444,-0.3022222222222222,-0.5311111111111111,0.2111111111111111,-0.032918130008055685,-0.044309454165925265,0.005550757179063283
