time,acc_x,acc_y,acc_z,mag_x,mag_y,mag_z,gyr_x,gyr_y,gyr_z
1592247940.6246843,-0.6348653286577632,9.88,0.6594613146310527,-0.31222222222222223,-0.5624017840118714,0.04888888888888889,-0.015301011684076788,-0.030985844749206574,0.02222981776010852
1592247940.6346843,-0.6148637438116051,9.892568128094197,0.6548637438116052,-0.31222222222222223,-0.5555555555555556,0.04888888888888889,-0.012809830072103023,-0.036963040190412945,0.029327224712937756
1592247940.6446843,-0.6126700914672347,9.880994862799147,0.5956546798646786,-0.31222222222222223,-0.5555555555555556,0.04888888888888889,-0.01476332376536207,-0.041634308834752276,0.03399849335727708
1592247940.6546843,-0.5950400877132872,9.851280065784964,0.6074398684300693,-0.31222222222222223,-0.5555555555555556,0.04888888888888889,-0.01772381376998473,-0.047036611381202964,0.03667809183865199
1592247940.6646843,-0.5846021311179339,9.830795737764133,0.6438063933538017,-0.31222222222222223,-0.5555555555555556,0.04888888888888889,-0.018042108673587038,-0.050593429098898655,0.037590261233732214
1592247940.6746843,-0.59,9.82,0.677985155346686,-0.31222222222222223,-0.5615506073377843,0.05288559007704135,-0.018434230573950588,-0.05137893950582259,0.04014095349539055
1592247940.6846843,-0.6215306643161996,9.82,0.7,-0.31222222222222223,-0.5688888888888889,0.057777777777777775,-0.014131815008348501,-0.048114538841116584,0.04460607767108218
1592247940.6946843,-0.7109050030658824,9.849543751277452,0.6527299979560783,-0.31222222222222223,-0.5688888888888889,0.057777777777777775,-0.006396495159623802,-0.04239391098200685,0.05161579486314641
1592247940.7046843,-0.7713365234282465,9.87,0.6710143554271095,-0.31222222222222223,-0.5688888888888889,0.057777777777777775,0.0016739991413200696,-0.04112484247817595,0.06428873001273577
1592247940.7146842,-0.8184562449200758,9.87,0.7270916644089226,-0.31222222222222223,-0.5688888888888889,0.057777777777777775,0.009182976644752653,-0.04533901756656457,0.08115826337601316
1592247940.7246842,-0.8926646982838162,9.885109798855877,0.7575548994279387,-0.3101236390477948,-0.5705677554284309,0.057777777777777775,0.01500491185791997,-0.05032355274053958,0.10437956246005117
1592247940.7346842,-0.9239273695678489,9.91607263043215,0.77,-0.30666666666666664,-0.5733333333333334,0.057777777777777775,0.022986673943561985,-0.05368472000105291,0.1411888651341786
1592247940.7446842,-0.8620162762911697,9.914201627629117,0.6946211591785207,-0.30666666666666664,-0.5733333333333334,0.057777777777777775,0.035493325554108404,-0.05707155635303726,0.17766812616842692
1592247940.7546842,-0.7870056630486079,9.91,0.6180037753657386,-0.30666666666666664,-0.5733333333333334,0.057777777777777775,0.048649817413793095,-0.05830500828156464,0.21576262232115245
1592247940.7646842,-0.7030749808858306,9.91813214558774,0.5593392720613076,-0.30666666666666664,-0.5733333333333334,0.057777777777777775,0.056759237808534764,-0.05781403147231216,0.24896167824022533
1592247940.7746842,-0.6165461653165679,9.940361504050296,0.4965461653165679,-0.3085854637130178,-0.5606692728274157,0.050102589592373174,0.056981653685031795,-0.060451315905551285,0.2787752083032666
1592247940.7846842,-0.614749068847675,9.96,0.49356180163575625,-0.31222222222222223,-0.5366666666666666,0.035555555555555556,0.049196874582437884,-0.06791055143122582,0.2942853111417648
1592247940.7946842,-0.6648286182755121,9.964942872758504,0.46562839965645575,-0.31222222222222223,-0.5366666666666666,0.035555555555555556,0.023571262515405353,-0.10127277754225021,0.3167928680849061
1592247940.8046842,-0.7165683521685657,9.975224050309796,0.46224050309795095,-0.31222222222222223,-0.5366666666666666,0.035555555555555556,0.0039722815703820535,-0.13096528094520737,0.3353249719809662
1592247940.8146842,-0.75,9.96851958009387,0.5406144530830138,-0.31222222222222223,-0.5366666666666666,0.035555555555555556,-0.010207480997128707,-0.15609541887147102,0.35513852346020663
1592247940.8246841,-0.7243342225609756,9.944296493902439,0.6014070121951219,-0.3106379149728997,-0.5512422933604335,0.04411081470189702,-0.02274573409462408,-0.18060100399743,0.3816167148613239
1592247940.8346841,-0.58548887282076,9.79339626683806,0.61758147880346,-0.30666666666666664,-0.5877777777777777,0.06555555555555556,-0.031897912429327824,-0.1957863495407268,0.4274634593995145
1592247940.8446841,-0.4899822773593266,9.734251017037902,0.5842332943972288,-0.30666666666666664,-0.5877777777777777,0.06555555555555556,-0.032724923474893676,-0.1962830198115927,0.4406956361285682
1592247940.854684,-0.20474940274110398,9.833245819187727,0.455751791776688,-0.30666666666666664,-0.5877777777777777,0.06555555555555556,-0.032724923474893676,-0.1789222812330423,0.4326771177654748
1592247940.864684,-0.18724958525345622,9.829750967741935,0.5125013824884792,-0.30666666666666664,-0.5877777777777777,0.06555555555555556,-0.03318854163806457,-0.1542429900654822,0.4254240051736178
1592247940.874684,-0.2348151637336549,9.849745261333233,0.6753246410671891,-0.3170190886519032,-0.5693234603258344,0.05340271235549526,-0.032931974560224904,-0.12268305018391605,0.43028479350802656
1592247940.884684,-0.3455562916488056,9.815757375004871,0.8342426249951288,-0.3322222222222222,-0.5422222222222223,0.035555555555555556,-0.02978289831508708,-0.10149113235509921,0.44035420154515326
1592247940.894684,-0.45588010102352783,9.779413265984314,0.8017729629137312,-0.3322222222222222,-0.5422222222222223,0.035555555555555556,-0.004686120881945628,-0.06602865571192605,0.4673875969288409
1592247940.904684,-0.4467603068072867,9.77,0.7209503835091083,-0.3322222222222222,-0.5422222222222223,0.035555555555555556,0.01714228024386958,-0.05337768124799478,0.4806723357105318
1592247940.914684,-0.4299605588423187,9.770118323473044,0.6997239118962308,-0.3322222222222222,-0.5422222222222223,0.035555555555555556,0.024028393755149275,-0.050225541986622636,0.48429014616242
1592247940.924684,-0.4077940113992133,9.812205988600788,0.6690591635225175,-0.3352059083246367,-0.5454771525157653,0.0377255090845843,0.030302625882743326,-0.06617175503125969,0.47051698995699665
1592247940.934684,-0.4855494976429694,9.805981143755059,0.8505259273367936,-0.34444444444444444,-0.5555555555555556,0.044444444444444446,0.014775871971876367,-0.08034045846732987,0.4443440056703596
1592247940.944684,-0.6205648673617526,9.8764827768246,0.8137996568562755,-0.34444444444444444,-0.5555555555555556,0.044444444444444446,0.00490103633740621,-0.07849360323677779,0.4225505867246477
1592247940.954684,-0.6271745810726461,9.970621308877899,0.7018639266336967,-0.34444444444444444,-0.5555555555555556,0.044444444444444446,0.007432492622640062,-0.08294024772389107,0.41182250753488464
1592247940.964684,-0.6213116279069767,9.886939534883721,0.7013116279069768,-0.34444444444444444,-0.5555555555555556,0.044444444444444446,0.009010769626575375,-0.09580436976615851,0.4161768043169758
1592247940.974684,-0.6209957879678932,9.77284034014146,0.7447731065723595,-0.3455018675991417,-0.5530177399842822,0.044444444444444446,0.00545415391248228,-0.10570516984624623,0.4293688716408753
1592247940.984684,-0.3129685847260419,9.812968584726041,0.5488277448698964,-0.35,-0.5422222222222223,0.044444444444444446,0.006076270145984,-0.11080453476111757,0.44552767380754876
1592247940.994684,-0.2455740459236739,9.800532442595408,0.4451148091847348,-0.35,-0.5422222222222223,0.044444444444444446,0.005479201391046683,-0.104794897555353,0.4409290489558173
1592247941.004684,-0.004123758362051491,9.969325967970809,0.20730387188323535,-0.35,-0.5422222222222223,0.044444444444444446,-0.007156573025951688,-0.07739016516638196,0.39079079121722227
1592247941.014684,0.14420905214707508,10.036288691060246,0.13430860078853943,-0.35,-0.5422222222222223,0.044444444444444446,-0.029933285636613537,-0.05427667895766356,0.36344635630500005
1592247941.024684,0.07261167188769,9.996432300730945,0.35235874231349346,-0.36078624743783116,-0.5422222222222223,0.03689407123796264,-0.06766555347132877,-0.02300312668205631,0.34951450977048093
1592247941.034684,-0.3031945855712005,9.59241979968065,0.42,-0.38333333333333336,-0.5422222222222223,0.021111111111111112,-0.09339698226737855,-0.015750027311695544,0.3431353585996882
1592247941.044684,0.14047411799907517,10.173046541359518,0.3586655060794821,-0.38333333333333336,-0.5422222222222223,0.021111111111111112,-0.13922122869765738,-0.022315579565780938,0.3388432618945088
1592247941.054684,0.0,10.176590385722509,0.3821205142966801,-0.38333333333333336,-0.5422222222222223,0.021111111111111112,-0.1657350536134693,-0.03808655249659426,0.35755935277397755
1592247941.064684,0.0,10.25,0.48,-0.38333333333333336,-0.5422222222222223,0.021111111111111112,-0.18762289458939044,-0.03381575425739013,0.3719732968312915
1592247941.074684,0.23026095519448547,9.972565238798621,0.2975143607418349,-0.38753059065959117,-0.5383478308441381,0.027891296022758357,-0.18991600243078316,-0.07122097376566862,0.41311657662565804
1592247941.084684,0.06,9.93,0.56,-0.3977777777777778,-0.5288888888888889,0.044444444444444446,-0.20616701789183017,-0.07199483164476608,0.4363323129985824
1592247941.094684,0.4472575416231661,9.853444694763448,0.649631847903731,-0.3977777777777778,-0.5288888888888889,0.044444444444444446,-0.2280894259661291,-0.09618647223703487,0.5048503200722463
1592247941.1046839,0.43,9.98,0.92,-0.3977777777777778,-0.5288888888888889,0.044444444444444446,-0.23561944901923448,-0.09053895494720585,0.5355979142057599
1592247941.1146839,0.63450047517225,9.560911736754573,0.6581765264908529,-0.3977777777777778,-0.5288888888888889,0.044444444444444446,-0.18819070626482035,-0.09067367820730747,0.5902357335956568
1592247941.1246839,0.8827596784840601,9.615852910340543,0.710462470391799,-0.39923089866552763,-0.5288888888888889,0.028750738856745926,-0.12554478343536601,-0.056638019906854485,0.6238890452891237
1592247941.1346838,0.58,9.83,0.74,-0.4033333333333333,-0.5288888888888889,-0.015555555555555555,-0.07963064712224129,-0.016362461737446838,0.6544984694978736
1592247941.1446838,0.5783968677394372,9.67140119897886,0.7528250580845022,-0.4033333333333333,-0.5288888888888889,-0.015555555555555555,-0.057156116236573615,0.06411198897434109,0.680503533675965
1592247941.1546838,0.56,10.07,0.9,-0.4033333333333333,-0.5288888888888889,-0.015555555555555555,-0.0370882466048795,0.06544984694978735,0.6784967467127956
1592247941.1646838,0.1942385726691403,9.562220731033394,0.8415228546617194,-0.4033333333333333,-0.5288888888888889,-0.015555555555555555,-0.011276539641965809,0.02409240195205542,0.6627267627351636
1592247941.1746838,0.4176923076923077,9.586719457013574,0.8863122171945701,-0.4082528908999497,-0.5244871794871795,-0.01218954248366013,-0.03776693091525626,0.003928965171344701,0.6508656574801478
1592247941.1846838,1.1987536275020463,10.298304933402784,0.9402742019495498,-0.42444444444444446,-0.51,-0.0011111111111111111,-0.06857822365963089,-0.0012866105166568437,0.6424558242828213
1592247941.1946838,0.9063620076476723,9.454101131106773,0.750572773217103,-0.42444444444444446,-0.51,-0.0011111111111111111,-0.00914277033257358,-0.07565818776436158,0.6144528134161233
1592247941.2046838,1.2855121717232283,9.559243794219931,0.786670584002878,-0.42444444444444446,-0.51,-0.0011111111111111111,0.00529584675179428,-0.05848715739155551,0.5911438182122241
1592247941.2146838,1.3664912218915637,9.935964887566254,0.9550870767226047,-0.42444444444444446,-0.51,-0.0011111111111111111,0.028878327860446727,-0.04581489286485115,0.5790589030004385
1592247941.2246838,1.3840328978492669,9.847144728701918,0.4315921248953747,-0.42937426964429404,-0.5126703219832519,-0.0025489767944005723,0.04356003023857786,-0.03270698048156465,0.5706695589055184
1592247941.2346838,1.49,9.57,1.1,-0.45111111111111113,-0.5244444444444445,-0.008888888888888889,0.02399827721492203,0.025089107997418484,0.5617778529856748
1592247941.2446837,1.455442749829274,9.703314363760528,0.530414295470066,-0.45111111111111113,-0.5244444444444445,-0.008888888888888889,0.04484871426828987,0.0013339273761827823,0.5406453344916249
1592247941.2546837,1.3859601949439417,9.841754975632007,0.4998261829880201,-0.45111111111111113,-0.5244444444444445,-0.008888888888888889,-0.0050324400361578744,-0.00784621411638659,0.5015148798253015
1592247941.2646837,1.56,9.82,0.44,-0.45111111111111113,-0.5244444444444445,-0.008888888888888889,-0.030543261909900768,-0.011999138607461015,0.4777838827334477
1592247941.2746837,1.5848699219171674,9.898893526681299,0.7762365514015328,-0.4534851810538184,-0.5215955605131958,-0.006040004957640163,-0.0818963063078503,-0.036901332273396356,0.44888159676985434
1592247941.2846837,1.75,9.49,1.02,-0.4622222222222222,-0.5111111111111111,0.0044444444444444444,-0.074176493209759,-0.07635815477475191,0.4428772976935611
1592247941.2946837,1.8362116235898902,9.61,0.7288739111809225,-0.4622222222222222,-0.5111111111111111,0.0044444444444444444,-0.08269836920746165,-0.04074791144886654,0.4677579281928655
1592247941.3046837,1.87,9.61,1.06,-0.4622222222222222,-0.5111111111111111,0.0044444444444444444,-0.07090400086226964,-0.011999138607461015,0.48323803664593
1592247941.3146837,1.6560325015298838,9.421561841300061,0.9994431223227036,-0.4622222222222222,-0.5111111111111111,0.0044444444444444444,-0.06299204728706993,0.00532294566782081,0.482074740936902
1592247941.3246837,2.0940319738570468,9.136268541953674,0.4155153301508987,-0.4636152315452607,-0.5111111111111111,-0.003565359163026802,-0.039091079441008335,0.02407960112582035,0.46672910799375394
1592247941.3346837,1.84,9.15,1.26,-0.4666666666666667,-0.5111111111111111,-0.021111111111111112,-0.007635815477475192,0.03381575425739013,0.459239759431008
1592247941.3446836,2.3553900513443384,10.413952961961023,0.6309219897311323,-0.4666666666666667,-0.5111111111111111,-0.021111111111111112,0.016123855677696884,0.03681380747961939,0.43485629181776164
1592247941.3546836,3.01,10.6,0.5,-0.4666666666666667,-0.5111111111111111,-0.021111111111111112,0.001090830782496456,0.06763150851478027,0.42433317439112134
1592247941.3646836,1.3680593737648765,9.592102894031884,0.9426450309604322,-0.4666666666666667,-0.5111111111111111,-0.021111111111111112,0.024486063629342577,-0.015093091306873252,0.3820793019929891
1592247941.3746836,2.2827409916846317,9.966060363412382,0.7901927933477055,-0.4717630633405195,-0.5057315812887109,-0.028189439824795538,-0.04878382047718074,0.03101507057973077,0.3657273079467291
1592247941.3846836,2.32,10.13,0.82,-0.4866666666666667,-0.49,-0.04888888888888889,-0.08617563181722002,0.019634954084936207,0.36979163526629855
1592247941.3946836,2.0638160884714436,9.21338282078473,0.5492107256476292,-0.4866666666666667,-0.49,-0.04888888888888889,-0.10155732083930305,0.03540118533257132,0.37594431087513175
1592247941.4046836,2.3069672308246307,9.576949945984875,0.7543528988116672,-0.4866666666666667,-0.49,-0.04888888888888889,-0.11486994144292532,0.06094440549891308,0.38041570644948625
1592247941.4146836,1.96,9.79,0.59,-0.4866666666666667,-0.49,-0.04888888888888889,-0.0916297857297023,0.05563236990731925,0.36979163526629855
1592247941.4246836,1.9022328775999482,9.303831400246226,0.627710749692218,-0.489592143818801,-0.4918616672786309,-0.04436769692649949,-0.057355801966517794,0.06748081511568207,0.3561969984891173
1592247941.4346836,2.1,9.03,0.97,-0.4988888888888889,-0.49777777777777776,-0.03,-0.031634092692397225,0.039269908169872414,0.3337942194439155
1592247941.4446836,2.8282127808988764,9.96896798923221,0.5724467462546816,-0.4988888888888889,-0.49777777777777776,-0.03,-0.008473663910309109,0.05211037427604083,0.31127668373360423
1592247941.4546835,2.541393404115381,9.584150615427982,0.5834539133702904,-0.4988888888888889,-0.49777777777777776,-0.03,0.0008764158621748742,0.023717241979968984,0.28112937458226117
1592247941.4646835,2.020032434784328,9.824971619563712,0.9049067499950557,-0.4988888888888889,-0.49777777777777776,-0.03,-0.014618724624205121,0.024107094936712904,0.26398104936414235
1592247941.4746835,2.388848999322074,9.545233000265275,0.2815609986146727,-0.4988888888888889,-0.4979923888872514,-0.036867555503155465,-0.02899368223700258,0.012124693304476627,0.2652452131483318
1592247941.4846835,2.6448079641565037,9.459341351798164,1.1412293648321634,-0.4988888888888889,-0.4988888888888889,-0.06555555555555556,-0.03620336609590707,-0.01922305353788816,0.27661839859713416
1592247941.4946835,2.461815245478036,9.31547803617571,0.9729622451909274,-0.4988888888888889,-0.4988888888888889,-0.06555555555555556,-0.04510967373924495,0.0066874065434829755,0.2929922781186377
1592247941.5046835,2.6268885652205056,9.006769895656742,0.644228647835534,-0.4988888888888889,-0.4988888888888889,-0.06555555555555556,-0.0450375772832551,0.019020868524445317,0.2990508644251341
1592247941.5146835,2.82,9.29,1.23,-0.4988888888888889,-0.4988888888888889,-0.06555555555555556,-0.04363323129985824,0.011999138607461015,0.29343348049154666
1592247941.5246835,2.2652596565880554,9.581165982439842,1.3775916214677415,-0.500490778753342,-0.4988888888888889,-0.0685304938752543,-0.019821569797299397,0.04164096392604283,0.2561177908797267
1592247941.5346835,1.9,9.47,0.79,-0.5066666666666667,-0.4988888888888889,-0.08,0.042542400517361786,0.008726646259971648,0.22580197197676635
1592247941.5446835,2.7069331620287906,9.427333489064734,0.9519552077554239,-0.5066666666666667,-0.4988888888888889,-0.08,0.08758644642431307,-0.01166459848106862,0.18787984357535706
1592247941.5546834,2.640706829419774,9.55433843728352,0.2875348159472565,-0.5066666666666667,-0.4988888888888889,-0.08,0.10448313007282008,0.011144932871804257,0.1902876819107378
1592247941.5646834,3.03,9.33,0.05,-0.5066666666666667,-0.4988888888888889,-0.08,0.11671889372712078,-0.001090830782496456,0.20180369476184434
1592247941.5746834,2.7506674129926574,9.498438971387179,1.0604524052550128,-0.5094318776318052,-0.4947410724411811,-0.083283688021102,0.08421238064333576,0.0579102886418848,0.23188607159713467
1592247941.5846834,2.7,9.87,0.52,-0.5244444444444445,-0.4722222222222222,-0.10111111111111111,0.06763150851478027,0.10581058590215622,0.2530727415391778
1592247941.5946834,2.4011265876827834,8.98888301846515,0.9533317323086775,-0.5244444444444445,-0.4722222222222222,-0.10111111111111111,0.04375533705107429,0.14241224327149848,0.2587695351518119
1592247941.6046834,2.166973543948057,9.380073166004458,0.9721034014923927,-0.5244444444444445,-0.4722222222222222,-0.10111111111111111,0.024215618826397244,0.17624771457226618,0.2330473970986103
1592247941.6146834,2.65,9.87,0.91,-0.5244444444444445,-0.4722222222222222,-0.10111111111111111,0.039269908169872414,0.13635384781205698,0.1908953869368798
1592247941.6246834,2.6648435996150144,9.063951515880655,0.2625541385948027,-0.5259758982996471,-0.4722222222222222,-0.10292101112180516,-0.0017716157541278763,0.1514782979774778,0.14821630448256298
1592247941.6346834,2.21,9.65,0.42,-0.5366666666666666,-0.4722222222222222,-0.11555555555555555,0.001090830782496456,0.11999138607461016,0.14726215563702155
1592247941.6446834,2.789750600712569,9.187349959952495,0.6932502002375232,-0.5366666666666666,-0.4722222222222222,-0.11555555555555555,-0.048975581609892245,0.10607649228728379,0.12929618138631507
1592247941.6546834,2.5847432306255835,9.380168067226892,0.5715250544662309,-0.5366666666666666,-0.4722222222222222,-0.11555555555555555,-0.044280328552095474,0.09822094315621527,0.13673273581494091
1592247941.6646833,3.26,9.76,0.67,-0.5366666666666666,-0.4722222222222222,-0.11555555555555555,-0.04581489286485115,0.1112647398146385,0.1712604328519436
1592247941.6746833,2.9097264749215297,9.374007110370894,0.6136980334379604,-0.5384740460786197,-0.4739344764019673,-0.11488967893009915,-0.0523897145173679,0.11232185553387479,0.19214315871851062
1592247941.6846833,2.8,9.31,0.76,-0.5577777777777778,-0.4922222222222222,-0.10777777777777778,-0.0643590161672909,0.13526301702956053,0.18216874067690814
1592247941.6946833,2.545634221477598,9.944633302707668,1.0766551370048099,-0.5577777777777778,-0.4922222222222222,-0.10777777777777778,-0.06592012512910823,0.11242584408212311,0.13595384311772427
1592247941.7046833,2.9481409399178524,9.735092415703505,0.7068822237080905,-0.5577777777777778,-0.4922222222222222,-0.10777777777777778,-0.07760139865564332,0.08940907661138618,0.10005160579288405
1592247941.7146833,2.266088103978569,9.314584184938981,0.7261025895426134,-0.5577777777777778,-0.4922222222222222,-0.10777777777777778,-0.09397707954288775,0.06612817724171857,0.06277128864021683
1592247941.7246833,2.7555714140075445,9.560181805824582,1.0013117205287663,-0.5541847056558037,-0.4923419912929547,-0.1106522354753571,-0.11343364962820658,0.018981871652951208,0.017335709509711916
1592247941.7346833,3.05,9.81,0.35,-0.5244444444444445,-0.49333333333333335,-0.13444444444444445,-0.14944381720201447,0.031634092692397225,0.016362461737446838
1592247941.7446833,3.1117651797402073,9.827526432383445,0.6410117309435102,-0.5244444444444445,-0.49333333333333335,-0.13444444444444445,-0.17141327657703107,0.0032300113480803957,0.021022080913730538
1592247941.7546833,2.387721709254885,9.00904015460597,1.2588791067210652,-0.5244444444444445,-0.49333333333333335,-0.13444444444444445,-0.21280593068296116,0.032004886149277594,0.03642395712685503
1592247941.7646832,3.2664000237543798,9.550811805926719,0.6619235108973217,-0.5244444444444445,-0.49333333333333335,-0.13444444444444445,-0.18540722351309571,0.008645152992890434,0.07299069491570367
1592247941.7746832,2.7148562646899297,8.616214066172482,1.0692731874887,-0.5268982904437615,-0.49326322344763857,-0.13444444444444445,-0.20850290648121508,0.04757312038717187,0.09811639293207229
1592247941.7846832,2.49,8.56,0.91,-0.5633333333333334,-0.4922222222222222,-0.13444444444444445,-0.12980886311707826,0.025089107997418484,0.11344640137963141
1592247941.7946832,3.374530023930102,8.96556347042128,1.1439813011297233,-0.5633333333333334,-0.4922222222222222,-0.13444444444444445,-0.04091474427937999,0.019422907119425598,0.13137156365706512
1592247941.8046832,3.305649751291372,9.806773005548115,0.9353206906447293,-0.5633333333333334,-0.4922222222222222,-0.13444444444444445,0.019969564914453185,0.06342660836504366,0.15771295939025703
1592247941.8146832,3.6631587875814993,9.520657305782084,0.7453743331902631,-0.5633333333333334,-0.4922222222222222,-0.13444444444444445,0.06682019099735541,0.08239855749516732,0.14647473843228367
1592247941.8246832,2.6492186362533365,9.095709779179812,1.0171451104100946,-0.5621247539701798,-0.492332093073418,-0.13675173231955567,0.07274988983624173,0.11247561227630558,0.13245851517550813
1592247941.8346832,3.28,9.33,0.9,-0.5511111111111111,-0.49333333333333335,-0.15777777777777777,0.07963064712224129,0.10362892433716332,0.10690141668465267
1592247941.8446832,2.809141156462585,8.939631164965986,0.8675850340136054,-0.5511111111111111,-0.49333333333333335,-0.15777777777777777,0.0421004099834676,0.12368952040791419,0.08847486379180598
1592247941.8546832,2.06,9.51,1.14,-0.5511111111111111,-0.49333333333333335,-0.15777777777777777,0.04581489286485115,0.09490227807719166,0.08290313946973066
1592247941.8646832,3.1346992098172843,9.696590667240248,1.209988226503951,-0.5511111111111111,-0.49333333333333335,-0.15777777777777777,0.057547220392924626,0.046473338053823816,0.07788137115077216
1592247941.8746831,2.385535755920461,9.144428604736369,0.7110148885854178,-0.5511521167105219,-0.49322056793495356,-0.15797255437497917,0.09006204574922268,0.03875662946806622,0.08538672968284486
1592247941.8846831,2.98,9.62,0.82,-0.5555555555555556,-0.4811111111111111,-0.17888888888888888,0.15598880189699318,-0.016362461737446838,0.11780972450961724
1592247941.8946831,2.87,9.457166794380589,1.0220030651340997,-0.5555555555555556,-0.4811111111111111,-0.17888888888888888,0.14649865767783973,0.00295429854069219,0.17031499044806953
1592247941.904683,2.9833475617026353,9.39625181829021,0.6000572314295934,-0.5555555555555556,-0.4811111111111111,-0.17888888888888888,0.12593556193250005,0.0028636291487465684,0.17476857170136773
1592247941.914683,3.44,9.22,0.56,-0.5555555555555556,-0.4811111111111111,-0.17888888888888888,0.08835729338221293,-0.016362461737446838,0.16253378659197193
1592247941.924683,3.2445436713149545,9.38613787938229,1.1463689860551374,-0.5555555555555556,-0.4811111111111111,-0.17888888888888888,0.06383816868642274,-0.02489085293598256,0.160401688792338
1592247941.934683,3.03,8.87,0.88,-0.5488888888888889,-0.49333333333333335,-0.17888888888888888,0.0643590161672909,-0.002181661564992912,0.1810779098944117
1592247941.944683,3.2713740704817327,9.703516542730899,1.4957010453712685,-0.5488888888888889,-0.49333333333333335,-0.17888888888888888,0.10878788737833958,-0.019636482353087136,0.18912576997719457
1592247941.954683,2.83273381294964,9.58678537170264,0.87060551558753,-0.5488888888888889,-0.49333333333333335,-0.17888888888888888,0.11883450378789778,0.01950285107650438,0.21067604671626455
1592247941.964683,3.2932485292398797,9.403147231854133,0.7969540655316164,-0.5488888888888889,-0.49333333333333335,-0.17888888888888888,0.11914416155873113,0.027674980867679787,0.23377004736219956
1592247941.974683,3.154348190283243,9.419488448201971,0.6253712938793002,-0.5488888888888889,-0.49333333333333335,-0.17888888888888888,0.09775355937994178,0.02410988050454823,0.2524868242686402
1592247941.984683,3.31,9.0,0.84,-0.5344444444444445,-0.4888888888888889,-0.16111111111111112,0.0818123086872342,0.032724923474893676,0.2617993877991494
1592247941.994683,3.362851741141003,9.128947139827803,0.92786592064587,-0.5344444444444445,-0.4888888888888889,-0.16111111111111112,0.0669290080284772,0.033973354933791285,0.28848559959188547
1592247942.004683,3.2685623683706684,9.499431361286616,1.0394313612866168,-0.5344444444444445,-0.4888888888888889,-0.16111111111111112,0.03180642119123073,0.08273081097089716,0.28032800388627227
1592247942.014683,3.5138734122401845,8.83673426674365,0.5019745958429561,-0.5344444444444445,-0.4888888888888889,-0.16111111111111112,0.026886900415799626,0.09497407640814119,0.2610233832507179
1592247942.024683,3.5365763928983833,8.465918915993072,0.8652222863741339,-0.5344444444444445,-0.4888888888888889,-0.16111111111111112,0.05660503260346127,0.10818213515821304,0.2436878061412486
1592247942.034683,2.95,8.78,0.79,-0.5555555555555556,-0.4888888888888889,-0.17777777777777778,0.09817477042468103,0.10690141668465267,0.25416357232167425
1592247942.044683,4.055418451983175,9.616532882581861,1.0389681198160305,-0.5555555555555556,-0.4888888888888889,-0.17777777777777778,0.09165680028974683,0.14275025242679082,0.24112763205180585
1592247942.054683,2.944145085099817,9.22,0.36848268331473877,-0.5555555555555556,-0.4888888888888889,-0.17777777777777778,0.06776703699569717,0.15683076675857022,0.2477163369609449
1592247942.064683,3.6881178020256677,9.150382527278877,0.4428779437156233,-0.5555555555555556,-0.4888888888888889,-0.17777777777777778,0.07469442375840371,0.09149136153830663,0.24132064613372647
1592247942.074683,3.2700242083340747,8.680027234375835,1.0028247209811496,-0.5555555555555556,-0.4888888888888889,-0.17777777777777778,0.03397394501167551,0.1126660104866053,0.2356197791091845
1592247942.084683,3.85,9.31,0.77,-0.5488888888888889,-0.49333333333333335,-0.1988888888888889,0.032724923474893676,0.05781403147231216,0.21707532571679475
1592247942.094683,3.4224247773409293,9.65391920083447,1.3648872663082723,-0.5488888888888889,-0.49333333333333335,-0.1988888888888889,-0.0027629624269001757,0.05781403147231216,0.20997774853643594
1592247942.104683,4.26195868894786,9.161278777881375,0.8592476511511152,-0.5488888888888889,-0.49333333333333335,-0.1988888888888889,0.039630728048583856,0.02190682061960698,0.18366967939613602
1592247942.114683,2.23,8.85,1.11,-0.5488888888888889,-0.49333333333333335,-0.1988888888888889,0.06981317007977318,0.02945243112740431,0.17235126363444003
1592247942.124683,4.484049901221921,9.482867856881539,0.6851982878466378,-0.5488888888888889,-0.49333333333333335,-0.1988888888888889,0.11047772460056034,-0.028234495053247245,0.17991676214993532
1592247942.134683,4.08,8.94,0.37,-0.5422222222222223,-0.4666666666666667,-0.21333333333333335,0.07853981633974483,0.05126904677733343,0.19634954084936207
1592247942.144683,4.440083083682844,8.7356285200719,0.47705172758138603,-0.5422222222222223,-0.4666666666666667,-0.21333333333333335,0.07960141015579211,0.09054801797108278,0.21227344809007126
1592247942.1546829,3.473335251798561,9.291458992805754,1.04791654676259,-0.5422222222222223,-0.4666666666666667,-0.21333333333333335,0.03911075674347653,0.13853550937704992,0.20871218508160896
1592247942.1646829,3.76,9.39,1.03,-0.5422222222222223,-0.4666666666666667,-0.21333333333333335,0.028361600344907853,0.13853550937704992,0.19307704850187268
1592247942.1746829,3.7263827931986633,9.087445138787967,0.8535096642929807,-0.5422222222222223,-0.4666666666666667,-0.21333333333333335,0.019193929344795947,0.15595408427726254,0.1719914052016153
1592247942.1846828,3.07,9.02,1.23,-0.5688888888888889,-0.46,-0.21444444444444444,0.020725784867432664,0.1112647398146385,0.11017390903214205
1592247942.1946828,3.6868088852068555,9.444860197794233,1.0659527261430126,-0.5688888888888889,-0.46,-0.21444444444444444,0.06613660775775992,0.07201118309257495,0.14324221291102202
1592247942.2046828,2.9092575710569646,8.488120420972244,0.780474906331289,-0.5688888888888889,-0.46,-0.21444444444444444,0.12171118286278393,0.06750746468310723,0.1691531975859545
1592247942.2146828,3.78,8.86,0.59,-0.5688888888888889,-0.46,-0.21444444444444444,0.22362031041177347,0.01308996938995747,0.20180369476184434
1592247942.2246828,4.022025974025974,8.690581818181819,0.4044467532467533,-0.5688888888888889,-0.46,-0.21444444444444444,0.19809940342408885,0.04565112658114129,0.23788497705477776
1592247942.2346828,3.72,9.39,1.17,-0.5688888888888889,-0.46,-0.1988888888888889,0.1854412330243975,0.03599741582238304,0.24434609527920614
1592247942.2446828,3.444662534258856,8.770171102174636,0.65833175379729,-0.5688888888888889,-0.46,-0.1988888888888889,0.1843270718020203,0.030487268854186955,0.22348032777248894
1592247942.2546828,4.459824695121951,8.817309927591463,0.297777724847561,-0.5688888888888889,-0.46,-0.1988888888888889,0.1803315492556447,0.0195265049689363,0.19025747541411273
1592247942.2646828,3.577756911738625,8.909403314481644,0.6374696041145289,-0.5688888888888889,-0.46,-0.1988888888888889,0.1997678799830504,0.04568471627867269,0.18138768115983736
1592247942.2746828,3.685203460303072,8.901138195361302,0.4639021025873451,-0.5688888888888889,-0.46,-0.1988888888888889,0.21689798806224186,0.04388154700717885,0.17056866553087435
1592247942.2846828,3.48,8.84,0.14,-0.5611111111111111,-0.4533333333333333,-0.22,0.21925698728178766,0.04581489286485115,0.17453292519943295
1592247942.2946827,4.139542371496282,8.813965432704094,0.4003456729590586,-0.5611111111111111,-0.4533333333333333,-0.22,0.1889643927054147,0.07326755669968912,0.1773728559409679
1592247942.3046827,3.5388029182589706,8.973292471090376,0.3727619236686684,-0.5611111111111111,-0.4533333333333333,-0.22,0.17701586590009477,0.059636540155718815,0.173614253923033
1592247942.3146827,3.3560506926726914,8.835672524380648,0.793360595150099,-0.5611111111111111,-0.4533333333333333,-0.22,0.14942553221572258,0.05050823008597684,0.18918577973349607
1592247942.3246827,3.8741547009163724,9.011998160040408,0.5406427231401978,-0.5611111111111111,-0.4533333333333333,-0.22,0.1459706360755605,0.02238412864866604,0.188216322591745
1592247942.3346827,3.953055938474933,8.846111876949866,0.6154160922876006,-0.5686908188025507,-0.4457536256418938,-0.19942650769466413,0.16102626683974147,0.011999138607461015,0.2014425643214082
1592247942.3446827,3.673075373510156,8.681757356291518,0.4123065301326171,-0.5688888888888889,-0.44555555555555554,-0.1988888888888889,0.20136039352104276,-0.003104756742861743,0.19425174708668297
1592247942.3546827,3.6286098590198526,9.05238946964611,0.3710698187398101,-0.5688888888888889,-0.44555555555555554,-0.1988888888888889,0.24110085539348336,-0.018034695806960085,0.17410316276973167
1592247942.3646827,3.83,9.81,0.63,-0.5688888888888889,-0.44555555555555554,-0.1988888888888889,0.26725354171163174,-0.031634092692397225,0.13853550937704992
1592247942.3746827,3.513678518075889,9.356406931580521,0.4449817747236331,-0.5688888888888889,-0.44555555555555554,-0.1988888888888889,0.28352963650633534,-0.04530601231994826,0.12616567733307515
1592247942.3846827,4.82,9.16,0.15,-0.5511111111111111,-0.43333333333333335,-0.1988888888888889,0.284706834231575,-0.07526732399225547,0.10253809355466686
1592247942.3946826,3.9159109903038662,8.864269950099397,0.5048760598807254,-0.5511111111111111,-0.43333333333333335,-0.1988888888888889,0.21558009671569095,-0.04024311031754087,0.0905561257185803
1592247942.4046826,4.33584057936489,9.122952092812731,0.20150201300712295,-0.5511111111111111,-0.43333333333333335,-0.1988888888888889,0.2441570442764508,-0.11735600210300438,0.07559501239703142
1592247942.4146826,3.98,8.52,0.33,-0.5511111111111111,-0.43333333333333335,-0.1988888888888889,0.22798363354175932,-0.07853981633974483,0.10362892433716332
1592247942.4246826,4.185516418622685,8.759769155059798,0.4270494199051567,-0.5511111111111111,-0.43333333333333335,-0.1988888888888889,0.23607915372133342,-0.08414440723329614,0.11172444451673744
1592247942.4346826,3.84,9.47,0.57,-0.5511111111111111,-0.44555555555555554,-0.1988888888888889,0.2683443724941282,-0.0818123086872342,0.13744467859455345
1592247942.4446826,3.798495979532164,9.196073464912281,0.5866016081871345,-0.5511111111111111,-0.44555555555555554,-0.1988888888888889,0.25476221355702455,-0.05555346807550052,0.14559397395681561
1592247942.4546826,4.32975395995819,9.249949880732224,-0.039712953284554264,-0.5511111111111111,-0.44555555555555554,-0.1988888888888889,0.25961424712978737,-0.05126854976242355,0.15271382447495443
1592247942.4646826,4.288715522122462,8.812384534498099,-0.172110329208121,-0.5511111111111111,-0.44555555555555554,-0.1988888888888889,0.2389019117524249,-0.015241543330843668,0.17523349920355993
1592247942.4746826,4.294654880352032,8.837239042816256,0.30559337214509624,-0.5511111111111111,-0.44555555555555554,-0.1988888888888889,0.22733492066592856,0.0131459775048632,0.19277587479335423
1592247942.4846826,4.32999787377299,9.039988660122612,0.010034019632162772,-0.5699986612644751,-0.42666800540219163,-0.18666753290730045,0.231255662018474,0.01199975710182722,0.22143694798727348
1592247942.4946826,4.182475889328063,8.946826877470356,0.1497596837944664,-0.57,-0.4266666666666667,-0.18666666666666668,0.2253273527967774,0.03402029580806852,0.23668406537027809
1592247942.5046825,4.388425633878579,8.96436172033546,0.3142128169392895,-0.57,-0.4266666666666667,-0.18666666666666668,0.21587772959474638,0.06455630400557855,0.25462311936151416
1592247942.5146825,3.933689009947892,9.023052108005684,0.28578990999526294,-0.57,-0.4266666666666667,-0.18666666666666668,0.20524851873698063,0.07245408122219088,0.26116780659407773
1592247942.5246825,4.322670489251443,8.876676124608382,0.36761364308092453,-0.57,-0.4266666666666667,-0.18666666666666668,0.21513538319142578,0.0691035099756238,0.26339224877980494
1592247942.5346825,3.77,8.91,0.58,-0.57,-0.4266666666666667,-0.19111111111111112,0.19853120241435498,0.13526301702956053,0.28797932657906433
1592247942.5446825,4.440147421986081,8.941169647534236,0.23713387712340045,-0.57,-0.4266666666666667,-0.19111111111111112,0.19598114158861177,0.13611303730480825,0.2820291846523302
1592247942.5546825,4.394829027814698,8.793219351876465,0.2183903240617675,-0.57,-0.4266666666666667,-0.19111111111111112,0.19145823990969013,0.15915666875510995,0.2546903375406546
1592247942.5646825,4.437562095350207,8.942360211889348,0.22138198940553266,-0.57,-0.4266666666666667,-0.19111111111111112,0.20217633642527047,0.16817426133616725,0.20200696552449202
1592247942.5746825,4.188490522667799,8.918973760520547,0.2837827993493175,-0.57,-0.4266666666666667,-0.19111111111111112,0.21511755487468215,0.160729622376067,0.157292471594633
1592247942.5846825,4.328699551569507,8.898019431988041,0.20772795216741405,-0.5798015279853844,-0.4222114266733101,-0.20269473509383823,0.22143864884678055,0.15861315487820105,0.10573639636463217
1592247942.5946825,4.3122575547148125,9.084259135098893,0.3028394233992625,-0.5822222222222222,-0.4211111111111111,-0.20555555555555555,0.2061247032070056,0.17266099667928567,0.07233248715756077
1592247942.6046824,4.308503995196526,8.888896124890305,0.06488014410419846,-0.5822222222222222,-0.4211111111111111,-0.20555555555555555,0.1780113810700319,0.18844755480129297,0.051097141801587365
1592247942.6146824,4.352311913908707,9.02771003841657,-0.0815485933808967,-0.5822222222222222,-0.4211111111111111,-0.20555555555555555,0.1346717783642522,0.19181848970003892,0.03322691021929766
1592247942.6246824,4.2001435596303835,8.8937493020156,0.03427940991047787,-0.5822222222222222,-0.4211111111111111,-0.20555555555555555,0.09623946288369772,0.1940787336306021,0.017290661138803766
1592247942.6346824,4.295197767086562,9.154291380513424,0.11,-0.5625393677492543,-0.4094803334679937,-0.19392477791243815,0.053946147186468014,0.1706650409135888,-0.012141156130100483
1592247942.6446824,4.093907031684269,9.180598249027238,0.3306350750416898,-0.5577777777777778,-0.4066666666666667,-0.19111111111111112,0.023003326153093865,0.15638437206471478,-0.03133841934036007
1592247942.6546824,4.182041116005873,8.790381791483114,0.08941262848751835,-0.5577777777777778,-0.4066666666666667,-0.19111111111111112,0.027546280420839283,0.12519085262377827,-0.05091985278234924
1592247942.6646824,4.193782104098496,8.63701946844323,0.17596106311353846,-0.5577777777777778,-0.4066666666666667,-0.19111111111111112,0.04360521518875149,0.1215542023036163,-0.06515612717083318
1592247942.6746824,4.209580029255524,8.789693586881208,0.2556867349295558,-0.5577777777777778,-0.4066666666666667,-0.19111111111111112,0.0668403223725138,0.11576549804937107,-0.06976735837819094
1592247942.6846824,4.56630620397932,8.861280745730847,0.0740882030393232,-0.5629775706303202,-0.3931472052500566,-0.2046305725277212,0.08663777800922473,0.12664924774465375,-0.07294595474048661
1592247942.6946824,4.5779450624472915,8.920274687763543,0.12027468776354364,-0.5633333333333334,-0.39222222222222225,-0.20555555555555555,0.09449890592967843,0.13091467579297714,-0.07768812636451106
1592247942.7046824,4.421914170788716,8.794492308528564,-0.040351415991737805,-0.5633333333333334,-0.39222222222222225,-0.20555555555555555,0.09546474047882027,0.14543415283172859,-0.09212406008980942
1592247942.7146823,4.274102545507288,8.68007324679092,-0.16891942852998765,-0.5633333333333334,-0.39222222222222225,-0.20555555555555555,0.07822615008021923,0.1560906939883599,-0.11637326752589319
1592247942.7246823,4.133320561941251,8.719766922094507,-0.0940389527458493,-0.5633333333333334,-0.39222222222222225,-0.20555555555555555,0.07586463395138107,0.14424809127184776,-0.12975801340627222
1592247942.7346823,4.235888045158255,8.927329480545662,-0.07529601505275184,-0.5745338201584421,-0.3870527667644797,-0.20038610009781302,0.07442147382094798,0.10841762822320229,-0.14543638302095818
1592247942.7446823,4.406772334293948,9.099029779058599,0.03709414024975985,-0.5777777777777777,-0.38555555555555554,-0.1988888888888889,0.0688983811526652,0.1016584082118179,-0.148810380883072
1592247942.7546823,4.1205436791960945,9.010978338152345,-0.08869554913020808,-0.5777777777777777,-0.38555555555555554,-0.1988888888888889,0.08494250751842124,0.0477831658608834,-0.17973806545838616
1592247942.7646823,4.205573377624867,8.782888836160874,0.10653339660695221,-0.5777777777777777,-0.38555555555555554,-0.1988888888888889,0.07654722865934407,0.04757670946311313,-0.21428474530047872
1592247942.7746823,4.414600049838026,8.947507208714535,0.0347928162044783,-0.5777777777777777,-0.38555555555555554,-0.1988888888888889,0.08142194962415188,0.03652023096745233,-0.24195874040835427
1592247942.7846823,4.576837294332724,8.998519195612431,-0.09903107861060328,-0.5717062766605727,-0.38555555555555554,-0.20322567540117814,0.07279051991207156,0.044061985629358674,-0.2716727026147618
1592247942.7946823,4.538240470588235,8.806094823529412,-0.11,-0.57,-0.38555555555555554,-0.20444444444444446,0.05648914690380194,0.06320260720481141,-0.2919774395630704
1592247942.8046823,4.280059914544196,8.883423483636884,-0.25651660181891967,-0.57,-0.38555555555555554,-0.20444444444444446,0.011294823284238836,0.09647466483542368,-0.3114469392116629
1592247942.8146822,3.9470016207455427,9.029263990847555,-0.13350081037277145,-0.57,-0.38555555555555554,-0.20444444444444446,-0.0247777391955504,0.11178763972639293,-0.32543967658176753
1592247942.8246822,3.925957339844872,8.98510665038782,-0.08404266015512785,-0.57,-0.38555555555555554,-0.20444444444444446,-0.062014756262088896,0.10778338831272974,-0.336451630982652
1592247942.8346822,3.7429878725276406,9.001394468036267,0.16984085083591569,-0.5804692434888693,-0.39126605200402975,-0.20444444444444446,-0.10579322542143706,0.08883533258086233,-0.3489050572925895
1592247942.8446822,3.811653912050257,8.898664762992576,0.09382410051399201,-0.5822222222222222,-0.39222222222222225,-0.20444444444444446,-0.11228604648786791,0.05766177616492088,-0.3607173684599917
1592247942.8546822,4.050680628272251,8.95151832460733,-0.04633507853403142,-0.5822222222222222,-0.39222222222222225,-0.20444444444444446,-0.11631911281206973,-0.00034838051168734757,-0.39157398398065185
1592247942.8646822,4.172221742136191,8.721019918769445,0.08833261320428619,-0.5822222222222222,-0.39222222222222225,-0.20444444444444446,-0.09073099564990554,-0.02750296701531361,-0.4152529177809216
1592247942.8746822,4.172161106851855,8.717948900814806,0.11886444274074207,-0.5822222222222222,-0.39222222222222225,-0.20444444444444446,-0.06650467780755256,-0.03685250641705274,-0.43988854543354017
1592247942.8846822,4.086622644309244,8.824364148983529,0.07197358658554681,-0.5667299797200376,-0.39222222222222225,-0.20444444444444446,-0.028562478962073323,-0.042035266989900524,-0.47077724951618377
1592247942.8946822,3.9127097602739727,9.017799181887368,0.019491057838660578,-0.5577777777777778,-0.39222222222222225,-0.20444444444444446,-0.007524781522255329,-0.034481205655835165,-0.48828556761118885
1592247942.9046822,3.756311350472513,8.996914439589473,-0.1686535921146225,-0.5577777777777778,-0.39222222222222225,-0.20444444444444446,-0.009883263859804923,-0.04403560054490063,-0.485558920186618
1592247942.9146821,3.7542807272386485,8.696724848882434,-0.1533449697764866,-0.5577777777777778,-0.39222222222222225,-0.20444444444444446,-0.03298011173606295,-0.06191455030689451,-0.4799145066462068
1592247942.9246821,3.748011206468544,8.869775870629123,-0.05607844527980707,-0.5577777777777778,-0.39222222222222225,-0.20444444444444446,-0.05060293516502736,-0.08245091548762612,-0.4723358410013908
1592247942.9346821,3.7329502404196417,8.776208655107096,-0.04934831706250911,-0.5577777777777778,-0.3961387553224214,-0.20757767092460377,-0.08197514653317149,-0.11841975052494892,-0.457969282503689
1592247942.9446821,3.915142231947484,8.819537956572969,0.10090052179767717,-0.5577777777777778,-0.3977777777777778,-0.2088888888888889,-0.10716508155650337,-0.12172714921252131,-0.44291089843976494
1592247942.954682,3.8051709018676876,8.941609699377437,0.04678060124512487,-0.5577777777777778,-0.3977777777777778,-0.2088888888888889,-0.10523236446414388,-0.13084824535100464,-0.43552705204885256
1592247942.964682,3.5729296362711773,8.931297272702942,0.020962181837646872,-0.5577777777777778,-0.3977777777777778,-0.2088888888888889,-0.09215927498568699,-0.12622149749952963,-0.44090555164194106
1592247942.974682,3.9359331934748796,9.132054653307772,-0.06693927008355337,-0.5577777777777778,-0.3977777777777778,-0.2088888888888889,-0.07160376681673,-0.11533305293410868,-0.4633652635375374
1592247942.984682,3.445600898539873,9.051224260576562,0.2773755147884688,-0.5527484504347102,-0.4086746536877574,-0.19883023420275386,-0.046006023080578724,-0.07890288207004784,-0.49150564366983795
1592247942.994682,3.3605124757799834,8.963948752422002,0.4059871881055004,-0.5511111111111111,-0.4122222222222222,-0.19555555555555557,-0.03794973074375487,-0.07485055753172001,-0.5028939541442196
1592247943.004682,3.6376909014203345,9.369676276191814,-0.03721445647588245,-0.5511111111111111,-0.4122222222222222,-0.19555555555555557,-0.06726101568593967,-0.05850304504883601,-0.5143350435929078
1592247943.014682,3.610910632684788,9.126924200310924,0.2499830404673294,-0.5511111111111111,-0.4122222222222222,-0.19555555555555557,-0.08962618647503821,-0.05785339531927086,-0.48587700744602136
1592247943.024682,3.611738989869962,9.119781413894676,0.1880456570155902,-0.5511111111111111,-0.4122222222222222,-0.19555555555555557,-0.11961164467389268,-0.06575805621481091,-0.4566552177492596
1592247943.034682,3.476147117779263,9.097934155378727,0.11178703759946546,-0.5549471879703308,-0.41925502979745827,-0.19939163241477523,-0.1498336883266096,-0.07734528937947963,-0.4348820242196671
1592247943.044682,3.6847878702596217,9.14804545134736,0.2746035319777668,-0.5577777777777778,-0.42444444444444446,-0.20222222222222222,-0.156024336594263,-0.08433389071487939,-0.42263357207785995
1592247943.054682,3.537929430672576,9.190080601957824,0.11424682218867194,-0.5577777777777778,-0.42444444444444446,-0.20222222222222222,-0.14837936334853516,-0.0879819600418176,-0.41670615122331855
1592247943.064682,3.400029891110953,9.053144022963965,0.09347282518444713,-0.5577777777777778,-0.42444444444444446,-0.20222222222222222,-0.13852572753386475,-0.06395736540518317,-0.42434621684870155
1592247943.074682,3.2248103951206577,9.021746789407887,0.03946850020835703,-0.5577777777777778,-0.42444444444444446,-0.20222222222222222,-0.11910217530150113,-0.0581951218036446,-0.46274969973380375
1592247943.084682,3.2970024890847514,9.307914473415758,0.27762108785245027,-0.5616503674687051,-0.42444444444444446,-0.2130654733568187,-0.09635556183483271,-0.050672154428482996,-0.5401991485665142
1592247943.094682,3.094887253927222,9.349043547424936,0.32420878902366274,-0.5633333333333334,-0.42444444444444446,-0.21777777777777776,-0.08652849789734832,-0.05943034379262447,-0.5893255707968615
1592247943.104682,2.8218674995890187,9.177719875061648,-0.03321387473286208,-0.5633333333333334,-0.42444444444444446,-0.21777777777777776,-0.08910346252342084,-0.10078044471122792,-0.6821482413385697
1592247943.114682,3.151266538875123,9.123574734676703,0.09398148581046335,-0.5633333333333334,-0.42444444444444446,-0.21777777777777776,-0.1171532064553334,-0.09895465654960206,-0.7135266998233193
1592247943.124682,3.4635716969082235,9.463205980690484,0.09024381081182614,-0.5633333333333334,-0.42444444444444446,-0.21777777777777776,-0.14284564123930663,-0.1084217526112697,-0.7145074603521109
1592247943.134682,3.0240733477152384,9.213617049094594,0.3037451787932274,-0.5633333333333334,-0.4209880659243279,-0.2170865020737545,-0.20620951871855225,-0.10016460778852893,-0.6956125284728804
1592247943.144682,3.098799132180857,9.299711727098577,0.4489625406790223,-0.5633333333333334,-0.41888888888888887,-0.21666666666666667,-0.2512442083365292,-0.11086654516335953,-0.6823078441547976
1592247943.154682,2.9728977583378895,9.187365393301164,0.23319419022036275,-0.5633333333333334,-0.41888888888888887,-0.21666666666666667,-0.2709714732675677,-0.1222472875076775,-0.6633831639576055
1592247943.164682,3.0035568485081625,9.323806409732407,0.44546005337436584,-0.5633333333333334,-0.41888888888888887,-0.21666666666666667,-0.2816147264228785,-0.10357447852405864,-0.6381717542167185
1592247943.174682,2.765213627478358,9.463317509075678,0.9239332588662384,-0.5633333333333334,-0.41888888888888887,-0.21666666666666667,-0.2753494800310396,-0.0980817101610528,-0.6196901231978237
1592247943.184682,2.215586253143336,9.374212908633696,0.5775922883487008,-0.5578480767439695,-0.44161352333053927,-0.2111814100773028,-0.2855906174680627,-0.07112282535754796,-0.618110512482012
1592247943.194682,2.363916409289639,9.042140307248005,0.369432834623561,-0.5555555555555556,-0.45111111111111113,-0.2088888888888889,-0.26997508378784457,-0.06148573524571697,-0.6297157707086626
1592247943.2046819,2.6721761904761903,9.39385313283208,0.6183719298245614,-0.5555555555555556,-0.45111111111111113,-0.2088888888888889,-0.19452306909705572,-0.07572394193033205,-0.6575335762893625
1592247943.2146819,2.7132429470072434,9.862594357605795,0.5654598741898589,-0.5555555555555556,-0.45111111111111113,-0.2088888888888889,-0.14750398487835653,-0.09798996755431433,-0.6718239855184185
1592247943.2246819,2.4644830147767425,9.6218663668487,0.29719422582717636,-0.5555555555555556,-0.45111111111111113,-0.2088888888888889,-0.12009318059510975,-0.11971626930040279,-0.6726959482928978
1592247943.2346818,2.423081316610728,9.389092622033798,0.4219849261025731,-0.5514345718267287,-0.45454526421846686,-0.20476790516006202,-0.12931190982471677,-0.10890573715617137,-0.653329277203592
1592247943.2446818,2.385684772296015,9.720479838709677,0.5693835388994307,-0.5488888888888889,-0.45666666666666667,-0.20222222222222222,-0.10882403181239811,-0.1139843651754015,-0.6237584388948778
1592247943.2546818,2.3606713497713447,9.310601103201169,0.24818631841968786,-0.5488888888888889,-0.45666666666666667,-0.20222222222222222,-0.08419890923050481,-0.1007296934964091,-0.5826938171107414
1592247943.2646818,2.38,9.480958927114822,0.6223667290437119,-0.5488888888888889,-0.45666666666666667,-0.20222222222222222,-0.08333073613388328,-0.07277852769132429,-0.5553917220609027
1592247943.2746818,2.163349515532914,9.655792028768355,0.6932588153031666,-0.5488888888888889,-0.45666666666666667,-0.20222222222222222,-0.06518341008739995,-0.08861383638434155,-0.5566198175163563
1592247943.2846818,1.7739046724583236,9.314836816154028,0.3613101667057995,-0.5389924604106338,-0.46960815006130807,-0.22429887036602228,-0.053915060586671504,-0.10540667884791886,-0.5744831245979123
1592247943.2946818,1.8741477204378683,9.377667508721279,0.4143113196198725,-0.5344444444444445,-0.47555555555555556,-0.23444444444444446,-0.034515156166533174,-0.11930983006783924,-0.5880009631029459
1592247943.3046818,1.7527766367780393,9.818117016480489,0.46044682662926417,-0.5344444444444445,-0.47555555555555556,-0.23444444444444446,0.03113045159024475,-0.16378127778890597,-0.6134089618160474
1592247943.3146818,1.8396332972667826,10.131167850590392,0.45769817001458346,-0.5344444444444445,-0.47555555555555556,-0.23444444444444446,0.024416761715616325,-0.1634562998806269,-0.623871510687834
1592247943.3246818,2.0798366923593177,10.091728051087022,0.6750474873400989,-0.5344444444444445,-0.47555555555555556,-0.23444444444444446,-0.0008028990193429415,-0.1569623879481339,-0.6140561140144436
1592247943.3346817,1.9514319255892358,9.891837693025495,0.33643779537039825,-0.5344444444444445,-0.4835826067179729,-0.2471539421182719,-0.027103505121062944,-0.17109316841059513,-0.5898725985769826
1592247943.3446817,1.81863523573201,9.825816377171215,0.21587344913151363,-0.5344444444444445,-0.4888888888888889,-0.25555555555555554,-0.04594427676411499,-0.1733871468613914,-0.571465946128879
1592247943.3546817,1.7050898294762484,9.938552831912302,0.830179658952497,-0.5344444444444445,-0.4888888888888889,-0.25555555555555554,-0.06711548975089225,-0.15523545103989758,-0.5223686014804622
1592247943.3646817,1.6042161652736788,9.863702537139456,0.34424295032365265,-0.5344444444444445,-0.4888888888888889,-0.25555555555555554,-0.0795716971885824,-0.14531142414716045,-0.49053086577236005
1592247943.3746817,1.1453139539507695,9.4884220781803,0.7039507694754841,-0.5344444444444445,-0.4888888888888889,-0.25555555555555554,-0.10220425517624825,-0.11763890128531729,-0.4712375966934388
1592247943.3846817,1.1054842091885366,9.688819660672301,0.6823670331066912,-0.5463495089421251,-0.503439523274943,-0.2376979588090346,-0.0917851235821249,-0.12331635086934803,-0.5004065431030985
1592247943.3946817,1.252099631292081,9.940987896761783,0.3235800737415838,-0.5544444444444444,-0.5133333333333333,-0.22555555555555556,-0.07498456134793087,-0.14011111983841393,-0.5466136788303146
1592247943.4046817,1.1308141647263517,9.829185835273648,0.45122124708952743,-0.5544444444444444,-0.5133333333333333,-0.22555555555555556,-0.03029072661527067,-0.18706493337421023,-0.6478673805385343
1592247943.4146817,1.437554066985646,10.325108133971291,0.376222966507177,-0.5544444444444444,-0.5133333333333333,-0.22555555555555556,-0.031262270754861106,-0.2259150217124069,-0.681478316056379
1592247943.4246817,1.407975402459754,10.04109689031097,0.4124269573042696,-0.5544444444444444,-0.5133333333333333,-0.22555555555555556,-0.08385167469789806,-0.23460577589052645,-0.6587619915913646
1592247943.4346817,1.3817494871559353,9.988259085759774,0.7448577814518845,-0.5347138449186764,-0.5012403852368948,-0.2306473231751086,-0.18091996804417976,-0.23124547174456186,-0.6065862130654889
1592247943.4446816,1.4496683807749928,10.227975462606794,0.864851601409078,-0.52,-0.4922222222222222,-0.23444444444444446,-0.22903639103055565,-0.23219466349694465,-0.5780679666313806
1592247943.4546816,1.1711354956699478,9.806607229304502,0.7254991662632457,-0.52,-0.4922222222222222,-0.23444444444444446,-0.2616710357827592,-0.2294460544133069,-0.5130605616445943
1592247943.4646816,1.0842593862160745,9.936151147316208,0.9259785457918297,-0.52,-0.4922222222222222,-0.23444444444444446,-0.2792137487853383,-0.2075161165101147,-0.4930425365104799
1592247943.4746816,0.8442133952906483,9.434133416737412,0.9606134667798579,-0.52,-0.4922222222222222,-0.23444444444444446,-0.23898503313181785,-0.21525145820811326,-0.49744500973872713
1592247943.4846816,0.5912116350868697,8.965438888552576,0.9815454930685876,-0.52,-0.5094902166528779,-0.23502004425879963,-0.18470755208675438,-0.2082306090264639,-0.5454265511490841
1592247943.4946816,0.4629100529100529,8.646338624338625,1.224984126984127,-0.52,-0.5255555555555556,-0.23555555555555555,-0.1354638684117345,-0.20921326385480177,-0.587426805352946
1592247943.5046816,0.3064939445447785,9.1856528205673,0.4911170721342824,-0.52,-0.5255555555555556,-0.23555555555555555,0.013506925637213632,-0.251812341210045,-0.6909781720523351
1592247943.5146816,0.4090363973851989,9.935069808732145,0.2917319021870713,-0.52,-0.5255555555555556,-0.23555555555555555,0.056464204308401406,-0.25859697061128134,-0.7213971819967148
1592247943.5246816,0.9911423714777606,10.144288142611197,0.522189073157975,-0.52,-0.5255555555555556,-0.23555555555555555,0.055497320554008675,-0.20383987101751483,-0.8021657731948267
1592247943.5346816,0.6730012118830042,10.316562837771446,0.3305604140054371,-0.5164715644208618,-0.5284959185381707,-0.23849591853817068,-0.0021653693100121274,-0.17620652565515663,-0.7817453040619644
1592247943.5446815,0.4348649832722638,10.036248606021985,0.5770698582125219,-0.5133333333333333,-0.5311111111111111,-0.2411111111111111,-0.07640173065793035,-0.15611027564511573,-0.7611428188836561
1592247943.5546815,0.39029592839774435,9.828100263852242,0.8256945522272233,-0.5133333333333333,-0.5311111111111111,-0.2411111111111111,-0.21843326302800742,-0.15869062422158411,-0.7201461773159642
1592247943.5646815,0.4743774872086413,9.585400795906764,0.5394201250710631,-0.5133333333333333,-0.5311111111111111,-0.2411111111111111,-0.2564568595494582,-0.17205266498647412,-0.7084468422534764
1592247943.5746815,0.02378296852038054,9.58375280377446,1.305162038827442,-0.5133333333333333,-0.5311111111111111,-0.2411111111111111,-0.2777812526103188,-0.177331928309443,-0.7138159896038068
1592247943.5846815,0.0860011439310373,9.888001389059117,0.9439968133349675,-0.5048887163913515,-0.5440002632857149,-0.2362221223552269,-0.27838044352230307,-0.1843502685452737,-0.7083853853696795
1592247943.5946815,0.16267331218849118,9.978232895333031,0.7191028545536927,-0.4922222222222222,-0.5633333333333334,-0.2288888888888889,-0.3097959422289935,-0.17453292519943295,-0.6992225315802282
1592247943.6046815,0.10384057971014496,9.893096800656275,0.9109187858900738,-0.4922222222222222,-0.5633333333333334,-0.2288888888888889,-0.29187598174098467,-0.1794201871507081,-0.6818456001979166
1592247943.6146815,0.167748760960732,10.054713591307664,0.761798989706443,-0.4922222222222222,-0.5633333333333334,-0.2288888888888889,-0.2793140733401625,-0.14758008935155398,-0.6103861543011659
1592247943.6246815,0.07863387181962227,9.827131149033821,0.7671038301127361,-0.4922222222222222,-0.5633333333333334,-0.2288888888888889,-0.2859556265772898,-0.11936847991775594,-0.5547530235370283
1592247943.6346815,0.16618414414414415,9.726051171171171,0.8817135135135135,-0.49942994994994994,-0.5603654454454454,-0.23228076076076076,-0.27783153418289114,-0.11374770653090477,-0.5287800842328961
1592247943.6446815,0.16229916488064444,9.572373069248393,1.1630655531741925,-0.5111111111111111,-0.5555555555555556,-0.23777777777777778,-0.25627372646636754,-0.09953252462162179,-0.5176349600047182
1592247943.6546814,0.005000139887530425,9.38371793078365,1.1383333799625102,-0.5111111111111111,-0.5555555555555556,-0.23777777777777778,-0.18338546119943197,-0.031550196717770505,-0.5589948199474118
1592247943.6646814,-0.2,9.41,1.07,-0.5111111111111111,-0.5555555555555556,-0.23777777777777778,-0.14726215563702155,-0.01090830782496456,-0.5825036378531075
1592247943.6746814,-0.07775345234085551,10.173304142809027,0.9498383294038396,-0.5111111111111111,-0.5555555555555556,-0.23777777777777778,-0.10223535035332731,0.007796004841290773,-0.6090087316490242
1592247943.6846814,-0.4131642271191893,10.122717066109056,1.0964918771111467,-0.5054834235876539,-0.5606716351223349,-0.2321500902543206,-0.11022924891131197,0.04150690961403524,-0.47978169799091297
1592247943.6946814,-0.3320544821792872,9.608301932077282,1.6200116004640186,-0.4988888888888889,-0.5666666666666667,-0.22555555555555556,-0.11883575735171578,0.05462056206762455,-0.3518408167420341
1592247943.7046814,-0.17722990701821423,10.039382753789326,1.0978163291300471,-0.4988888888888889,-0.5666666666666667,-0.22555555555555556,-0.06578736397142032,0.04786861697161928,-0.18404150719723847
1592247943.7146814,-0.3312586084065543,9.715162669199715,1.195119924008549,-0.4988888888888889,-0.5666666666666667,-0.22555555555555556,-0.06745406394436705,0.05179671771154033,-0.09464453012454765
1592247943.7246814,-0.22,9.72,1.05,-0.4988888888888889,-0.5666666666666667,-0.22555555555555556,-0.062177354602297986,0.05126904677733343,-0.0545415391248228
1592247943.7346814,-0.3319233921146083,9.770714480832853,1.082417822563511,-0.488485918461637,-0.5762027228916475,-0.23292432627485896,-0.07108980662156093,0.06600726422766122,-0.04583889663810243
1592247943.7446814,-0.46,9.85,1.18,-0.4722222222222222,-0.5911111111111111,-0.24444444444444444,-0.07308566242726255,0.07199483164476608,-0.05781403147231216
1592247943.7546813,-0.7749304153250014,9.792126289363095,1.265249140424603,-0.4722222222222222,-0.5911111111111111,-0.24444444444444444,-0.06469460603363007,0.047290607182185765,-0.03368239940541218
1592247943.7646813,-0.42947638773819385,9.709869096934549,1.3190836785418394,-0.4722222222222222,-0.5911111111111111,-0.24444444444444444,-0.05425595293818744,0.024055394452249104,-0.016391020356110373
1592247943.7746813,-0.49801002875376954,9.696823234448418,1.2690605933094887,-0.4722222222222222,-0.5911111111111111,-0.24444444444444444,-0.027873484361478535,0.028015068979663917,-0.020276780128659442
1592247943.7846813,-0.7200322084766855,9.697752726740354,1.3111075323914794,-0.4728375179952663,-0.5896344012558052,-0.24567503599053264,-0.01600353600965813,0.024371256541841066,-0.023515025044826974
1592247943.7946813,-0.6101303317535545,9.768534190927555,1.264527758970887,-0.4777777777777778,-0.5777777777777777,-0.25555555555555554,0.0012222917705021225,-0.005425719934739481,-0.018704018268188217
1592247943.8046813,-0.5957415119644244,9.745677984047434,1.1342267240770805,-0.4777777777777778,-0.5777777777777777,-0.25555555555555554,0.011066615729871224,-0.016052775748373587,-0.01792128641392321
1592247943.8146813,-0.6426251130898529,9.708416742059901,1.081041855149755,-0.4777777777777778,-0.5777777777777777,-0.25555555555555554,0.016935172570636016,-0.019462247435167113,-0.017166937103348705
1592247943.8246813,-0.6351833917346058,9.723102076033175,1.1534290644644398,-0.4777777777777778,-0.5777777777777777,-0.25555555555555554,0.02207932087808506,-0.023771240891400557,-0.014594862949624185
1592247943.8346813,-0.5860677111865892,9.738090281582119,1.2439322888134108,-0.47721595266790845,-0.578451967909621,-0.25319589009410415,0.02641287722574441,-0.030432947807540273,-0.013420911697038953
1592247943.8446813,-0.648201888265777,9.789495279335558,1.214605664797331,-0.4722222222222222,-0.5844444444444444,-0.23222222222222222,0.04131048265559305,-0.0330311800053667,-0.016809805347192137
1592247943.8546813,-0.6357885249401105,9.723682787410166,1.2298237707834254,-0.4722222222222222,-0.5844444444444444,-0.23222222222222222,0.05153719435992856,-0.040820139615873226,-0.01657293844377754
1592247943.8646812,-0.6038997376181299,9.701197900945038,1.2116992128543895,-0.4722222222222222,-0.5844444444444444,-0.23222222222222222,0.06850360071233606,-0.04259708516359695,-0.014420840187447284
1592247943.8746812,-0.5988078275929795,9.76119217240702,1.2327980431017551,-0.4722222222222222,-0.5844444444444444,-0.23222222222222222,0.08608537685183912,-0.037133374087569955,-0.011869092771498923
1592247943.8846812,-0.5682733426453207,9.78942444754844,1.2359711328390817,-0.47068741568472955,-0.584764195806422,-0.23273382440138646,0.097648986940177,-0.030692347195743198,-0.008789429293081916
1592247943.8946812,-0.543728114116693,9.776271885883306,1.1066220600162207,-0.44555555555555554,-0.59,-0.2411111111111111,0.10568139419290822,-0.010391540987972537,-0.010630825370297744
1592247943.9046812,-0.5419277885235333,9.765963894261766,0.9515667311411993,-0.44555555555555554,-0.59,-0.2411111111111111,0.10010675763262286,0.0035418593298853335,-0.010238055255190786
1592247943.9146812,-0.5345134674885472,9.805134674885473,0.898053869954189,-0.44555555555555554,-0.59,-0.2411111111111111,0.0889941629504265,0.02135365422483918,-0.007635815477475192
1592247943.9246812,-0.54,9.86,0.92,-0.44555555555555554,-0.59,-0.2411111111111111,0.0818123086872342,0.032724923474893676,-0.007635815477475192
1592247943.9346812,-0.6410922112802149,9.835801253357207,1.0263831692032228,-0.44907490301402564,-0.5886650751019595,-0.242688749626977,0.06812663045455261,0.04085586089214121,-0.00934090996828881
1592247943.9446812,-0.6744562258203181,9.70777188708984,1.1926083010937574,-0.4777777777777778,-0.5777777777777777,-0.25555555555555554,0.0672698259770676,0.0319957752301099,-0.0036756469825831046
1592247943.9546812,-0.71,9.686150113450003,1.2169006807000202,-0.4777777777777778,-0.5777777777777777,-0.25555555555555554,0.0819047694187589,0.021140449070488454,0.0018488715480023275
1592247943.9646811,-0.6549041439141432,9.707547928042928,1.1937739640214642,-0.4777777777777778,-0.5777777777777777,-0.25555555555555554,0.10538377382944551,0.00895807680326422,0.0072962378925593265
1592247943.9746811,-0.5599829600351339,9.762495740008783,1.1925468599033817,-0.4777777777777778,-0.5777777777777777,-0.25555555555555554,0.1281642524701397,0.0021798027931720573,0.00981561827064725
1592247943.9846811,-0.5894554238032499,9.769863855950812,1.1114975845410628,-0.4777777777777778,-0.5777777777777777,-0.25555555555555554,0.1426315142915623,0.005394749864599292,0.013030565342074484
1592247943.9946811,-0.5782223041086516,9.781777695891348,0.9864446082173032,-0.4722222222222222,-0.5844444444444444,-0.2411111111111111,0.15523248719500807,0.003553691428471925,0.009958076582959382
1592247944.004681,-0.55,9.81,0.93,-0.4722222222222222,-0.5844444444444444,-0.2411111111111111,0.15707963267948966,0.001090830782496456,0.008726646259971648
1592247944.014681,-0.5408013022739317,10.026290790702369,0.2788723721071095,-0.4722222222222222,-0.5844444444444444,-0.2411111111111111,0.11628185113387618,-0.04109876968242881,-0.007072601784713096
1592247944.024681,-0.61,10.02,0.26,-0.4722222222222222,-0.5844444444444444,-0.2411111111111111,0.07853981633974483,-0.053450708342326333,-0.009817477042468103
1592247944.034681,-0.5049552294259706,9.946512725246146,0.5393590934423184,-0.4694494189526699,-0.5844444444444444,-0.24323149008194522,0.007645582901535442,-0.06641062103597947,-0.01514157425864605
1592247944.044681,-0.65,9.81,0.71,-0.4533333333333333,-0.5844444444444444,-0.25555555555555554,-0.02399827721492203,-0.07199483164476608,-0.020725784867432664
1592247944.054681,-0.76,9.87,0.65,-0.4533333333333333,-0.5844444444444444,-0.25555555555555554,-0.039305620291490144,-0.10686718138009434,-0.02568735316256362
1592247944.064681,-0.7338976481064377,9.853686030066523,0.7119930857472108,-0.4533333333333333,-0.5844444444444444,-0.25555555555555554,-0.06206193486626306,-0.1502807245652341,-0.026558938338885084
1592247944.074681,-0.6568465381870093,9.799740720913633,0.9326138472519628,-0.4533333333333333,-0.5844444444444444,-0.25555555555555554,-0.07434848787061088,-0.1754800442819442,-0.023194869832396
1592247944.084681,-0.5939364931956995,9.746210308247312,1.1698531985569882,-0.45569136375722796,-0.5839391522107528,-0.25555555555555554,-0.0770355943152479,-0.17557310484011973,-0.018048053812039177
1592247944.094681,-0.52,9.7,1.29,-0.48444444444444446,-0.5777777777777777,-0.25555555555555554,-0.07199483164476608,-0.148352986419518,-0.011999138607461015
1592247944.104681,-0.39829772220497334,9.702613960314995,1.3329487143300685,-0.48444444444444446,-0.5777777777777777,-0.25555555555555554,-0.04551654545785714,-0.06806271134604457,0.0025165249704074437
1592247944.114681,-0.45,9.71,1.2,-0.48444444444444446,-0.5777777777777777,-0.25555555555555554,-0.02617993877991494,-0.007635815477475192,0.006544984694978735
1592247944.124681,-0.5724677514064365,9.750686644062661,1.091502282499574,-0.48444444444444446,-0.5777777777777777,-0.25555555555555554,0.008757061332269769,0.05367541208637666,0.004557611801738029
1592247944.134681,-0.6280813744246396,9.798355463792548,0.964385429886538,-0.48444444444444446,-0.5777777777777777,-0.25555555555555554,0.0234900025114835,0.06927499686436768,0.005424255400515308
1592247944.144681,-0.68,9.81,0.87,-0.4577777777777778,-0.5844444444444444,-0.2411111111111111,0.017453292519943295,0.05563236990731925,0.002181661564992912
1592247944.154681,-0.712947455311397,9.817649151770466,0.9247016964590686,-0.4577777777777778,-0.5844444444444444,-0.2411111111111111,0.0012209902564866964,0.014445000307039558,-0.0032074126104942474
1592247944.164681,-0.6661512897610381,9.786151289761039,1.0047322135057535,-0.4577777777777778,-0.5844444444444444,-0.2411111111111111,-0.004710870848153765,-0.019779516968914102,-0.005430060098485964
1592247944.174681,-0.6089863665351005,9.73339181992106,1.1630409003946982,-0.4577777777777778,-0.5844444444444444,-0.2411111111111111,0.001052551400342975,-0.03080268180919041,-0.002071091306424828
1592247944.184681,-0.5728404488184905,9.711704269291095,1.2714786535445286,-0.4577777777777778,-0.5844444444444444,-0.2411111111111111,0.015247020094813395,-0.02449402905609245,0.0018718166642614
1592247944.194681,-0.59,9.69,1.26,-0.4577777777777778,-0.5844444444444444,-0.23222222222222222,0.042542400517361786,-0.002181661564992912,0.00545415391248228
1592247944.204681,-0.5949433160132263,9.736691859549678,1.148213667139033,-0.4577777777777778,-0.5844444444444444,-0.23222222222222222,0.07400636757756522,0.014189044524140248,0.009999969202191372
1592247944.214681,-0.5460762984525815,9.775215259690516,0.9639237015474185,-0.4577777777777778,-0.5844444444444444,-0.23222222222222222,0.09087036561699142,0.028786935773351775,0.009486066372682525
1592247944.224681,-0.6081808754502783,9.797091474729832,0.8805447003602227,-0.4577777777777778,-0.5844444444444444,-0.23222222222222222,0.09464442477957175,0.03720708178891306,0.004680594019622524
1592247944.234681,-0.5700272895972055,9.819983626241678,0.8500218316777645,-0.4577777777777778,-0.5844444444444444,-0.23222222222222222,0.0938120426613487,0.030548024843128567,0.0021834476649533366
1592247944.244681,-0.61,9.85,0.88,-0.46555555555555556,-0.5844444444444444,-0.2411111111111111,0.08726646259971647,0.02181661564992912,-0.001090830782496456
1592247944.2546809,-0.66,9.823779591836734,0.8579265306122449,-0.46555555555555556,-0.5844444444444444,-0.2411111111111111,0.07191468897503166,0.005746229419958881,-0.007635815477475192
1592247944.2646809,-0.6476437826778814,9.79258626960673,0.8648274607865424,-0.46555555555555556,-0.5844444444444444,-0.2411111111111111,0.06299861454059079,-0.013052327172912015,-0.006557532100660554
1592247944.2746809,-0.6084281031779962,9.765284309533989,0.9241470713980334,-0.46555555555555556,-0.5844444444444444,-0.2411111111111111,0.06303469132247298,-0.02205010971225058,-0.003101025003454368
1592247944.2846808,-0.6009564272481117,9.742869281744335,0.9913921547669945,-0.46555555555555556,-0.5844444444444444,-0.2411111111111111,0.06710985837305095,-0.01797494266167262,-0.002285991593338777
1592247944.2946808,-0.53,9.79,1.01,-0.4533333333333333,-0.5966666666666667,-0.23222222222222222,0.07526732399225547,-0.006544984694978735,0.001090830782496456
1592247944.3046808,-0.5494274599900791,9.78528627000496,0.8775333524789182,-0.4533333333333333,-0.5966666666666667,-0.23222222222222222,0.08362394272548047,0.017145719419899914,0.006689145346128699
1592247944.3146808,-0.5029992599640554,9.831499629982028,0.7024008880431335,-0.4533333333333333,-0.5966666666666667,-0.23222222222222222,0.08584846330786994,0.033968325261221705,0.007384932470040892
1592247944.3246808,-0.58,9.87,0.61,-0.4533333333333333,-0.5966666666666667,-0.23222222222222222,0.07744898555724837,0.04908738521234052,0.006544984694978735
1592247944.3346808,-0.6369620476092636,9.91746837300772,0.5150632539845608,-0.4533333333333333,-0.5966666666666667,-0.23222222222222222,0.05880819906738437,0.05219418296065118,0.004473786196104957
1592247944.3446808,-0.72,9.96,0.55,-0.46555555555555556,-0.5844444444444444,-0.22555555555555556,0.022907446432425576,0.04036073895236887,0.001090830782496456
1592247944.3546808,-0.6923484929172435,9.902348492917243,0.59,-0.46555555555555556,-0.5844444444444444,-0.22555555555555556,-0.022622336331217106,0.006204107336810176,-0.002807649024369939
1592247944.3646808,-0.632173055649079,9.836607666778894,0.692959694098408,-0.46555555555555556,-0.5844444444444444,-0.22555555555555556,-0.054247648084076616,-0.02806770930416167,-0.006364788536906297
1592247944.3746808,-0.56,9.75,0.96,-0.46555555555555556,-0.5844444444444444,-0.22555555555555556,-0.06763150851478027,-0.04145156973486533,-0.008726646259971648
1592247944.3846807,-0.48274962568624186,9.730687406421561,1.085531858259857,-0.46555555555555556,-0.5844444444444444,-0.22555555555555556,-0.06341815420173923,-0.036184876843564015,-0.007673307681711387
1592247944.3946807,-0.48,9.74,1.13,-0.4722222222222222,-0.5966666666666667,-0.2111111111111111,-0.04581489286485115,0.0,-0.0032724923474893677
1592247944.4046807,-0.6634425361877796,9.78311492762444,0.8228410383974172,-0.4722222222222222,-0.5966666666666667,-0.2111111111111111,-0.025226194329051387,0.03718959638596249,0.0008523946697805671
1592247944.4146807,-0.64,9.83,0.69,-0.4722222222222222,-0.5966666666666667,-0.2111111111111111,-0.02181661564992912,0.04145156973486533,0.0
1592247944.4246807,-0.6447822493249821,9.85,0.734782249324982,-0.4722222222222222,-0.5966666666666667,-0.2111111111111111,-0.03184741810321661,0.027365781218098965,-0.002572908422987664
1592247944.4346807,-0.6755983322006502,9.85,0.7655983322006502,-0.4722222222222222,-0.5966666666666667,-0.2111111111111111,-0.040251201052401785,0.013919728499402683,-0.005094043307743217
1592247944.4446807,-0.5748886255351053,9.828833530848671,0.9530275473432172,-0.46555555555555556,-0.57,-0.23222222222222222,-0.05644441845945703,-0.006747996833013181,-0.008929658398006093
1592247944.4546807,-0.6341052257376466,9.78,0.9864209029505866,-0.46555555555555556,-0.57,-0.23222222222222222,-0.05935267291518079,-0.007850155518183287,-0.008960116879635719
1592247944.4646807,-0.615616310751962,9.781872103583988,0.9049768286718987,-0.46555555555555556,-0.57,-0.23222222222222222,-0.05508948211586745,-0.0072971425077669235,-0.0050457242689952156
1592247944.4746807,-0.6449546126240236,9.788761346843993,0.97,-0.46555555555555556,-0.57,-0.23222222222222222,-0.04759120613242177,-0.001090830782496456,-0.0031373762483486046
1592247944.4846807,-0.6744690732531138,9.78138273168672,0.97,-0.46555555555555556,-0.57,-0.23222222222222222,-0.04517655996869743,-0.001090830782496456,-0.0023324941937738234
1592247944.4946806,-0.6365637786870664,9.778281889343532,1.0034362213129338,-0.4533333333333333,-0.59,-0.24666666666666667,-0.03998590535400703,-0.006578654707567801,0.00018741679918092018
1592247944.5046806,-0.6119795754222623,9.767708450120645,1.0154169002412927,-0.4533333333333333,-0.59,-0.24666666666666667,-0.037429169442968466,-0.012374092579664762,0.0008408614676939583
1592247944.5146806,-0.5486256944954353,9.75,0.9923687495410823,-0.4533333333333333,-0.59,-0.24666666666666667,-0.030134957943463724,-0.014671977055376983,-0.000940917307603106
