time,acc_x,acc_y,acc_z,mag_x,mag_y,mag_z,gyr_x,gyr_y,gyr_z
1592248035.5245938,-0.46053396988615497,9.64,0.779466030113845,-0.4688888888888889,-0.6088888888888889,-0.23555555555555555,0.02051573751514145,-0.05928965084372303,-0.009473282474594084
1592248035.5345938,-0.328876599178752,9.64,0.8198575870499157,-0.4688888888888889,-0.6088888888888889,-0.23555555555555555,0.026640779896851506,-0.08910205964597384,-0.01526386353346148
1592248035.5445938,-0.3304542884759178,9.64,0.9582725730855507,-0.4688888888888889,-0.6088888888888889,-0.23555555555555555,0.03324719255615641,-0.09983416290841121,-0.021390194374003826
1592248035.5545938,-0.29741156101208044,9.644310392318893,1.1074143155078109,-0.47415714616753457,-0.6112835512882733,-0.2326819606762943,0.04335117687606788,-0.09537246893980002,-0.02744006231046027
1592248035.5645938,-0.023202577527184857,9.64886709625453,1.164335481272654,-0.4811111111111111,-0.6144444444444445,-0.2288888888888889,0.05289698980899628,-0.09191494813844915,-0.03387993886364174
1592248035.5745938,0.002523441809156094,9.656485934914507,1.0540562603419747,-0.4811111111111111,-0.6144444444444445,-0.2288888888888889,0.09335874951160071,-0.04441010979205869,-0.08037684035801189
1592248035.5845938,-0.04322892143170663,9.671786840110132,0.9937460596145405,-0.4811111111111111,-0.6144444444444445,-0.2288888888888889,0.11142204648428226,-0.02861292538932486,-0.10039747797458652
1592248035.5945938,-0.42426588199788745,9.70236564702839,0.8764155295436419,-0.4811111111111111,-0.6144444444444445,-0.2288888888888889,0.14110817601331727,0.002181661564992912,-0.13911809000255057
1592248035.6045938,-0.5767542962694198,9.657073259227497,0.6354223702872976,-0.48487595884963697,-0.6182092921829704,-0.23211590123619677,0.1473317425596507,-0.016298991555689948,-0.12927472771561505
1592248035.6145937,-0.48910347083111894,9.61317239687666,0.4497011569437063,-0.4888888888888889,-0.6222222222222222,-0.23555555555555555,0.14311449244179525,-0.04315927890394751,-0.10494544886031691
1592248035.6245937,-0.17733401430030646,9.813227783452502,0.320561797752809,-0.4888888888888889,-0.6222222222222222,-0.23555555555555555,0.11153661183805948,-0.10931260954810756,-0.05156766031125483
1592248035.6345937,-0.08301744209795352,9.852539111964381,0.27,-0.4888888888888889,-0.6222222222222222,-0.23555555555555555,0.09329261090601057,-0.12470092689096489,-0.042680887591909356
1592248035.6445937,0.052467826272542956,9.894058478284068,0.3511695656813574,-0.4888888888888889,-0.6222222222222222,-0.23555555555555555,0.03397141095596598,-0.12272548224931085,-0.04915117512470932
1592248035.6545937,0.11487240773286468,9.9,0.5493195079086116,-0.48172809998047256,-0.618366412809998,-0.22894559656317123,-0.01888076633478839,-0.09883617045976237,-0.061040129962268284
1592248035.6645937,0.12060526105380986,9.879331574318382,0.6450315823139042,-0.47444444444444445,-0.6144444444444445,-0.2222222222222222,-0.05060191919635355,-0.07873099736438961,-0.06859029181948831
1592248035.6745937,0.04739346733668342,9.844344221105528,0.6284836683417085,-0.47444444444444445,-0.6144444444444445,-0.2222222222222222,-0.09672717219756759,-0.036448959469157646,-0.07744898555724837
1592248035.6845937,0.02137691745799854,9.89963842220599,0.5622948624299976,-0.47444444444444445,-0.6144444444444445,-0.2222222222222222,-0.1113254300590506,-0.02324728524085124,-0.07835017592613332
1592248035.6945937,0.04642020625764726,10.142957524908233,0.6457979374235273,-0.47444444444444445,-0.6144444444444445,-0.2222222222222222,-0.13838697639687778,-0.010369279923877778,-0.12637105871078372
1592248035.7045937,0.15843488194973346,10.180521706016757,0.7353789032749428,-0.47444444444444445,-0.6109979267157485,-0.2222222222222222,-0.140606052421739,-0.03095928134199148,-0.21396276095927533
1592248035.7145936,0.38516078208538884,10.084989281194307,0.7850321564170778,-0.47444444444444445,-0.6022222222222222,-0.2222222222222222,-0.11729587860701192,-0.06872701625855715,-0.3549543418721862
1592248035.7245936,0.3429696526508227,10.051535405240706,0.7809898842169409,-0.47444444444444445,-0.6022222222222222,-0.2222222222222222,-0.1007398779546802,-0.06893829853226603,-0.45303408227083575
1592248035.7345936,0.3728658166363084,10.02,0.7940121432908318,-0.47444444444444445,-0.6022222222222222,-0.2222222222222222,-0.09926560120717749,-0.07009120940126196,-0.49537546636898616
1592248035.7445936,0.42,9.97323730186278,0.9355397431447414,-0.47444444444444445,-0.6022222222222222,-0.2222222222222222,-0.09808844296254664,-0.0520145677112923,-0.5957035359265723
1592248035.7545936,0.40480913642052563,9.89,1.0669618272841053,-0.4788329161451815,-0.6103240161312752,-0.21985919899874842,-0.08903343098550626,-0.03634214019357248,-0.6603956454240231
1592248035.7645936,0.27285934219734076,9.956464660601819,0.9628593421973408,-0.4888888888888889,-0.6288888888888889,-0.21444444444444444,-0.06304696581812722,0.0071349035394246835,-0.7331933990741497
1592248035.7745936,0.12844912694319605,9.952983865026155,0.8132940396375157,-0.4888888888888889,-0.6288888888888889,-0.21444444444444444,-0.05626237230207278,0.06252856144820601,-0.800133179224223
1592248035.7845936,-0.1538421052631579,9.86874162679426,0.7865729665071771,-0.4888888888888889,-0.6288888888888889,-0.21444444444444444,-0.06818057740625695,0.11430797502279219,-0.8750668023973753
1592248035.7945936,-0.4284494309177352,9.817788503097535,0.898581616481775,-0.4888888888888889,-0.6288888888888889,-0.21444444444444444,-0.08558169402226976,0.1387767462667102,-0.946420211910681
1592248035.8045936,-0.6348774656306038,9.727393529587568,1.0332774208009563,-0.47577920568506343,-0.6288888888888889,-0.20971039217639637,-0.0974780454587388,0.14398966328953217,-1.0263718441430218
1592248035.8145936,-0.8607928047968021,9.638201199200534,1.0428780812791474,-0.4488888888888889,-0.6288888888888889,-0.2,-0.0931835473639311,0.1429300821563677,-1.0844587609768497
1592248035.8245935,-1.2648595248020007,9.536987911629845,1.0802409337223844,-0.4488888888888889,-0.6288888888888889,-0.2,-0.05997377638715237,0.09863474725651657,-1.1706848703217063
1592248035.8345935,-1.41,9.47,1.03,-0.4488888888888889,-0.6288888888888889,-0.2,-0.039269908169872414,0.07853981633974483,-1.1999138607461015
1592248035.8445935,-1.525873259381638,9.491980568011959,1.0491609629454803,-0.4488888888888889,-0.6288888888888889,-0.2,0.012116194164641818,0.03633798398856487,-1.278171636698255
1592248035.8545935,-1.390661409719987,9.383988171869971,1.0166929514000644,-0.44000438078889964,-0.6359964953688804,-0.2,0.03424864590683272,0.005456304327204775,-1.3177935834492367
1592248035.8645935,-1.42,9.45,0.87,-0.41555555555555557,-0.6555555555555556,-0.2,0.053450708342326333,-0.006544984694978735,-1.332995216210669
1592248035.8745935,-1.5177715274772825,9.468476849848551,0.649943747295543,-0.41555555555555557,-0.6555555555555556,-0.2,0.0581755963270903,-0.028000035490129714,-1.3354969051536512
1592248035.8845935,-1.6766854923267562,9.483707940139167,0.5043258507291964,-0.41555555555555557,-0.6555555555555556,-0.2,0.035170090702887416,-0.03850387794564717,-1.3280129394117761
1592248035.8945935,-1.967735303159075,9.615520695828286,0.6539335635883619,-0.41555555555555557,-0.6555555555555556,-0.2,-0.005354935474552458,-0.04560754013731272,-1.3474915034002701
1592248035.9045935,-2.0903207519021336,9.525416977472773,0.8726122631657467,-0.3962358479619408,-0.6555555555555556,-0.20358794569595703,-0.056639228038201775,-0.0428553451085509,-1.3964223963253606
1592248035.9145935,-1.94,9.33,0.82,-0.3377777777777778,-0.6555555555555556,-0.21444444444444444,-0.09599310885968812,-0.02399827721492203,-1.44971410993779
1592248035.9245934,-2.244476689655172,9.191787586206896,1.2026891034482758,-0.3377777777777778,-0.6555555555555556,-0.21444444444444444,-0.12902719634725404,0.015793303849994757,-1.544911408842336
1592248035.9345934,-2.22,9.1,1.27,-0.3377777777777778,-0.6555555555555556,-0.21444444444444444,-0.12435470920459597,0.03381575425739013,-1.5969762655748114
1592248035.9445934,-2.3579005111315468,9.101214311683313,1.1188953998160782,-0.3377777777777778,-0.6555555555555556,-0.21444444444444444,-0.104219422610577,0.07100055871442115,-1.704866379609557
1592248035.9545934,-2.4066639689219813,8.884047426351572,1.1778577209452896,-0.3269846408402576,-0.6649995503758858,-0.21152130319053272,-0.07828026288389021,0.09952515466303209,-1.7746643985074129
1592248035.9645934,-2.63,8.9,1.13,-0.28444444444444444,-0.7022222222222222,-0.2,-0.0643590161672909,0.11344640137963141,-1.8085974373791238
1592248035.9745934,-3.354822270040585,8.665296216599025,1.0725296216599025,-0.28444444444444444,-0.7022222222222222,-0.2,-0.05483040292967205,0.1159298516368537,-1.8157999571493253
1592248035.9845934,-3.516069541095727,8.51282014491714,1.0464100724585694,-0.28444444444444444,-0.7022222222222222,-0.2,-0.03712539281417895,0.0902870441724834,-1.840875041193156
1592248035.9945934,-3.62,8.48,1.03,-0.28444444444444444,-0.7022222222222222,-0.2,-0.02399827721492203,0.074176493209759,-1.858775653373961
1592248036.0045934,-3.928966361045719,8.527347602527568,1.0379327220914385,-0.26684380979914374,-0.7105244083756659,-0.202656699569102,-0.008187346603193493,0.05075421005843557,-1.860305262763244
1592248036.0145934,-3.95,8.31,1.08,-0.22555555555555556,-0.73,-0.2088888888888889,-0.004363323129985824,0.031634092692397225,-1.858775653373961
1592248036.0245934,-4.083152484594205,8.485041825095058,0.9437786810017045,-0.22555555555555556,-0.73,-0.2088888888888889,-0.0026712839723350345,0.02437631365445194,-1.8154942568354688
1592248036.0345933,-4.295806720289372,8.477109133311123,0.9554790347912998,-0.22555555555555556,-0.73,-0.2088888888888889,-0.013687639370829355,0.039128745498052515,-1.7810809959656453
1592248036.0445933,-4.293472494407823,8.21,1.0218025615139459,-0.22555555555555556,-0.73,-0.2088888888888889,-0.025089107997418484,0.061254217702194934,-1.7671458676442586
1592248036.0545933,-4.4303783155106125,8.201308112299293,0.95,-0.20012373598681873,-0.7335411394336215,-0.19601201822117406,-0.02793352159599872,0.09597305643455194,-1.7658816838226674
1592248036.0645933,-4.75,8.18,0.95,-0.13777777777777778,-0.7422222222222222,-0.16444444444444445,-0.03490658503988659,0.11999138607461016,-1.7627825445142729
1592248036.0745933,-4.84822093608455,7.92435581278309,0.8158404630095621,-0.13777777777777778,-0.7422222222222222,-0.16444444444444445,-0.057716998588162066,0.15308371694818815,-1.7301653591073534
1592248036.0845933,-5.423272073702002,7.871689480324708,0.6922070131168615,-0.13777777777777778,-0.7422222222222222,-0.16444444444444445,-0.09141890095372084,0.17726746790780987,-1.6760092370408541
1592248036.0945933,-5.7364589491939615,7.809672066532655,0.7089180560482441,-0.13777777777777778,-0.7422222222222222,-0.16444444444444445,-0.12793478908974565,0.1818575845390765,-1.6102307345341131
1592248036.1045933,-5.6413844207482375,7.619653894812941,0.7903461051870595,-0.12496726710444404,-0.7472459518980394,-0.1677098687337256,-0.15803712436579445,0.17766323956042127,-1.5391734716507737
1592248036.1145933,-5.92,7.55,0.86,-0.0811111111111111,-0.7644444444444445,-0.17888888888888888,-0.17998707911191522,0.17344209441693648,-1.4682582332402296
1592248036.1245933,-6.218177005565359,7.605451337043572,0.8331858286955341,-0.0811111111111111,-0.7644444444444445,-0.17888888888888888,-0.20355610175395045,0.13580746996660947,-1.3149601571447196
1592248036.1345932,-6.221316857688635,7.6100458452722055,1.0037824737344794,-0.0811111111111111,-0.7644444444444445,-0.17888888888888888,-0.2245791631719464,0.09830508146586608,-1.1743888111343888
1592248036.1445932,-6.44,7.76,1.11,-0.0811111111111111,-0.7644444444444445,-0.17888888888888888,-0.23889194136672384,0.07853981633974483,-1.08646745936647
1592248036.1545932,-6.143489926477609,7.461476495114421,1.4230201470447819,-0.06587249046047862,-0.7619463099115539,-0.18213646378164663,-0.2456309348593279,0.024166663519231774,-0.9342892568954193
1592248036.1645932,-6.19,7.57,1.33,-0.013333333333333334,-0.7533333333333333,-0.19333333333333333,-0.23125612588924865,0.002181661564992912,-0.842121364087264
1592248036.1745932,-5.96,7.430820700470465,1.41,-0.013333333333333334,-0.7533333333333333,-0.19333333333333333,-0.2030678724120245,-0.03193060707132987,-0.7416417645863411
1592248036.1845932,-5.96,7.447726753320954,1.2809070132838165,-0.013333333333333334,-0.7533333333333333,-0.19333333333333333,-0.1858323958124931,-0.04388120404522934,-0.7132380165891015
1592248036.1945932,-6.099856304502825,7.398226841441343,1.151464377776559,-0.013333333333333334,-0.7533333333333333,-0.19333333333333333,-0.1877286093918185,-0.05017821599483697,-0.7117322361887766
1592248036.2045932,-6.422307934508816,7.386438916876574,1.4076353904282115,-0.010585642317380354,-0.7541183879093198,-0.19392212426532326,-0.19128074970072143,-0.04950383115811411,-0.7204952774114913
1592248036.2145932,-5.93,7.04,1.28,0.017777777777777778,-0.7622222222222222,-0.2,-0.19525871006686563,-0.042542400517361786,-0.7374016089676042
1592248036.2245932,-6.430244682552375,6.955901167439629,1.3847129377898608,0.017777777777777778,-0.7622222222222222,-0.2,-0.20327901155819372,-0.05261910905555829,-0.7415950185869309
1592248036.2345932,-6.88,7.13,1.45,0.017777777777777778,-0.7622222222222222,-0.2,-0.19853120241435498,-0.07635815477475191,-0.7526732399225546
1592248036.2445931,-6.279840363311085,7.053306727218514,1.5433466363907429,0.017777777777777778,-0.7622222222222222,-0.2,-0.18199165174646226,-0.09271626309684165,-0.7534077161364807
1592248036.2545931,-6.693854057065049,7.132122299931918,1.5221222999319182,0.021048874584803284,-0.7585662904967232,-0.1963440682745009,-0.16658039949105533,-0.10797374851100605,-0.733330893413984
1592248036.2645931,-6.76,7.19,1.58,0.03666666666666667,-0.7411111111111112,-0.17888888888888888,-0.14944381720201447,-0.1287180323345818,-0.7243116395776468
1592248036.274593,-6.317453160700685,7.130222645341457,1.687132774815943,0.03666666666666667,-0.7411111111111112,-0.17888888888888888,-0.11894912897052189,-0.12131146024927482,-0.7077267469479681
1592248036.284593,-6.498975279717983,6.995018939808631,1.4273624400604321,0.03666666666666667,-0.7411111111111112,-0.17888888888888888,-0.09544975948106686,-0.10891127676033077,-0.6664737952199118
1592248036.294593,-6.387320292153753,6.876720907008166,1.4848630284517026,0.03666666666666667,-0.7411111111111112,-0.17888888888888888,-0.07606022632981936,-0.10378395478262649,-0.6277404239383415
1592248036.304593,-6.766524761652542,6.951078522245763,1.550479343220339,0.037478887123352164,-0.7411244262005651,-0.17914187558851222,-0.055305568444740036,-0.09462776484862512,-0.6105384367354361
1592248036.314593,-6.525417683499155,6.94916463300169,1.5530981321569364,0.10444444444444445,-0.7422222222222222,-0.2,-0.024026587212233864,-0.07261411923514809,-0.58235589345484
1592248036.324593,-6.650410060142154,6.7616402405686165,1.4365773646801532,0.10444444444444445,-0.7422222222222222,-0.2,-0.010251065877282167,-0.07871873883003949,-0.5803667069106883
1592248036.334593,-6.688895254643217,6.871104745356782,1.394461950268849,0.10444444444444445,-0.7422222222222222,-0.2,-0.002181661564992912,-0.09551107276288888,-0.5843222099543264
1592248036.344593,-6.743865172880046,6.858751207262894,1.4936372416457409,0.10444444444444445,-0.7422222222222222,-0.2,-0.0029254577137687453,-0.11168636477036101,-0.5889124003922268
1592248036.354593,-6.857290322580646,6.9478709677419355,1.5584516129032258,0.10444444444444445,-0.7422222222222222,-0.2,-0.006460533279559654,-0.12405912925062919,-0.5986338581981517
1592248036.364593,-6.885670490305553,6.747032788549386,1.487032788549386,0.09222222222222222,-0.7588888888888888,-0.2,-0.014976748976086505,-0.1304274176547927,-0.5773420405264901
1592248036.374593,-6.82,6.82,1.56,0.09222222222222222,-0.7588888888888888,-0.2,-0.014180800172453926,-0.12326387842209952,-0.5486878835957173
1592248036.384593,-7.02888611847458,6.970781869242277,1.4139652502558988,0.09222222222222222,-0.7588888888888888,-0.2,-0.01351303457126374,-0.1130043831530504,-0.4833138488270289
1592248036.394593,-6.660431829700963,6.611925325223855,1.4319253252238553,0.09222222222222222,-0.7588888888888888,-0.2,-0.02110509689928504,-0.11142765490362767,-0.4369903498953524
1592248036.404593,-6.809241256969083,6.619011488427099,1.439011488427099,0.09222222222222222,-0.7588888888888888,-0.2,-0.02651596036560945,-0.09596804499984364,-0.39524940315513557
1592248036.414593,-7.100554266148861,6.762821196314084,1.5783627088264358,0.12222222222222222,-0.7588888888888888,-0.20777777777777778,-0.038813793159225875,-0.11641114894883393,-0.371140754082962
1592248036.424593,-6.86758030585955,6.670670574609403,1.5566471269529867,0.12222222222222222,-0.7588888888888888,-0.20777777777777778,-0.03883421529250874,-0.13247711457327765,-0.34940294642671843
1592248036.434593,-7.1647019443059605,6.691103672577927,1.3592937350141254,0.12222222222222222,-0.7588888888888888,-0.20777777777777778,-0.049316153323172456,-0.15971883046614643,-0.3179229850433909
1592248036.444593,-7.072538150888103,6.55,1.637418248096923,0.12222222222222222,-0.7588888888888888,-0.20777777777777778,-0.061086523819801536,-0.18312351486990056,-0.30488601467452736
1592248036.454593,-6.967609449269147,6.55,1.862265465851828,0.12222222222222222,-0.7588888888888888,-0.20777777777777778,-0.061086523819801536,-0.1823059473149481,-0.30815628489433716
1592248036.464593,-6.730777865243884,6.386142744686434,1.7861267092335054,0.14888888888888888,-0.7322222222222222,-0.21444444444444444,-0.048749726667841706,-0.1917316619135772,-0.3446990288757469
1592248036.474593,-6.79,6.31,1.6,0.14888888888888888,-0.7322222222222222,-0.21444444444444444,-0.03490658503988659,-0.17235126363444003,-0.32070425005395803
1592248036.484593,-7.364096567149665,6.602289215209569,1.5377107847904308,0.14888888888888888,-0.7322222222222222,-0.21444444444444444,-0.021547196464881433,-0.16669340770794544,-0.2989204929895466
1592248036.494593,-6.875057100011535,6.4387611027800205,1.6899746222170953,0.14888888888888888,-0.7322222222222222,-0.21444444444444444,-0.011588173866933454,-0.14426133287765192,-0.2908408541860262
1592248036.504593,-7.1653535586572845,6.495207636405583,1.5609539739300957,0.14888888888888888,-0.7322222222222222,-0.21444444444444444,-0.001912319854307289,-0.13898359432531038,-0.2811650001734
1592248036.514593,-7.17,6.58,1.69,0.15555555555555556,-0.7411111111111112,-0.21444444444444444,0.002181661564992912,-0.13308135546456762,-0.2923426497090502
1592248036.5245929,-7.1190575445082205,6.6856834322404906,1.6917625741803677,0.15555555555555556,-0.7411111111111112,-0.21444444444444444,0.008726646259971648,-0.13853550937704992,-0.29666280760693364
1592248036.5345929,-7.022080208210103,6.489323317165503,1.5792982373121969,0.15555555555555556,-0.7411111111111112,-0.21444444444444444,0.009779201825374947,-0.13718222365010282,-0.2665427273124661
1592248036.5445929,-6.9637080405932865,6.360976509828969,1.6863288623944361,0.15555555555555556,-0.7411111111111112,-0.21444444444444444,0.017427668718296405,-0.128185428844157,-0.22425540910878583
1592248036.5545928,-7.372987900078064,6.368417961819602,1.5821485345255837,0.15555555555555556,-0.7411111111111112,-0.21444444444444444,0.025545033616147666,-0.12412674639523139,-0.1958446319663064
1592248036.5645928,-7.1270766018530605,6.304236982904868,1.8171603810518075,0.18222222222222223,-0.7333333333333333,-0.2288888888888889,0.04592586920284335,-0.09631200212850563,-0.1782676006846764
1592248036.5745928,-7.221471154531841,6.2,1.5938237181772803,0.18222222222222223,-0.7333333333333333,-0.2288888888888889,0.061984827597614346,-0.08309566647441428,-0.16420219838851932
1592248036.5845928,-7.217482210313626,6.2,1.5737490116840904,0.18222222222222223,-0.7333333333333333,-0.2288888888888889,0.06544984694978735,-0.08208436953160804,-0.15544295527157814
1592248036.5945928,-7.480331504384185,6.205235616873379,1.5995986309345285,0.18222222222222223,-0.7333333333333333,-0.2288888888888889,0.06535466074894002,-0.09329173371728272,-0.16291453139536125
1592248036.6045928,-7.228737142957957,6.249634621830949,1.6809968066900725,0.18222222222222223,-0.7333333333333333,-0.2288888888888889,0.06454746406027453,-0.0981349138492757,-0.16614331815002323
1592248036.6145928,-7.443162617536156,6.484938189107918,1.791704930552241,0.1688888888888889,-0.7333333333333333,-0.21444444444444444,0.06126672358774675,-0.10272021975757711,-0.1516216258970773
1592248036.6245928,-7.059727192205491,6.3177911868910535,1.8361122674933568,0.1688888888888889,-0.7333333333333333,-0.21444444444444444,0.0568931780196746,-0.10549867496561113,-0.13952732963303058
1592248036.6345928,-7.561332391713747,6.336619585687383,1.5007909604519774,0.1688888888888889,-0.7333333333333333,-0.21444444444444444,0.05908923525429837,-0.11445095176125245,-0.13062904049920954
1592248036.6445928,-7.169419892919619,6.102900535401904,1.6140607495626669,0.1688888888888889,-0.7333333333333333,-0.21444444444444444,0.07288074976935927,-0.10260137342070924,-0.1041653093850546
1592248036.6545928,-7.162008552294454,6.1399572385277335,1.6659401339388262,0.1688888888888889,-0.7333333333333333,-0.21444444444444444,0.08419907566025539,-0.10340982527005896,-0.08314556130196181
1592248036.6645927,-7.440131569555804,6.232532892388951,1.6362006614165736,0.19555555555555557,-0.7411111111111112,-0.21444444444444444,0.10025954941940297,-0.1104914700098639,-0.05765525098345124
1592248036.6745927,-7.088735499867174,6.159367749933587,1.7499530682723812,0.19555555555555557,-0.7411111111111112,-0.21444444444444444,0.12152162084449493,-0.11366610337332557,-0.05745127445436605
1592248036.6845927,-7.45869035460656,6.353326366292188,1.4933263662921883,0.19555555555555557,-0.7411111111111112,-0.21444444444444444,0.13998691047520093,-0.12297131824358612,-0.06290305515137348
1592248036.6945927,-7.281136387986143,6.386323881289954,1.5484886254062356,0.19555555555555557,-0.7411111111111112,-0.21444444444444444,0.16138097545966826,-0.13309189329274038,-0.07344576007870379
1592248036.7045927,-6.981554230206064,6.1691268168993965,1.6833005964072711,0.19555555555555557,-0.7411111111111112,-0.21444444444444444,0.17772064743932928,-0.11593523771409629,-0.07916464527158515
1592248036.7145927,-7.321296465058277,6.460181303659648,1.5227742337762002,0.19,-0.7355555555555555,-0.1988888888888889,0.19216818853147863,-0.09766940640107638,-0.09621562808449304
1592248036.7245927,-7.322582691634581,6.263708654182709,1.3758503237661883,0.19,-0.7355555555555555,-0.1988888888888889,0.2052977800093657,-0.0730229740201568,-0.11208586965419273
1592248036.7345927,-7.261873725621896,6.285485403123276,1.6286456209369826,0.19,-0.7355555555555555,-0.1988888888888889,0.2386383029956552,-0.025539732818234843,-0.11032164886945285
1592248036.7445927,-7.109730115614988,6.1926058643265085,1.5973941356734922,0.19,-0.7355555555555555,-0.1988888888888889,0.2577259044403869,-0.011633666990299905,-0.1135276172945561
1592248036.7545927,-7.4967929029112685,6.2437273645354505,1.5462726354645495,0.19,-0.7355555555555555,-0.1988888888888889,0.2848117159626822,-0.004463893352045281,-0.11512090032527936
1592248036.7645926,-7.356718025536772,6.3033975319209645,1.4466024680790355,0.2088888888888889,-0.7355555555555555,-0.17777777777777778,0.30542001373580313,-0.01685381153281058,-0.1293259168971842
1592248036.7745926,-7.234897565518159,6.17,1.5588565917254225,0.2088888888888889,-0.7355555555555555,-0.17777777777777778,0.32908651381399695,-0.005908364415237888,-0.1277519280463724
1592248036.7845926,-7.100989782276547,6.174618983957219,1.3805576776165012,0.2088888888888889,-0.7355555555555555,-0.17777777777777778,0.30623553388811026,-0.029020557137313562,-0.148352986419518
1592248036.7945926,-7.135280222568284,6.305222655771552,1.6779309198439223,0.2088888888888889,-0.7355555555555555,-0.17777777777777778,0.29708368189670464,-0.015896189840444056,-0.14865469176463744
1592248036.8045926,-7.289398785673042,6.165782051057724,1.3256599184616191,0.2088888888888889,-0.7355555555555555,-0.17777777777777778,0.2762691624085685,-0.002286696328970411,-0.15746083462500274
1592248036.8145926,-7.147691728775704,6.173652254133184,1.54,0.20222222222222222,-0.7355555555555555,-0.18444444444444444,0.23853496049837755,0.012419067808452647,-0.1797775249864535
1592248036.8245926,-7.135358276490849,6.06929560343081,1.5273208617545755,0.20222222222222222,-0.7355555555555555,-0.18444444444444444,0.21481682640572608,0.038240812796015926,-0.1954741209676571
1592248036.8345926,-7.466296226057272,6.060771619571401,1.3649383652569695,0.20222222222222222,-0.7355555555555555,-0.18444444444444444,0.21403851115594655,0.05358538136326416,-0.21301501688391902
1592248036.8445926,-7.231947058306218,6.1081250549643835,1.6763943364699674,0.20222222222222222,-0.7355555555555555,-0.18444444444444444,0.22916099403719323,0.06214588925213891,-0.23243348638468259
1592248036.8545926,-7.431131123032275,5.916318177820772,1.3075349573476387,0.20222222222222222,-0.7355555555555555,-0.18444444444444444,0.2380129836706949,0.05892698393086558,-0.24128547601818426
1592248036.8645926,-7.146085669634401,6.086639988634211,1.5486171623413525,0.22666666666666666,-0.7477777777777778,-0.18444444444444444,0.23749505702432494,0.04769050086994161,-0.2525510117850661
1592248036.8745925,-7.666159361835619,6.215775298019181,1.3207681276328762,0.22666666666666666,-0.7477777777777778,-0.18444444444444444,0.20835024379244377,0.020263377035056845,-0.26331073155068035
1592248036.8845925,-7.572175764094291,6.11239334050372,1.3395648471811419,0.22666666666666666,-0.7477777777777778,-0.18444444444444444,0.1816949914112824,0.03564140725495764,-0.24690749931611947
1592248036.8945925,-7.534694317311631,6.325447616333944,1.4162445461506954,0.22666666666666666,-0.7477777777777778,-0.18444444444444444,0.11908514158483682,0.016208840562656854,-0.2327720956968183
1592248036.9045925,-7.609388456538386,6.093895784731003,1.3564892347692912,0.22666666666666666,-0.7477777777777778,-0.18444444444444444,0.08730846171199466,0.013764480572438228,-0.22217986907253762
1592248036.9145925,-7.49,6.04,1.51,0.23444444444444446,-0.7422222222222222,-0.17777777777777778,0.02399827721492203,0.008726646259971648,-0.1854412330243975
1592248036.9245925,-7.691369822594328,5.943692693541843,1.4312031128978717,0.23444444444444446,-0.7422222222222222,-0.17777777777777778,0.02399827721492203,0.008726646259971648,-0.1854412330243975
1592248036.9345925,-7.659717970149254,5.829146746268656,1.4054302089552237,0.23444444444444446,-0.7422222222222222,-0.17777777777777778,0.0337534433981249,-0.00028000812133861276,-0.17674613293941338
1592248036.9445925,-7.500800405268491,5.664123606889564,1.3358156028368795,0.23444444444444446,-0.7422222222222222,-0.17777777777777778,0.03245304467804046,-0.023677769690176365,-0.1598503649709979
1592248036.9545925,-7.6849473150962515,5.904931104356637,1.4349716312056737,0.23444444444444446,-0.7422222222222222,-0.17777777777777778,0.027817511191693053,-0.03681178123482734,-0.1698940208580839
1592248036.9645925,-7.295741275377047,5.696698154606555,1.5796810402568309,0.23444444444444446,-0.7422222222222222,-0.19111111111111112,-0.001090830782496456,-0.05890486225480862,-0.2399827721492203
1592248036.9745924,-7.470238375515009,5.900079458505004,1.5698716439534568,0.23444444444444446,-0.7422222222222222,-0.19111111111111112,-0.0010668282579212182,-0.05887419236229582,-0.23998410562280784
1592248036.9845924,-7.8405414949970575,6.023513831665686,1.3704776565400463,0.23444444444444446,-0.7422222222222222,-0.19111111111111112,0.03621976019612321,-0.011230218226572372,-0.24205558275914363
1592248036.9945924,-7.527599120521951,5.8875424802236935,1.635417871567526,0.23444444444444446,-0.7422222222222222,-0.19111111111111112,0.06097064439365625,-0.0025107643491679293,-0.21212100447866192
1592248037.0045924,-7.6550563454641445,6.025056345464145,1.497690837262648,0.23444444444444446,-0.7422222222222222,-0.19111111111111112,0.08512098399246372,0.009685732947161772,-0.17651047675363923
1592248037.0145924,-7.503503555861436,5.742284927735719,1.2895430144528561,0.25333333333333335,-0.7477777777777778,-0.18444444444444444,0.08946474062810873,-0.019634954084936207,-0.14250003738545133
1592248037.0245924,-7.7248132599220005,5.886617343427392,1.2606765313145216,0.25333333333333335,-0.7477777777777778,-0.18444444444444444,0.09051435557443241,-0.019634954084936207,-0.11730927867368321
1592248037.0345924,-7.497166894042747,6.057639836289223,1.4276398362892224,0.25333333333333335,-0.7477777777777778,-0.18444444444444444,0.08241154633400806,-0.037921623464631224,-0.12179852411036941
1592248037.0445924,-7.88108533633684,5.92075894461885,1.1974832850056316,0.25333333333333335,-0.7477777777777778,-0.18444444444444444,0.0553578388886565,-0.05046218385388605,-0.12827792528542867
1592248037.0545924,-7.435105223123733,5.959615872210954,1.4635192697768762,0.25333333333333335,-0.7477777777777778,-0.18444444444444444,0.026389447988267135,-0.060547193184439435,-0.14031571534346432
1592248037.0645924,-7.654590531827735,5.961573754140989,1.285180066255833,0.26664117756484085,-0.7549435400562818,-0.14963931337742473,-0.009853264281120162,-0.05229906645397704,-0.13804552340592888
1592248037.0745924,-7.520915151658431,6.269988888626209,1.4760528617697817,0.2677777777777778,-0.7555555555555555,-0.14666666666666667,-0.03249280054354185,-0.016429821485995998,-0.10055608710960792
1592248037.0845923,-7.51932862693073,6.28067137306927,1.2661129536624656,0.2677777777777778,-0.7555555555555555,-0.14666666666666667,-0.04704449369619641,0.01634706007094518,-0.05747095676681555
1592248037.0945923,-7.262957607624055,6.151478803812028,1.3509809398619783,0.2677777777777778,-0.7555555555555555,-0.14666666666666667,-0.039985418600980836,0.057598410468147974,-0.028505347681017312
1592248037.1045923,-7.508914027940482,6.086217194411903,1.3062171944119036,0.2677777777777778,-0.7555555555555555,-0.14666666666666667,-0.023136224696129963,0.08382035053280226,-0.013713001550204865
1592248037.1145923,-7.428915700779303,5.729607183828475,1.3442430475889078,0.2789948178329839,-0.7555555555555555,-0.16808101586296928,0.01676416052910234,0.0999078704965749,0.00037313239353798863
1592248037.1245923,-7.89,5.99,1.37,0.28,-0.7555555555555555,-0.17,0.06326818538479445,0.11780972450961724,0.011999138607461015
1592248037.1345923,-7.375543371522095,5.694819967266776,1.4627708674304418,0.28,-0.7555555555555555,-0.17,0.07706781964552498,0.08561057790124599,0.007399260520550837
1592248037.1445923,-7.917762397322787,6.007196531791907,1.3543801338606634,0.28,-0.7555555555555555,-0.17,0.09754995702165542,0.07963064712224129,-0.021915095733502536
1592248037.1545923,-7.950834916864609,5.944155581947744,1.312077790973872,0.28,-0.7555555555555555,-0.17,0.09640191129842536,0.060720149775514126,-0.029998882937448255
1592248037.1645923,-7.647114346006653,5.75674201509353,1.4791090525412212,0.28,-0.7566090426060382,-0.1636790776971041,0.08042265917148046,-0.0007833116213091032,-0.05978536116748004
1592248037.1745923,-7.624091483646706,5.7736340654131775,1.507725549059883,0.28,-0.7566666666666667,-0.16333333333333333,0.07640805136371269,-0.011651241319663717,-0.05464133230274434
1592248037.1845922,-7.909333441103567,5.994235370190753,1.2391763659877142,0.28,-0.7566666666666667,-0.16333333333333333,0.04539993867210227,-0.05179950277456585,-0.0659589071929068
1592248037.1945922,-7.671411484977304,5.855097869683215,1.0413331892307323,0.28,-0.7566666666666667,-0.16333333333333333,0.02223581932336202,-0.07880078051642536,-0.06776839615890794
1592248037.2045922,-7.728279830838137,5.83,1.2296636391213576,0.28,-0.7566666666666667,-0.16333333333333333,0.0067701543117221746,-0.08824470857384122,-0.06977564181031594
1592248037.2145922,-7.617746074758906,5.8480282139156765,1.3039435721686459,0.28,-0.7636776387449855,-0.16934273797189237,-0.004916432673162874,-0.11719523563014925,-0.08663658541639083
1592248037.2245922,-7.544147641509434,5.868617452830189,1.3558523584905662,0.28,-0.7644444444444445,-0.17,0.001653817811113672,-0.12303765967043699,-0.09648068963775117
1592248037.2345922,-7.7223599332220365,5.939470450751252,1.4207866444073456,0.28,-0.7644444444444445,-0.17,0.024915813411003854,-0.1223166220951824,-0.09708393964218458
1592248037.2445922,-7.6410087260034905,5.941616055846422,1.505455497382199,0.28,-0.7644444444444445,-0.17,0.046652529067815265,-0.13589124418178364,-0.09982757895062068
1592248037.2545922,-7.542312985571587,5.739308546059934,1.4358390677025528,0.28,-0.7644444444444445,-0.17,0.06288972400565083,-0.14277267871398786,-0.09611926265273599
1592248037.2645922,-7.426864012501332,5.833155520829633,1.4306311041659268,0.2700679523149957,-0.7698619249999014,-0.1645825194445431,0.05385737278540853,-0.156604125451292,-0.09647074684375599
1592248037.2745922,-7.812905190741227,6.204075914291857,1.404964766022502,0.2677777777777778,-0.7711111111111111,-0.16333333333333333,0.030114022355161158,-0.15352866749028948,-0.08561868613379839
1592248037.2845922,-7.460362407862408,5.882162162162162,1.3665601965601966,0.2677777777777778,-0.7711111111111111,-0.16333333333333333,0.0026486818692926864,-0.16001174294005752,-0.07943432438313106
1592248037.2945921,-7.396638643385788,5.768403391535532,1.5513443989365525,0.2677777777777778,-0.7711111111111111,-0.16333333333333333,-0.00036666712657314237,-0.1478304975213272,-0.07309483302448551
1592248037.3045921,-7.6215804314112505,5.8153951078528126,1.5407599041308333,0.2677777777777778,-0.7711111111111111,-0.16333333333333333,0.003357038269197732,-0.14306627111051,-0.06528075510637063
1592248037.3145921,-7.60602142310635,5.757612853863811,1.6331828615149195,0.2669223412394797,-0.7659784918813228,-0.1402365467992859,0.0298090167829679,-0.13844871029412747,-0.05772723238938972
1592248037.324592,-7.712812854442344,5.611145557655955,1.5596351606805294,0.26666666666666666,-0.7644444444444445,-0.13333333333333333,0.07042683972225133,-0.13929682265662965,-0.06042748881396814
1592248037.334592,-7.691053030129191,5.712367424677024,1.482895201817389,0.26666666666666666,-0.7644444444444445,-0.13333333333333333,0.10394446652133804,-0.13606681606321266,-0.059306761771634686
1592248037.344592,-7.817297882980497,5.731923653942324,1.381160193365561,0.26666666666666666,-0.7644444444444445,-0.13333333333333333,0.11810284323296852,-0.1528828708091749,-0.0633098256997122
1592248037.354592,-7.6811844611796545,5.657650483362709,1.438378643023732,0.26666666666666666,-0.7644444444444445,-0.13333333333333333,0.13051419672083636,-0.15050287602559828,-0.06107063784034521
1592248037.364592,-7.77873410298699,5.739559098405717,1.4684068169323803,0.27146515179280434,-0.7732416671756969,-0.13333333333333333,0.1398001294727775,-0.1461713248545251,-0.05890486225480862
1592248037.374592,-7.639356429745765,5.8553758726679215,1.4845159522504705,0.2733333333333333,-0.7766666666666666,-0.13333333333333333,0.1309114939704664,-0.13993134859988557,-0.06157913779251128
1592248037.384592,-7.74687540053099,5.799406069761055,1.4507811498672525,0.2733333333333333,-0.7766666666666666,-0.13333333333333333,0.12016180653879859,-0.11543369972843522,-0.04848739332904484
1592248037.394592,-7.657866258783041,5.671183977821328,1.4555451460255246,0.2733333333333333,-0.7766666666666666,-0.13333333333333333,0.11017901879824715,-0.09043024206629648,-0.03963692494144129
1592248037.404592,-7.6909890109890116,5.7583150183150185,1.5428205128205128,0.2733333333333333,-0.7766666666666666,-0.13333333333333333,0.10218447258671472,-0.06443493479317894,-0.03624315242723115
1592248037.414592,-7.6333626192600725,5.6667142562976185,1.5600109822225274,0.26889010913583633,-0.7685207556379222,-0.1392576322633293,0.08218031152174377,-0.04872417427638813,-0.03708764761755985
1592248037.424592,-7.796446374169405,5.780985918871591,1.5013488617554633,0.26666666666666666,-0.7644444444444445,-0.14222222222222222,0.07080354509970567,-0.031131813879577412,-0.03480612927732263
1592248037.434592,-7.6755449339832476,5.670916189484643,1.474628744498604,0.26666666666666666,-0.7644444444444445,-0.14222222222222222,0.07065154201310023,-0.03037179844655015,-0.03800761392402534
1592248037.444592,-7.780211115591717,5.520821690347985,1.492887302227388,0.26666666666666666,-0.7644444444444445,-0.14222222222222222,0.08671591093429491,-0.031634092692397225,-0.042598731342930365
1592248037.454592,-7.922188717356803,5.6109976915308035,1.5115235896696004,0.26666666666666666,-0.7644444444444445,-0.14222222222222222,0.10105750048204598,-0.03791923586062634,-0.048661345834441525
1592248037.464592,-7.73595497879436,5.7668539529488525,1.6135955341283938,0.27483770536041535,-0.7689013746410346,-0.13627964862676864,0.12476530792303014,-0.04035461002311644,-0.05381840455599345
1592248037.474592,-7.7577677661062765,5.706672989827615,1.5200094847414223,0.2788888888888889,-0.7711111111111111,-0.13333333333333333,0.15938071581095367,-0.015515647211846301,-0.036725843406303214
1592248037.484592,-7.951554211261052,5.786087947882736,1.2526686831084224,0.2788888888888889,-0.7711111111111111,-0.13333333333333333,0.17185670968777353,-0.01120644624287954,-0.016755292794949868
1592248037.494592,-7.805602636758116,5.872337751642045,1.4342119365470798,0.2788888888888889,-0.7711111111111111,-0.13333333333333333,0.1644705524689968,-0.02097068055540071,-0.00221200193698135
1592248037.504592,-7.700970770025472,5.8565463743075465,1.564604834256604,0.2788888888888889,-0.7711111111111111,-0.13333333333333333,0.1559691191057592,-0.020349052745777835,0.008997483798975551
1592248037.514592,-7.705764469722315,5.8872231515557045,1.7645165607226498,0.28365748485186426,-0.7711111111111111,-0.1230013754135534,0.1344597655901913,-0.019794071589509125,0.01683215033466094
1592248037.524592,-7.778952942849019,5.890349019050327,1.7546712396929203,0.28555555555555556,-0.7711111111111111,-0.11888888888888889,0.1265554068057776,-0.0160813409667658,0.018525087266251034
1592248037.534592,-7.737786203194203,5.842275533485438,1.6154489330291237,0.28555555555555556,-0.7711111111111111,-0.11888888888888889,0.10750253749970173,0.00019588398697896383,0.019040567696943237
1592248037.544592,-7.69,5.768292226038089,1.5482922260380894,0.28555555555555556,-0.7711111111111111,-0.11888888888888889,0.09178269956714873,0.009026003193413542,0.011210900129131934
1592248037.554592,-7.7131027462711375,5.812840791059038,1.4253458805932941,0.28555555555555556,-0.7711111111111111,-0.11888888888888889,0.07286954931137346,0.0363541826145145,0.005331809914088114
1592248037.564592,-7.765050609914352,5.874949390085648,1.4280404879314819,0.27231421403235573,-0.785131355076852,-0.10408974248060675,0.06872233929727672,0.05706038715801018,0.004577072738287101
1592248037.5745919,-7.566451958705227,5.852373284239472,1.4323732842394723,0.26666666666666666,-0.7911111111111111,-0.09777777777777778,0.06705844803308984,0.05999569303730508,-0.002551127077164697
1592248037.5845919,-7.598942098001691,5.701586852997463,1.4017308291423738,0.26666666666666666,-0.7911111111111111,-0.09777777777777778,0.07039528795317758,0.06153753712566259,-0.014385309704309655
1592248037.5945919,-7.931314535619749,5.904831396017953,1.3966207849004488,0.26666666666666666,-0.7911111111111111,-0.09777777777777778,0.08716135918953048,0.05928849221281905,-0.022155201289288416
1592248037.6045918,-7.830979482855537,5.714357785272625,1.4,0.26666666666666666,-0.7911111111111111,-0.09777777777777778,0.0893301909884867,0.037615215775756675,-0.04071453848103691
1592248037.6145918,-8.101968390804599,5.662140804597701,1.3067241379310346,0.2761669859514687,-0.7850654533844189,-0.10468710089399745,0.09041513938425007,0.040594264507817106,-0.051026117508242985
1592248037.6245918,-8.119258872651358,5.711623976232536,1.19863216637225,0.2788888888888889,-0.7833333333333333,-0.10666666666666667,0.08021797374919086,0.035425548616752775,-0.05211436618329724
1592248037.6345918,-7.678267489025949,5.581719731066289,1.07,0.2788888888888889,-0.7833333333333333,-0.10666666666666667,0.03791505233383623,0.03043070577481737,-0.05102447811548016
1592248037.6445918,-7.749129113566229,5.983573531836706,1.1930029916845304,0.2788888888888889,-0.7833333333333333,-0.10666666666666667,0.011003306797966121,0.06568242355369247,-0.03508347790711482
1592248037.6545918,-7.972859400746544,6.092990718633352,1.2354018562733295,0.2788888888888889,-0.7833333333333333,-0.10666666666666667,-0.015758886067567673,0.06996406399724298,-0.032311015241571595
1592248037.6645918,-7.833133267820696,5.943116637689924,1.3282666868244009,0.2788888888888889,-0.77965555471565,-0.09869814632835269,-0.03261220401917725,0.09012262683315153,-0.029001553304538588
1592248037.6745918,-7.77840314330195,5.706197642523538,1.310798428349025,0.2788888888888889,-0.7766666666666666,-0.09222222222222222,-0.027579766850566116,0.1044978528535785,-0.015358725977023827
1592248037.6845918,-8.067953112687155,5.708353690570003,1.162569608615708,0.2788888888888889,-0.7766666666666666,-0.09222222222222222,-0.005081661131487957,0.10705915305075836,0.003071059712843974
1592248037.6945918,-8.096697762668986,5.708009328800696,1.05868843386829,0.2788888888888889,-0.7766666666666666,-0.09222222222222222,0.015557770296900201,0.08669418391581685,0.01221628714966404
1592248037.7045918,-8.081427750336776,5.791422002694207,1.1371358778625955,0.2788888888888889,-0.7766666666666666,-0.09222222222222222,0.008415786427100723,0.0660740744977054,0.0037406630084279007
1592248037.7145917,-7.831724827558059,5.808344965511612,1.232137871923595,0.274789282977112,-0.7725670607548898,-0.08156324685160243,-0.024148672153221404,0.04625877609008643,-0.012127005470337219
1592248037.7245917,-7.897021211890824,5.674300159659393,1.1738858055196533,0.2733333333333333,-0.7711111111111111,-0.07777777777777778,-0.04714880317471756,0.0407394155548838,-0.013919392233091894
1592248037.7345917,-8.057268137474033,5.342715033264088,0.996357516632044,0.2733333333333333,-0.7711111111111111,-0.07777777777777778,-0.10412742674766598,0.03513775086796882,-0.005156153938794944
1592248037.7445917,-7.876741915363209,5.372172056424527,1.2081321370309952,0.2733333333333333,-0.7711111111111111,-0.07777777777777778,-0.13511707222402405,0.020282245597388223,-0.018103436459112807
1592248037.7545917,-7.7867815573400705,5.515191735089777,1.3941189208698006,0.2733333333333333,-0.7711111111111111,-0.07777777777777778,-0.14132109927204356,0.015875559284951126,-0.0451357687649481
1592248037.7645917,-7.916396553604537,5.606255862144182,1.3323710328280074,0.2733333333333333,-0.7711111111111111,-0.08194835254056543,-0.15136172352163768,0.01022078343931214,-0.09698019829172794
1592248037.7745917,-7.900491328316768,5.598053599452738,1.3057498692205545,0.2733333333333333,-0.7711111111111111,-0.08444444444444445,-0.16446415017178145,0.006544984694978735,-0.1323615678032511
1592248037.7845917,-7.595293773750365,5.492016954106986,1.4398041508330897,0.2733333333333333,-0.7711111111111111,-0.08444444444444445,-0.20260117146076972,0.026925440787946717,-0.2274396530346155
1592248037.7945917,-7.96569300375193,5.381148532332818,1.3505742661664093,0.2733333333333333,-0.7711111111111111,-0.08444444444444445,-0.19363902737973224,0.06900062031724752,-0.2418843470816031
1592248037.8045917,-8.260754250033315,5.4656734375297455,1.4908620000380741,0.2733333333333333,-0.7711111111111111,-0.08444444444444445,-0.1695330954861446,0.08563315485152194,-0.23505346464913526
1592248037.8145916,-8.142634698067166,5.540978037727079,1.594850292442964,0.2733333333333333,-0.7745154140467306,-0.08035928092170104,-0.11327874376856328,0.11090766459509799,-0.20652409311137068
1592248037.8245916,-8.08401816626614,5.567787870147855,1.6039187813123703,0.2733333333333333,-0.7766666666666666,-0.07777777777777778,-0.07095914000124882,0.1320836080794615,-0.17248864495412067
1592248037.8345916,-8.328834493722931,5.475472013595746,1.433857792884162,0.2733333333333333,-0.7766666666666666,-0.07777777777777778,0.01656778861051858,0.13674034193777787,-0.07884812060481584
1592248037.8445916,-8.303439609902476,5.59758064516129,1.3302550637659416,0.2733333333333333,-0.7766666666666666,-0.07777777777777778,0.0746699447940391,0.1374725017352923,-0.022789198084285485
1592248037.8545916,-8.030852239568135,5.501579916836883,1.288835716370003,0.2733333333333333,-0.7766666666666666,-0.07777777777777778,0.1137162841195524,0.13350770494114483,0.007810445485659351
1592248037.8645916,-8.13992712773271,5.516269764883817,1.2818286814244466,0.2699129199321692,-0.7766666666666666,-0.06694646867409139,0.14038548219249092,0.13551948899959615,0.03922318827591563
1592248037.8745916,-8.440625140488024,5.784687429755988,1.5581245785359275,0.26666666666666666,-0.7766666666666666,-0.056666666666666664,0.10900134563026226,0.12086409974017895,0.0691654663153667
1592248037.8845916,-8.090751913737757,5.684807391554861,1.4920215655609514,0.26666666666666666,-0.7766666666666666,-0.056666666666666664,0.0826543826434152,0.12202144110604103,0.0716633803455986
1592248037.8945916,-8.09336464240214,5.482027678549125,1.4198158926831705,0.26666666666666666,-0.7766666666666666,-0.056666666666666664,0.03850580070385899,0.16224224257503683,0.07073309105067818
1592248037.9045916,-8.345131318990049,5.644834423882112,1.5150513856917585,0.26666666666666666,-0.7766666666666666,-0.056666666666666664,0.03434933621760894,0.16962605511467724,0.08289192885086068
1592248037.9145916,-7.860857142857143,5.741142857142857,1.3234285714285714,0.2733015873015873,-0.7700317460317461,-0.07174603174603175,0.051237880183547815,0.17450175860564732,0.10515608743265835
1592248037.9245915,-7.661946276910922,5.677260912502469,1.2192407663440648,0.2788888888888889,-0.7644444444444445,-0.08444444444444445,0.06282892293183102,0.19067209303544203,0.12173378518663965
1592248037.9345915,-8.013038995965934,5.410735096369341,1.1094441954280592,0.2788888888888889,-0.7644444444444445,-0.08444444444444445,0.11929806556829911,0.22370049698655134,0.14860430287949256
1592248037.9445915,-7.360621867019767,5.5259540811501,1.1894982502600966,0.2788888888888889,-0.7644444444444445,-0.08444444444444445,0.15332416940600374,0.21866339086571904,0.14233260229403694
1592248037.9545915,-7.748831352369909,5.664651036382084,1.148838599797072,0.2788888888888889,-0.7644444444444445,-0.08444444444444445,0.18221929773484455,0.21560403232082065,0.14228997373972188
1592248037.9645915,-7.9927329116003945,5.48858938547486,0.9912594479132435,0.2676294409756454,-0.7713252181692044,-0.05942344908168109,0.2138110782289825,0.1954524194602575,0.1340265569321153
1592248037.9745915,-7.641061854845163,5.365810994638713,0.972345362887093,0.2588888888888889,-0.7766666666666666,-0.04,0.21922643668773517,0.18684900439833546,0.12082000547272481
1592248037.9845915,-7.929457328637225,5.585127607694392,0.9960105662422108,0.2588888888888889,-0.7766666666666666,-0.04,0.18204458516032002,0.18989159209733789,0.08124369356246497
1592248037.9945915,-7.760689557388283,5.634865893139873,0.9303447786941419,0.2588888888888889,-0.7766666666666666,-0.04,0.15430866935589732,0.18556661528037177,0.047068715424593746
1592248038.0045915,-7.828586900841565,5.61040761068423,0.7916304427369191,0.2588888888888889,-0.7766666666666666,-0.04,0.12537736805235025,0.19167497372223363,0.03647613607138643
1592248038.0145915,-7.83522007351766,5.539592136806776,0.8104078631932236,0.25361518654662335,-0.7828992239802532,-0.030890877772450413,0.08985206453917707,0.1986806795300514,0.016057266217574966
1592248038.0245914,-7.95147216767997,5.848605900026023,0.947147926474415,0.24666666666666667,-0.7911111111111111,-0.01888888888888889,0.07495543686308292,0.1943234357641517,-0.02618110003432606
1592248038.0345914,-7.564445006088735,5.723897249730028,0.699823082048572,0.24666666666666667,-0.7911111111111111,-0.01888888888888889,0.05755758360413893,0.18840281491404,-0.05809506645528973
1592248038.0445914,-8.032517369273364,5.693808180535966,0.5994703024604293,0.24666666666666667,-0.7911111111111111,-0.01888888888888889,0.0402866891899568,0.19938726211479085,-0.0826972589067489
1592248038.0545914,-8.83024215707593,5.751004408247178,0.6846367643861071,0.24666666666666667,-0.7911111111111111,-0.01888888888888889,0.03652962359400016,0.18932908184766328,-0.0917354466867512
1592248038.0645914,-8.235816633111352,5.584653244540808,0.8143623973981725,0.2532015900056786,-0.776853096553267,-0.015918469189338015,0.04299630235202362,0.14567349921570513,-0.1199059711692934
1592248038.0745914,-7.770523227581742,5.573845095500162,0.9246127387504046,0.2588888888888889,-0.7644444444444445,-0.013333333333333334,0.04953498249845714,0.12312381666777525,-0.14116476822815943
1592248038.0845914,-8.205744032638355,5.682329721567276,0.7952364426312025,0.2588888888888889,-0.7644444444444445,-0.013333333333333334,0.052308293779747855,0.07351347546946663,-0.14793653047847485
1592248038.0945914,-8.125895436093,5.788731947348998,0.8353726165580022,0.2588888888888889,-0.7644444444444445,-0.013333333333333334,0.05191213909398197,0.013098477038082736,-0.1498915556678624
1592248038.1045914,-8.03296204937423,5.7548927394407485,0.8497854788814978,0.2588888888888889,-0.7644444444444445,-0.013333333333333334,0.053474108966282116,-0.020519678523543187,-0.14442977587297942
1592248038.1145914,-8.023450355492848,5.789270755526046,0.9038149777298254,0.2588888888888889,-0.7644444444444445,-0.006242780252241619,0.06578644823199516,-0.03974571885810716,-0.12677501546563508
1592248038.1245914,-7.953695477962221,5.813830566685747,0.964610188895249,0.2588888888888889,-0.7644444444444445,0.0011111111111111111,0.07627311118426765,-0.05068847753774258,-0.10168765764982417
1592248038.1345913,-7.8937201497042135,5.68941977544368,0.8072939756127007,0.2588888888888889,-0.7644444444444445,0.0011111111111111111,0.06492809717384936,-0.04006555748238365,-0.0801417559314733
1592248038.1445913,-8.12192698954655,5.652681415308342,0.8475973433736349,0.2588888888888889,-0.7644444444444445,0.0011111111111111111,0.05620216005155911,-0.02280994742045903,-0.05727778690649617
1592248038.1545913,-8.36374089824707,5.558229021885697,0.9608976247277253,0.2588888888888889,-0.7644444444444445,0.0011111111111111111,0.06354023118226716,-0.02462123086311921,-0.039971723871321335
1592248038.1645913,-8.262506673137588,5.337607376850279,0.9092550351856346,0.2563180457817682,-0.7608452640944755,0.014479495268138801,0.08511921210041745,-0.025414160217973124,-0.03474405892960927
1592248038.1745913,-8.059002240782236,5.301256467712365,0.9325646771236504,0.25333333333333335,-0.7566666666666667,0.03,0.10282350057382318,-0.02730463442516399,-0.03749942470223771
1592248038.1845913,-8.37370326622843,5.4046682415776495,0.9411097986852917,0.25333333333333335,-0.7566666666666667,0.03,0.13720255808089538,-0.09660759750251904,-0.04265556188654024
1592248038.1945913,-8.327941756693283,5.539631047440113,0.7597087834664162,0.25333333333333335,-0.7566666666666667,0.03,0.15331785481967292,-0.1593163481512835,-0.05254415059455269
1592248038.2045913,-8.199050865821082,5.460516317038088,0.6870690975659873,0.25333333333333335,-0.7566666666666667,0.03,0.1337911809985049,-0.19912838504455735,-0.050526088580322176
1592248038.2145913,-8.001184529188505,5.397630941622989,0.7791552503162841,0.24836138723216258,-0.7598306323674118,0.032711970600638594,0.0887078654583805,-0.2281138708117606,-0.04370735968847538
1592248038.2245913,-7.89755844344417,5.556220778277915,0.8951393930593873,0.2411111111111111,-0.7644444444444445,0.03666666666666667,0.05911037306362075,-0.2571113655107321,-0.05206558924940757
1592248038.2345912,-7.8909991259696275,5.580854910958156,0.9393275428821152,0.2411111111111111,-0.7644444444444445,0.03666666666666667,0.02656869547307603,-0.24647222017374745,-0.07021974379489244
1592248038.2445912,-7.99820172856369,5.433264960082896,1.0211042554694676,0.2411111111111111,-0.7644444444444445,0.03666666666666667,0.013294710490126954,-0.23536995773129896,-0.08300121996163116
1592248038.2545912,-7.910365744870651,5.445182872435326,1.0996342551293488,0.2411111111111111,-0.7644444444444445,0.03666666666666667,0.026476730384430033,-0.22231248117745123,-0.09930549778352214
1592248038.2645912,-7.90369040851133,5.541859010801592,1.0285210752862828,0.2439921672667551,-0.7570360143299314,0.04078246117472951,0.05595652728839247,-0.2172366513770665,-0.10625460798303597
1592248038.2745912,-8.082649102489867,5.634508540822235,0.9878633468442386,0.24888888888888888,-0.7444444444444445,0.04777777777777778,0.06468067544695871,-0.23052422075362747,-0.0950537911252237
1592248038.2845912,-8.357818956731215,5.626670527193552,0.9,0.24888888888888888,-0.7444444444444445,0.04777777777777778,0.058178483969456816,-0.24459032696510463,-0.07708832312350997
1592248038.2945912,-8.145672219699323,5.635745835225507,0.9858194507516911,0.24888888888888888,-0.7444444444444445,0.04777777777777778,0.04986081419397864,-0.23764642478789977,-0.05172105885401167
1592248038.3045912,-8.068225046436602,5.620572294456936,1.149427705543064,0.24888888888888888,-0.7444444444444445,0.04777777777777778,0.04247786138454657,-0.23272996848506158,-0.027204118937808767
1592248038.3145912,-8.093242568640798,5.613242568640799,1.2313886997957795,0.2501646370672919,-0.7425308221768399,0.055751203892796815,0.04443124319973765,-0.2070353261253218,-0.007767002297244451
1592248038.3245912,-7.988587371854614,5.513235321528425,1.1077451071761417,0.25333333333333335,-0.7377777777777778,0.07555555555555556,0.043387260649508735,-0.16314823032444245,-0.0016440232990812152
1592248038.3345912,-7.766044042469525,5.34431773495871,1.1041014549744397,0.25333333333333335,-0.7377777777777778,0.07555555555555556,0.022405140948232358,-0.13226505543346628,-0.005509060062761299
1592248038.3445911,-8.007552907021163,5.444894185957675,1.1689365115746047,0.25333333333333335,-0.7377777777777778,0.07555555555555556,0.008560328387590098,-0.10766730673669198,0.0009825172056774048
1592248038.3545911,-8.200063206919495,5.284233200266135,1.0953992015968064,0.25333333333333335,-0.7377777777777778,0.07555555555555556,0.0159075860269148,-0.11403536290990146,-0.0019742730779015193
1592248038.3645911,-8.345858258993644,5.368693079120751,1.1672756690571977,0.251492559552731,-0.7267331350941636,0.06405071942679079,0.049254053165552106,-0.12277945695076349,-0.000407113744898829
1592248038.374591,-8.339385087153001,5.484304389928987,1.2154906391220142,0.24888888888888888,-0.7111111111111111,0.04777777777777778,0.07448951727871941,-0.1304349112549991,0.010219936559702917
1592248038.384591,-8.109015209595647,5.663784592555954,1.0436923457400766,0.24888888888888888,-0.7111111111111111,0.04777777777777778,0.08611185726621665,-0.1598755154700515,0.03803140315209994
1592248038.394591,-7.923984759332497,5.611503810166876,1.0676316677920326,0.24888888888888888,-0.7111111111111111,0.04777777777777778,0.0757594447185732,-0.15320843027582157,0.05362703318883627
1592248038.404591,-7.885467886637752,5.558866971659437,1.1117241993939755,0.24888888888888888,-0.7111111111111111,0.04777777777777778,0.061081144522377305,-0.14022817336293666,0.062300948821430585
1592248038.414591,-7.947395567628449,5.524708318150197,1.2841249544505913,0.24602893813746166,-0.7111111111111111,0.0547233724598153,0.04627963512786791,-0.11926758640675962,0.06602707989508164
1592248038.424591,-8.380858164481527,5.548450536352801,1.3596901072705603,0.2411111111111111,-0.7111111111111111,0.06666666666666667,0.04133325554987465,-0.09867403028222411,0.06309916512052205
1592248038.434591,-7.974610668007951,5.349691743910325,1.2099707791430145,0.2411111111111111,-0.7111111111111111,0.06666666666666667,0.03016844314135165,-0.05298138800638268,0.051549363978488
1592248038.444591,-7.977765135453475,5.272479387514723,1.1268694935217904,0.2411111111111111,-0.7111111111111111,0.06666666666666667,0.023191242313742203,-0.03684880346633293,0.05179228579719663
1592248038.454591,-7.792613047434426,5.499135577797998,1.284852632828263,0.2411111111111111,-0.7111111111111111,0.06666666666666667,0.02542343034864688,-0.03370860021090761,0.05486943137016077
1592248038.464591,-8.360722880499678,5.609595848259392,1.1382263249747406,0.2411111111111111,-0.7111111111111111,0.07002694344937387,0.0351353318642128,-0.030719105395092393,0.05145370748571415
1592248038.474591,-7.865520614954578,5.414106685301654,1.0734125320288843,0.2411111111111111,-0.7111111111111111,0.08333333333333333,0.03408916071487119,-0.012057326413002988,0.025947187557747053
1592248038.484591,-8.06,5.42,0.82,0.2411111111111111,-0.7111111111111111,0.08333333333333333,0.025089107997418484,-0.015271630954950384,0.01308996938995747
1592248038.494591,-8.196482530301786,5.456220963637856,0.9275580727242879,0.2411111111111111,-0.7111111111111111,0.08333333333333333,-0.0696926531107803,-0.018117628134805226,0.0026826814655583997
1592248038.504591,-8.26,5.38,1.08,0.2411111111111111,-0.7111111111111111,0.08333333333333333,-0.1112647398146385,-0.002181661564992912,0.00545415391248228
1592248038.514591,-7.992772077375946,5.348692010092515,1.411425063078217,0.2399625829361742,-0.7088140547612373,0.08582181104569667,-0.13895235536051087,0.003080307963706896,0.009515090309153694
1592248038.524591,-8.122203158915623,5.07015332748349,1.0659386690066042,0.23444444444444446,-0.6977777777777778,0.09777777777777778,-0.12741614370498477,0.025304347202988898,0.019854374648976447
1592248038.534591,-8.34593201530901,5.277438005299273,0.9446740041216568,0.23444444444444446,-0.6977777777777778,0.09777777777777778,-0.12787962152933807,0.023883084970458393,0.028920540881737004
1592248038.544591,-8.158571651009497,5.30214200446359,0.917856957492085,0.23444444444444446,-0.6977777777777778,0.09777777777777778,-0.11804338095013019,0.02984200950568625,0.03833494270860982
1592248038.554591,-8.15848980090885,5.516482383388014,1.0374768202473865,0.23444444444444446,-0.6977777777777778,0.09777777777777778,-0.1421876685426478,0.030543261909900768,0.025091130812433
1592248038.564591,-8.09133769103296,5.593779230344319,1.2246510771496961,0.23067830765768532,-0.6922997606334009,0.10188629063606047,-0.1624576634348064,0.029534881143278884,0.004185769380818659
1592248038.574591,-7.78,5.49,1.28,0.2222222222222222,-0.68,0.1111111111111111,-0.17453292519943295,0.0272707695624114,-0.01090830782496456
1592248038.584591,-8.301023429993348,5.6393700263618225,1.3164566754539408,0.2222222222222222,-0.68,0.1111111111111111,-0.1932832068928784,0.020631265370474373,-0.005857790058293072
1592248038.594591,-8.169664022622158,5.51818303817489,1.3062290014138849,0.2222222222222222,-0.68,0.1111111111111111,-0.20291285026763947,0.016006083773494332,0.03131436417504205
1592248038.604591,-8.225124204725049,5.3015236860234225,1.277377720144264,0.2222222222222222,-0.68,0.1111111111111111,-0.20341326360944578,0.03304421150593359,0.07085763049752357
1592248038.614591,-8.544514678486543,5.260338536648038,1.2848532151345795,0.22740280365159918,-0.681523700420405,0.11324429169967809,-0.1888885582107337,0.030612214019490054,0.109543529786344
1592248038.6245909,-8.53,5.42,1.43,0.2411111111111111,-0.6855555555555556,0.11888888888888889,-0.1778054175469223,0.016362461737446838,0.13962634015954636
1592248038.6345909,-8.515462901993835,5.475396528564279,1.16,0.2411111111111111,-0.6855555555555556,0.11888888888888889,-0.15666076308278684,-0.014934443659051881,0.16505102651552778
1592248038.6445909,-7.56,5.33,1.16,0.2411111111111111,-0.6855555555555556,0.11888888888888889,-0.148352986419518,-0.03381575425739013,0.16580627893946132
1592248038.6545908,-8.322337152652471,5.544585212919523,1.233693161313605,0.2411111111111111,-0.6855555555555556,0.11888888888888889,-0.12534141701994328,-0.07997318019139311,0.17218681233188216
1592248038.6645908,-7.917155935306683,5.671440341776015,1.4485779676533415,0.23706472722340893,-0.6829373071576307,0.1219831824500729,-0.10495343324273347,-0.12864047250170976,0.1763247903511505
1592248038.6745908,-7.76,5.53,1.37,0.2222222222222222,-0.6733333333333333,0.13333333333333333,-0.10581058590215622,-0.12435470920459597,0.17889624832941878
1592248038.6845908,-8.261543781678359,5.565876757134653,1.4741232428653466,0.2222222222222222,-0.6733333333333333,0.13333333333333333,-0.09272061651219875,-0.11325512264538078,0.1959448132413648
1592248038.6945908,-8.027782053109116,5.687782053109116,1.479961046981141,0.2222222222222222,-0.6733333333333333,0.13333333333333333,-0.09641755401381041,-0.09775032527055874,0.2085863708158707
1592248038.7045908,-8.057762077676035,5.820228133880644,1.590228133880644,0.2222222222222222,-0.6733333333333333,0.13333333333333333,-0.1043399491618214,-0.08656788054803521,0.2080299033629802
1592248038.7145908,-7.506823751178134,5.597964184731385,1.3761074458058435,0.2213174154361713,-0.671976123154257,0.13220232485076971,-0.09431008342053006,-0.0842900675805579,0.21452354249138833
1592248038.7245908,-8.039185776622412,5.646954321789992,1.4538436542568007,0.2088888888888889,-0.6533333333333333,0.11666666666666667,-0.07744544093953531,-0.08533530423224514,0.21414038225038054
1592248038.7345908,-7.828856475544971,5.853305550467119,1.4233472247664407,0.2088888888888889,-0.6533333333333333,0.11666666666666667,-0.05387820350724727,-0.07581501236393066,0.225619409186208
1592248038.7445908,-7.8456594180412,5.912713341130977,1.4147284749242117,0.2088888888888889,-0.6533333333333333,0.11666666666666667,-0.038762574081452845,-0.06791056309420916,0.2309601462863404
1592248038.7545907,-7.671531944796892,5.832038298619922,1.4690425345019422,0.2088888888888889,-0.6533333333333333,0.11666666666666667,-0.02066311889712508,-0.05966890586560598,0.24465199379413605
1592248038.7645907,-7.987907843776016,5.821170593984146,1.2771133311615448,0.20860993472569106,-0.6524499784832068,0.11699211319039748,-0.008000965623221282,-0.036631808922696886,0.2634835875684832
1592248038.7745907,-7.94,5.39,1.44,0.20222222222222222,-0.6322222222222222,0.12444444444444444,-0.016362461737446838,-0.02617993877991494,0.27707101875409984
1592248038.7845907,-7.959871940887247,5.512240062223951,1.512415900441679,0.20222222222222222,-0.6322222222222222,0.12444444444444444,0.0005218558219993322,0.014411183973096183,0.23732637390072586
1592248038.7945907,-7.790605583392985,5.560098305893582,1.2664648055356718,0.20222222222222222,-0.6322222222222222,0.12444444444444444,0.004076781586571281,0.010687825182193682,0.20656337129569216
1592248038.8045907,-7.699675255017456,5.396216769713873,1.2773513292114451,0.20222222222222222,-0.6322222222222222,0.12444444444444444,0.0012205705205874508,-0.001509495683472939,0.17449750101709094
1592248038.8145907,-7.63777145511555,5.593579142956683,1.2996272209964,0.20441683118491852,-0.6340053420044129,0.12499309668511852,0.006019901244340272,-0.011419836648529847,0.15616412529764065
1592248038.8245907,-8.074627144794052,5.657036327084016,1.4550605451400254,0.22,-0.6466666666666666,0.1288888888888889,-0.004555209184459755,-0.02724713124048484,0.12638133193753553
1592248038.8345907,-7.8490924940563795,5.555170157364429,1.292698516925167,0.22,-0.6466666666666666,0.1288888888888889,-0.006495487924048748,-0.022857949661495583,0.1063498141970382
1592248038.8445907,-8.04446758873521,5.518278620229961,1.2938110314947509,0.22,-0.6466666666666666,0.1288888888888889,-0.01782883932824819,-0.03735200188989905,0.10844377615632116
1592248038.8545907,-7.871674297687413,5.603577525997206,1.4598168555020954,0.22,-0.6466666666666666,0.1288888888888889,-0.00999512009671836,-0.04637778897599582,0.10816489603000042
1592248038.8645906,-7.8798116172590404,5.863971752289307,1.2645211857830203,0.22,-0.6466666666666666,0.1288888888888889,-0.0055569007588469445,-0.06501831019505576,0.0984008134866833
1592248038.8745906,-7.65,5.98,1.39,0.2,-0.6133333333333333,0.12222222222222222,-0.022907446432425576,-0.06326818538479445,0.09926560120717749
1592248038.8845906,-7.8370723894939145,5.991474528590925,1.4727989304514943,0.2,-0.6133333333333333,0.12222222222222222,-0.06966870024798277,-0.01557928637381675,0.09256912827217627
1592248038.8945906,-7.70405653170359,6.013239113827349,1.3527043544690605,0.2,-0.6133333333333333,0.12222222222222222,-0.10057382731464244,0.0052444669028217225,0.1143275451524673
1592248038.9045906,-7.88,5.72,1.47,0.2,-0.6133333333333333,0.12222222222222222,-0.09817477042468103,0.031634092692397225,0.1407171709420428
1592248038.9145906,-8.113771203648746,5.654544062978352,1.46064915185405,0.2,-0.6133333333333333,0.12222222222222222,-0.09103463532464465,0.06019463309254279,0.16927771134218839
1592248038.9245906,-8.0,5.53,1.46,0.19333333333333333,-0.6133333333333333,0.13666666666666666,-0.09490227807719166,0.05126904677733343,0.1832595714594046
1592248038.9345906,-8.255800841825431,5.550522817899867,1.3197468985378822,0.19333333333333333,-0.6133333333333333,0.13666666666666666,-0.11422265773343608,0.0315770621065157,0.21948510962531373
1592248038.9445906,-7.933656970335937,5.652959457516653,1.1757775434897206,0.19333333333333333,-0.6133333333333333,0.13666666666666666,-0.09109208096002969,0.019849832118743256,0.25533150931992676
1592248038.9545906,-7.65,5.75,1.34,0.19333333333333333,-0.6133333333333333,0.13666666666666666,-0.09272061651219875,0.007635815477475192,0.2716168648416175
1592248038.9645905,-7.884175749318801,5.88174727520436,1.3688351498637603,0.19417461398728428,-0.612880336058129,0.13737851952770208,-0.08443869928718904,-0.020026924955349613,0.28726969211224956
1592248038.9745905,-7.79,5.91,1.35,0.20777777777777778,-0.6055555555555555,0.14888888888888888,-0.0916297857297023,-0.008726646259971648,0.29343348049154666
1592248038.9845905,-7.773801401806892,5.756580497294992,1.5830376036031235,0.20777777777777778,-0.6055555555555555,0.14888888888888888,-0.11223123397008655,0.013891107750537313,0.3034720714889669
1592248038.9945905,-8.073924610918091,5.476552758079102,1.4872097948693541,0.20777777777777778,-0.6055555555555555,0.14888888888888888,-0.1062219772267244,0.04631563356720603,0.3273209063445408
1592248039.0045905,-7.64279683110689,5.508390493320669,1.4859273256401448,0.20777777777777778,-0.6055555555555555,0.14888888888888888,-0.11105385306486866,0.04609857368191556,0.343742293716745
1592248039.0145905,-8.043861496877621,6.576119862056109,2.2206300680398923,0.20686767949793394,-0.6064656538353993,0.14797879060904504,-0.10886804356747765,0.03824780714867408,0.39162797513766534
1592248039.0245905,-8.25,5.18,2.23,0.19333333333333333,-0.62,0.13444444444444445,-0.08944812416470939,0.039269908169872414,0.5541420375081997
1592248039.0345905,-8.115326510093068,5.941910335404367,1.3259795302792028,0.19333333333333333,-0.62,0.13444444444444445,-0.07724352499634402,0.04645891863890955,0.5711950390859156
1592248039.0445905,-8.208607104006054,5.574293856122594,1.545571583975784,0.19333333333333333,-0.62,0.13444444444444445,0.014593647352207827,0.08124646246829507,0.7097693014631626
1592248039.0545905,-8.20855010575887,6.220483298080377,1.4077694855728937,0.19333333333333333,-0.62,0.13444444444444445,0.1089654929863051,0.06936712098381363,0.8841528498876454
1592248039.0645905,-8.040205120527025,6.265795777811049,1.3494744722263814,0.19321654938364027,-0.6194160802515346,0.13458069238575304,0.13357981564545987,0.0986142711936132,0.9442183236482906
1592248039.0745904,-7.115188031971329,6.0709136349704105,1.324306698417938,0.18666666666666668,-0.5866666666666667,0.14222222222222222,0.09871217426784853,0.1345387885146166,0.9820662372258785
1592248039.0845904,-7.79,6.22,1.34,0.18666666666666668,-0.5866666666666667,0.14222222222222222,0.09272061651219875,0.17562375598192942,0.9872018581592926
1592248039.0945904,-7.418861512319457,6.0007051826678,1.2791758708581138,0.18666666666666668,-0.5866666666666667,0.14222222222222222,0.06604021161287167,0.17503339131884507,0.9554009434270914
1592248039.1045904,-7.723302748633661,6.201459289105198,1.4645928910519808,0.18666666666666668,-0.5866666666666667,0.14222222222222222,0.05863340566162982,0.18084835979357516,0.9556381318200807
1592248039.1145904,-7.455585032113935,6.209825467746439,1.5482546774643955,0.18666666666666668,-0.5866666666666667,0.14222222222222222,0.0695847078941065,0.1607709723673679,0.974802910726915
1592248039.1245904,-7.79,6.14,1.07,0.16444444444444445,-0.6,0.13333333333333333,0.0545415391248228,0.10799224746714915,0.9959285044192642
1592248039.1345904,-7.15069538971415,6.5053169201633425,1.0367893708942417,0.16444444444444445,-0.6,0.13333333333333333,0.038239309684237485,0.06904803269241756,1.0321556809538983
1592248039.1445904,-7.52,6.89,1.22,0.16444444444444445,-0.6,0.13333333333333333,0.031634092692397225,0.0545415391248228,1.1061024134514064
1592248039.1545904,-6.9995310791303975,7.053318315034337,1.0310279515331788,0.16444444444444445,-0.6,0.13333333333333333,-0.005545625090910419,0.005316446128995784,1.129234124118893
1592248039.1645904,-7.348123441669219,6.934063033113162,1.0493749179825904,0.16444444444444445,-0.6,0.13333333333333333,-0.06558593239625425,0.02232786653217654,1.1332368112725826
1592248039.1745903,-6.53,6.8,1.55,0.12555555555555556,-0.5866666666666667,0.13333333333333333,-0.09381144729469522,0.006544984694978735,1.1399181677087964
1592248039.1845903,-7.341259498042827,6.79212039808632,0.9966879013482743,0.12555555555555556,-0.5866666666666667,0.13333333333333333,-0.12196348823760839,-0.0060754365609315365,1.1519894757946911
1592248039.1945903,-6.9270264327709,6.468799531571149,1.2933810525309497,0.12555555555555556,-0.5866666666666667,0.13333333333333333,-0.13722242983921712,-0.00206392838269393,1.183538181399393
1592248039.2045903,-6.891446264013617,6.964528966367318,1.384842988789106,0.12555555555555556,-0.5866666666666667,0.13333333333333333,-0.10242600333397715,-0.00642147629681969,1.2352802248462162
1592248039.2145903,-6.76835240946176,7.259954217291777,1.4833180724305923,0.12555555555555556,-0.5866666666666667,0.13333333333333333,-0.08720821922342892,0.0016349976440587829,1.2889900511187393
1592248039.2245903,-6.57,6.91,0.91,0.12444444444444444,-0.6055555555555555,0.12555555555555556,-0.11890055529211369,-0.032724923474893676,1.3231777391682011
1592248039.2345903,-6.455501576308853,7.268186469584991,1.1785916584836424,0.12444444444444444,-0.6055555555555555,0.12555555555555556,-0.12466968525409763,-0.015140104353288063,1.3640291800240714
1592248039.2445903,-6.206360529586082,7.071448953254946,1.341448953254947,0.12444444444444444,-0.6055555555555555,0.12555555555555556,-0.14861122582615718,-0.052517933841119344,1.3999484617654314
1592248039.2545903,-6.272391300072762,7.197981357298775,1.4423913000727615,0.12444444444444444,-0.6055555555555555,0.12555555555555556,-0.14254990223018596,-0.06294748529633361,1.4626121097564007
1592248039.2645903,-6.445603822933669,7.569151049143576,1.6156038229336689,0.12444444444444444,-0.6055555555555555,0.12555555555555556,-0.1398506800608924,-0.07734333686589923,1.520195516034663
1592248039.2745903,-5.95,7.54,1.55,0.06888888888888889,-0.6177777777777778,0.10222222222222223,-0.13962634015954636,-0.11235557059713495,1.5718871575773932
1592248039.2845902,-5.129572516005445,7.621747240006049,1.5669516559963705,0.06888888888888889,-0.6177777777777778,0.10222222222222223,-0.13310467109958193,-0.11095553270217302,1.5885461513002517
1592248039.2945902,-5.386576241261661,7.964096103834133,1.353727960298714,0.06888888888888889,-0.6177777777777778,0.10222222222222223,-0.1140764665721363,-0.06855303969476344,1.589672074314896
1592248039.3045902,-4.673653099740056,7.690147776234733,1.4882473382473382,0.06888888888888889,-0.6177777777777778,0.10222222222222223,-0.10922194233280712,-0.07393496681280842,1.5517168290426064
1592248039.3145902,-4.61391161912901,7.973919809137199,1.660004095004095,0.06888888888888889,-0.6177777777777778,0.10222222222222223,-0.10026136350197107,-0.05112622069795304,1.5158745137192624
1592248039.3245902,-4.91,8.15,1.54,0.03666666666666667,-0.6255555555555555,0.09555555555555556,-0.07090400086226964,-0.04363323129985824,1.4388058021128254
1592248039.3345902,-4.771888742527105,8.034907285439255,1.6550927145607457,0.03666666666666667,-0.6255555555555555,0.09555555555555556,-0.04495768784625546,-0.05535092104902593,1.4044897107045484
1592248039.3445902,-4.7,8.37,1.51,0.03666666666666667,-0.6255555555555555,0.09555555555555556,-0.002181661564992912,-0.056723200689815706,1.4006267247254496
1592248039.3545902,-4.662971593876813,8.323714492346017,1.4266860862228292,0.03666666666666667,-0.6255555555555555,0.09555555555555556,0.0028673040882511605,-0.01734126859451194,1.3945679659415564
1592248039.3645902,-4.357523922970022,8.288160412944212,1.3961203097081596,0.03666666666666667,-0.6255555555555555,0.09555555555555556,0.002404202305928659,-0.00376131967372542,1.3445892076615102
1592248039.3745902,-4.25,8.58,1.26,-0.035555555555555556,-0.6088888888888889,0.09555555555555556,-0.006544984694978735,0.0370882466048795,1.2784536770858463
1592248039.3845901,-3.6542318307267707,8.859266329346827,1.3810154093836247,-0.035555555555555556,-0.6088888888888889,0.09555555555555556,-0.027869246294620526,0.06653603643295626,1.206357364058486
1592248039.3945901,-3.48,8.92,1.52,-0.035555555555555556,-0.6088888888888889,0.09555555555555556,-0.05235987755982988,0.1341721862470641,1.1377365061438036
1592248039.4045901,-3.39870522749274,8.956131010003228,1.6103275250080673,-0.035555555555555556,-0.6088888888888889,0.09555555555555556,-0.06812500472551278,0.1873794904312438,1.1052209313645824
1592248039.4145901,-3.648488897433433,8.823152936652889,1.6504104585215802,-0.035555555555555556,-0.6088888888888889,0.09555555555555556,-0.06732522025988531,0.22956697919356134,1.0785182253358003
1592248039.42459,-3.93,8.69,1.59,-0.07111111111111111,-0.6177777777777778,0.10222222222222223,-0.04145156973486533,0.25416357232167425,1.0242901047641721
1592248039.43459,-3.911491166946756,8.662236750420133,1.506710251260401,-0.07111111111111111,-0.6177777777777778,0.10222222222222223,-0.008138061744630276,0.2269070657842092,1.0051096001637339
1592248039.44459,-3.91,8.73,1.28,-0.07111111111111111,-0.6177777777777778,0.10222222222222223,0.025089107997418484,0.18980455615438332,1.0210176124166828
1592248039.45459,-3.4917523392878844,8.9946056628995,1.1519650018228216,-0.07111111111111111,-0.6177777777777778,0.10222222222222223,0.037193366158958935,0.16000945914136067,1.0238109027616538
1592248039.46459,-3.261341980248763,9.138216869369813,1.1677757189883897,-0.07111111111111111,-0.6177777777777778,0.10222222222222223,0.029380248065039274,0.14418417266759417,1.0135763063172696
1592248039.47459,-3.07,9.25,1.23,-0.09,-0.6177777777777778,0.09555555555555556,0.006544984694978735,0.13853550937704992,0.9850201965942997
1592248039.48459,-2.991119470953946,9.171119470953947,1.3527030451827506,-0.09,-0.6177777777777778,0.09555555555555556,-0.007795900175528171,0.13184309643748002,0.9592066038273872
1592248039.49459,-3.0749107441172256,9.009741539783304,1.3179323182664313,-0.09,-0.6177777777777778,0.09555555555555556,0.0019930271358494503,0.10485200227671866,0.9303940765613501
1592248039.50459,-3.259804888209971,9.000780447160116,1.2370733231495625,-0.09,-0.6177777777777778,0.09555555555555556,0.03657206747818089,0.06763688616965857,0.9274615658578977
1592248039.51459,-3.252524128593251,9.029903485626996,1.1278619288987641,-0.09,-0.6177777777777778,0.09555555555555556,0.05801567459484383,0.02713229494929522,0.9369920579097479
1592248039.52459,-2.95,9.17,0.94,-0.11,-0.6233333333333333,0.08888888888888889,0.06654067773228381,-0.04690572364734761,0.9642944117268671
1592248039.53459,-2.78772175747984,9.28957344185696,0.9741638405305599,-0.11,-0.6233333333333333,0.08888888888888889,0.04883886750524226,-0.08510436676885832,0.9810645477314327
1592248039.54459,-2.48,9.38,1.02,-0.11,-0.6233333333333333,0.08888888888888889,0.017453292519943295,-0.10362892433716332,0.9893835197242855
1592248039.55459,-2.418578061286285,9.426066454035286,1.1428438774274294,-0.11,-0.6233333333333333,0.08888888888888889,-0.005997036994392482,-0.0935787831167337,0.9818459138089634
1592248039.56459,-2.2785968270255337,9.35430364260626,1.3228272623229014,-0.11,-0.6233333333333333,0.08888888888888889,-0.02944900869371677,-0.07262191190023137,0.965544008992881
1592248039.57459,-2.34,9.35,1.4,-0.14888888888888888,-0.6233333333333333,0.08888888888888889,-0.038179077387375956,-0.031634092692397225,0.9533861039019024
1592248039.58459,-2.472195223260644,9.402878089304258,1.3603414330218069,-0.14888888888888888,-0.6233333333333333,0.08888888888888889,-0.03457401191658341,-0.011445726055958973,0.9360817896420983
1592248039.59459,-2.5691928561140718,9.33269047961976,1.038340486821259,-0.14888888888888888,-0.6233333333333333,0.08888888888888889,-0.03378640567750099,-0.010644170605962249,0.8730705727890148
1592248039.60459,-2.451513757389874,9.33,1.0208856736453749,-0.14888888888888888,-0.6233333333333333,0.08888888888888889,-0.038786848132062,-0.03278112087352076,0.8447298882914402
1592248039.61459,-2.2244397751149982,9.344370681658999,1.1134094307835007,-0.14888888888888888,-0.6233333333333333,0.08888888888888889,-0.05181069370514808,-0.055285361534709546,0.8570135469104039
1592248039.62459,-1.85,9.45,1.32,-0.17555555555555555,-0.6077777777777778,0.057777777777777775,-0.074176493209759,-0.08072147790473774,0.890117918517108
1592248039.63459,-1.5162198298980922,9.397642326258524,1.4967071488774808,-0.17555555555555555,-0.6077777777777778,0.057777777777777775,-0.08131566348689752,-0.07857972682159618,0.9065380101545266
1592248039.64459,-1.1377108750987448,9.321835922642558,1.5803671845285117,-0.17555555555555555,-0.6077777777777778,0.057777777777777775,-0.06512003492174913,-0.061687328099636986,0.9383241241190232
1592248039.65459,-1.3287657170141651,9.449962199586185,1.58,-0.17555555555555555,-0.6077777777777778,0.057777777777777775,-0.046012728560642126,-0.026895715098319728,0.9567176691721588
1592248039.66459,-1.4660934019509946,9.65602196789308,1.4762362700668255,-0.17555555555555555,-0.6077777777777778,0.057777777777777775,-0.02375973391376469,0.013066592649169657,0.943247971708915
1592248039.6745899,-1.6581612706169822,9.80442883323152,1.3462675626145388,-0.18899409488902463,-0.6005416412136021,0.08672232403448042,-0.005198938158239064,0.07184889887667403,0.8607567786647201
1592248039.6845899,-1.5827007670632436,9.82343065122104,1.3131386975579211,-0.19,-0.6,0.08888888888888889,-0.011688607020427547,0.09431306210740395,0.7892837784632459
1592248039.6945899,-1.5120618442236162,9.78343640703936,1.290687281407872,-0.19,-0.6,0.08888888888888889,-0.02644609107487258,0.1269937045879097,0.6767836221912811
1592248039.7045898,-1.255696250865093,9.65755745412023,1.4783731475073383,-0.19,-0.6,0.08888888888888889,-0.03240785025983015,0.1348825291714843,0.6164078758426815
1592248039.7145898,-1.1974637070001974,9.607463707000198,1.5467150573330701,-0.19,-0.6,0.08888888888888889,-0.0273116020675218,0.13603634865918507,0.5883002876150225
1592248039.7245898,-1.2272710232284623,9.533274772125845,1.6172710232284624,-0.23306915449704335,-0.595798131268581,0.08888888888888889,0.007912291847516923,0.11263409167350966,0.5523579710942658
1592248039.7345898,-1.1516680701497455,9.432085087687183,1.593889356716582,-0.23555555555555555,-0.5955555555555555,0.08888888888888889,0.04257211450345549,0.0813583316980848,0.5423248571274092
1592248039.7445898,-0.9003047581596539,9.498523397561934,1.2061954384585136,-0.23555555555555555,-0.5955555555555555,0.08888888888888889,0.10474956744344407,0.05053188881440769,0.5626428393297189
1592248039.7545898,-0.8521164211282788,9.668006946939753,1.0305821056413942,-0.23555555555555555,-0.5955555555555555,0.08888888888888889,0.11111082932694166,0.061253891676117014,0.6015498647244937
1592248039.7645898,-0.835751305173232,9.68,0.9725043505774403,-0.23555555555555555,-0.5955555555555555,0.08888888888888889,0.09364943623021052,0.06891261773752044,0.620381265594721
1592248039.7745898,-0.6285278344285822,9.478954226150012,1.283797114585694,-0.2515115693531737,-0.5881094157833338,0.07506034359761982,0.0407582960583093,0.08366838540163153,0.6506678316922204
1592248039.7845898,-0.9869902912621359,9.619514563106796,1.245631067961165,-0.25222222222222224,-0.5877777777777777,0.07444444444444444,0.035563201627408725,0.08695933548619805,0.6653114620117462
1592248039.7945898,-1.1274866056611825,9.779411834431748,1.179358257076478,-0.25222222222222224,-0.5877777777777777,0.07444444444444444,0.021402440271510285,0.0546640125633962,0.6772717537260511
1592248039.8045897,-1.055687200434444,9.71156990059736,1.0654917007059712,-0.25222222222222224,-0.5877777777777777,0.07444444444444444,0.012405614923409332,-0.009217781532359075,0.6609581513441373
1592248039.8145897,-0.75418353159277,9.741966630619496,1.1114541171018075,-0.25222222222222224,-0.5877777777777777,0.07444444444444444,0.021537082889158843,-0.06471396168492309,0.6552629610543073
1592248039.8245897,-0.4940786350148368,9.822960682492582,1.1323464391691394,-0.25222222222222224,-0.5877777777777777,0.08032896472139794,0.04652781713738778,-0.11037491968968813,0.6612384361491153
1592248039.8345897,-0.40940426887543807,9.935893596686842,1.094702134437719,-0.25222222222222224,-0.5877777777777777,0.0811111111111111,0.05486298495910416,-0.13751140032447995,0.6217050867480032
1592248039.8445897,-0.382399559713814,10.442812328013208,0.9755971381397909,-0.25222222222222224,-0.5877777777777777,0.0811111111111111,0.04987263929242052,-0.1541565423768065,0.5596820410639933
1592248039.8545897,-0.050588512241054595,11.30382768361582,1.2840112994350283,-0.25222222222222224,-0.5877777777777777,0.0811111111111111,0.04496390105383579,-0.16835925437250737,0.48539556024163033
1592248039.8645897,0.7372045054700613,10.52560635780874,1.1139044710925967,-0.25222222222222224,-0.5877777777777777,0.0811111111111111,0.029452850245013006,-0.187561990183201,0.2133861422309794
1592248039.8745897,-1.2105657492354736,9.05684505606524,1.9430224260958204,-0.2888282931249292,-0.5768948918337298,0.04846245327896704,0.025701796846710583,-0.08332067969279633,-0.04893893882145031
1592248039.8845897,-0.86884870643405,9.25544927075468,1.8145507292453207,-0.29333333333333333,-0.5755555555555556,0.044444444444444446,0.06440188989633311,-0.10687688025326958,-0.040035956365933885
1592248039.8945897,-0.4786087414136938,9.807217482827387,1.1125216042543762,-0.29333333333333333,-0.5755555555555556,0.044444444444444446,0.12276115480726575,-0.11503995577696165,-0.05587900329080914
1592248039.9045897,-0.6471864350229976,9.749961869354877,0.9685550868663759,-0.29333333333333333,-0.5755555555555556,0.044444444444444446,0.16036252354734315,-0.11578567851704338,-0.0894564429810007
1592248039.9145896,-0.8293943369798409,9.755503093916774,0.7878541160617719,-0.29333333333333333,-0.5755555555555556,0.044444444444444446,0.14981003200080473,-0.11810987172178657,-0.09450693629202811
1592248039.9245896,-1.0001655357542316,9.657768249944077,0.69,-0.2719558571322049,-0.5702111865052735,0.0969974067722185,0.07600636571097612,-0.08916856369946144,-0.06691922716646012
1592248039.9345896,-1.0241650107304665,9.588349892695334,0.7108250536523328,-0.26666666666666666,-0.5688888888888889,0.11,0.02864677182918024,-0.08044931211296791,-0.03273576155197913
1592248039.9445896,-1.1254182709135456,9.545903045152258,0.8831274063703185,-0.26666666666666666,-0.5688888888888889,0.11,-0.06210996516123721,-0.08287669913662324,0.06703788962815571
1592248039.9545896,-0.6649767709181473,9.533275061066142,1.003624694669285,-0.26666666666666666,-0.5688888888888889,0.11,-0.08694734796685627,-0.10771127194397916,0.10479603333904025
1592248039.9645896,-0.9360913030188611,9.479504647859466,1.550201197475592,-0.26666666666666666,-0.5688888888888889,0.11,-0.10253007173058355,-0.102716240811754,0.04367334042027475
1592248039.9745896,-0.737363354159299,9.660528900939132,1.4473633541592992,-0.2825732947376234,-0.5838598329556717,0.09222200392069543,-0.06516223350522957,-0.08881648903520065,0.030256505733434056
1592248039.9845896,-0.5088025723980115,9.524610983981693,1.696586443620295,-0.28555555555555556,-0.5866666666666667,0.08888888888888889,-0.04352873602881344,-0.060217810044661826,0.03688575473903693
1592248039.9945896,-0.5877661916934525,9.506963377287338,1.586788742375541,-0.28555555555555556,-0.5866666666666667,0.08888888888888889,0.013571623456709342,0.015631449678553337,0.03641623344204519
1592248040.0045896,-0.579979860723558,9.680060417829326,1.2348892339795694,-0.28555555555555556,-0.5866666666666667,0.08888888888888889,0.05418964542008667,0.06400931931682277,0.036906807616841425
1592248040.0145895,-0.6259165778906826,9.672722281406212,1.2060944030156517,-0.28555555555555556,-0.5866666666666667,0.08888888888888889,0.06446869816107301,0.07944337428037207,0.03464842562827881
1592248040.0245895,-0.6701754978062774,9.695413432332096,1.0720553493081337,-0.27685603929950875,-0.568476769040387,0.08335283308958638,0.07587698169587143,0.08837643722314774,0.028213971879237562
1592248040.0345895,-0.6890535579926582,9.77686426959119,0.8359750564308353,-0.2733333333333333,-0.5611111111111111,0.0811111111111111,0.06552075505441576,0.0955478129265885,0.02471472016894727
1592248040.0445895,-0.5664925572472742,9.821413515941817,0.6957594521745465,-0.2733333333333333,-0.5611111111111111,0.0811111111111111,0.03390721970728111,0.13672495437243132,0.029138301741288737
1592248040.0545895,-0.5923922723524562,9.814401931911886,0.7869855106608552,-0.2733333333333333,-0.5611111111111111,0.0811111111111111,-0.012954222701463038,0.1821426039139019,0.032244747191699806
1592248040.0645895,-0.975840116848649,9.74612315420103,0.9942095794517376,-0.2733333333333333,-0.5611111111111111,0.0811111111111111,-0.043001594402093765,0.18565177865698568,0.028924260037459328
1592248040.0745895,-1.4194539249146758,9.662613765642776,1.209726962457338,-0.28828782707622297,-0.5611111111111111,0.08692674756667931,-0.07058909948450118,0.1476366245660526,0.04412404310244908
1592248040.0845895,-1.4452444576699897,9.635518524029163,1.283444427912513,-0.29333333333333333,-0.5611111111111111,0.08888888888888889,-0.07558326078755491,0.10886734662100486,0.06565911896451
1592248040.0945895,-1.1099577804583836,9.625645355850422,1.39,-0.29333333333333333,-0.5611111111111111,0.08888888888888889,-0.06516825733886547,-0.017994760393281406,0.13999609100379426
1592248040.1045895,-0.4658848092152629,9.708742980561556,1.4281905447564194,-0.29333333333333333,-0.5611111111111111,0.08888888888888889,-0.03724196290809091,-0.13542107885496762,0.19951198153835334
1592248040.1145895,0.07794498556998553,9.724209776334776,1.3589368686868686,-0.29333333333333333,-0.5611111111111111,0.08888888888888889,-0.017279338065613367,-0.18544434181342412,0.21288440264662553
1592248040.1245894,0.8281066852475516,9.597572097704488,1.263991793442496,-0.2829309625500544,-0.5611111111111111,0.07848651810560996,-0.0037079294639335847,-0.20760798876059072,0.15488454316618125
1592248040.1345894,0.24277366316101312,9.586534587468524,1.3393067693675011,-0.2788888888888889,-0.5611111111111111,0.07444444444444444,-0.00041041478114960724,-0.17977112660994418,0.08150999134253699
1592248040.1445894,-0.9807849023041219,9.611204313627393,1.4340053920342422,-0.2788888888888889,-0.5611111111111111,0.07444444444444444,0.02338423580638092,-0.10729846829608083,-0.015137319818830444
1592248040.1545894,-0.61359707132735,9.615051960321209,1.382370099196977,-0.2788888888888889,-0.5611111111111111,0.07444444444444444,0.05462089100980365,-0.10256076552180424,0.003093306516306963
1592248040.1645894,-0.361263498337975,9.631308238253526,1.256917617464738,-0.2788888888888889,-0.5611111111111111,0.07444444444444444,0.07327919154677329,-0.09238438073690944,0.01755005707969866
1592248040.1745894,-0.3933156303619577,9.719792466704796,1.090207533295204,-0.28936668754709444,-0.5699769407449774,0.08492224310265,0.08655994935412048,-0.055208568912894,0.010738787427194458
1592248040.1845894,-0.48491890229840884,9.75,1.0779675609193635,-0.29333333333333333,-0.5733333333333334,0.08888888888888889,0.08688732574192128,-0.03100436410629926,0.001645092560673224
1592248040.1945894,-0.5260036496350365,9.729005474452554,1.0510127737226278,-0.29333333333333333,-0.5733333333333334,0.08888888888888889,0.07592421114229894,0.008720674558607616,-0.0028365581479150546
1592248040.2045894,-0.5919503741065666,9.74158511223197,0.98682977553606,-0.29333333333333333,-0.5733333333333334,0.08888888888888889,0.06964026115813873,0.04444439865534075,0.004882049894889178
1592248040.2145894,-0.5847825797318678,9.765093180114913,0.9347825797318677,-0.29333333333333333,-0.5733333333333334,0.08888888888888889,0.06433191117058036,0.05673675318817098,0.012575047120008608
1592248040.2245893,-0.5452900213966155,9.784709978603384,0.9141299358101537,-0.29908997384858116,-0.5675766928180855,0.08522557219736757,0.05023389271090915,0.055308409502978544,0.017453292519943295
1592248040.2345893,-0.5794447536877261,9.770277623156137,0.9431482512292421,-0.3055555555555556,-0.5611111111111111,0.0811111111111111,0.0206246358399621,0.049834795059648024,0.01315053736688707
1592248040.2445893,-0.587157576330466,9.792106059173836,0.8729454579827961,-0.3055555555555556,-0.5611111111111111,0.0811111111111111,-0.004501494341683078,0.03577891970478119,0.007406080059817369
1592248040.2545893,-0.6052838644243697,9.803679033893909,0.8426419322121848,-0.3055555555555556,-0.5611111111111111,0.0811111111111111,-0.0268801781972422,0.01801894373944431,0.0020066017106610988
1592248040.2645893,-0.6344053586074911,9.780792855190013,0.8884142896199763,-0.3055555555555556,-0.5611111111111111,0.0811111111111111,-0.04957280640170807,0.007284996026875538,-0.0015713808601951589
1592248040.2745893,-0.5868605315324396,9.750980075933205,1.0021593925343548,-0.30004337973695905,-0.569128821392706,0.0846188593593089,-0.07578101831901923,-0.002737943848927032,-0.0017966107233133846
1592248040.2845893,-0.5225139910554999,9.727486008944501,1.1025139910555,-0.29333333333333333,-0.5788888888888889,0.08888888888888889,-0.09586514904258644,-0.009409178592732877,0.0013650646655224594
1592248040.2945893,-0.5795870385027236,9.707603240374318,1.079008100935798,-0.29333333333333333,-0.5788888888888889,0.08888888888888889,-0.10914623054156022,-0.0037322318911622186,0.002181661564992912
1592248040.3045893,-0.5978104847345501,9.68781048473455,1.1270423339599742,-0.29333333333333333,-0.5788888888888889,0.08888888888888889,-0.11387239723836472,0.0033241746188157947,0.0028464964887560708
1592248040.3145893,-0.5854467311053251,9.67089346221065,1.2018728822627243,-0.29333333333333333,-0.5788888888888889,0.08888888888888889,-0.11443977055389042,0.0024740463897052873,0.004762546108877864
1592248040.3245893,-0.5955737182405973,9.675573718240598,1.2919123941353248,-0.28929570267836363,-0.5788888888888889,0.08888888888888889,-0.11392923381914731,0.002306827468457581,0.007677537445296748
1592248040.3345892,-0.6180614596670935,9.685969270166453,1.3541075544174137,-0.28555555555555556,-0.5788888888888889,0.08888888888888889,-0.11103651734362707,0.00545415391248228,0.008726646259971648
1592248040.3445892,-0.5509273153915235,9.611721950230308,1.4041721950230308,-0.28555555555555556,-0.5788888888888889,0.08888888888888889,-0.09818200702623935,-0.0034458547760874035,0.010633790978950865
1592248040.3545892,-0.4938018993209552,9.563099050339522,1.482811395925731,-0.28555555555555556,-0.5788888888888889,0.08888888888888889,-0.07841785670779465,-0.009817477042468103,0.010493584943839531
1592248040.3645892,-0.5038083680073971,9.565712552011096,1.5257125520110957,-0.28555555555555556,-0.5788888888888889,0.08888888888888889,-0.06659426107515956,-0.007324906010342013,0.009402048537113756
1592248040.3745892,-0.5428818851058236,9.59915275404233,1.5271181148941764,-0.29216587791946014,-0.5763464572104641,0.0919398069029987,-0.028657072518870515,0.009762161152584048,0.008135020770174783
1592248040.3845892,-0.5336207636207636,9.646379236379236,1.3787358787358788,-0.3,-0.5733333333333334,0.09555555555555556,0.004965128529509826,0.02076025842712546,0.010049432622844513
1592248040.3945892,-0.51,9.675844021514274,1.247403806371535,-0.3,-0.5733333333333334,0.09555555555555556,0.021008985660157745,0.022907446432425576,0.01090830782496456
1592248040.4045892,-0.5271516879507392,9.674282770683087,1.2385861465845653,-0.3,-0.5733333333333334,0.09555555555555556,0.030078331781002436,0.030391282107801502,0.009037348906120577
1592248040.4145892,-0.5823575790640785,9.657292726280776,1.2642357579064079,-0.3,-0.5733333333333334,0.09555555555555556,0.03381575425739013,0.03969381191159298,0.006711716455172708
1592248040.4245892,-0.5947290640394088,9.643482379689276,1.2874118984463812,-0.3,-0.5733333333333334,0.09052545155993431,0.03457549164967073,0.03940590033639054,0.0065937600009031705
1592248040.4345891,-0.4918021573915175,9.662131895072323,1.3018021573915175,-0.3,-0.5733333333333334,0.0811111111111111,0.041290953660345256,0.030775815586894864,0.006741569570735819
1592248040.4445891,-0.5148322012240232,9.693221467482683,1.2029194969399422,-0.3,-0.5733333333333334,0.0811111111111111,0.049156933102703464,0.03353389455826098,0.0022878174693760156
1592248040.4545891,-0.5678561151079137,9.71,1.0898589928057554,-0.3,-0.5733333333333334,0.0811111111111111,0.05357532987344896,0.036122037353505665,-0.0012154523136190727
1592248040.464589,-0.5691825550254509,9.734980933969458,1.0375095330152706,-0.3,-0.5733333333333334,0.0811111111111111,0.05227070814570637,0.03481741562576307,-0.0017274953691696266
1592248040.474589,-0.5286883398714631,9.766229446623822,1.023770553376179,-0.29455364512329707,-0.5687248792068924,0.0811111111111111,0.04250652810868942,0.029577574847506255,-0.0019134379204528433
1592248040.484589,-0.5052686145146089,9.76,1.03,-0.28555555555555556,-0.5611111111111111,0.0811111111111111,0.02879546518017035,0.02721216696617926,-0.0034015208707724076
1592248040.494589,-0.4947316330414922,9.745161020175106,1.03,-0.28555555555555556,-0.5611111111111111,0.0811111111111111,-0.004234516236673909,0.045697795689113044,-0.004363323129985824
1592248040.504589,-0.5410125193752235,9.724746870156194,1.072025038750447,-0.28555555555555556,-0.5611111111111111,0.0811111111111111,-0.023238792623135954,0.07276797275642365,-0.004363323129985824
1592248040.514589,-0.56,9.731652184641415,1.117768123094277,-0.28555555555555556,-0.5611111111111111,0.0811111111111111,-0.0332655996344609,0.09107963110677306,-0.004363323129985824
1592248040.524589,-0.5858822361629477,9.747124195981895,1.13,-0.28555555555555556,-0.5627087800100585,0.07919390843237424,-0.04272062527198629,0.09708393964218458,-0.0037359200205105735
1592248040.534589,-0.6615130000959417,9.74,1.1127304998560874,-0.28555555555555556,-0.5666666666666667,0.07444444444444444,-0.058176350974279235,0.09080457219041567,-0.002809598310169803
1592248040.544589,-0.6808724501232908,9.72912754987671,1.0619464245684824,-0.28555555555555556,-0.5666666666666667,0.07444444444444444,-0.06979118718639807,0.07253662805023064,-0.002679492183707221
1592248040.554589,-0.6796300566926108,9.725184971653695,1.0818497165369463,-0.28555555555555556,-0.5666666666666667,0.07444444444444444,-0.08375121402158794,0.04411874376113657,-0.002181661564992912
1592248040.564589,-0.642652132802883,9.7065589709739,1.1768820580522006,-0.28555555555555556,-0.5666666666666667,0.07444444444444444,-0.09503914520104405,0.018133521930882603,-0.0017554916310751933
1592248040.574589,-0.5818240510267579,9.676058649657747,1.2712052738021158,-0.28993124697503975,-0.5666666666666667,0.07882013586392864,-0.10333046468583854,-0.001453267285874926,0.0008918576816132737
1592248040.584589,-0.5387092895788395,9.68741857915768,1.3225814208423212,-0.3,-0.5666666666666667,0.08888888888888889,-0.10989231970040386,-0.00988787437540265,0.0053133592466131875
1592248040.594589,-0.5446994099824589,9.65411656833041,1.3435337266783607,-0.3,-0.5666666666666667,0.08888888888888889,-0.10491249001154401,-0.01090830782496456,0.0010272526209588297
1592248040.604589,-0.5988225231646471,9.645883107626515,1.3764675694939417,-0.3,-0.5666666666666667,0.08888888888888889,-0.09952248680271336,-0.009368393749545827,-0.0026949662567991558
1592248040.614589,-0.6235529811498075,9.626447018850193,1.461317886898845,-0.3,-0.5666666666666667,0.08888888888888889,-0.09141414699013595,-0.00996123620217901,-0.0024973521059214283
1592248040.624589,-0.6230169629932074,9.613016962993207,1.511638395011321,-0.29508601099522,-0.5653735116654087,0.08707847188712783,-0.08127614517356292,-0.016719904079894363,-0.001090830782496456
1592248040.634589,-0.5686045996802361,9.574302299840118,1.565697700159882,-0.2788888888888889,-0.5611111111111111,0.0811111111111111,-0.056735865113117595,-0.03022616836205811,0.0006215226723834191
1592248040.644589,-0.5299391290775715,9.56,1.5498173872327143,-0.2788888888888889,-0.5611111111111111,0.0811111111111111,-0.030999037468624507,-0.034357849654841156,0.002181661564992912
1592248040.654589,-0.5248379156718439,9.56,1.524837915671844,-0.2788888888888889,-0.5611111111111111,0.0811111111111111,-0.0021136239249297493,-0.031177080588405487,0.000598457363602124
1592248040.664589,-0.5263803162109915,9.578098418945043,1.53,-0.2788888888888889,-0.5611111111111111,0.0811111111111111,0.02335597188983773,-0.025597676594940093,-0.003065062032473429
1592248040.674589,-0.5239443762133038,9.613944376213304,1.5201390594667405,-0.28020368095999015,-0.5582623949570584,0.0782623949570584,0.046399613774766646,-0.019219858420506174,-0.006544984694978735
1592248040.684589,-0.5351233776458151,9.634876622354186,1.4409870211665203,-0.28555555555555556,-0.5466666666666666,0.06666666666666667,0.07611590333368329,-0.012026055434246417,-0.006013027717123209
1592248040.694589,-0.5254439346756365,9.64,1.3635514774050919,-0.28555555555555556,-0.5466666666666666,0.06666666666666667,0.09164251775038848,-0.01090830782496456,-0.004957164282194238
1592248040.704589,-0.5289765709706312,9.622046858058738,1.3738594258237873,-0.28555555555555556,-0.5466666666666666,0.06666666666666667,0.10209153839909248,-0.005522751860148818,-0.004852919126787255
1592248040.7145889,-0.5333839545122364,9.609924068231646,1.44,-0.28555555555555556,-0.5466666666666666,0.06666666666666667,0.11303585484963456,0.0021733786939638496,-0.007258400431594602
1592248040.7245889,-0.5286806377772516,9.636944510221802,1.429583234667298,-0.2880632953578727,-0.5491744064689837,0.07052472790100069,0.12904380060876092,0.005310233819898585,-0.011097689962947112
1592248040.7345889,-0.580096378013315,9.664951810993342,1.3497108659600547,-0.3,-0.5611111111111111,0.08888888888888889,0.15167804481884734,0.012020165028197001,-0.013651154596757689
1592248040.7445889,-0.6087951382772591,9.674096353707943,1.2072291703364453,-0.3,-0.5611111111111111,0.08888888888888889,0.1601549799886064,0.014180800172453926,-0.01373395730039201
1592248040.7545888,-0.6214837940896092,9.69,1.101290514775977,-0.3,-0.5611111111111111,0.08888888888888889,0.16316013039661176,0.012322852261027408,-0.008747729762464608
1592248040.7645888,-0.5974153976311336,9.696292301184434,1.1331461505922165,-0.3,-0.5611111111111111,0.08888888888888889,0.1611610194270282,0.010847052416175893,-0.002990555965042103
1592248040.7745888,-0.5676104119440318,9.711194794027985,1.1352208238880637,-0.29747765705203366,-0.5611111111111111,0.08888888888888889,0.15777946803064574,0.01374162844219144,0.0002606636208935876
1592248040.7845888,-0.5593039081781803,9.72465195408909,1.0767402295545492,-0.2788888888888889,-0.5611111111111111,0.08888888888888889,0.15134582481109887,0.02209626960583762,0.0026891110369068934
1592248040.7945888,-0.5568727005150846,9.73,1.0018665685553103,-0.2788888888888889,-0.5611111111111111,0.08888888888888889,0.14296625692626289,0.029998515411700427,0.004227136505435739
1592248040.8045888,-0.5319738863287251,9.725986943164363,0.9440130568356374,-0.2788888888888889,-0.5611111111111111,0.08888888888888889,0.13306711266633228,0.037970881189641426,0.005016397319660161
1592248040.8145888,-0.5560600328801995,9.723005002740017,0.9409849917799501,-0.2788888888888889,-0.5611111111111111,0.08888888888888889,0.12260283138123332,0.04352578536445068,0.00370773323192656
1592248040.8245888,-0.6370185945221543,9.735962810955693,0.92,-0.2803243804152591,-0.5623257577872705,0.08745339736251873,0.11138666909508423,0.045381265015472794,0.0016396267532699683
1592248040.8345888,-0.61,9.79,0.92,-0.29333333333333333,-0.5733333333333334,0.07444444444444444,0.09272061651219875,0.04145156973486533,-0.0032724923474893677
1592248040.8445888,-0.6302452557092313,9.77,0.8995094885815375,-0.29333333333333333,-0.5733333333333334,0.07444444444444444,0.06560834897808995,0.014419561943920262,-0.005081625902409712
1592248040.8545887,-0.65,9.749192412702975,0.9224227618910763,-0.29333333333333333,-0.5733333333333334,0.07444444444444444,0.04000836251910949,-0.0010840904859527939,-0.004363323129985824
1592248040.8645887,-0.628433865960395,9.713838247417256,1.0377278866223494,-0.29333333333333333,-0.5733333333333334,0.07444444444444444,0.02290184045801147,-0.012423432425233128,-0.0026829657821396966
