time,acc_x,acc_y,acc_z,mag_x,mag_y,mag_z,gyr_x,gyr_y,gyr_z
1592334324.977455,-0.23687237226537447,9.716563813867314,0.4643618613268724,-0.5066666666666667,-1.2544444444444445,-0.1688888888888889,-0.005012007151929308,0.000307512761031567,-0.0018404903040809936
1592334324.987455,-0.25282879000533737,9.71,0.5328287900053373,-0.5066666666666667,-1.2544444444444445,-0.1688888888888889,0.0030857312150402837,-0.004198211712001453,-0.0023467729829772825
1592334324.997455,-0.2564824931710951,9.711758753414454,0.5329649863421903,-0.5043216621140635,-1.2544444444444445,-0.16732555252048673,0.013786061369922773,-0.007312385640300925,0.0005755507089916426
1592334325.0074549,-0.24,9.72,0.5,-0.49333333333333335,-1.2544444444444445,-0.16,0.0272707695624114,-0.01090830782496456,0.0032724923474893677
1592334325.0174549,-0.22566327724754895,9.73433672275245,0.44048474761397033,-0.49333333333333335,-1.2544444444444445,-0.16,0.03718007349076463,-0.0066896893427699205,0.00241819309866923
1592334325.0274549,-0.21571083697462762,9.747144581512686,0.3671445815126862,-0.49333333333333335,-1.2544444444444445,-0.16,0.043320436764588154,-0.0026495366709150935,0.003583970185776505
1592334325.0374548,-0.2350603446509436,9.747590516976416,0.3701206893018872,-0.49333333333333335,-1.2544444444444445,-0.16,0.04882455138713764,-0.0008148317967319284,0.004363323129985824
1592334325.0474548,-0.24534783837242158,9.766898558914948,0.4031014410850523,-0.4954009607233682,-1.2544444444444445,-0.16344604565005807,0.05160736151790085,0.000338314740567423,0.0041941657597021125
1592334325.0574548,-0.23639830219942348,9.739067798533718,0.4172669496334294,-0.5066666666666667,-1.2544444444444445,-0.18222222222222223,0.053450708342326333,9.475473601502481e-05,0.00386875144148305
1592334325.0674548,-0.27021078322609277,9.724683825160861,0.383079653871755,-0.5066666666666667,-1.2544444444444445,-0.18222222222222223,0.054251586766839485,-0.006255032336995431,0.005721113387319996
1592334325.0774548,-0.24543187932359722,9.761852181014604,0.3,-0.5066666666666667,-1.2544444444444445,-0.18222222222222223,0.057315726807114296,-0.009615435435919532,0.00684124775362803
1592334325.0874548,-0.25104085134275417,9.742239787164312,0.3358365946289834,-0.5066666666666667,-1.2544444444444445,-0.18222222222222223,0.0593935080118229,-0.012487784364475294,0.007635815477475192
1592334325.0974548,-0.21536064786219203,9.748260242948321,0.462319676068904,-0.5070532793448174,-1.2544444444444445,-0.18093351329505336,0.06165585798361223,-0.014497096930126532,0.007635815477475192
1592334325.1074548,-0.14,9.72,0.5,-0.5133333333333333,-1.2544444444444445,-0.16,0.07090400086226964,-0.019634954084936207,0.007635815477475192
1592334325.1174548,-0.183172220877377,9.772069447806556,0.4520694478065575,-0.5133333333333333,-1.2544444444444445,-0.16,0.08084177178591355,-0.010216236588580407,0.004935100485194166
1592334325.1274548,-0.19750713183369967,9.737478604498902,0.39504279100219797,-0.5133333333333333,-1.2544444444444445,-0.16,0.09052961939872355,-0.0027379684294704804,0.0024535912982435017
1592334325.1374547,-0.199793732329869,9.756082507068053,0.3460825070680524,-0.5133333333333333,-1.2544444444444445,-0.16,0.1018520946478072,0.010649641106142978,0.004340822817584551
1592334325.1474547,-0.23953254171050653,9.740934916578986,0.32859762513151963,-0.512658115804065,-1.2548080231140506,-0.16072715733921206,0.10799224746714915,0.01859511509161101,0.009032596994999212
1592334325.1574547,-0.23913925916002413,9.757715185209994,0.29543037041998793,-0.4988888888888889,-1.2622222222222221,-0.17555555555555555,0.1074937782061008,0.019634954084936207,0.015271630954950384
1592334325.1674547,-0.2588934539168775,9.753702182027707,0.272595635944585,-0.4988888888888889,-1.2622222222222221,-0.17555555555555555,0.10621443131397908,0.01923110867311336,0.015877399072684657
1592334325.1774547,-0.21218785583157113,9.754685009179001,0.26844212581042454,-0.4988888888888889,-1.2622222222222221,-0.17555555555555555,0.10870822161377179,0.017453292519943295,0.01854412330243975
1592334325.1874547,-0.2150809501299929,9.7,0.3798380997400142,-0.4988888888888889,-1.2622222222222221,-0.17555555555555555,0.11502083552782574,0.017095569118687367,0.01818639990118382
1592334325.1974547,-0.1902978019380761,9.7,0.4294043961238478,-0.4988888888888889,-1.2622222222222221,-0.17555555555555555,0.13394479018226574,0.01529328772302642,0.016384118505522873
1592334325.2074547,-0.19,9.73,0.36,-0.52,-1.2544444444444445,-0.15444444444444444,0.14726215563702155,0.02181661564992912,0.011999138607461015
1592334325.2174547,-0.13483475323149235,9.726115844104976,0.2977683117900509,-0.52,-1.2544444444444445,-0.15444444444444444,0.16045581911061677,0.032125431205106594,0.016362461737446838
1592334325.2274547,-0.16730855266289088,9.788074342011328,0.14644424349150445,-0.52,-1.2544444444444445,-0.15444444444444444,0.17015885522389113,0.040759358663377765,0.015565222315429058
1592334325.2374547,-0.20730659025787967,9.700229226361031,0.23169054441260745,-0.52,-1.2544444444444445,-0.15444444444444444,0.1584392641705669,0.04078894473231734,0.011999138607461015
1592334325.2474546,-0.24763562239187709,9.756689871348629,0.29621699582700334,-0.52,-1.2544444444444445,-0.15444444444444444,0.14788114824735415,0.03111067180270565,0.011999138607461015
1592334325.2574546,-0.28742319220681906,9.789692768827276,0.39329781753465715,-0.4988888888888889,-1.2622222222222221,-0.14555555555555555,0.15748450500766895,0.01571001700518465,0.01575515324517789
1592334325.2674546,-0.3250462549894341,9.93682084996478,0.2695374501056586,-0.4988888888888889,-1.2622222222222221,-0.14555555555555555,0.1524722749006279,-0.0013146828848448725,0.01308996938995747
1592334325.2774546,-0.36073464009224177,9.996997199802339,0.033801680118596605,-0.4988888888888889,-1.2622222222222221,-0.14555555555555555,0.1081945659420447,-0.03035495839152549,0.013759093724336783
1592334325.2874546,-0.39020049574221405,9.87,0.12311178187342582,-0.4988888888888889,-1.2622222222222221,-0.14555555555555555,0.04154594297331422,-0.0693505929354906,0.017323267653753187
1592334325.2974546,-0.18059449086475035,9.87,0.21533842401950987,-0.4988888888888889,-1.2622222222222221,-0.14555555555555555,-0.011499623324099796,-0.09678795481346338,0.016408688924487425
1592334325.3074546,-0.2868628214228471,9.967573558033568,0.09552286309619215,-0.4988888888888889,-1.2544444444444445,-0.14555555555555555,-0.07434044378004973,-0.11228248720763609,0.014253883561952807
1592334325.3174546,-0.08632538982053545,9.88262037854271,0.13,-0.4988888888888889,-1.2544444444444445,-0.14555555555555555,-0.16420956027127045,-0.12556053881921792,0.0014358272788729462
1592334325.3274546,-0.11907021358229954,9.82837191456708,0.18302212559150788,-0.4988888888888889,-1.2544444444444445,-0.14555555555555555,-0.2282118723395805,-0.12684078217352895,0.005580968745746032
1592334325.3374546,0.01,9.88,0.51,-0.4988888888888889,-1.2544444444444445,-0.14555555555555555,-0.2498002491916884,-0.1287180323345818,0.01308996938995747
1592334325.3474545,-0.1671182425156149,9.545443319692726,0.8839162897551871,-0.4988888888888889,-1.2544444444444445,-0.14555555555555555,-0.2616072844242148,-0.14052506756710822,-0.00945073423577481
1592334325.3574545,0.0,9.58,0.86,-0.5066666666666667,-1.2755555555555556,-0.15444444444444444,-0.1908953869368798,-0.1287180323345818,0.0032724923474893677
1592334325.3674545,-0.16049239641992435,9.478253216899263,0.9569988302184499,-0.5066666666666667,-1.2755555555555556,-0.15444444444444444,-0.12710672816885388,-0.10240126119420845,0.012408359655112642
1592334325.3774545,0.08,9.58,0.92,-0.5066666666666667,-1.2755555555555556,-0.15444444444444444,-0.053450708342326333,-0.08726646259971647,0.017453292519943295
1592334325.3874545,-0.064258872651357,9.556315240083508,0.9308141962421711,-0.5066666666666667,-1.2755555555555556,-0.15444444444444444,0.017098032390361985,-0.05855529539653471,0.001090830782496456
1592334325.3974545,0.028893972371518667,9.65878336960867,0.7817696442055702,-0.5066666666666667,-1.2755555555555556,-0.15444444444444444,0.08213098652032971,-0.035184077506077556,0.001090830782496456
1592334325.4074545,-0.04,9.76,0.64,-0.5133333333333333,-1.2622222222222221,-0.1688888888888889,0.12326387842209952,-0.00545415391248228,0.004363323129985824
1592334325.4174545,-0.14297571514521687,10.087864956516983,0.2683186566756003,-0.5133333333333333,-1.2622222222222221,-0.1688888888888889,0.1131555708458416,0.017111807534786676,-0.003439013635787109
1592334325.4274545,-0.3,9.82,0.49,-0.5133333333333333,-1.2622222222222221,-0.1688888888888889,0.04363323129985824,0.02617993877991494,-0.00545415391248228
1592334325.4374545,-0.0589891975308642,9.973258101851853,0.5089891975308642,-0.5133333333333333,-1.2622222222222221,-0.1688888888888889,-0.028521100679231217,0.02287889909906163,-0.001090830782496456
1592334325.4474545,-0.16686728395061728,9.892349537037038,0.6168672839506173,-0.5133333333333333,-1.2622222222222221,-0.1688888888888889,-0.06970795877744906,0.03562721231993858,-0.001090830782496456
1592334325.4574544,-0.18462241003271537,9.79042461832061,0.7641037350054526,-0.5133333333333333,-1.268888888888889,-0.19,-0.11657993770664055,0.04423009536214569,0.00297406031634564
1592334325.4674544,-0.33598556103513144,9.720967512329047,0.7779566831053943,-0.5133333333333333,-1.268888888888889,-0.19,-0.13613489413219038,0.048106031269777354,0.002295076021762715
1592334325.4774544,-0.29056262301377755,9.621125246027555,0.7108953002736307,-0.5133333333333333,-1.268888888888889,-0.19,-0.12919647194114314,0.048744232501587346,0.01308996938995747
1592334325.4874544,-0.24,9.52,0.93,-0.5133333333333333,-1.268888888888889,-0.19,-0.10253809355466686,0.04690572364734761,0.01308996938995747
1592334325.4974544,-0.27875772886266476,9.529689432215665,0.8524845422746705,-0.5133333333333333,-1.268888888888889,-0.19,-0.04123481418525008,0.031051427258705338,0.005691297741924412
1592334325.5074544,-0.07,9.67,0.84,-0.52,-1.281111111111111,-0.19,0.02945243112740431,0.032724923474893676,0.008726646259971648
1592334325.5174544,-0.047202146880646195,9.932797853119354,0.644870602614518,-0.52,-1.281111111111111,-0.19,0.06988667275977135,0.04619359397559881,0.013672136121204782
1592334325.5274544,0.01,9.99,0.54,-0.52,-1.281111111111111,-0.19,0.04908738521234052,0.031634092692397225,0.0032724923474893677
1592334325.5374544,-0.25315237431884297,9.873043389191624,0.5789855369361249,-0.52,-1.281111111111111,-0.19,0.03632939808371723,0.034823589474553045,0.013904148288008764
1592334325.5474544,-0.24122532427704957,9.729189932077873,0.6832607164762272,-0.52,-1.281111111111111,-0.19,-0.024418567097067426,0.023642588224395824,0.0008688039359648417
1592334325.5574543,-0.2396855257616173,9.665937105152324,0.595235855678787,-0.5111111111111111,-1.3077777777777777,-0.21333333333333335,-0.05274372809420127,0.011760390160189925,-0.00197721693567482
1592334325.5674543,-0.04327358490566037,9.648399056603774,0.7166188679245283,-0.5111111111111111,-1.3077777777777777,-0.21333333333333335,-0.08362514595746605,0.000821055980957356,-0.007901679753567606
1592334325.5774543,0.1157976725429197,9.816543841456388,0.5984733264200944,-0.5111111111111111,-1.3077777777777777,-0.21333333333333335,-0.06584558261078152,0.00958453018542479,0.012546426723523069
1592334325.5874543,-0.1978071837265821,9.390024302964196,0.9627950322444839,-0.5111111111111111,-1.3077777777777777,-0.21333333333333335,-0.040697149938279144,0.006237442931798295,0.0053858112984421815
1592334325.5974543,-0.14162313182922864,9.646865683066382,0.7781902902960369,-0.5111111111111111,-1.3077777777777777,-0.21333333333333335,0.006581619175015499,-0.0016423519204174794,0.0036347457757275655
1592334325.6074543,-0.15,9.79,0.57,-0.5111111111111111,-1.3077777777777777,-0.22666666666666666,0.03490658503988659,-0.004363323129985824,0.009817477042468103
1592334325.6174543,-0.3021657375821616,9.82804143439554,0.7887382477743573,-0.5111111111111111,-1.3077777777777777,-0.22666666666666666,0.016233039597847877,-0.00643816151243457,0.005667800277570611
1592334325.6274543,-0.3750621783876501,9.749159519725557,0.6122062607204116,-0.5111111111111111,-1.3077777777777777,-0.22666666666666666,-0.00330687316331848,-0.017510593879658483,-0.0033412539791475918
1592334325.6374543,0.08785212915301825,9.670397753860552,0.8211137108095461,-0.5111111111111111,-1.3077777777777777,-0.22666666666666666,-0.006414820048494601,-0.022838025287634036,-0.009722022968379738
1592334325.6474543,-0.13295215255030418,9.711287435657464,0.9356048198408984,-0.5111111111111111,-1.3077777777777777,-0.22666666666666666,0.006966297028672237,-0.015701429513145057,9.079622154260954e-05
1592334325.6574543,-0.32723650125019715,9.882707408825716,0.718396819318361,-0.5188888888888888,-1.3277777777777777,-0.24888888888888888,0.0027662080809933666,-0.030965165465314103,-0.00838912341564098
1592334325.6674542,-0.015448832023066739,9.948844187146621,0.4349534836573334,-0.5188888888888888,-1.3277777777777777,-0.24888888888888888,-0.00960134054430761,-0.04127145598639825,-0.00014409099877366396
1592334325.6774542,-0.22996047895739727,9.6200197605213,0.6700362276223859,-0.5188888888888888,-1.3277777777777777,-0.24888888888888888,-0.03272959380829165,-0.034910177604038875,-2.874051321828391e-06
1592334325.6874542,-0.11155825825119386,9.679220870874403,0.7785715966030723,-0.5188888888888888,-1.3277777777777777,-0.24888888888888888,-0.04672157907337046,-0.04567324319256104,-0.008613326522139557
1592334325.6974542,-0.17511090136857008,9.842777253421426,0.5683895705521472,-0.5188888888888888,-1.3277777777777777,-0.24888888888888888,-0.03713978951762016,-0.03427333434790054,-0.00606320967913689
1592334325.7074542,0.05706177000138498,9.711125063478141,0.7938121508702276,-0.5188888888888888,-1.3422222222222222,-0.27,-0.04039470623748008,-0.03126591653013179,-0.004901889669084127
1592334325.7174542,-0.15735162934644092,9.730722282905516,0.6950559803386127,-0.5188888888888888,-1.3422222222222222,-0.27,-0.003838064178647188,-0.025220422735253142,0.004126956601883437
1592334325.7274542,-0.052360504278172224,9.759356226105952,0.8954935827416712,-0.5188888888888888,-1.3422222222222222,-0.27,0.0169851269328806,-0.030426220513135094,-0.0052434793983040665
1592334325.7374542,-0.10862726406101048,10.014051477597711,0.6459485224022878,-0.5188888888888888,-1.3422222222222222,-0.27,0.021716787475363188,-0.028411514432190817,-0.01824463877874196
1592334325.7474542,-0.30091324877718256,10.05471149977767,0.6052885002223304,-0.5188888888888888,-1.3422222222222222,-0.27,0.0009912107946736595,-0.010376023424459958,-0.006238202251606978
1592334325.7574542,-0.6,9.83,0.53,-0.5188888888888888,-1.3544444444444443,-0.31444444444444447,-0.09926560120717749,-0.01854412330243975,-0.02181661564992912
1592334325.7674541,-0.19215812051477377,9.755846931002687,0.9934566812332117,-0.5188888888888888,-1.3544444444444443,-0.31444444444444447,-0.15993193891631768,-0.030677390844267793,-0.016761087507500768
1592334325.7774541,-0.1944410905083609,9.588633510612812,0.8623913564275789,-0.5188888888888888,-1.3544444444444443,-0.31444444444444447,-0.18484498954939776,-0.009881867992783644,0.01933683234743634
1592334325.7874541,-0.3141134851560773,9.534629655685313,0.9355594862414827,-0.5188888888888888,-1.3544444444444443,-0.31444444444444447,-0.165633503586884,-0.04339855939647822,0.009624069506289912
1592334325.797454,-0.16236296757854116,9.138392193121746,1.0788794195091558,-0.5188888888888888,-1.3544444444444443,-0.31444444444444447,-0.10493765378132384,-0.065469777507591,-0.023482757660379272
1592334325.807454,-0.27,9.73,0.64,-0.49777777777777776,-1.3422222222222222,-0.36444444444444446,0.022907446432425576,-0.039269908169872414,0.016362461737446838
1592334325.817454,-0.18185423797060601,9.641854237970607,1.0190267767263943,-0.49777777777777776,-1.3422222222222222,-0.36444444444444446,0.020022883115377466,-0.0344623026414589,0.012516377314716028
1592334325.827454,0.07965730379084315,9.76032898836079,0.5697532587294071,-0.49777777777777776,-1.3422222222222222,-0.36444444444444446,0.03489163209692687,-0.049036545206277454,0.015282098015022191
1592334325.837454,-0.17,10.0,0.39,-0.49777777777777776,-1.3422222222222222,-0.36444444444444446,0.02399827721492203,-0.011999138607461015,0.022907446432425576
1592334325.847454,-0.04286306653809066,10.14721118611379,0.36323432979749276,-0.49777777777777776,-1.3422222222222222,-0.36444444444444446,0.002830584910915826,-0.009809377334632788,0.009038958371180131
1592334325.857454,-0.41,9.46,0.81,-0.5044444444444445,-1.3422222222222222,-0.39444444444444443,-0.01090830782496456,0.01090830782496456,0.01308996938995747
1592334325.867454,-0.03814164648910412,10.00539225181598,0.5042497982243745,-0.5044444444444445,-1.3422222222222222,-0.39444444444444443,-0.05057035161269325,-0.00802130398281504,-0.00043118190131367223
1592334325.877454,-0.2365178149761242,9.49783491630372,0.775771632471008,-0.5044444444444445,-1.3422222222222222,-0.39444444444444443,-0.08260468789288558,-0.017385462616114872,-0.007581551554412452
1592334325.887454,-0.09881666276255172,9.445415788240807,0.78,-0.5044444444444445,-1.3422222222222222,-0.39444444444444443,-0.09992498017982497,-0.02555893095332154,-0.006825251634137367
1592334325.897454,-0.07375627015406665,9.61213140451451,0.6057873522035113,-0.5044444444444445,-1.3422222222222222,-0.39444444444444443,-0.10667438826086814,-0.022314983833924388,-0.00740878705369066
1592334325.907454,-0.14,9.51,0.85,-0.5111111111111111,-1.3422222222222222,-0.4666666666666667,-0.08072147790473774,0.011999138607461015,0.007635815477475192
1592334325.917454,-0.3634834569881692,9.640365349909766,1.0548598355724885,-0.5111111111111111,-1.3422222222222222,-0.4666666666666667,-0.019775819339383313,0.03637740203360278,0.017793425238367595
1592334325.927454,-0.4679983957999125,9.620667201400028,1.040667201400029,-0.5111111111111111,-1.3422222222222222,-0.4666666666666667,0.04445632572433493,0.03497936542241425,0.008944987407554611
1592334325.937454,-0.29268385795577323,9.92537780018728,0.42924439962544114,-0.5111111111111111,-1.3422222222222222,-0.4666666666666667,0.10061776622453553,0.025235489741118756,-0.003093581327411256
1592334325.947454,-0.4175510204081633,9.591989795918368,0.9812244897959184,-0.5111111111111111,-1.3422222222222222,-0.4666666666666667,0.14457960238618844,0.02787183958541965,0.006467068210514702
1592334325.957454,-0.4212852920832547,9.40981638684525,1.0742231025592657,-0.49256904707008464,-1.3345872546759172,-0.5037507947487196,0.1883532017855949,0.016602810794974825,0.021636353856783128
1592334325.967454,-0.48584755579581435,9.958729631631787,0.6236998996061471,-0.4922222222222222,-1.3344444444444445,-0.5044444444444445,0.17195373251523388,-0.0035899107109496065,0.015431856466442255
1592334325.977454,-0.3865109397904338,9.979515988924481,0.46949915847765894,-0.4922222222222222,-1.3344444444444445,-0.5044444444444445,0.1430099350939277,-0.031632256775449646,0.009981377047384709
1592334325.987454,-0.07306637961966272,10.286525296017224,0.40285827054180123,-0.4922222222222222,-1.3344444444444445,-0.5044444444444445,0.06542886792935614,-0.07876166165281229,-0.020524918574796432
1592334325.997454,-0.29517238686501895,9.903920190543126,0.7156260981609465,-0.4922222222222222,-1.3344444444444445,-0.5044444444444445,0.03854928945099936,-0.08477200335924608,-0.0056145138318957795
1592334326.007454,-0.18,10.05,0.7,-0.5044444444444445,-1.3044444444444445,-0.54,-0.056723200689815706,-0.11562806294462433,-0.028361600344907853
1592334326.017454,-0.1345172968624296,9.81500603378922,0.7833849557522125,-0.5044444444444445,-1.3044444444444445,-0.54,-0.0641652905878572,-0.10983977080170318,-0.025880903712227357
1592334326.027454,-0.027145995399684694,9.554291990799369,0.5964357894192748,-0.5044444444444445,-1.3044444444444445,-0.54,-0.08781115909646302,-0.07963160564824352,-0.025089107997418484
1592334326.037454,-0.30106125074213336,9.510924698199089,0.5315411636651495,-0.5044444444444445,-1.3044444444444445,-0.54,-0.063017928985703,-0.038332296692318926,-0.0007733284327326173
1592334326.0474539,-0.291502985381923,9.355858211516026,0.5978223869329491,-0.5044444444444445,-1.3044444444444445,-0.54,-0.026531121759853928,-0.0182562745371732,-0.005380563447916086
1592334326.0574539,-0.12635186167722604,9.864989544645923,0.05421647264442431,-0.5161814550107675,-1.284171426193523,-0.5944170489893158,0.08991399378262648,0.029070890583119246,0.03212685773549368
1592334326.0674539,-0.16231005219331446,9.83358659707558,0.2415502609665724,-0.5166666666666667,-1.2833333333333334,-0.5966666666666667,0.13534924390204442,0.0428507572009672,0.058430744839523
1592334326.0774539,-0.07954979247627357,9.901318370476115,0.04691305152404368,-0.5166666666666667,-1.2833333333333334,-0.5966666666666667,0.14873179396859335,0.00516301193505652,0.026884925697716805
1592334326.0874538,0.12454565061107117,10.419524323028996,-0.5358447160316319,-0.5166666666666667,-1.2833333333333334,-0.5966666666666667,0.13319467325613538,8.027657160428019e-05,0.04109742222848474
1592334326.0974538,0.01721148636445731,10.118327614231534,-0.3023911865631208,-0.5166666666666667,-1.2833333333333334,-0.5966666666666667,0.05744917349702168,-0.005823543061331991,0.029148251476298202
1592334326.1074538,0.016504618052082295,9.771588809976326,0.21110266413257311,-0.4962263864344489,-1.2456801855371427,-0.6332440102401091,-0.13331984625983384,-0.049986535883344986,-0.008950915627611043
1592334326.1174538,-0.05939869704204265,9.784436126734915,0.14060130295795736,-0.4955555555555556,-1.2444444444444445,-0.6344444444444445,-0.17681310715072182,-0.04103325535272965,-0.0027311599023577965
1592334326.1274538,-0.1870752698995898,9.472299116692252,0.5600762513526437,-0.4955555555555556,-1.2444444444444445,-0.6344444444444445,-0.19487420024552965,-0.04093888997308402,-0.021178538525124836
1592334326.1374538,-0.15847348409045428,9.631700220132078,0.4657586551931159,-0.4955555555555556,-1.2444444444444445,-0.6344444444444445,-0.15190166830193125,-0.03886308962949611,-0.014291476819787468
1592334326.1474538,-0.08790263826029364,9.510399602605144,0.4792758582625014,-0.4955555555555556,-1.2444444444444445,-0.6344444444444445,-0.08620152083568086,-0.037853598239005505,-0.022177496525869273
1592334326.1574538,0.14643268264457776,10.144528428297347,0.07982002009927824,-0.501327093759411,-1.19153867757577,-0.6854263652451672,-0.019908251427799395,-0.014569934130676771,0.011301760326346777
1592334326.1674538,-0.05156670602125149,10.009657615112161,0.3041523022432113,-0.5022222222222222,-1.1833333333333333,-0.6933333333333334,-0.027018603485418707,0.004111157052993137,0.022232213162929833
1592334326.1774538,-0.10334686898910023,9.73002030348365,0.47133468689891,-0.5022222222222222,-1.1833333333333333,-0.6933333333333334,-0.061518869553107716,-0.012431484340767207,-0.006103779895689453
1592334326.1874537,0.00606103362089816,9.89082076916875,0.3908909134886721,-0.5022222222222222,-1.1833333333333333,-0.6933333333333334,-0.07161374885991104,-0.007732999063273674,-0.008442747060915084
1592334326.1974537,-0.21849640143496957,9.877280910893736,0.5174279729940506,-0.5022222222222222,-1.1833333333333333,-0.6933333333333334,-0.09225999274252719,0.014053776805860948,-0.023204053042171876
1592334326.2074537,-0.2373682810005322,9.81938597658329,0.7501756253326237,-0.509522426231447,-1.1218030423984389,-0.7058479687777186,-0.12281417922311531,0.009463421468505874,-0.07866426915986069
1592334326.2174537,-0.4742988922457201,9.700829808660623,0.7361659617321249,-0.51,-1.1177777777777778,-0.7066666666666667,-0.11070528533235272,0.027575850654974254,-0.06556299455361125
1592334326.2274537,-0.6904147247017931,9.594792637649103,0.7536098164678622,-0.51,-1.1177777777777778,-0.7066666666666667,-0.12802766401014062,0.037611042272578846,-0.03804335904608266
1592334326.2374537,-0.4513018119233159,9.684333795477363,0.8028789979442559,-0.51,-1.1177777777777778,-0.7066666666666667,-0.11343638849488508,0.01837875425280088,-0.016197092687807967
1592334326.2474537,-0.35421318852977274,9.652795774909807,0.8443303455201399,-0.51,-1.1177777777777778,-0.7066666666666667,-0.09659879237781546,0.008250018892367662,-0.004664034914858204
1592334326.2574537,-0.19989490946818836,9.60780113122929,0.9078011312292915,-0.5258232277593702,-1.0703080944996672,-0.7343573152455645,-0.06688900319484276,-0.022450654881483584,0.018195797839880807
1592334326.2674537,-0.16579336386277818,9.616051659034305,0.9039483409656945,-0.5277777777777778,-1.0644444444444445,-0.7377777777777778,-0.06214917896989077,-0.028389775977315068,0.026236290044729375
1592334326.2774537,-0.20980419803665967,9.55165234510096,0.9427172843118997,-0.5277777777777778,-1.0644444444444445,-0.7377777777777778,-0.04601649443568312,-0.030543261909900768,0.025883529042693445
1592334326.2874537,-0.14912472823898865,9.510468636766245,0.9972501811740075,-0.5277777777777778,-1.0644444444444445,-0.7377777777777778,-0.03525766408309766,-0.02152342029185092,0.019934912787104287
1592334326.2974536,-0.2823367038011754,9.471137582365396,1.036287472544868,-0.5277777777777778,-1.0644444444444445,-0.7377777777777778,0.006897982431626086,0.0066757885523887235,0.015676604877842493
1592334326.3074536,-0.3682037861217326,9.619838901773962,1.04,-0.5277777777777778,-1.0143938792424971,-0.7410068465004841,0.07115836621743085,0.03469307541045356,0.029537219579124717
1592334326.3174536,-0.26500506954374103,9.792266735993762,0.7722870141687248,-0.5277777777777778,-0.9955555555555555,-0.7422222222222222,0.13531003633119523,0.058259325244488416,0.060341418191845936
1592334326.3274536,-0.16746499814149424,9.940318423987115,0.6127134184115971,-0.5277777777777778,-0.9955555555555555,-0.7422222222222222,0.1604313254777959,0.06298192846528912,0.08141765797667916
1592334326.3374536,-0.18435937828187354,10.06025624868725,0.5221796891409368,-0.5277777777777778,-0.9955555555555555,-0.7422222222222222,0.17986819551135488,0.04645814164070891,0.09752444763067382
1592334326.3474536,0.11842014273682344,10.109346158960946,0.4440325369032315,-0.5277777777777778,-0.9955555555555555,-0.7422222222222222,0.11056021370528199,-0.015027972268262156,0.027232037550496885
1592334326.3574536,-0.09379470333243028,10.01973618260634,0.41125406393931185,-0.5323615626599235,-0.9469674358048105,-0.7513897919865137,0.07123160474262653,-0.032505338735962536,0.025229451608320144
1592334326.3674536,-0.420445725420151,9.851732564747909,0.6331622960136397,-0.5333333333333333,-0.9366666666666666,-0.7533333333333333,0.03617356767968477,-0.030709317582319446,0.011820241296375295
1592334326.3774536,-0.1879199619581539,9.765767844629092,0.837303533887276,-0.5333333333333333,-0.9366666666666666,-0.7533333333333333,-0.03490265372462281,-0.08581425112175736,-0.047363448867573245
1592334326.3874536,-0.21683794147325935,9.725858728557013,0.7528892028254288,-0.5333333333333333,-0.9366666666666666,-0.7533333333333333,-0.045942710493976774,-0.08061466234557178,-0.0348295334205377
1592334326.3974535,-0.24057356166507898,9.526799663262366,0.9350789782671305,-0.5333333333333333,-0.9366666666666666,-0.7533333333333333,-0.052194847687354454,-0.037974149386410715,0.022124007651376978
1592334326.4074535,-0.07726954185768097,9.425453908371535,1.047269541857681,-0.5381820305428213,-0.8986852051923445,-0.7040382450368726,-0.007534494698454512,-0.033617699367748326,0.04293927474137865
1592334326.4174535,0.29337250771918905,9.552666650709687,0.6688235716508293,-0.54,-0.8844444444444445,-0.6855555555555556,0.0798616382884431,-0.023228280551368496,0.03450875386554306
1592334326.4274535,0.1530509564378717,9.395363285645395,0.6165435621282752,-0.54,-0.8844444444444445,-0.6855555555555556,0.14034407735621146,-0.0007111617016733671,0.024249198103806845
1592334326.4374535,0.22993342281879195,9.774337181208054,0.18378630872483226,-0.54,-0.8844444444444445,-0.6855555555555556,0.2448228395782408,0.029936437870306365,-0.0035927426948016185
1592334326.4474535,-0.022097406159391875,9.74703393151007,0.30091097876341977,-0.54,-0.8844444444444445,-0.6855555555555556,0.3245764599833218,0.07302556885778563,0.00397968167932803
1592334326.4574535,-0.2858912424129815,9.923021181716834,0.24747429703951446,-0.5352145010116025,-0.8429701198783325,-0.6855555555555556,0.376725497824776,0.08142343082373553,-0.013840700942979928
1592334326.4674535,-0.382684126984127,9.99911746031746,0.0963968253968254,-0.5333333333333333,-0.8266666666666667,-0.6855555555555556,0.3887789302175954,0.07145140745256529,-0.02399827721492203
1592334326.4774535,-0.5176586283564221,10.024081010204664,-0.14585342910894475,-0.5333333333333333,-0.8266666666666667,-0.6855555555555556,0.34984994138119907,0.05172136749431011,-0.028617004371115765
1592334326.4874535,-0.3476608046253915,10.171403517224764,-0.4032748735244519,-0.5333333333333333,-0.8266666666666667,-0.6855555555555556,0.19373727573818786,0.054383656413639014,0.007677283340033113
1592334326.4974535,-0.35657780324222305,10.104524957028747,-0.3745249570287486,-0.5333333333333333,-0.8266666666666667,-0.6855555555555556,0.10919517231643916,0.04515129893056983,0.015777653498520915
1592334326.5074534,-0.35722136222910217,9.9446826625387,-0.2,-0.5431217750257997,-0.796485638114895,-0.6488488992088063,-0.023622143226065866,-2.617318440974528e-05,-0.0032855789396942416
1592334326.5174534,-0.2631906739061003,9.889132864899393,-0.15130629191951453,-0.5466666666666666,-0.7855555555555556,-0.6355555555555555,-0.055141827032277727,-0.007398731367769399,0.0007743121731390527
1592334326.5274534,-0.30090388204063395,9.8,-0.10844797224485504,-0.5466666666666666,-0.7855555555555556,-0.6355555555555555,-0.0859591973656978,-0.02484910630266521,0.004556190338276981
1592334326.5374534,-0.23836731259316246,9.561850266865413,0.03628576236957254,-0.5466666666666666,-0.7855555555555556,-0.6355555555555555,-0.07620528530725247,-0.04246671321538831,0.0035262782176201128
1592334326.5474534,-0.24159806127747968,9.587461658300155,-0.034794183832438985,-0.5466666666666666,-0.7855555555555556,-0.6355555555555555,-0.053509696664370984,-0.04505861876929034,-0.000930595538939853
1592334326.5574534,-0.19441316115764962,9.866747512625881,-0.3676786524329392,-0.5420153022650982,-0.7669500979492814,-0.6231519171513727,0.03331073328635441,-0.028411676890340753,0.006596479745980552
1592334326.5674534,-0.2690344908955048,9.912096983521455,-0.4140323278404845,-0.54,-0.7588888888888888,-0.6177777777777778,0.0571630594231675,-0.016098452116355747,0.016380093839212916
1592334326.5774534,-0.36873167405386975,9.894896797713027,-0.46914448320176244,-0.54,-0.7588888888888888,-0.6177777777777778,0.030244040866754328,-0.006104149332721979,0.020400787157312816
1592334326.5874534,-0.29227519733449686,9.964155329023047,-0.5306267105628495,-0.54,-0.7588888888888888,-0.6177777777777778,-0.004247408026804355,-0.0016555653576082615,0.014078254896403134
1592334326.5974534,-0.10433733342173308,10.17531459258768,-0.619370814824637,-0.54,-0.7588888888888888,-0.6177777777777778,-0.10463506620854769,0.02154938633604432,0.003035927506970511
1592334326.6074533,-0.03354712298347593,9.963246032264385,-0.31196329436352954,-0.5317212026212091,-0.73329987880899,-0.6072411265684076,-0.22748320930975258,0.043421206454406634,0.00837469641570723
1592334326.6174533,-0.024285253307518555,9.891429493384962,-0.1817860600193611,-0.5277777777777778,-0.7211111111111111,-0.6022222222222222,-0.28439567114292486,0.05528195943814364,0.0018697944874543964
1592334326.6274533,-0.2548973533887101,9.799135673127292,-0.11279827384070444,-0.5277777777777778,-0.7211111111111111,-0.6022222222222222,-0.3130819036387527,0.05776015522323279,-0.02775111169624886
1592334326.6374533,-0.2839087870105062,9.661363419293219,0.08100047755491879,-0.5277777777777778,-0.7211111111111111,-0.6022222222222222,-0.2737289820372393,0.061686506796754866,-0.001898925935957592
1592334326.6474533,-0.5340326612231294,9.449980003332778,0.25201133144475923,-0.5277777777777778,-0.7211111111111111,-0.6022222222222222,-0.1963429969553161,0.051703852181721285,0.02465393904336141
1592334326.6574533,-0.5770287539936102,9.272635782747605,0.4857188498402556,-0.5199875754348597,-0.696324103656372,-0.5816844160454384,-0.05070272089185204,0.02724637398580605,0.04206320169118523
1592334326.6674533,-0.4281181992745893,9.47377569162933,0.28434250764526,-0.5155555555555555,-0.6822222222222222,-0.57,0.06831970706904568,0.001293465730500206,0.03224595403807318
1592334326.6774533,-0.18440387823690127,10.01814695713146,-0.2046903938683237,-0.5155555555555555,-0.6822222222222222,-0.57,0.10400597689807073,-0.008062267831791911,0.022813183292198724
1592334326.6874533,0.05353774134196612,10.11430817243869,-0.23013251973822113,-0.5155555555555555,-0.6822222222222222,-0.57,0.04163410738705893,0.002457309933301984,0.021071018570377544
1592334326.6974533,0.1369058928748882,10.137623571499553,-0.24325886912451555,-0.5155555555555555,-0.6822222222222222,-0.57,-0.07023415293050389,0.015012402818881415,0.013963913137810292
1592334326.7074533,-0.003104108801838923,10.004999201864445,-0.03844714746352518,-0.5155555555555555,-0.6652106545775734,-0.5664559234073648,-0.20266913663445615,0.029076318607819285,0.008726646259971648
1592334326.7174532,-0.14968289027372406,9.860211406484185,0.1124867870947385,-0.5155555555555555,-0.6555555555555556,-0.5644444444444444,-0.25491395410275497,0.03218815590991672,0.006556515130007096
1592334326.7274532,-0.19667690190057707,9.600616761077877,0.13818042246810314,-0.5155555555555555,-0.6555555555555556,-0.5644444444444444,-0.2755848924712493,0.018015946144479426,-0.001983176446699708
1592334326.7374532,-0.3900936424255555,9.614220890204857,0.319358946582894,-0.5155555555555555,-0.6555555555555556,-0.5644444444444444,-0.21779556130819389,-0.005764510644826849,-0.01677286577922814
1592334326.7474532,-0.37362499267105753,9.616330642797115,0.4797701643637501,-0.5155555555555555,-0.6555555555555556,-0.5644444444444444,-0.15853597822278703,-0.024053258992006058,-0.015802091047003402
1592334326.7574532,-0.23558235636230065,9.720723621782117,0.32787045823257527,-0.5155555555555555,-0.6518339846473551,-0.5476973753575425,-0.11288557632153931,-0.026762567765307235,0.01015051283250207
1592334326.7674532,-0.23764227642276423,9.827032520325202,0.20833333333333331,-0.5155555555555555,-0.6488888888888888,-0.5344444444444445,-0.10177096458974048,-0.02123572608689239,0.028432548688484858
1592334326.7774532,-0.20312246949030868,9.769380904522613,0.49123819095477383,-0.5155555555555555,-0.6488888888888888,-0.5344444444444445,-0.1491766302221237,-0.015477173857886255,0.033812809875665664
1592334326.7874532,-0.11472168725632957,9.749814458170887,0.5115515054723097,-0.5155555555555555,-0.6488888888888888,-0.5344444444444445,-0.20380878613206613,-0.020041485694139407,0.012385430742800428
1592334326.7974532,0.04986828429804925,9.81380996162456,0.5078833546530221,-0.5155555555555555,-0.6488888888888888,-0.5344444444444445,-0.21129792553829688,0.004242231145536162,0.021233743285457178
1592334326.8074532,-0.011407821229050291,9.645843575418995,0.7673519553072625,-0.5024208566108007,-0.6410080695220359,-0.5272203600248293,-0.18786665565810473,0.024245694699667038,0.017895718859659737
1592334326.8174531,-0.1423550522370205,9.531775261185103,0.9182247388148975,-0.49333333333333335,-0.6355555555555555,-0.5222222222222223,-0.1553755738735609,0.024255173562374943,0.007860436665800087
1592334326.8274531,-0.2383502976762051,9.691430766276167,0.5289053197618591,-0.49333333333333335,-0.6355555555555555,-0.5222222222222223,-0.03286989272810811,0.03472663043221145,0.010045196086173432
1592334326.8374531,-0.295601714081657,9.674135618775543,0.4086652382652859,-0.49333333333333335,-0.6355555555555555,-0.5222222222222223,-0.003054092469360688,0.036317268200379664,0.011141033973339095
1592334326.847453,-0.3250305293858453,9.725749176440967,0.39961014708659437,-0.49333333333333335,-0.6355555555555555,-0.5222222222222223,0.011842354141565786,0.025402676929208945,0.017567550629979643
1592334326.857453,-0.2665783887597291,9.689735166279188,0.4247387041342363,-0.5025435493109606,-0.6140650516077586,-0.5191521502296799,0.017194836303004883,0.02916508603297534,0.03726003618934624
1592334326.867453,-0.28778542993630574,9.725674761146497,0.39038057324840764,-0.51,-0.5966666666666667,-0.5166666666666667,0.01944622993761417,0.0342988984964847,0.0457318646619796
1592334326.877453,-0.35051842165987235,9.655648027074841,0.4318144758095531,-0.51,-0.5966666666666667,-0.5166666666666667,0.02595373465795429,0.004674353797681722,0.014378728779169497
1592334326.887453,-0.2996548544025085,9.604712378668758,0.42574781546123164,-0.51,-0.5966666666666667,-0.5166666666666667,0.03490658503988659,-0.00929088642332922,0.010406816901971467
1592334326.897453,-0.354725534175422,9.656656435682525,0.4335163105497186,-0.51,-0.5966666666666667,-0.5166666666666667,0.0652735575694028,-0.024551440410689226,0.0005376675867292575
1592334326.907453,-0.5617916329474685,9.749552091763134,0.3745374898842405,-0.49909444894033755,-0.6016650442356787,-0.5143946768625703,0.12266482536790703,-0.06256822827630468,-0.010712870987961219
1592334326.917453,-0.68,9.72,0.41,-0.48333333333333334,-0.6088888888888889,-0.5111111111111111,0.1407171709420428,-0.08835729338221293,0.002181661564992912
1592334326.927453,-0.5330862984077059,9.70824061332809,0.09104973461765287,-0.48333333333333334,-0.6088888888888889,-0.5111111111111111,0.1622072021056849,-0.1476022495275345,0.029587096299688125
1592334326.937453,-0.43,9.772960334918045,0.11661108351663951,-0.48333333333333334,-0.6088888888888889,-0.5111111111111111,0.18472007568383697,-0.22254333464311843,0.01474266355499432
1592334326.947453,-0.2957073724459314,9.94704624208388,-0.06758453817660413,-0.48333333333333334,-0.6088888888888889,-0.5111111111111111,0.19420476602250353,-0.27186529637124335,-0.011134907097920723
1592334326.957453,-0.06966433050534859,10.0100959055699,-0.10535964588712651,-0.48333333333333334,-0.602748473298086,-0.49994671912783306,0.11807005926294634,-0.29614224951691226,-0.037662431601789295
1592334326.967453,0.00022443890274314213,10.029382793017456,-0.17899002493765587,-0.48333333333333334,-0.5966666666666667,-0.4888888888888889,0.058372368175821886,-0.29240997654662326,-0.043755643731809214
1592334326.977453,-0.03692808539026018,9.88634396264176,-0.028848032021347565,-0.48333333333333334,-0.5966666666666667,-0.4888888888888889,-0.05592735267315832,-0.3006704841597894,-0.07121903919606441
1592334326.987453,-0.0714108043217287,9.844601200480191,0.015583193277310933,-0.48333333333333334,-0.5966666666666667,-0.4888888888888889,-0.05212552572689404,-0.25783740658779447,-0.03858041930600682
1592334326.997453,-0.05720476124126675,9.722112701287845,0.27950158243595613,-0.48333333333333334,-0.5966666666666667,-0.4888888888888889,-0.030543261909900768,-0.2177867899627005,-0.014356891210214356
1592334327.007453,-0.021938657226103567,9.511938657226104,0.48370061718725527,-0.48635828190106206,-0.593641718098938,-0.476789094617974,-0.009755107727074264,-0.1975605649919901,-0.02112945958164201
1592334327.017453,0.08729772817855719,9.466396970904743,0.43150737345556,-0.49,-0.59,-0.4622222222222222,0.019771297063569483,-0.17909076315288985,-0.014906687408187718
1592334327.027453,0.16501056090119692,9.867088320425564,0.3,-0.49,-0.59,-0.4622222222222222,0.08265336541822732,-0.11296921091293971,-0.01745252450953553
1592334327.037453,0.03882890110668019,9.75220722527667,0.27926425824111,-0.49,-0.59,-0.4622222222222222,0.1007139075768117,-0.08581815623008227,-0.020973917403435537
1592334327.047453,0.1259986625055729,9.8841825071941,0.19018116969967172,-0.49,-0.59,-0.4622222222222222,0.11293062981117181,-0.05789332482976393,-0.006049218838393643
1592334327.057453,0.07799697561590321,9.993354546027346,0.2068363682187638,-0.48703232310503436,-0.5845592590258962,-0.44936228901070435,0.080693710553208,-0.06935535243487312,-0.025468915879976323
1592334327.067453,0.25,10.01,0.34,-0.48333333333333334,-0.5777777777777777,-0.43333333333333335,0.05890486225480862,-0.09053895494720585,-0.038179077387375956
1592334327.077453,-0.024269380997956475,9.889512920665304,0.10825215344421739,-0.48333333333333334,-0.5777777777777777,-0.43333333333333335,0.014896545888297717,-0.0452116472739411,-0.01660625433324004
1592334327.087453,-0.027884544363401362,9.942240790324071,0.1555184193518604,-0.48333333333333334,-0.5777777777777777,-0.43333333333333335,-0.03743666587291075,-0.02678646224772856,-0.01586903982708346
1592334327.0974529,0.09641687404672072,9.948665007626234,0.21074937785983786,-0.48333333333333334,-0.5777777777777777,-0.43333333333333335,-0.07673872397927384,-0.019535345831336648,-0.01758105378763715
1592334327.1074529,0.025918148703664018,9.951175732345648,0.2361030334567939,-0.4779084147050721,-0.5777777777777777,-0.42858652953360477,-0.12219321543759591,-0.007302946639411364,-0.0028473992411205662
1592334327.1174529,-0.21314992393158455,9.702492969434328,0.4141212945461251,-0.46555555555555556,-0.5777777777777777,-0.4177777777777778,-0.15269058644106037,-0.019125370003103347,-0.009685793837269313
1592334327.1274529,-0.20834489041858584,9.64264361998279,0.45779318722478113,-0.46555555555555556,-0.5777777777777777,-0.4177777777777778,-0.15580825744901206,-0.03490658503988659,-0.010464455587251899
1592334327.1374528,-0.19588640234103283,9.678085198244226,0.3716209733515627,-0.46555555555555556,-0.5777777777777777,-0.4177777777777778,-0.14227328784876594,-0.048141323485984544,-0.014919062180055568
1592334327.1474528,-0.34,9.57,0.49,-0.46555555555555556,-0.5777777777777777,-0.4177777777777778,-0.14508049407202864,-0.062177354602297986,-0.0272707695624114
1592334327.1574528,-0.05327677921496164,9.737232207850383,0.4034464415700767,-0.46742311688473287,-0.5729221183219168,-0.40433133620770106,-0.08176604045733661,-0.07343384994479552,-0.011971377669522462
1592334327.1674528,-0.0005510277677605521,9.975197259285972,0.23275513883880272,-0.4711111111111111,-0.5633333333333334,-0.37777777777777777,-0.058950624959832214,-0.07172571022416317,-0.009279234201262254
1592334327.1774528,0.1093551874969283,9.931934437509215,0.190026048066054,-0.4711111111111111,-0.5633333333333334,-0.37777777777777777,-0.07451231490443427,-0.07069014506085525,-0.0077061536102041115
1592334327.1874528,0.11348683422383017,9.800765987013921,0.22145674102115628,-0.4711111111111111,-0.5633333333333334,-0.37777777777777777,-0.10297278453807442,-0.04529254233608832,-0.0010364944095705118
1592334327.1974528,0.04,9.89,-0.02,-0.4711111111111111,-0.5633333333333334,-0.37777777777777777,-0.09381144729469522,-0.02181661564992912,-0.002181661564992912
1592334327.2074528,0.05098149849101169,9.614754625377246,0.3132823776407296,-0.4713752569654026,-0.5649182084590824,-0.38173996559215034,-0.1267956953556259,0.011258022076287805,0.000831506196459459
1592334327.2174528,0.04130937835074683,9.63,0.4759738672917238,-0.4722222222222222,-0.57,-0.39444444444444443,-0.12406548386708295,0.04595772388594406,0.0005088168121431989
1592334327.2274528,0.1,9.63,0.54,-0.4722222222222222,-0.57,-0.39444444444444443,-0.11999138607461016,0.05235987755982988,0.001090830782496456
1592334327.2374527,-0.02222883632724016,9.692085813622715,0.41805720908181004,-0.4722222222222222,-0.57,-0.39444444444444443,-0.07340030415668147,0.06461774585165009,-0.00783213973435762
1592334327.2474527,-0.07,9.71,0.43,-0.4722222222222222,-0.57,-0.39444444444444443,-0.04799655442984406,0.07308566242726255,-0.0032724923474893677
1592334327.2574527,-0.19377138062350738,9.658278577422061,0.48032853546763055,-0.4722222222222222,-0.568852384948041,-0.39195794516520005,-0.010613016770824615,0.09046727962695919,0.01997467257235281
1592334327.2674527,-0.192032333767927,9.764695436766623,0.5682318122555411,-0.4722222222222222,-0.5633333333333334,-0.38,0.011178811103753121,0.08472785617189312,0.02841041040026024
1592334327.2774527,-0.1,9.92,0.62,-0.4722222222222222,-0.5633333333333334,-0.38,0.017453292519943295,0.0916297857297023,0.044724062082354694
1592334327.2874527,-0.36783851687295044,9.998450227441024,0.1737112556860256,-0.4722222222222222,-0.5633333333333334,-0.38,-0.06873301335285494,0.04564673321629588,0.01692478252482706
1592334327.2974527,-0.11,10.25,0.18,-0.4722222222222222,-0.5633333333333334,-0.38,-0.1112647398146385,0.006544984694978735,0.014180800172453926
1592334327.3074527,-0.3118541014786183,9.976376464813793,0.2927247070372415,-0.47070849609042137,-0.5633333333333334,-0.38,-0.2172621837783157,-0.050361995449327145,0.002481959602974481
1592334327.3174527,-0.21,9.94,0.3,-0.4666666666666667,-0.5633333333333334,-0.38,-0.2498002491916884,-0.0916297857297023,-0.00545415391248228
1592334327.3274527,-0.35945578061390143,10.034344014585779,0.23163265815829567,-0.4666666666666667,-0.5633333333333334,-0.38,-0.3669113777592299,-0.13902209090444537,-0.0064622985283692615
1592334327.3374527,-0.268086711855736,9.755550581915847,0.41842051413224196,-0.4666666666666667,-0.5633333333333334,-0.38,-0.44230823531195185,-0.17593681702246172,-0.022317736531208984
1592334327.3474526,-0.19980065721751525,9.605459656346504,0.6435436297410722,-0.4666666666666667,-0.5633333333333334,-0.38,-0.45647584350661935,-0.18800100146644944,-0.015940865011707255
1592334327.3574526,-0.1530910270971929,9.420881064416681,0.9805873762777868,-0.47038383182793375,-0.5613317828618819,-0.38,-0.42382059189134696,-0.1856899134153447,-0.02209733244711221
1592334327.3674526,0.04,9.51,1.04,-0.4811111111111111,-0.5555555555555556,-0.38,-0.3719732968312915,-0.1832595714594046,-0.022907446432425576
1592334327.3774526,-0.030550995530272254,9.540690776107274,0.9514473791141812,-0.4811111111111111,-0.5555555555555556,-0.38,-0.2649283567791571,-0.159343826829489,-0.035433162435094145
1592334327.3874526,0.06,9.68,0.84,-0.4811111111111111,-0.5555555555555556,-0.38,-0.19198621771937624,-0.13199052468207118,-0.031634092692397225
1592334327.3974526,-0.1069561586638831,9.503043841336117,0.8267824634655532,-0.4811111111111111,-0.5555555555555556,-0.38,-0.052049799231344035,-0.042988115341474946,0.0016631639604860371
1592334327.4074526,0.011521775128332506,9.661087928464976,0.76173869846001,-0.48330923074092474,-0.5545410388033339,-0.3778018803701864,0.025350119833932375,-0.004505479749595811,0.015603630785754902
1592334327.4174526,0.02,9.89,0.66,-0.4955555555555556,-0.5488888888888889,-0.3655555555555556,0.06326818538479445,0.025089107997418484,0.017453292519943295
1592334327.4274526,-0.1740594351251407,9.964091055254837,0.2829623774050056,-0.4955555555555556,-0.5488888888888889,-0.3655555555555556,0.0063877235981935135,0.03906815796726803,-0.0035135578242900616
1592334327.4374526,-0.35,9.76,0.29,-0.4955555555555556,-0.5488888888888889,-0.3655555555555556,-0.04581489286485115,0.03599741582238304,-0.019634954084936207
1592334327.4474525,-0.14577702702702702,10.11018581081081,0.2245608108108108,-0.4955555555555556,-0.5488888888888889,-0.3655555555555556,-0.1479291839195616,0.07055943100360944,0.021109049736958443
1592334327.4574525,-0.4181941587823941,9.818082144100243,0.3197012941809322,-0.49422720065254006,-0.551324206211084,-0.36422720065254005,-0.22795512276030366,0.06113132647637466,0.005462299850041029
1592334327.4674525,-0.21,9.73,0.64,-0.4888888888888889,-0.5611111111111111,-0.35888888888888887,-0.2585268954516601,0.01308996938995747,-0.0032724923474893677
1592334327.4774525,-0.27,9.67,0.5139634008584983,-0.4888888888888889,-0.5611111111111111,-0.35888888888888887,-0.2573556426994321,0.01729244858048038,0.016714379733697673
1592334327.4874525,-0.20400983653985247,9.58664400405034,0.67335599594966,-0.4888888888888889,-0.5611111111111111,-0.35888888888888887,-0.24484204221243142,0.017270251335552163,0.024618723712358175
1592334327.4974525,-0.08,9.43,0.83,-0.4888888888888889,-0.5611111111111111,-0.35888888888888887,-0.21707532571679475,0.008726646259971648,0.019634954084936207
1592334327.5074525,-0.03270308205158196,9.79891806538394,0.5343242294871046,-0.48384375954409287,-0.5609008973884113,-0.3590991026115887,-0.09720170522055105,0.0016510147172938932,-0.0030071689236398583
1592334327.5174525,-0.13,9.58,0.51,-0.4622222222222222,-0.56,-0.36,-0.05563236990731925,0.008726646259971648,-0.006544984694978735
1592334327.5274525,-0.0045526479566132235,9.748210591826453,0.5643943929111224,-0.4622222222222222,-0.56,-0.36,-0.023900680139014235,0.008380740757416686,0.00862904918406385
1592334327.5374525,-0.02,9.81,0.24,-0.4622222222222222,-0.56,-0.36,-0.0272707695624114,0.01090830782496456,0.011999138607461015
1592334327.5474524,0.06134118810603943,9.987195287136377,0.20640235643181185,-0.4622222222222222,-0.56,-0.36,-0.07335157456443321,0.007941762190245638,0.007868611726686342
1592334327.5574524,0.12164382708359289,9.933325028030398,0.2600373738632117,-0.465374292318979,-0.56,-0.36,-0.12200052868128998,0.018368886440096512,0.01000086761690176
1592334327.5674524,0.03,9.9,0.41,-0.4811111111111111,-0.56,-0.36,-0.15926129424448257,0.044724062082354694,0.016362461737446838
1592334327.5774524,-0.0006953132367271242,9.589039072077453,0.5241718794203628,-0.4811111111111111,-0.56,-0.36,-0.16659372208911807,0.0707523070458498,0.007332427844635515
1592334327.5874524,-0.018841818702836945,9.651054541981088,0.6684181870283694,-0.4811111111111111,-0.56,-0.36,-0.14517291616621858,0.07161581770156895,0.006165970751781595
1592334327.5974524,-0.04247531467555006,9.52732720272885,0.88,-0.4811111111111111,-0.56,-0.36,-0.08175771383707595,0.07907984622863587,0.014980074001076133
1592334327.6074524,-0.06626903064174215,9.58,0.8691539795721719,-0.4787008843493715,-0.5606025566904349,-0.35909616496434765,-0.0037362373284466205,0.08072147790473774,0.022056791824336945
1592334327.6174524,-0.17,9.58,0.8,-0.4633333333333333,-0.5644444444444444,-0.35333333333333333,0.06981317007977318,0.08072147790473774,0.030543261909900768
1592334327.6274524,-0.20782467787041634,9.880454509814172,0.5160390475941559,-0.4633333333333333,-0.5644444444444444,-0.35333333333333333,0.13640342714168144,0.07886919529037816,0.030259927017544323
1592334327.6374524,-0.2,9.99,0.25,-0.4633333333333333,-0.5644444444444444,-0.35333333333333333,0.148352986419518,0.0643590161672909,0.0370882466048795
1592334327.6474524,-0.2622500055271827,10.050812495854613,0.26774999447281733,-0.4633333333333333,-0.5644444444444444,-0.35333333333333333,0.094472756372249,0.019007722164546034,0.017572598745342023
1592334327.6574523,-0.31461919429848406,9.990112339191883,0.2329588693603914,-0.46626301060981257,-0.5644444444444444,-0.35333333333333333,-0.0015920054978706497,-0.03560112741526121,-0.02351890989152744
1592334327.6674523,-0.19,9.91,0.5,-0.49,-0.5644444444444444,-0.35333333333333333,-0.07635815477475191,-0.05890486225480862,-0.019634954084936207
1592334327.6774523,-0.3074815843972003,9.903092772695102,0.4128424253545495,-0.49,-0.5644444444444444,-0.35333333333333333,-0.1649275120435875,-0.04660369846254336,0.012318835782817148
1592334327.6874523,-0.18,9.68,0.62,-0.49,-0.5644444444444444,-0.35333333333333333,-0.21707532571679475,-0.07963064712224129,-0.016362461737446838
1592334327.6974523,0.06499584054679947,9.648767677676101,0.7587427209568991,-0.49,-0.5644444444444444,-0.35333333333333333,-0.19649031852527388,-0.0909531209076802,-0.03272673837872948
1592334327.7074523,0.0839718804920914,9.498998242530755,0.84103690685413,-0.488107791446983,-0.5650009763718024,-0.3526654950205038,-0.15237698257498386,-0.04264208979801172,-0.016141995059086395
1592334327.7174523,-0.06,9.49,1.03,-0.4711111111111111,-0.57,-0.3466666666666667,-0.09053895494720585,0.00545415391248228,-0.004363323129985824
1592334327.7274523,-0.0932932648902417,9.528990378414631,1.0796153945365905,-0.4711111111111111,-0.57,-0.3466666666666667,0.018808959356941175,0.05281613729460895,0.011999138607461015
1592334327.7374523,-0.11982101093026586,9.61251491575581,0.9474850842441888,-0.4711111111111111,-0.57,-0.3466666666666667,0.10319089467876312,0.07448336909310749,0.012822142864008268
1592334327.7474523,-0.05730114840826559,9.643400984349942,0.9204991797083817,-0.4711111111111111,-0.57,-0.3466666666666667,0.17026833161546748,0.09758597234595034,0.017824282361913833
1592334327.7574522,-0.16554314365241757,9.736179837416358,0.8431834688197017,-0.4711111111111111,-0.57,-0.3466666666666667,0.22255811320840796,0.12120071242018154,0.027944885250870057
1592334327.7674522,-0.3748606692963481,9.896486066929635,0.7006733681129914,-0.4711111111111111,-0.5488888888888889,-0.36,0.21338912548912864,0.15868632829036458,0.0474806896014656
1592334327.7774522,-0.19394274873321965,9.944229005067122,0.6122938930381114,-0.4711111111111111,-0.5488888888888889,-0.36,0.16536453451725153,0.15073407870776792,0.043672368236748554
1592334327.7874522,-0.14,10.16,0.62,-0.4711111111111111,-0.5488888888888889,-0.36,0.1308996938995747,0.13308135546456762,0.02181661564992912
1592334327.7974522,-0.1180363111202806,9.160599546110996,0.9620132040437384,-0.4711111111111111,-0.5488888888888889,-0.36,0.14368125097174114,0.12056860142244323,-0.013746988450493918
1592334327.8074522,0.16752568599133483,9.688456571074893,0.8581724778213328,-0.4711111111111111,-0.5488888888888889,-0.36,0.28149632141730196,0.15643827729183576,0.006075727161538803
1592334327.8174522,-0.3584213797389683,9.845341827221878,0.4941578620261032,-0.47555555555555556,-0.5755555555555556,-0.3388888888888889,0.3747376613531245,0.2100337384437062,0.01163168659744667
1592334327.8274522,-0.2,9.98,0.51,-0.47555555555555556,-0.5755555555555556,-0.3388888888888889,0.3894265893512348,0.20398535632683729,0.01854412330243975
1592334327.8374522,-0.5303779700380267,10.226872878544267,-0.002749151417706659,-0.47555555555555556,-0.5755555555555556,-0.3388888888888889,0.2765611125036288,0.22889826883074021,0.061903721246986815
1592334327.8474522,-0.4534167989902691,10.220250396970807,0.07618256585643907,-0.47555555555555556,-0.5755555555555556,-0.3388888888888889,0.07869277514496115,0.19152001313797218,0.07402837543525366
1592334327.8574522,-0.36880269918900516,9.961918219525785,0.569578406487959,-0.47462432159144846,-0.5753892637762508,-0.3388888888888889,-0.07894358512873426,0.10915574177480909,0.03778128510580007
1592334327.8674521,-0.33,9.7,0.88,-0.4444444444444444,-0.57,-0.3388888888888889,-0.23343778745424157,0.00545415391248228,-0.04581489286485115
1592334327.8774521,-0.32216313351116105,9.559688333567317,1.0665994665169172,-0.4444444444444444,-0.57,-0.3388888888888889,-0.28567368121489845,-0.0315890995597428,-0.04210346478960784
1592334327.8874521,-0.14,9.32,1.22,-0.4444444444444444,-0.57,-0.3388888888888889,-0.2574360646691636,-0.030543261909900768,-0.006544984694978735
1592334327.897452,-0.0638328403020001,9.5484582100755,1.1405139299748333,-0.4444444444444444,-0.57,-0.3388888888888889,-0.15824275526314852,-0.05085094875875196,-0.03155236105577325
1592334327.907452,0.0472793500816813,9.520680162479579,1.1497732791734734,-0.4444444444444444,-0.57,-0.3388888888888889,-0.061279077198247406,-0.0629714085168646,-0.04973305069294219
1592334327.917452,-0.03,9.54,1.0,-0.47555555555555556,-0.5755555555555556,-0.36,0.006544984694978735,-0.006544984694978735,-0.004363323129985824
1592334327.927452,0.035628924067614705,9.688487255165011,1.0056289240676146,-0.47555555555555556,-0.5755555555555556,-0.36,0.05364352812217841,0.04454081304749528,0.039205634909921724
1592334327.937452,-0.14,9.67,0.83,-0.47555555555555556,-0.5755555555555556,-0.36,0.09599310885968812,0.05563236990731925,0.025089107997418484
1592334327.947452,-0.09354065315560985,9.744720870874147,0.7752791291258535,-0.47555555555555556,-0.5755555555555556,-0.36,0.14033441995913148,0.059484200272650986,0.0033368632383607415
1592334327.957452,-0.14844106546826938,9.817921420624359,0.7020785793756408,-0.47555555555555556,-0.5755555555555556,-0.36,0.15131371424157083,0.06846725923101045,0.004334980900400683
1592334327.967452,-0.27,9.79,0.77,-0.47555555555555556,-0.57,-0.35333333333333333,0.12326387842209952,0.061086523819801536,0.006544984694978735
1592334327.977452,-0.113446088794926,9.92483086680761,0.654830866807611,-0.47555555555555556,-0.57,-0.35333333333333333,0.09896694880478153,0.037578313288347785,0.018262190822185644
1592334327.987452,-0.1727124677197962,9.846379033571411,0.6254379638461717,-0.47555555555555556,-0.57,-0.35333333333333333,0.05682514488294528,0.015373575148079952,0.012001270375502561
1592334327.997452,-0.3848989751098097,9.618948755490482,0.8760849194729137,-0.47555555555555556,-0.57,-0.35333333333333333,0.011984445132791956,-0.02897904570437071,-0.022006991973902146
1592334328.007452,-0.16382313323572475,9.749956661786237,0.8187689604685213,-0.47555555555555556,-0.57,-0.35333333333333333,-0.020169732678217485,-0.05398785066848916,-0.04076359569699099
1592334328.017452,0.07903469529774332,9.775613878119097,0.7443861218809027,-0.45444444444444443,-0.5822222222222222,-0.35333333333333333,-0.04252808600664605,-0.030215600590752435,0.027225277613583752
1592334328.027452,-0.0904604014780785,9.697069060221711,0.8141381204434235,-0.45444444444444443,-0.5822222222222222,-0.35333333333333333,-0.056503928777554675,-0.06739938151090487,0.003053220435228333
1592334328.037452,0.0775275184451183,9.676929156419378,0.7281258804708579,-0.45444444444444443,-0.5822222222222222,-0.35333333333333333,-0.0037500189482460346,-0.11094176993084977,-0.03443244441371803
1592334328.047452,0.0,9.72,0.53,-0.45444444444444443,-0.5822222222222222,-0.35333333333333333,0.061086523819801536,-0.0818123086872342,-0.004363323129985824
1592334328.057452,-0.06855561573353192,9.70476541872588,0.5757037438223546,-0.45444444444444443,-0.5822222222222222,-0.35333333333333333,0.07521212150021592,-0.053561113326405424,0.013085944592879001
1592334328.067452,0.010903854778934447,9.784519273894672,0.580057597431721,-0.4811111111111111,-0.5633333333333334,-0.35333333333333333,0.10867613139303547,-0.05643369781023665,-0.0013803336620755145
1592334328.077452,0.00573805926786752,9.828415339918653,0.4696997094712376,-0.4811111111111111,-0.5633333333333334,-0.35333333333333333,0.1257585025711514,-0.039258068123958975,-0.015271630954950384
1592334328.087452,-0.16589887769916808,9.805709907127879,0.35858018574424444,-0.4811111111111111,-0.5633333333333334,-0.35333333333333333,0.11525646705065842,0.00019610469279042367,-0.014979145619657911
1592334328.097452,-0.26863962461705515,9.729489859231396,0.5117004692286812,-0.4811111111111111,-0.5633333333333334,-0.35333333333333333,0.08952232113188273,0.023055840366772246,-0.009594886140948099
1592334328.107452,-0.20357893512234848,9.70509210067088,0.5930263310970644,-0.4811111111111111,-0.5633333333333334,-0.35333333333333333,0.09307083127344622,0.030152860649899225,0.0010506442837423698
1592334328.117452,-0.2,9.72,0.6,-0.4811111111111111,-0.5755555555555556,-0.3388888888888889,0.11453723216212788,0.04036073895236887,0.01090830782496456
1592334328.127452,-0.20806756994545134,9.736135139890903,0.5919324300545487,-0.4811111111111111,-0.5755555555555556,-0.3388888888888889,0.12597769188950192,0.039480703588724714,0.007388166370387926
1592334328.137452,-0.1706700294014512,9.818659941197097,0.40318263965689316,-0.4811111111111111,-0.5755555555555556,-0.3388888888888889,0.13515338372511843,0.02854432251897801,0.0033273089997104153
1592334328.1474519,-0.15026647564469914,9.8002664756447,0.469067335243553,-0.4811111111111111,-0.5755555555555556,-0.3388888888888889,0.12450004912260768,0.012217148484478572,-0.005337881978072915
1592334328.1574519,-0.12480569816757645,9.808398100610809,0.5119905030540393,-0.4811111111111111,-0.5755555555555556,-0.3388888888888889,0.10603289588305301,8.995994845807827e-05,-0.01278287924109947
1592334328.1674519,-0.0995173123071649,9.789275968460746,0.5702413438464176,-0.45444444444444443,-0.57,-0.3388888888888889,0.08016862078137718,-0.008463380963133284,-0.010750348646861542
1592334328.1774518,-0.08034556050737059,9.760518340761056,0.5798272197463147,-0.45444444444444443,-0.57,-0.3388888888888889,0.05820982691289984,0.0019931875456654473,-0.004476407541582302
1592334328.1874518,-0.09,9.750283432580899,0.5522674606471865,-0.45444444444444443,-0.57,-0.3388888888888889,0.0389298134874655,0.015364384050152271,0.0030869861570855944
1592334328.1974518,-0.09,9.75996422471495,0.6297137977196141,-0.45444444444444443,-0.57,-0.3388888888888889,0.027313696822812924,0.01853241586778479,-0.0032490774781794456
1592334328.2074518,-0.14880664227413454,9.768400948896305,0.6888066422741345,-0.45444444444444443,-0.57,-0.3388888888888889,0.019023157269969254,0.02679173559488189,-0.0032724923474893677
1592334328.2174518,-0.09,9.78,0.71,-0.47444444444444445,-0.5822222222222222,-0.3388888888888889,0.009817477042468103,0.032724923474893676,-0.002181661564992912
1592334328.2274518,-0.18755945903932847,9.771870045080055,0.6937400901601118,-0.47444444444444445,-0.5822222222222222,-0.3388888888888889,0.0036095934815796767,0.032724923474893676,-0.0030685020736912587
1592334328.2374518,-0.11202902374670186,9.78959419525066,0.582231926121372,-0.47444444444444445,-0.5822222222222222,-0.3388888888888889,-0.00850531410383978,0.022037947806060984,-0.008615980181905715
1592334328.2474518,-0.09036013260511817,9.79,0.6290996684872046,-0.47444444444444445,-0.5822222222222222,-0.3388888888888889,-0.02158090941106299,0.01324710688253489,-0.009797834855895925
1592334328.2574518,-0.1306273426711383,9.79,0.6462509370684554,-0.47444444444444445,-0.5822222222222222,-0.3388888888888889,-0.030680126849271003,0.012203618270023283,-0.009817477042468103
1592334328.2674518,-0.14998830013239323,9.809976600264786,0.6200350996028203,-0.4688953888153371,-0.5633554330832572,-0.3466575667696392,-0.044710023249044446,0.01417824765730661,-0.004369704417854118
1592334328.2774518,-0.1205688868079129,9.751137773615826,0.6984829685122322,-0.4688888888888889,-0.5633333333333334,-0.3466666666666667,-0.05863595325001668,0.013110654698018389,-0.001152886706679211
1592334328.2874517,-0.12,9.692735625783099,0.7286321871084505,-0.4688888888888889,-0.5633333333333334,-0.3466666666666667,-0.06411034076615794,0.008925586580878005,-0.001090830782496456
1592334328.2974517,-0.11045187485072845,9.69,0.8445775017912587,-0.4688888888888889,-0.5633333333333334,-0.3466666666666667,-0.0664420939328817,0.009768185142767045,-0.0042154474308826505
1592334328.3074517,-0.11,9.682189742589703,0.8890512870514821,-0.4688888888888889,-0.5633333333333334,-0.3466666666666667,-0.05887297545014867,0.0064096093615191516,-0.003511356209748586
1592334328.3174517,-0.1792581258254679,9.660211964049866,1.0088341977257353,-0.46229287690551096,-0.5556379860193925,-0.324679960055407,-0.041613421572129085,0.0032956140385270467,-0.010827381906332683
1592334328.3274517,-0.12378638809464844,9.716213611905353,0.9444174527770898,-0.4622222222222222,-0.5555555555555556,-0.3244444444444444,-0.03020965438689309,0.0022505000431282556,-0.016018269346770118
1592334328.3374517,-0.1682150336298012,9.71035699327404,0.8242839192884771,-0.4622222222222222,-0.5555555555555556,-0.3244444444444444,-0.0199854314121563,-0.0030777827212559836,-0.01741435059469662
1592334328.3474517,-0.12373066112114078,9.765523206654631,0.8107461322242282,-0.4622222222222222,-0.5555555555555556,-0.3244444444444444,-0.014587752171454239,-0.004281932730185761,-0.017453292519943295
1592334328.3574517,-0.13519226992419184,9.777596134962096,0.7872115951137123,-0.4622222222222222,-0.5555555555555556,-0.3244444444444444,-0.01252358060352357,-0.002706103561055468,-0.01165302402868705
1592334328.3674517,-0.10293264281034537,9.78,0.7892668392974137,-0.46840011508716467,-0.5802671270153252,-0.3162072539578545,-0.016042560032287673,0.010959458065693732,-0.0007197788366081204
