time,acc_x,acc_y,acc_z,mag_x,mag_y,mag_z,gyr_x,gyr_y,gyr_z
1592334342.8774378,-0.1985345170887114,9.78853451708871,0.2914654829112886,-0.4688888888888889,-0.6044444444444445,-0.3622222222222222,-0.0037520705087462133,0.005665758066007852,0.004363323129985824
1592334342.8874378,-0.17827136602240015,9.771728633977599,0.30423788674133384,-0.4688888888888889,-0.6044444444444445,-0.3622222222222222,-0.010257461378502983,-0.0063969774896998795,0.004363323129985824
1592334342.8974378,-0.14857616288772857,9.799288081443866,0.21427151133681424,-0.4688888888888889,-0.6044444444444445,-0.3622222222222222,-0.0177639255902086,-0.022204906987760748,0.004208006594853171
1592334342.9074378,-0.12825138105370007,9.7882513810537,0.2746629838567999,-0.4688888888888889,-0.6044444444444445,-0.3622222222222222,-0.021943778808161153,-0.0280337485118036,0.0020544984067608785
1592334342.9174378,-0.10368931659802066,9.76368931659802,0.34016182240527826,-0.4688888888888889,-0.6044444444444445,-0.3622222222222222,-0.023729982540822293,-0.03875097090777046,0.0002682946740997353
1592334342.9274378,-0.04,9.73,0.4,-0.4488888888888889,-0.6044444444444445,-0.3333333333333333,-0.02945243112740431,-0.044724062082354694,-0.0032724923474893677
1592334342.9374378,-0.07347238662802563,9.746736193314012,0.36652761337197437,-0.4488888888888889,-0.6044444444444445,-0.3333333333333333,-0.026713977900093826,-0.0319446136882391,-0.00235967460505254
1592334342.9474378,-0.09,9.80942698093095,0.16286509534525642,-0.4488888888888889,-0.6044444444444445,-0.3333333333333333,-0.01848161661849189,-0.005482371067865108,0.00364753245117653
1592334342.9574378,-0.0924991754777379,9.797917353768552,0.2108330584925793,-0.4488888888888889,-0.6044444444444445,-0.3333333333333333,-0.017953091735972374,0.012362628946391254,0.009908349627200663
1592334342.9674377,-0.14132214569793383,9.757231545251722,0.2271073818993113,-0.4488888888888889,-0.6044444444444445,-0.3333333333333333,-0.027716984850973583,0.01946364212093759,0.011683602920837246
1592334342.9774377,-0.13,9.8,0.25,-0.4622222222222222,-0.5911111111111111,-0.3411111111111111,-0.039269908169872414,0.015271630954950384,0.01090830782496456
1592334342.9874377,-0.12134495743287492,9.782689914865749,0.18941470203012442,-0.4622222222222222,-0.5911111111111111,-0.3411111111111111,-0.05059933239711704,0.0077186814701206315,0.004299477025738527
1592334342.9974377,-0.20682197045318426,9.78,0.09317802954681573,-0.4622222222222222,-0.5911111111111111,-0.3411111111111111,-0.05656912546948904,-0.002925823101754381,-0.004093691494414169
1592334343.0074377,-0.2135634966686008,9.87964365033314,-0.13750555233197945,-0.4622222222222222,-0.5911111111111111,-0.3411111111111111,-0.06677148538199469,-0.030968428152583313,-0.018855097051194418
1592334343.0174377,-0.29748474359230875,9.87125152564077,-0.07876067948538387,-0.4622222222222222,-0.5911111111111111,-0.3411111111111111,-0.09789640439494936,-0.0666705411380313,-0.02617860740718375
1592334343.0274377,-0.27,9.95,-0.15,-0.4688888888888889,-0.5911111111111111,-0.3333333333333333,-0.14180800172453928,-0.12544553998709243,-0.032724923474893676
1592334343.0374377,-0.21230982519590114,9.930769941731967,-0.14038497086598353,-0.4688888888888889,-0.5911111111111111,-0.3333333333333333,-0.18690799166667654,-0.1831315736340122,-0.03901794532728493
1592334343.0474377,-0.17959629457672835,9.918385178306913,-0.14858703101854923,-0.4688888888888889,-0.5911111111111111,-0.3333333333333333,-0.23981672740253135,-0.2219010418646843,-0.034862547609610044
1592334343.0574377,-0.161050164710044,9.844200658840176,-0.08367557648515399,-0.4688888888888889,-0.5911111111111111,-0.3333333333333333,-0.28230117504751934,-0.2431432656871783,-0.03283947867413442
1592334343.0674376,-0.21765888794054583,9.798815080042466,-0.022341112059454167,-0.4688888888888889,-0.5911111111111111,-0.3333333333333333,-0.32334300371089825,-0.253331250972072,-0.025536798920600984
1592334343.0774376,0.07,9.37,0.4,-0.4688888888888889,-0.5966666666666667,-0.3566666666666667,-0.33161255787892263,-0.27270769562411395,-0.01090830782496456
1592334343.0874376,0.34303218069158503,9.29979172496502,0.587222066759944,-0.4688888888888889,-0.5966666666666667,-0.3566666666666667,-0.27970471117623275,-0.2744095922373169,0.0001540201608545861
1592334343.0974376,0.40018325674977573,9.28,0.4418325674977569,-0.4688888888888889,-0.5966666666666667,-0.3566666666666667,-0.11267404964611527,-0.23381760145137714,0.0032724923474893677
1592334343.1074376,0.17110940530058177,9.379185924369748,0.35607344861021334,-0.4688888888888889,-0.5966666666666667,-0.3566666666666667,0.02189841033045245,-0.17268210020054384,-0.011708362043833364
1592334343.1174376,0.4909769314135315,9.65735275252693,0.21829230531041957,-0.4688888888888889,-0.5966666666666667,-0.3566666666666667,0.18251121613656657,-0.09984314101368005,-0.001565881279197743
1592334343.1274376,0.17,9.89,-0.23,-0.4622222222222222,-0.6044444444444445,-0.3411111111111111,0.29779680362153244,-0.042542400517361786,0.02617993877991494
1592334343.1374376,-0.3573917600580504,9.88090703861969,-0.21181407723937756,-0.4622222222222222,-0.6044444444444445,-0.3411111111111111,0.3225940090657698,0.037800545121967205,0.014277280166681018
1592334343.1474376,-0.15563294883170653,9.968050133096718,-0.4741503992901508,-0.4622222222222222,-0.6044444444444445,-0.3411111111111111,0.2834468617638601,0.0735620338115737,0.028030737592038845
1592334343.1574376,-0.24974381696608394,10.100434222186419,-0.34189317650849915,-0.4622222222222222,-0.6044444444444445,-0.3411111111111111,0.23063421261705602,0.09175246354911461,0.012459531942633731
1592334343.1674376,-0.4960824536944832,9.851890061740688,-0.3560213768837549,-0.4622222222222222,-0.6044444444444445,-0.3411111111111111,0.15291082402084324,0.10755991262206491,0.009381810974121912
1592334343.1774375,0.04,10.5,-0.04,-0.47555555555555556,-0.5844444444444444,-0.3566666666666667,-0.006544984694978735,0.09708393964218458,-0.00545415391248228
1592334343.1874375,-0.6893045067959621,10.131426754629997,-0.07136793577617043,-0.47555555555555556,-0.5844444444444444,-0.3566666666666667,-0.006544984694978735,0.09708393964218458,-0.00545415391248228
1592334343.1974375,-0.7833020747549345,9.593508487633823,-0.19639773663098054,-0.47555555555555556,-0.5844444444444444,-0.3566666666666667,-0.049926481356058275,0.09814202492660115,0.0040686136472668855
1592334343.2074375,0.2950743031568801,9.254648566149891,-0.0019599967868905166,-0.47555555555555556,-0.5844444444444444,-0.3566666666666667,-0.060527395277500146,0.04802538271544462,-0.0064380834535420215
1592334343.2174375,-0.6062883210868648,9.558505338868292,0.17231691344595645,-0.47555555555555556,-0.5844444444444444,-0.3566666666666667,-0.0643590161672909,0.0272707695624114,-0.01090830782496456
1592334343.2274375,0.2761529126213591,9.650728155339806,0.12145631067961166,-0.46246494066882415,-0.5964441747572815,-0.3566666666666667,-0.02366202597856997,0.030483689840468314,0.00944018726939591
1592334343.2374375,-0.387004407051282,10.421915064102564,-0.11929366987179488,-0.4622222222222222,-0.5966666666666667,-0.3566666666666667,-0.0346958484199668,0.0431736926108378,0.015711678036238717
1592334343.2474375,-0.00723380311880395,9.474754836289588,0.2276491077648572,-0.4622222222222222,-0.5966666666666667,-0.3566666666666667,-0.0667855461824139,0.031013240983437638,-0.0016176866767486711
1592334343.2574375,-0.10151375225858264,9.283880746837985,0.41098775346315997,-0.4622222222222222,-0.5966666666666667,-0.3566666666666667,-0.012486847933423598,0.030543261909900768,0.0034949946713232166
1592334343.2674375,0.1507094441934026,9.337103479439675,0.5771034794396747,-0.4622222222222222,-0.5966666666666667,-0.3566666666666667,0.12170773166189106,0.053909616366955446,0.011295742526745948
1592334343.2774374,-0.046408697313128744,9.508266267668407,0.26433433082898256,-0.4688063302064321,-0.5966666666666667,-0.34788785602105354,0.26481184764634164,0.10956602055488494,0.017399257988631553
1592334343.2874374,-0.08333031040026381,9.851635681602705,0.018355249598087292,-0.4688888888888889,-0.5966666666666667,-0.3477777777777778,0.29615783700332016,0.14016903510632694,0.020180122163051012
1592334343.2974374,-0.09,10.183481154094451,-0.36876148383572527,-0.4688888888888889,-0.5966666666666667,-0.3477777777777778,0.2436509797902557,0.13898599101717707,0.01559340355504121
1592334343.3074374,-0.055912202813161276,10.26135803493631,-0.2604663706900129,-0.4688888888888889,-0.5966666666666667,-0.3477777777777778,0.1589216118652188,0.11845613939844404,-0.006295099762811486
1592334343.3174374,-0.39872773026901837,10.091554872617138,-0.5587277302690183,-0.4688888888888889,-0.5966666666666667,-0.3477777777777778,0.018675229968508095,0.0699519531783925,-0.01802761599579803
1592334343.3274374,0.3435381188263915,9.791376439897997,0.055048509540698176,-0.47500744171201714,-0.5966666666666667,-0.3753112654818549,-0.07816445058699667,-0.021276491828704724,0.0054833774472362665
1592334343.3374374,-0.11603183650205601,9.703823230061474,0.10676464601229492,-0.47555555555555556,-0.5966666666666667,-0.37777777777777777,-0.07533145132401155,-0.027639723767556558,-0.000304826873389067
1592334343.3474374,-0.19740170147788622,9.495744396575232,0.07248595735398375,-0.47555555555555556,-0.5966666666666667,-0.37777777777777777,-0.03188688679231644,-0.05028086247546072,0.0016393098038531301
1592334343.3574374,0.03562517882689559,9.528689556509299,0.34127038626609446,-0.47555555555555556,-0.5966666666666667,-0.37777777777777777,0.005781871314949026,-0.04249620796920456,0.008251612082300802
1592334343.3674374,-0.08655924329301473,9.780996526179216,0.2723153224793873,-0.47555555555555556,-0.5966666666666667,-0.37777777777777777,0.07505856729560936,-0.012981265246772268,0.00933344456617683
1592334343.3774374,-0.19948343280510394,9.919139054675172,-0.0063840296357275395,-0.462451807642176,-0.5912067717027586,-0.34829434497267386,0.11743406624467026,0.005303890606503487,-0.009498167517263163
1592334343.3874373,-0.12489362584497989,9.906344295608179,-0.03048355658773276,-0.4622222222222222,-0.5911111111111111,-0.3477777777777778,0.08056956774143897,-0.007207499388698329,-0.010562280177831668
1592334343.3974373,-0.49858970706312,9.837823305446916,-0.08441192468077391,-0.4622222222222222,-0.5911111111111111,-0.3477777777777778,0.009977701377921942,-0.016965640954093655,-0.01284614360703265
1592334343.4074373,-0.19931484958651274,9.740734688985658,0.06302624745315807,-0.4622222222222222,-0.5911111111111111,-0.3477777777777778,-0.025243988449697358,-0.031363770957595356,-0.005439206249248837
1592334343.4174373,-0.057702794952312224,9.875931228179672,0.13717715667726396,-0.4622222222222222,-0.5911111111111111,-0.3477777777777778,-0.049144723453428615,-0.05115932755310659,-0.004587718836388861
1592334343.4274373,-0.4523764408113008,9.810890994288059,0.12194719020419331,-0.47743308516985705,-0.5911111111111111,-0.35940961414949857,-0.06662708755860873,-0.0797746634994495,-0.009180260538235214
1592334343.4374373,-0.07567852069214465,9.685577912853118,0.2888441742937656,-0.4811111111111111,-0.5911111111111111,-0.3622222222222222,-0.07073407219359737,-0.11363276656327317,-0.007054770700995559
1592334343.4474373,-0.1924794009145331,9.794602708255097,0.17203428394707196,-0.4811111111111111,-0.5911111111111111,-0.3622222222222222,-0.03692388342549829,-0.12229856703579083,-0.008243990566817303
1592334343.4574373,-0.13478914575765594,9.737831316606126,0.08391565830306238,-0.4811111111111111,-0.5911111111111111,-0.3622222222222222,-0.018054562834825573,-0.11991253052115922,-0.008726646259971648
1592334343.4674373,-0.1125427611780923,9.747628283534278,0.15152794765759994,-0.4811111111111111,-0.5911111111111111,-0.3622222222222222,-0.02348084894928914,-0.11548004779447255,-0.005306138762330499
1592334343.4774373,-0.025553478712357205,9.809352717203184,0.2,-0.4714915580169994,-0.5806170531902619,-0.37446528979654625,-0.03694703140493015,-0.10400242721360689,-0.005848121665496057
1592334343.4874372,0.01703393770339377,9.747605764760577,0.21703393770339377,-0.4688888888888889,-0.5777777777777777,-0.37777777777777777,-0.045773308427768535,-0.08936951943607761,-0.006544984694978735
1592334343.4974372,-0.057107077935193463,9.635060449548433,0.21012089909686354,-0.4688888888888889,-0.5777777777777777,-0.37777777777777777,-0.02928193078551715,-0.06004844521987899,-0.0024708543176713733
1592334343.5074372,0.13765057071619735,9.690706818857654,0.2379417617860329,-0.4688888888888889,-0.5777777777777777,-0.37777777777777777,0.01983449599695268,-0.04156043572987944,-0.00688515662026579
1592334343.5174372,-0.03595139718409149,9.65466093563358,0.20080972056318172,-0.4688888888888889,-0.5777777777777777,-0.37777777777777777,0.06559061446808001,-0.010259111100237583,-0.01744611529898027
1592334343.5274372,-0.10529232816807682,9.768238425705865,0.13470513673669868,-0.4641829071204487,-0.5871897413146582,-0.356600859819797,0.07924550162112978,0.015015143823533462,-0.015977316236335342
1592334343.5374372,-0.09308594854396382,9.860781264725285,0.08921873527471491,-0.4622222222222222,-0.5911111111111111,-0.3477777777777778,0.04781757635121563,0.020222980856765417,0.007056321261950495
1592334343.5474372,-0.04039015800936009,9.735877855521059,0.2066709142301098,-0.4622222222222222,-0.5911111111111111,-0.3477777777777778,0.040082711302161664,0.03616904438092838,0.018779591315982207
1592334343.5574372,-0.24217807563427476,9.852930588798468,-0.024019626615605527,-0.4622222222222222,-0.5911111111111111,-0.3477777777777778,0.0484393617556253,0.047106605697144824,0.007799988382222385
1592334343.5674372,-0.388483047115808,9.754356711100437,0.04186902045554622,-0.4622222222222222,-0.5911111111111111,-0.3477777777777778,0.03497011967775266,0.030751092225312155,0.001235126460041772
1592334343.5774372,-0.4763698446705945,9.760467996786288,0.2327396893411891,-0.4879832470392192,-0.5808067011843123,-0.3658104951496757,0.00991461181353936,0.002774402769514954,-0.0016860551315421254
1592334343.5874372,-0.15570663121424544,9.702316493433244,0.26,-0.4955555555555556,-0.5777777777777777,-0.3711111111111111,0.007247551438986907,-0.0009860632139898269,-0.0009860632139898269
1592334343.5974371,-0.20150304414003045,9.9003548325723,0.0700209284627093,-0.4955555555555556,-0.5777777777777777,-0.3711111111111111,0.012711935091951898,0.0063764621311684,-0.005579404364772351
1592334343.6074371,-0.4737502690036106,9.970714234475503,-0.02928576552449726,-0.4955555555555556,-0.5777777777777777,-0.3711111111111111,-0.012174496809099513,-0.010440842453885402,-0.007635815477475192
1592334343.6174371,-0.3424190534304565,9.983447618321193,0.05965237786506999,-0.4955555555555556,-0.5777777777777777,-0.3711111111111111,-0.056346083835259034,-0.03535746120863288,-0.007635815477475192
1592334343.627437,-0.33794344644045243,9.912459747172322,0.22427411842980707,-0.48582886079692467,-0.5867562652472832,-0.37560035484586385,-0.11377626338272166,-0.05166930837184227,0.00044424319492087673
1592334343.637437,-0.18013192674407627,9.84725502690456,0.2927449730954404,-0.4811111111111111,-0.5911111111111111,-0.37777777777777777,-0.15296571879666765,-0.059239922262223695,0.009325506489897838
1592334343.647437,-0.17369490465770554,9.832922788371366,0.33538605814316974,-0.4811111111111111,-0.5911111111111111,-0.37777777777777777,-0.16730016129585923,-0.05877051173017479,0.007820291705462244
1592334343.657437,-0.1625159144646244,9.672566840751422,0.3050190973575493,-0.4811111111111111,-0.5911111111111111,-0.37777777777777777,-0.16199184319830356,-0.0627206867949983,0.005727208807864379
1592334343.667437,0.0033988802943678287,9.549692179865081,0.37948268017171455,-0.4811111111111111,-0.5911111111111111,-0.37777777777777777,-0.13067537322094505,-0.08178945581578939,-0.006398545048496689
1592334343.677437,-0.14561630218687874,9.601206310523954,0.3843968447380235,-0.4811111111111111,-0.5809770766084497,-0.37777777777777777,-0.05401375275667397,-0.09080069697072349,-0.018893590702809215
1592334343.687437,-0.26508151093439364,9.688605964214712,0.469179324055666,-0.4811111111111111,-0.5777777777777777,-0.37777777777777777,0.0054179808360368675,-0.09250600694115332,-0.018758732873485177
1592334343.697437,-0.13195855614973262,9.840589190221543,0.36837972689075626,-0.4811111111111111,-0.5777777777777777,-0.37777777777777777,0.08530974842536537,-0.09270454884143862,-0.01929276738511756
1592334343.707437,-0.11415062301198192,9.906963862913448,0.1925903427163801,-0.4811111111111111,-0.5777777777777777,-0.37777777777777777,0.0805026491049965,-0.07030535226097467,-0.022931760743507935
1592334343.717437,-0.25433511102492,9.892543391835547,0.19294792979734315,-0.4811111111111111,-0.5777777777777777,-0.37777777777777777,0.005611881718441625,-0.05160954929406111,-0.015013123204303496
1592334343.727437,-0.12705150703488194,9.81244635325267,0.29481974077152795,-0.477913686291815,-0.581614687560933,-0.3860910823079476,-0.09571033446269848,-0.04597968787269297,0.003664816635569279
1592334343.737437,0.2009229796382952,9.599077020361705,0.5565319337296066,-0.47555555555555556,-0.5844444444444444,-0.39222222222222225,-0.1021556198906485,-0.03991392186139258,0.016660339798097695
1592334343.747437,-0.15500887077439462,9.632588348117958,0.6766386957564133,-0.47555555555555556,-0.5844444444444444,-0.39222222222222225,-0.0026123971916463817,-0.013108276307908742,0.028136111421228058
1592334343.757437,-0.33205509536654654,9.67,0.3738769664128333,-0.47555555555555556,-0.5844444444444444,-0.39222222222222225,0.12488399297640909,0.012477540725720899,0.016397120632472093
1592334343.767437,-0.15754071211703008,9.901115097985096,0.17485233232128072,-0.47555555555555556,-0.5844444444444444,-0.39222222222222225,0.1844720405626652,0.02915917438377981,0.0036104602065432654
1592334343.777437,-0.24833389521947277,10.072321488773515,0.03815454116377856,-0.47968916458768796,-0.5794841136058855,-0.41454371099573717,0.1544498265552795,0.03599741582238304,-0.019758372199225806
1592334343.787437,-0.4150309553676203,10.114556711042772,-0.04183506656415651,-0.4811111111111111,-0.5777777777777777,-0.4222222222222222,0.07068356591192825,0.019505624007943746,-0.023352774468868204
1592334343.797437,-0.45544579956063935,10.075445799560638,-0.08886144989015984,-0.4811111111111111,-0.5777777777777777,-0.4222222222222222,-0.1399859840634692,-0.0329264364412029,-0.01271737973778896
1592334343.807437,-0.18867515954014202,9.938795382298812,-0.007710987356294358,-0.4811111111111111,-0.5777777777777777,-0.4222222222222222,-0.2784245259899926,-0.06474011211957825,-0.006663273833346919
1592334343.817437,-0.08309188389720837,9.868297282307266,0.05381623220558329,-0.4811111111111111,-0.5777777777777777,-0.4222222222222222,-0.32166064789143467,-0.07107263696881863,-0.0024570212156530455
1592334343.827437,-0.026512494866205414,9.56765014374625,0.43398729978201117,-0.47749305840766365,-0.5727125039929513,-0.4316291592511856,-0.33577000405902585,-0.05484425474714766,0.010857855221243749
1592334343.837437,-0.05389635013430242,9.43116843103176,0.540129562332122,-0.47555555555555556,-0.57,-0.43666666666666665,-0.295303180654056,-0.042783179566681984,0.011347466749565755
1592334343.847437,-0.11,9.37972138595435,0.5031011549619574,-0.47555555555555556,-0.57,-0.43666666666666665,-0.14276932284765453,-0.018266623928546694,0.015594718445458254
1592334343.857437,-0.1455095202428352,9.536575077857059,0.5090739937714354,-0.47555555555555556,-0.57,-0.43666666666666665,-0.0652980930241584,-0.006337887243624498,0.01616043851766648
1592334343.867437,-0.07899973485350656,9.853257987538115,0.4228708736576959,-0.47555555555555556,-0.57,-0.43666666666666665,0.042084983340504256,0.02175681735633741,0.01831541471401099
1592334343.8774369,-0.005613620649919326,9.81,0.3467342705692556,-0.47878690686538117,-0.5745238918337559,-0.4327890450948759,0.08382747965860916,0.05475340767562918,0.021738618357864236
1592334343.8874369,-0.06606753258247959,9.700784413515368,0.19651428318544908,-0.4811111111111111,-0.5777777777777777,-0.43,0.1343076198655578,0.09099285428703383,0.015234797645055274
1592334343.8974369,0.10621904470732108,9.669791397191975,0.20095176501023027,-0.4811111111111111,-0.5777777777777777,-0.43,0.17846105505093826,0.11588121593165839,0.016190375171068198
1592334343.9074368,-0.05696463770869453,9.582334766190895,0.2419844681406892,-0.4811111111111111,-0.5777777777777777,-0.43,0.21101843902863232,0.13718999511145746,0.015488102848425112
1592334343.9174368,-0.22910530419657316,9.56494731791191,0.12631585261011258,-0.4811111111111111,-0.5777777777777777,-0.43,0.23785851240000064,0.15186086546823865,0.02075448577531929
1592334343.9274368,-0.06858518648222728,9.655377341971635,0.18132025914901068,-0.4852934882001595,-0.5777777777777777,-0.4449370610323158,0.27343829057124214,0.15649305566442281,0.02006719888633517
1592334343.9374368,-0.04251522039126552,9.684713044890007,0.296316665313743,-0.4888888888888889,-0.5777777777777777,-0.4577777777777778,0.2851388188060055,0.15486556230969165,0.012336110483651474
1592334343.9474368,-0.30851970990759153,9.958024330331034,0.0029635045034506896,-0.4888888888888889,-0.5777777777777777,-0.4577777777777778,0.21734487537500313,0.11786376203873027,0.02096815626424539
1592334343.9574368,-0.19671993414203046,10.187039538994213,-0.18023970363913705,-0.4888888888888889,-0.5777777777777777,-0.4577777777777778,0.11875238549744033,0.09453140459113042,0.020717068997157757
1592334343.9674368,-0.2512786835748792,10.247646437198068,-0.22103411835748793,-0.4888888888888889,-0.5777777777777777,-0.4577777777777778,0.06806049616399575,0.08870460046558928,0.016353569095198226
1592334343.9774368,-0.28185757126607147,9.875817793250837,0.018808383027127645,-0.5008709723131839,-0.5834164052715637,-0.4634164052715637,-0.05044709783019708,0.028352689004538627,-0.0059345766799827875
1592334343.9874368,-0.18768200054532,9.777855723912282,0.08339344836988276,-0.5077777777777778,-0.5866666666666667,-0.4666666666666667,-0.0632295625054547,0.0020643482868223546,-0.011940843128413568
1592334343.9974368,-0.1375485180888092,9.555722497626833,0.40686557325176664,-0.5077777777777778,-0.5866666666666667,-0.4666666666666667,-0.08599134342930063,-0.047060212945227275,-0.01806262063133463
1592334344.0074368,-0.08201191157942962,9.50733730385981,0.291301569121521,-0.5077777777777778,-0.5866666666666667,-0.4666666666666667,-0.0635080657080556,-0.06448058051861023,-0.02315057513506423
1592334344.0174367,-0.19642913601264667,9.751828094282645,0.04293569242617701,-0.5077777777777778,-0.5866666666666667,-0.4666666666666667,-0.055277492306122826,-0.0744189958516431,-0.025582558536834405
1592334344.0274367,-0.05576649557850474,9.747852328241915,0.10840516974831486,-0.5077777777777778,-0.5922495001339847,-0.46914792598547467,-0.07326637701920541,-0.08242130134720439,-0.01303640933545854
1592334344.0374367,0.06409657845946401,9.600352688353277,0.22295171077026799,-0.5077777777777778,-0.5966666666666667,-0.4711111111111111,-0.07927019309407943,-0.08108666628190504,-0.0021431892337545194
1592334344.0474367,0.06438534763224486,9.760809977105675,0.28,-0.5077777777777778,-0.5966666666666667,-0.4711111111111111,-0.05494984816720706,-0.06595565909790194,0.007635815477475192
1592334344.0574367,-0.12141974385807544,9.751080879055165,0.28574326007873624,-0.5077777777777778,-0.5966666666666667,-0.4711111111111111,-0.030454764749692255,-0.05059830570865233,0.015153725340397398
1592334344.0674367,0.18485333067808424,9.442573334660958,0.3395051279498158,-0.5077777777777778,-0.5966666666666667,-0.4711111111111111,0.024668047098142794,-0.04417324847444908,0.011005475724797412
1592334344.0774367,0.28875693376996586,9.396164205039096,0.29577457729065026,-0.5010034009816807,-0.6083678629508342,-0.4711111111111111,0.13172035032666574,-0.030817992632605963,-0.0025368395087423425
1592334344.0874367,-0.039681461115475256,9.586214846818539,0.21262961508248232,-0.4955555555555556,-0.6177777777777778,-0.4711111111111111,0.19644491356428104,-0.01738379811581096,-0.007705309881607527
1592334344.0974367,0.07275149240113657,9.806603581762728,-0.025180521884205304,-0.4955555555555556,-0.6177777777777778,-0.4711111111111111,0.28364085645353365,0.0008155425260550657,-0.020725784867432664
1592334344.1074367,-0.1255110748873334,10.07986767667082,-0.25138603892990696,-0.4955555555555556,-0.6177777777777778,-0.4711111111111111,0.23924845653808632,0.004208521177919974,-0.027576764907525347
1592334344.1174366,-0.37602141680395385,10.078114307438854,-0.26460714738309465,-0.4955555555555556,-0.6177777777777778,-0.4711111111111111,0.13316084193015318,-0.0011593964988971966,-0.029954992945902075
1592334344.1274366,-0.36183647798742136,9.876253369272238,-0.18416891284815815,-0.5023793550963362,-0.6177777777777778,-0.49158250973345313,0.009519924279156398,-0.013980471500448288,-0.00900008901676995
1592334344.1374366,-0.1786642426179726,9.763332401006913,-0.07333200143844648,-0.5077777777777778,-0.6177777777777778,-0.5077777777777778,-0.04006988851837363,-0.02087123187750941,0.004290577831868327
1592334344.1474366,0.15524603477928534,9.629323284922608,0.14229863367093448,-0.5077777777777778,-0.6177777777777778,-0.5077777777777778,0.00621737588004638,0.000347750516510547,-0.01699329045052345
1592334344.1574366,-0.11483103639031197,9.814890203718402,0.04203550039685405,-0.5077777777777778,-0.6177777777777778,-0.5077777777777778,0.09272707066647862,0.034133608237473946,-0.02790002336829915
1592334344.1674366,-0.13104293816989804,10.011941598913067,-0.02533287325583905,-0.5077777777777778,-0.6177777777777778,-0.5077777777777778,0.0846991321643954,0.03936793685003939,-0.024485197690587057
1592334344.1774366,-0.4770682008099248,9.983280195410426,-0.008050395320434556,-0.5118454000699935,-0.6247508445644333,-0.5153319334633213,-0.006569245635439223,0.012187546546817443,-0.02109572915029255
1592334344.1874366,-0.52,9.761132075471698,0.23555114200595828,-0.5155555555555555,-0.6311111111111111,-0.5222222222222223,-0.06121651358534232,-0.007515574944349962,-0.014784169334172424
1592334344.1974366,-0.5099669290127413,9.985181890429923,0.05953700617837823,-0.5155555555555555,-0.6311111111111111,-0.5222222222222223,-0.18452356152626587,-0.04099093024325404,0.004356108159803957
1592334344.2074366,-0.39769685369063285,9.932312477569086,-0.02077186266299797,-0.5155555555555555,-0.6311111111111111,-0.5222222222222223,-0.27312562775284027,-0.09003445060396725,-0.0060411589400962955
1592334344.2174366,-0.22772217289531038,9.762293163290016,0.03,-0.5155555555555555,-0.6311111111111111,-0.5222222222222223,-0.3028459352077993,-0.10020155497406241,-0.0095996454696296
1592334344.2274365,0.005935522747815641,9.515939740885809,0.4106194636938837,-0.5095139767667638,-0.6331249707073751,-0.5453816075792575,-0.2773440715453315,-0.07995460973215594,-0.004465602894828517
1592334344.2374365,0.17,9.33,0.87,-0.5022222222222222,-0.6355555555555555,-0.5733333333333334,-0.24870941840919195,-0.06981317007977318,-0.0032724923474893677
1592334344.2474365,0.14697063845271086,9.3819662999972,0.8262445769306127,-0.5022222222222222,-0.6355555555555555,-0.5733333333333334,-0.05536179184606352,-0.02995966576198358,-0.005513081429772231
1592334344.2574365,0.06064429530201344,9.515557046979866,0.8090335570469799,-0.5022222222222222,-0.6355555555555555,-0.5733333333333334,0.10923681950086993,0.016110618925917457,0.00904877078634644
1592334344.2674365,0.16914549335536733,9.690387660951593,0.6214714590649315,-0.5022222222222222,-0.6355555555555555,-0.5733333333333334,0.1877333822352661,0.03319872093932855,0.00705243169398349
1592334344.2774365,-0.08241464714549958,9.735170705709,0.35724394143649874,-0.5163882009105698,-0.6355555555555555,-0.5806605636893751,0.28984037684563096,0.0830248520682479,0.022991916822517628
1592334344.2874365,-0.055836718115353366,9.787077579203899,0.285004061738424,-0.5344444444444445,-0.6355555555555555,-0.59,0.31379506434224,0.09799222684938105,0.027225355202051577
1592334344.2974365,0.030210484193677473,9.969579031612644,0.16021048419367748,-0.5344444444444445,-0.6355555555555555,-0.59,0.33052172709642613,0.13064713099811315,0.023510262483096886
1592334344.3074365,0.006849254688251323,9.986090318961372,0.15497595768552652,-0.5344444444444445,-0.6355555555555555,-0.59,0.3297075379240603,0.14297637433297533,0.02029930482476485
1592334344.3174365,-0.2223553875236295,9.925051039697543,0.17737240075614363,-0.5344444444444445,-0.6355555555555555,-0.59,0.30106187254592737,0.14180429001299202,-0.0015114914245177719
1592334344.3274364,-0.14559028879720723,10.023244049508094,0.036488099016185334,-0.5340139990831835,-0.6514820339222116,-0.59,0.27114449460908296,0.12452136294585074,-0.016853768321553143
1592334344.3374364,-0.36,10.06,0.11,-0.5333333333333333,-0.6766666666666666,-0.59,0.24107360293171679,0.10581058590215622,-0.014180800172453926
1592334344.3474364,-0.6977641421536004,10.0322358578464,0.04105656861440171,-0.5333333333333333,-0.6766666666666666,-0.59,0.16770519275178103,0.032416708968693295,-0.01858254122138672
1592334344.3574364,-0.63,10.1,-0.23,-0.5333333333333333,-0.6766666666666666,-0.59,0.11780972450961724,0.006544984694978735,-0.008726646259971648
1592334344.3674364,-0.05156221557664802,9.627697958652972,0.3630113119230269,-0.5333333333333333,-0.6766666666666666,-0.59,0.05383188214650775,-0.05430609781693772,0.008057340517857387
1592334344.3774364,0.10835664110330606,9.426891151640136,0.29621769671972675,-0.5333333333333333,-0.6881914459410109,-0.59,0.08345618231086616,-0.06789070121279306,0.028441530395800323
1592334344.3874364,0.25,9.47,0.21,-0.5333333333333333,-0.7066666666666667,-0.59,0.12980886311707826,-0.05781403147231216,0.03381575425739013
1592334344.3974364,0.2199952590407459,9.63882450549161,0.17529091052756343,-0.5333333333333333,-0.7066666666666667,-0.59,0.2401760170156325,-0.012127106587686981,0.0013472839013776786
1592334344.4074364,-0.003503607641968505,9.863328139607354,-0.02581010139751181,-0.5333333333333333,-0.7066666666666667,-0.59,0.2828977866764719,0.004298030696112495,-0.0055847387802289376
1592334344.4174364,-0.14379703264094956,10.179872997032641,-0.11177210682492582,-0.5333333333333333,-0.7066666666666667,-0.59,0.2814896279071273,0.006310245679113326,-0.006696859414013554
1592334344.4274364,-0.36805318661164604,10.240164144887666,-0.22610637322329208,-0.5356215803148403,-0.7158196545926945,-0.6052549798767131,0.22067871840619133,-0.0002268687954793177,-0.016866514585956664
1592334344.4374363,-0.46,10.03,-0.41,-0.54,-0.7333333333333333,-0.6344444444444445,0.1461713248545251,-0.015271630954950384,-0.02617993877991494
1592334344.4474363,-0.18993736407133538,9.869707698999564,-0.1031315064520806,-0.54,-0.7333333333333333,-0.6344444444444445,0.010484723222719813,-0.049101050252156046,-0.011634769177750222
1592334344.4574363,-0.21792289497427397,9.705688019702992,0.025214708966324453,-0.54,-0.7333333333333333,-0.6344444444444445,-0.05902054474092331,-0.06268213881453032,-0.0073748183393383135
1592334344.4674363,-0.32,9.84,-0.05,-0.54,-0.7333333333333333,-0.6344444444444445,-0.07308566242726255,-0.06326818538479445,-0.0032724923474893677
1592334344.4774363,0.34024952729301633,9.590199621834413,0.5468829236539475,-0.5407370440401035,-0.7458630820150921,-0.6414463628254273,0.013968490371663651,-0.02335089969526433,0.027638009050607485
1592334344.4874363,0.24,9.51,0.46,-0.5422222222222223,-0.7711111111111111,-0.6555555555555556,0.09926560120717749,0.008726646259971648,0.02617993877991494
1592334344.4974363,-0.038827537116127714,9.73787268659752,0.3788275371161277,-0.5422222222222223,-0.7711111111111111,-0.6555555555555556,0.30404207052372034,0.0735387886980067,0.0056862078068266545
1592334344.5074363,-0.028648405075299428,9.870134708881773,0.0897642594568955,-0.5422222222222223,-0.7711111111111111,-0.6555555555555556,0.40036428609518226,0.10254911439928546,-0.001720985085829757
1592334344.5174363,-0.26889622794894724,10.091737460369075,-0.31347492073815136,-0.5422222222222223,-0.7711111111111111,-0.6555555555555556,0.4225647533306755,0.11364732405627895,-0.018532728151187755
1592334344.5274363,-0.5332731648616126,10.232731648616125,-0.4678098676293622,-0.5436769621607167,-0.7816579756651959,-0.6613745153095334,0.36677248869621204,0.10267592415895342,-0.03024528527015745
1592334344.5374362,-0.54,10.3,-0.34,-0.5466666666666666,-0.8033333333333333,-0.6733333333333333,0.29779680362153244,0.08726646259971647,-0.022907446432425576
1592334344.5474362,-0.5663754692014799,10.171254624503794,-0.41268585779482053,-0.5466666666666666,-0.8033333333333333,-0.6733333333333333,0.10065448026969068,0.03945542982114196,-0.022577967285164556
1592334344.5574362,-0.3626525987820422,9.673012793277628,0.051175942973138835,-0.5466666666666666,-0.8033333333333333,-0.6733333333333333,-0.051236244095539056,0.00032117790636030513,-0.02191306686343126
1592334344.5674362,0.01857549914318732,9.949369744550273,-0.028219025226158684,-0.5466666666666666,-0.8033333333333333,-0.6733333333333333,-0.12969827157717984,-0.03408173473571893,-0.004671144943673203
1592334344.5774362,-0.2625741664478866,9.923176686794434,-0.024564190076135473,-0.548668796126134,-0.8184923135264432,-0.677337592252268,-0.16388350711649433,-0.04292028217068393,-0.009882199477974588
1592334344.5874362,-0.27,9.24,0.77,-0.5544444444444444,-0.8622222222222222,-0.6888888888888889,-0.18980455615438332,-0.053450708342326333,-0.016362461737446838
1592334344.5974362,-0.0320625298689539,9.44156525894811,0.3596684860527706,-0.5544444444444444,-0.8622222222222222,-0.6888888888888889,-0.09129425312816926,-0.08251542083433418,-0.008375090186421654
1592334344.6074362,0.030378478929670175,9.446585342586632,0.18930194843910236,-0.5544444444444444,-0.8622222222222222,-0.6888888888888889,0.04368918935030182,-0.06863243180200335,-0.014705572740351629
1592334344.6174362,0.07729205803589273,9.65655062152764,0.1453707182541269,-0.5544444444444444,-0.8622222222222222,-0.6888888888888889,0.15406294209069996,-0.04437090131101206,-0.014025671033634534
1592334344.6274362,0.4599983497805208,9.455004455592594,0.38249513185253636,-0.5544444444444444,-0.8700002567008078,-0.6933334800195092,0.2217118335716092,-0.026997908857419796,0.005726870608657422
1592334344.6374362,0.31,9.86,-0.06,-0.5544444444444444,-0.8933333333333333,-0.7066666666666667,0.2650718801466388,-0.01308996938995747,0.006544984694978735
1592334344.6474361,-0.04581855713756418,9.712742285502568,0.0,-0.5544444444444444,-0.8933333333333333,-0.7066666666666667,0.34505969019803495,0.03417291718654501,-0.0040459700682173505
1592334344.6574361,-0.1612482994009118,10.319776117621787,-0.032544096236007354,-0.5544444444444444,-0.8933333333333333,-0.7066666666666667,0.31298629095954666,0.0332607185598161,-0.007216948121129798
1592334344.6674361,-0.3823894157966048,10.362749661273611,-0.10211126165617279,-0.5544444444444444,-0.8933333333333333,-0.7066666666666667,0.20084866358740236,0.011808132372572621,-0.016823067578338385
1592334344.677436,-0.4696786743087934,10.291742939447035,-0.15064265138241323,-0.5544444444444444,-0.9052601985765054,-0.7085015690117701,0.07227948493035978,-0.015707114523658246,-0.026285092366467477
1592334344.687436,-0.5059134090153422,10.176856742507006,-0.016719469909276613,-0.5544444444444444,-0.9511111111111111,-0.7155555555555555,-0.0730127089412152,-0.044119708771803295,-0.03177769396127524
1592334344.697436,-0.64,10.03,0.36,-0.5544444444444444,-0.9511111111111111,-0.7155555555555555,-0.1538071403320003,-0.04690572364734761,-0.01854412330243975
1592334344.707436,0.10757466882422315,9.382561092674363,0.2300090507665725,-0.5544444444444444,-0.9511111111111111,-0.7155555555555555,-0.17372936457336474,-0.066271178714464,0.002456097010203959
1592334344.717436,-0.09975606872635562,9.326602892496847,0.33510462641866334,-0.5544444444444444,-0.9511111111111111,-0.7155555555555555,-0.08154622094512934,-0.04747963922809753,0.0033124055088050984
1592334344.727436,0.04819138019497179,9.656636736788096,0.6199551051821447,-0.5567098512057465,-0.9628500370560401,-0.7186447465936947,0.05881195414301056,-0.023631402110803803,0.018826205762356742
1592334344.737436,0.26,9.51,0.4,-0.5666666666666667,-1.0144444444444445,-0.7322222222222222,0.1974403716318585,-0.007635815477475192,0.015271630954950384
1592334344.747436,-0.45011531846505204,9.802055431809853,0.023117545887726618,-0.5666666666666667,-1.0144444444444445,-0.7322222222222222,0.3285340449981264,0.030737241376593897,-0.014598992468097887
1592334344.757436,-0.15045852309306373,9.96755454350366,-0.38015284103102126,-0.5666666666666667,-1.0144444444444445,-0.7322222222222222,0.3046585633492975,0.028344927974761208,-0.00770250495806178
1592334344.767436,-0.1240560593569662,10.199183841714756,-0.34864798021434457,-0.5666666666666667,-1.0144444444444445,-0.7322222222222222,0.2254312423888981,0.026209165490905163,-0.0010762174270013464
1592334344.777436,-0.22468286074821853,10.014048582244657,-0.30264752820665086,-0.5634038087226181,-1.0246779534507786,-0.7288110525534441,0.11342713046764846,0.013961188697555917,-0.009457078600299774
1592334344.787436,-0.3102998812351544,10.270899643705464,-0.20146377672209026,-0.5443778041699657,-1.0843504222750067,-0.7089202296120348,0.01154311433734373,0.00631988748778306,-0.026437747955350564
1592334344.797436,-0.3076072569890038,10.101924712513526,-0.22733423919881232,-0.5422222222222223,-1.0911111111111111,-0.7066666666666667,-0.15173609621632825,-0.00383705306650467,-0.019912979927162285
1592334344.807436,-0.5271138318518341,9.744602151568152,-0.07082684428684381,-0.5422222222222223,-1.0911111111111111,-0.7066666666666667,-0.28189890611148277,-0.02872747571027115,-0.023361817689432567
1592334344.817436,-0.7043574843389383,9.676987718430597,0.1250243158588856,-0.5422222222222223,-1.0911111111111111,-0.7066666666666667,-0.39383486923948374,-0.06040889060250145,-0.014580106099347
1592334344.827436,-0.16251737039016567,8.920096205237842,0.5592570817744522,-0.5349320030880694,-1.1018439337252806,-0.7038315814478294,-0.3705134142661546,-0.07535361098092969,0.01032237253025107
1592334344.837436,0.23,9.1,0.87,-0.5022222222222222,-1.15,-0.6911111111111111,-0.23671027980173093,-0.05126904677733343,0.0272707695624114
1592334344.847436,0.17425290564888596,8.834436634015125,0.8455633659848755,-0.5022222222222222,-1.15,-0.6911111111111111,0.07439459846619939,0.030349322904110528,0.018024202890399743
1592334344.857436,0.06,9.36,0.32,-0.5022222222222222,-1.15,-0.6911111111111111,0.2912518189265538,0.07853981633974483,0.016362461737446838
1592334344.867436,-0.1714665934065934,10.089473846153847,-0.18338373626373627,-0.5022222222222222,-1.15,-0.6911111111111111,0.5200680080855384,0.14902556151341154,0.006811507020451551
1592334344.877436,-0.492448691145726,10.2475465975678,-0.3720429315980095,-0.5038546829860395,-1.1536276905862606,-0.6920180337576763,0.5722862655412987,0.17157231904192738,-0.019167381760776113
1592334344.887436,-0.4505861821659096,10.559452067893856,-0.2625517571121205,-0.5222222222222223,-1.1944444444444444,-0.7022222222222222,0.45320214274234644,0.14240189558637467,-0.024777740090581105
1592334344.897436,-0.3378350172352312,10.193499108522525,-0.47574895994294547,-0.5222222222222223,-1.1944444444444444,-0.7022222222222222,0.2785243792962373,0.10875563452468225,-0.022416604995337906
1592334344.907436,-0.5119586006536738,10.093817939716741,-0.3460137997821087,-0.5222222222222223,-1.1944444444444444,-0.7022222222222222,0.06450585115459705,0.07282025026495557,-0.023014271526607833
1592334344.917436,-0.29,10.19,-0.42,-0.5222222222222223,-1.1944444444444444,-0.7022222222222222,-0.0839939702522271,0.053450708342326333,-0.01090830782496456
1592334344.9274359,-0.2865113621937286,9.888230925479244,0.038845372603783165,-0.521829094550943,-1.1983101998786905,-0.6980288603952435,-0.2362708039240805,0.016359761318472776,-0.00410602167081629
1592334344.9374359,-0.55,9.86,0.18,-0.5155555555555555,-1.26,-0.6311111111111111,-0.29888763440402893,-0.001090830782496456,0.0
1592334344.9474359,0.24364076550611022,9.570002305741296,0.1518163477057874,-0.5155555555555555,-1.26,-0.6311111111111111,-0.23433111423121453,-0.02142009853473298,0.020527526309834593
1592334344.9574358,-0.3276902289859195,9.209448158156734,0.3713796046081638,-0.5155555555555555,-1.26,-0.6311111111111111,-0.04562507186323198,0.002211759868478094,0.007097924662098259
1592334344.9674358,0.20409576036322896,9.345972639896221,0.09595553983135799,-0.5155555555555555,-1.26,-0.6311111111111111,0.11885392209927745,0.0036950212354084208,0.006543119367265286
1592334344.9774358,-0.02337624126517102,9.42763148216256,0.18124310408238326,-0.5153471456009153,-1.261000367782273,-0.6304441992562625,0.23297601980780783,0.036733997402619706,0.010458174637042152
1592334344.9874358,-0.11,9.88,-0.3,-0.51,-1.2866666666666666,-0.6133333333333333,0.3610649890063269,0.05563236990731925,-0.001090830782496456
1592334344.9974358,-0.1963653625980844,10.054538549607662,-0.34908659350478904,-0.51,-1.2866666666666666,-0.6133333333333333,0.40757630655019333,0.06951581200268149,-0.012395616043583264
1592334345.0074358,-0.13770864009879827,10.175479504108678,-0.5336237115850473,-0.51,-1.2866666666666666,-0.6133333333333333,0.3361443786911712,0.06167745741949621,-0.014903495643610558
1592334345.0174358,-0.11681895866454689,10.036846780604133,-0.7628579093799682,-0.51,-1.2866666666666666,-0.6133333333333333,0.22708118351244042,0.039725685538751346,-0.009217671857235703
1592334345.0274358,-0.358759038378345,9.801829923984922,-0.328954329151474,-0.5103776033619678,-1.2880608944647014,-0.6118810127103804,0.10924008615351026,0.016797418798732738,-0.006117240963754459
1592334345.0374358,0.06,9.87,-0.29,-0.5244444444444445,-1.34,-0.5577777777777778,0.03381575425739013,-0.007635815477475192,0.009817477042468103
1592334345.0474358,-0.3015802178392699,9.626080953782749,-0.1268395643214601,-0.5244444444444445,-1.34,-0.5577777777777778,-0.02172699219647173,-0.02232686884786461,0.0019265349660251656
1592334345.0574358,-0.13,9.75,-0.47,-0.5244444444444445,-1.34,-0.5577777777777778,-0.0643590161672909,-0.032724923474893676,-0.0032724923474893677
1592334345.0674357,-0.2485070814952403,9.771492918504759,-0.1280589737636406,-0.5244444444444445,-1.34,-0.5577777777777778,-0.07067605851162027,-0.04763843167004606,-0.007977729003449239
1592334345.0774357,-0.1511237520315765,9.868876247968423,0.057854655212444844,-0.5244444444444445,-1.34,-0.5577777777777778,-0.06874462699378467,-0.06308988381273095,-0.010874876280202651
1592334345.0874357,0.19,9.71,0.37,-0.5288888888888889,-1.3666666666666667,-0.5188888888888888,-0.05781403147231216,-0.07853981633974483,-0.011999138607461015
1592334345.0974357,-0.5649555476529161,9.649658605974395,-0.34759779516358463,-0.5288888888888889,-1.3666666666666667,-0.5188888888888888,0.03825355800979392,-0.08246459601325404,-0.02220550535812709
1592334345.1074357,0.23,9.44,0.36,-0.5288888888888889,-1.3666666666666667,-0.5188888888888888,0.0839939702522271,-0.0643590161672909,-0.009817477042468103
1592334345.1174357,-0.16107994294641037,9.885860218705428,-0.2764001901786321,-0.5288888888888889,-1.3666666666666667,-0.5188888888888888,0.1827184903479075,-0.05270461950311291,-0.0052578147442682195
1592334345.1274357,-0.2180561026964613,9.667451606330232,-0.08647965767846227,-0.5288888888888889,-1.3666666666666667,-0.5188888888888888,0.21172245317901003,-0.013342098518045187,0.005100743409696971
1592334345.1374357,0.24,10.07,-0.58,-0.5222222222222223,-1.3755555555555556,-0.48444444444444446,0.2127120025868089,0.007635815477475192,0.009817477042468103
1592334345.1474357,-0.20560523975095008,9.847197380124525,-0.21189132368399777,-0.5222222222222223,-1.3755555555555556,-0.48444444444444446,0.20108835250858595,0.02982642017226442,-0.007089650344037978
1592334345.1574357,-0.2321270816953756,10.000939175184048,-0.5126795797298264,-0.5222222222222223,-1.3755555555555556,-0.48444444444444446,0.12646105502833438,0.04426904897059361,-0.013150237576282234
1592334345.1674356,-0.24682462408228967,10.19804503160457,-0.4354976247497154,-0.5222222222222223,-1.3755555555555556,-0.48444444444444446,0.03594960016659186,0.033320745518059705,-0.009467221475170108
1592334345.1774356,-0.6090977974951906,10.058075850967768,-0.5342993993168702,-0.5222222222222223,-1.3755555555555556,-0.48444444444444446,-0.0547618808615408,0.016256209483064457,-0.021142956657008966
1592334345.1874356,-0.32,9.96,-0.29,-0.5288888888888889,-1.39,-0.4444444444444444,-0.17344209441693648,-0.02399827721492203,-0.014180800172453926
1592334345.1974356,-0.02832605226672247,9.518326052266723,0.0755361393779266,-0.5288888888888889,-1.39,-0.4444444444444444,-0.24598948962338052,-0.06502854719639897,-0.01248130481804104
1592334345.2074356,0.03800885701220246,9.482961322775518,0.014077354448963877,-0.5288888888888889,-1.39,-0.4444444444444444,-0.26350999865535146,-0.07605103454337105,-0.0006460604080885891
1592334345.2174356,0.27,9.44,0.1,-0.5288888888888889,-1.39,-0.4444444444444444,-0.20071286397934787,-0.074176493209759,0.008726646259971648
1592334345.2274356,-0.11717529622433043,9.710122299691394,-0.053069303158456205,-0.5288888888888889,-1.39,-0.4444444444444444,-0.0779388141701376,-0.05649703003723272,-0.00011308532629149444
1592334345.2374356,0.09,9.58,0.19,-0.5222222222222223,-1.3966666666666667,-0.4011111111111111,0.056723200689815706,-0.015271630954950384,0.011999138607461015
1592334345.2474356,-0.188415272371033,9.734242182061925,-0.05911418185568073,-0.5222222222222223,-1.3966666666666667,-0.4011111111111111,0.07994091900404497,-0.00511595671765121,-0.0007247082746380073
1592334345.2574356,-0.3906139814771285,9.670696723238212,-0.06519486624982371,-0.5222222222222223,-1.3966666666666667,-0.4011111111111111,0.11492103064721101,0.0019318130589366508,-0.016112613231390578
1592334345.2674356,-0.5060920857622765,10.109602213220038,-0.25324493627111944,-0.5222222222222223,-1.3966666666666667,-0.4011111111111111,0.15337552873713958,0.0019342657564619006,-0.014180800172453926
1592334345.2774355,-0.07509989131508743,9.811223001679675,-0.18693844481770577,-0.5222222222222223,-1.3966666666666667,-0.4011111111111111,0.170553704701861,0.02092067077010138,-0.014180800172453926
1592334345.2874355,-0.3981113393949991,10.216451958384333,-0.20076783528588912,-0.5244444444444445,-1.3844444444444444,-0.3655555555555556,0.09272061651219875,0.015271630954950384,0.006544984694978735
1592334345.2974355,-0.04842877278482524,10.028294034735659,-0.3242143863924126,-0.5244444444444445,-1.3844444444444444,-0.3655555555555556,0.08232281718072676,0.013265038101508421,0.004082348011209054
1592334345.3074355,-0.36156842151328167,9.896863156973437,-0.4619631525972605,-0.5244444444444445,-1.3844444444444444,-0.3655555555555556,-0.03505585762563192,-0.01026644047992726,-0.021966461075786037
1592334345.3174355,-0.3799234169182968,9.860153166163405,-0.25088070543958685,-0.5244444444444445,-1.3844444444444444,-0.3655555555555556,-0.07510024562637488,-0.028286415080261584,-0.010954254375581726
1592334345.3274355,-0.5056612369450295,10.12029827652899,-0.4295160527786135,-0.5244444444444445,-1.3844444444444444,-0.3655555555555556,-0.1487004376134442,-0.06165127851984676,-0.01188741600658041
1592334345.3374355,-0.62,9.69,-0.31,-0.5366666666666666,-1.3866666666666667,-0.31777777777777777,-0.23343778745424157,-0.1112647398146385,0.0032724923474893677
1592334345.3474355,0.05985084253809558,9.611555672014834,0.1519499314681932,-0.5366666666666666,-1.3866666666666667,-0.31777777777777777,-0.21632388991854834,-0.1302801815209643,0.004223264432805658
1592334345.3574355,-0.23803727653100037,9.67245031380753,0.04686335108406238,-0.5366666666666666,-1.3866666666666667,-0.31777777777777777,-0.1462350154308329,-0.12446175916347162,-0.003464912573956744
1592334345.3674355,0.06,9.550201216844952,0.13835010140374598,-0.5366666666666666,-1.3866666666666667,-0.31777777777777777,-0.0674464138733156,-0.1389774027711443,0.008966614283543858
1592334345.3774354,0.06,9.249976935618564,0.1133314113015469,-0.5366666666666666,-1.3866666666666667,-0.31777777777777777,0.018065879003834606,-0.11259595071330007,0.012605435257039612
1592334345.3874354,-0.1,9.61,-0.05,-0.5366666666666666,-1.3866666666666667,-0.2966666666666667,0.1308996938995747,-0.074176493209759,0.001090830782496456
1592334345.3974354,-0.05182043771865593,9.542548612806117,0.03672321210641932,-0.5366666666666666,-1.3866666666666667,-0.2966666666666667,0.18030209854584828,-0.045796388412963546,-0.008369204149768696
1592334345.4074354,-0.21847486099609606,9.883020702709098,-0.5750443629480657,-0.5366666666666666,-1.3866666666666667,-0.2966666666666667,0.19177192296042514,-0.031090290383460745,-0.015054110031375792
1592334345.4174354,-0.3876014438383388,9.769184596353902,-0.29868736438667287,-0.5366666666666666,-1.3866666666666667,-0.2966666666666667,0.16508079119437308,-0.02096269597972632,-0.010395000414994972
1592334345.4274354,-0.5662162107355058,10.219974246141991,-0.5028185265548639,-0.5366666666666666,-1.3866666666666667,-0.2966666666666667,0.12240188475040398,-0.026529509863722284,0.0016664296669962886
1592334345.4374354,0.08,10.15,-0.46,-0.5488888888888889,-1.3955555555555557,-0.2677777777777778,0.061086523819801536,-0.038179077387375956,0.0
1592334345.4474354,-0.498180495493675,9.616989855716769,-0.17994382249525115,-0.5488888888888889,-1.3955555555555557,-0.2677777777777778,0.02758074132136272,-0.01452793680024268,-0.0019709283822611063
1592334345.4574354,0.069439111747851,9.861836676217765,-0.16780587392550145,-0.5488888888888889,-1.3955555555555557,-0.2677777777777778,0.05240996513372531,-0.005192620199802076,-0.001591706521450774
1592334345.4674354,-0.15,9.9,-0.33,-0.5488888888888889,-1.3955555555555557,-0.2677777777777778,0.053450708342326333,0.022907446432425576,-0.011999138607461015
1592334345.4774354,-0.2995695763072127,10.113670823296017,-0.4724472155306788,-0.5488888888888889,-1.3955555555555557,-0.2677777777777778,0.002950320878250562,0.018245872204972424,-0.015883783797005308
1592334345.4874353,-0.51632529250325,9.985052722808032,-0.5593109923443594,-0.5510600735069896,-1.3695013401383471,-0.2612642239234757,-0.10697862412122978,-0.0028215378914002685,-0.014255959248468777
1592334345.4974353,-0.248741788093019,9.624558205087403,-0.3542179082084972,-0.5511111111111111,-1.3688888888888888,-0.2611111111111111,-0.1560184339304792,-0.013475830538974937,-0.01928246926819671
1592334345.5074353,-0.29,9.64,-0.37,-0.5511111111111111,-1.3688888888888888,-0.2611111111111111,-0.1341721862470641,-0.016362461737446838,-0.007635815477475192
1592334345.5174353,0.2077002521916657,9.410899883911773,0.025000200152115626,-0.5511111111111111,-1.3688888888888888,-0.2611111111111111,-0.07557272691819039,-0.01980948875679235,0.010461076374088746
1592334345.5274353,-0.2741824070250179,9.708937770339297,-0.24489056013215382,-0.5511111111111111,-1.3688888888888888,-0.2611111111111111,-0.0034398619758859716,0.002766637265772195,0.008310913285852647
1592334345.5374353,-0.01,9.65,-0.04,-0.5333333333333333,-1.3755555555555556,-0.23222222222222222,0.062177354602297986,0.032724923474893676,-0.002181661564992912
1592334345.5474353,-0.13147306705753023,9.828636863319899,-0.3758373030414071,-0.5333333333333333,-1.3755555555555556,-0.23222222222222222,0.07698691139654265,0.046755029911546515,-0.0029611119225847362
1592334345.5574353,-0.3057095853790196,9.819186695113489,-0.25858082924196074,-0.5333333333333333,-1.3755555555555556,-0.23222222222222222,0.0789851998872649,0.06215472651599425,-0.011108371512420853
1592334345.5674353,-0.26689106972190496,9.88081190703746,-0.4866931630107928,-0.5333333333333333,-1.3755555555555556,-0.23222222222222222,0.052470031151982954,0.05168161419023361,-0.01103359100791428
1592334345.5774353,-0.19155184812311232,9.806341147706025,-0.2994448439522508,-0.5333333333333333,-1.3755555555555556,-0.23222222222222222,0.03664316003362358,0.04354129589952127,-0.011737922836879022
1592334345.5874352,-0.3099845940533046,9.74267077491912,-0.3419876752426436,-0.5499241000359472,-1.3444478679881546,-0.21874222427634843,0.016436976352908084,0.027199616003127928,-0.017089122083081516
1592334345.5974352,-0.2248921620199895,9.93021567596002,-0.1883166754339821,-0.5511111111111111,-1.3422222222222222,-0.21777777777777776,0.010084303088686332,0.014767817474134028,-0.012265964653679243
1592334345.6074352,-0.30827355797951195,9.79876230723278,-0.4359933181405845,-0.5511111111111111,-1.3422222222222222,-0.21777777777777776,-0.022921637827874562,0.014180800172453926,-0.00622164774798878
1592334345.6174352,-0.2849466685799015,9.946503324245468,-0.3210233414645812,-0.5511111111111111,-1.3422222222222222,-0.21777777777777776,-0.06646395382805742,0.01609266281955861,-0.013101604500901016
1592334345.6274352,-0.40937510994702997,9.934062469459159,-0.46531264048787163,-0.5511111111111111,-1.3422222222222222,-0.21777777777777776,-0.12530923144753106,0.015578426446229707,-0.009476588425151138
1592334345.6374352,0.18780100937274696,9.583143475126171,-0.5040879596250901,-0.5395946487222623,-1.3374236962268686,-0.19954337899543378,-0.19422293202753768,0.022809137962481768,-9.83084699438053e-05
1592334345.6474352,-0.2851115416974734,9.664192693062743,0.2093042347602172,-0.5377777777777778,-1.3366666666666667,-0.19666666666666666,-0.16939064382079344,0.014588036619133058,0.0042275776477594465
1592334345.6574352,-0.15720106120902028,9.421701724464658,-0.027398142884214494,-0.5377777777777778,-1.3366666666666667,-0.19666666666666666,-0.17423835747817892,0.03084857876905318,0.011655476265997996
1592334345.6674352,-0.13104966754217837,9.51422682851802,0.06422682851801897,-0.5377777777777778,-1.3366666666666667,-0.19666666666666666,-0.10528304515459554,0.011996067008040342,0.00993197800910766
1592334345.6774352,-0.186009305510796,9.544003988076057,-0.03401728166290685,-0.5377777777777778,-1.3366666666666667,-0.19666666666666666,-0.029004062939795447,0.01090830782496456,0.012435905952072017
1592334345.6874352,-0.13169795221843006,9.89151023890785,-0.12830204778156995,-0.5692184029470718,-1.331245869223685,-0.19016170973508859,0.045503359890279094,-0.008250371776438942,0.01202559830099061
1592334345.6974351,-0.3003950706777818,9.929633925335267,-0.43374773468648065,-0.57,-1.3311111111111111,-0.19,0.040440604054965565,-0.005494086463780627,-0.0033555204244463312
1592334345.7074351,-0.5968526374769871,9.92105178900184,-0.4736812615064436,-0.57,-1.3311111111111111,-0.19,-0.01866147514520572,-0.01779836281950513,-0.007693181668470163
1592334345.7174351,0.06558794547544744,9.84575956643127,-0.321519132862539,-0.57,-1.3311111111111111,-0.19,-0.046111740722725454,-0.01125558578060085,0.001272397049216797
1592334345.727435,0.003853064526430028,9.82759351116599,-0.4750248014817023,-0.57,-1.3311111111111111,-0.19,-0.06779471628816891,-0.0021000576782985872,-0.0064048833152329
1592334345.737435,-0.31414026717557253,9.781273854961832,-0.12095515267175572,-0.5385987065309584,-1.3192002756573369,-0.18242037743850723,-0.0943186627911747,-0.0063782374704024645,-0.003439239572065638
1592334345.747435,-0.026158617634027437,9.67715551617191,-0.2863048294195835,-0.5377777777777778,-1.318888888888889,-0.18222222222222223,-0.0981075903277528,-0.012154281133460731,-0.0008685081595685117
1592334345.757435,-0.4073440606526523,9.649372001166398,0.00613604432309206,-0.5377777777777778,-1.318888888888889,-0.18222222222222223,-0.05326089806063329,-0.031560354694481735,-0.0071562871561290965
1592334345.767435,-0.2991376849695786,9.87806279576354,-0.1645241493277248,-0.5377777777777778,-1.318888888888889,-0.18222222222222223,-0.04432461792516471,-0.04077362082069304,-0.00031881789038486555
1592334345.777435,-0.20390103838892387,9.742059864694776,-0.2208515575833858,-0.5377777777777778,-1.318888888888889,-0.18222222222222223,-0.05782156139688454,-0.05041797222566572,0.0032724923474893677
1592334345.787435,-0.11526863511807629,9.722097047322885,-0.08790295267711444,-0.5377777777777778,-1.3321744648678975,-0.19882919219598305,-0.05838875040916611,-0.05671147927157342,0.001642106882865828
1592334345.797435,-0.013544475920679894,9.821164419263456,-0.27172101983002833,-0.5377777777777778,-1.3366666666666667,-0.20444444444444446,-0.04562436520840469,-0.04447002520709274,0.003592831957225098
1592334345.807435,-0.2092829197982086,9.677568207556883,-0.20193297642335015,-0.5377777777777778,-1.3366666666666667,-0.20444444444444446,-0.05317353647254344,-0.031501458989717485,-0.003610028836400425
1592334345.817435,-0.19682530999270603,9.805833561269147,-0.1542063274981765,-0.5377777777777778,-1.3366666666666667,-0.20444444444444446,-0.045295435427125136,-0.04323501043432981,-0.004592742705799436
1592334345.827435,-0.12251049456235234,9.869163168479217,-0.18832633695843176,-0.5377777777777778,-1.3366666666666667,-0.20444444444444446,-0.05787183483337774,-0.05317685586753595,-0.0015761532543465593
1592334345.837435,-0.19381046464095925,9.83208747785802,-0.12216037607303447,-0.5439886602776642,-1.316259481309897,-0.19290994837322675,-0.08831753357374887,-0.07414468536298774,-0.0052264454019516115
1592334345.847435,-0.21153533502490368,9.786141340099615,-0.0661413400996147,-0.5455555555555556,-1.3111111111111111,-0.19,-0.10858507468406267,-0.09146674030544137,0.0008418289997049995
1592334345.857435,-0.22564510427712975,9.787822552138564,-0.09911276069282432,-0.5455555555555556,-1.3111111111111111,-0.19,-0.11979782048506854,-0.0895449069594802,0.00900812610133694
1592334345.867435,-0.1302603892688059,9.74396633350868,-0.06396633350867964,-0.5455555555555556,-1.3111111111111111,-0.19,-0.13221603572758464,-0.08333579933822215,0.013419054846959953
1592334345.877435,-0.07497046938141125,9.717485234690706,-0.06251476530929438,-0.5455555555555556,-1.3111111111111111,-0.19,-0.1386758898383348,-0.07157369026091139,0.012133076487189365
1592334345.887435,-0.09169450073370136,9.69415274963315,-0.07,-0.5367515275739719,-1.315513125101903,-0.19,-0.13120950325709388,-0.048163178431698386,0.003993640417728971
1592334345.897435,-0.10907111972565976,9.65825108096019,-0.02010884150887133,-0.5344444444444445,-1.3166666666666667,-0.19,-0.11239118889762201,-0.034232927502820795,0.003171167227838959
1592334345.907435,-0.15030097734340292,9.710902932030208,-0.11908013105286538,-0.5344444444444445,-1.3166666666666667,-0.19,-0.0637990325395261,-0.012991474784652094,0.004363323129985824
1592334345.917435,-0.16781871689228958,9.74781871689229,-0.12308769864626251,-0.5344444444444445,-1.3166666666666667,-0.19,-0.04515975235251485,-0.0064059182161743024,0.0026575437168389233
1592334345.927435,-0.1762922170447106,9.743707782955289,-0.05966226364231524,-0.5344444444444445,-1.3166666666666667,-0.19,-0.037051405283346425,-0.0020222818912226824,0.00012253835223715323
1592334345.937435,-0.16591787964371063,9.761123180534433,-0.10041060178144688,-0.546961884761146,-1.3064962464093466,-0.17982957974267988,-0.033047693739017114,0.009984786738849267,-0.003395012337615518
1592334345.947435,-0.1831228595890411,9.777707619863014,-0.23019905821917808,-0.5522222222222222,-1.3022222222222222,-0.17555555555555555,-0.03608800707743626,0.02342928007944603,-0.008567177633164053
1592334345.957435,-0.10842012222839538,9.763684024445679,-0.43947573109753013,-0.5522222222222222,-1.3022222222222222,-0.17555555555555555,-0.0370882466048795,0.047537500837250474,-0.005367984947189868
1592334345.967435,-0.1898314485341785,9.685126413599367,-0.40512641359936613,-0.5522222222222222,-1.3022222222222222,-0.17555555555555555,-0.02801331184468845,0.07958468184040304,0.00380411815418612
1592334345.9774349,-0.16603107907414785,9.70997174629623,-0.4019915238888688,-0.5522222222222222,-1.3022222222222222,-0.17555555555555555,-0.018767528860603802,0.09990962087334584,0.006326202138283591
1592334345.9874349,-0.20588266857449472,9.70193257020211,-0.36705866571275264,-0.5480205290248216,-1.3022222222222222,-0.1822782646713965,-0.0026858122968782356,0.14032305930179192,0.008460816007574685
1592334345.9974349,-0.14501676872146613,9.716532012030205,-0.29885518315771253,-0.5466666666666666,-1.3022222222222222,-0.18444444444444444,0.013255256794371922,0.14776533458528823,0.006335631663826918
1592334346.0074348,-0.2026834102830622,9.865460368875246,-0.5437912446517925,-0.5466666666666666,-1.3022222222222222,-0.18444444444444444,0.021654951516701684,0.14290903704455962,-0.0007675025160415851
1592334346.0174348,-0.28189396930079186,9.836212061398417,-0.6150883589160068,-0.5466666666666666,-1.3022222222222222,-0.18444444444444444,0.003866100051481705,0.127769055403001,-0.005557453913202632
1592334346.0274348,-0.28281983817681855,9.845813764861818,-0.5885465587845456,-0.5466666666666666,-1.3022222222222222,-0.18444444444444444,-0.02747679068014852,0.11342741126927122,-0.01154249119231121
1592334346.0374348,-0.29618692070030894,9.827626158599383,-0.58,-0.5386651075637945,-1.2898561763359653,-0.18880893122782927,-0.06686232396133995,0.09690349196511094,-0.01955645583475398
1592334346.0474348,-0.22783693883411504,9.702898200440318,-0.4530207236527232,-0.5344444444444445,-1.2833333333333334,-0.19111111111111112,-0.09402067024677976,0.07614893182266737,-0.01937227029618676
1592334346.0574348,-0.2844190271143107,9.655930162147616,-0.46627935140954047,-0.5344444444444445,-1.2833333333333334,-0.19111111111111112,-0.08468517958476776,0.06323009474521188,-0.014707170243910873
1592334346.0674348,-0.2723365416528377,9.643190934521835,-0.43552747617467163,-0.5344444444444445,-1.2833333333333334,-0.19111111111111112,-0.050315171089998445,0.057024677747858084,-0.013832723212319218
1592334346.0774348,-0.24443876056778022,9.6121938028389,-0.2820914930589452,-0.5344444444444445,-1.2833333333333334,-0.19111111111111112,-0.004936479448937776,0.05805891837191863,-0.007507791894805644
1592334346.0874348,-0.30547034764826175,9.792958077709612,-0.2585644171779141,-0.546083617359691,-1.2956999545557828,-0.1962032492615315,0.0457217595618466,0.05428232739286761,-0.002181661564992912
1592334346.0974348,-0.24232729505680076,9.941859730689943,-0.3837194613798851,-0.5522222222222222,-1.3022222222222222,-0.1988888888888889,0.03531288948328147,0.046702858498973335,-0.0014206301852662296
1592334346.1074347,-0.20752981761779965,9.696456383377011,-0.3748210942932021,-0.5522222222222222,-1.3022222222222222,-0.1988888888888889,-0.015979676222981454,0.042259935029130696,0.0005519205863195418
1592334346.1174347,-0.17525430516619944,9.54919503404085,-0.025572687224669544,-0.5522222222222222,-1.3022222222222222,-0.1988888888888889,-7.863417735257117e-05,0.043346653409062214,0.007723623642185559
1592334346.1274347,-0.010742519077424323,9.845661064906114,-0.04317842750578754,-0.5522222222222222,-1.3022222222222222,-0.1988888888888889,0.11298067284654037,0.05362027673885091,0.022216499642946662
1592334346.1374347,-0.2110269229469986,10.1,-0.45928824781272165,-0.5478853869915586,-1.2918138176686298,-0.18761311728916363,0.1414846916111851,0.0708263607427304,-0.00021766501476899389
1592334346.1474347,-0.24929456156180788,10.115264539414323,-0.500176359609548,-0.5466666666666666,-1.288888888888889,-0.18444444444444444,0.07698441387135536,0.06751608142024984,-0.00153043800375846
1592334346.1574347,-0.2245807079430726,9.867547257024693,-0.24754725702469288,-0.5466666666666666,-1.288888888888889,-0.18444444444444444,-0.03891828408842058,0.04120516750118379,0.008339594393709373
1592334346.1674347,-0.13549275499126823,9.704571907301647,-0.026413602680889228,-0.5466666666666666,-1.288888888888889,-0.18444444444444444,-0.07853276277778694,0.02429962391667083,0.008231455319014886
1592334346.1774347,-0.08748418732101285,9.698773719018481,0.057547438036961496,-0.5466666666666666,-1.288888888888889,-0.18444444444444444,-0.07006690392270506,0.021408416554342596,0.004905288729835465
1592334346.1874347,-0.1452380662074011,9.738994696092178,0.04375662988477717,-0.5378071761940567,-1.2921105217880198,-0.1997472007153163,-0.043690954955238774,0.02577015402823884,-0.003053169057806182
1592334346.1974347,-0.1855001597954618,9.75775007989773,0.006749760306807285,-0.5344444444444445,-1.2933333333333332,-0.20555555555555555,-0.030325026029478015,0.0272707695624114,-0.0071449590563326506
1592334346.2074347,-0.21719352309896467,9.805967615494824,-0.1307093233855054,-0.5344444444444445,-1.2933333333333332,-0.20555555555555555,-0.016496187512556222,0.028055461205506393,-0.007463402113183115
1592334346.2174346,-0.22,9.803659393642233,-0.141403938873907,-0.5344444444444445,-1.2933333333333332,-0.20555555555555555,-0.020173460970370635,0.027024737613429602,-0.0038712592320222345
1592334346.2274346,-0.20989868157328578,9.754746703933215,-0.04444274865307174,-0.5344444444444445,-1.2933333333333332,-0.20555555555555555,-0.031678301195874815,0.020130634909772138,0.0016528243625487829
1592334346.2374346,-0.1910662584346482,9.73,0.0010662584346481964,-0.5399039531788261,-1.2878738245989516,-0.19612549501435086,-0.02966303562585306,0.013809850909597311,0.0032724923474893677
1592334346.2474346,-0.16268933959930743,9.724229779866436,-0.050391540934949304,-0.5466666666666666,-1.281111111111111,-0.18444444444444444,-0.011745681660372919,0.015146305479197328,0.0001253254757530558
1592334346.2574346,-0.1869553467384028,9.738477673369202,-0.19702526467160886,-0.5466666666666666,-1.281111111111111,-0.18444444444444444,0.004370949993364793,0.02081262833661661,-0.004869130218331563
1592334346.2674346,-0.19098483214722162,9.769015167852778,-0.25732322143148106,-0.5466666666666666,-1.281111111111111,-0.18444444444444444,0.014657354142369232,0.024981679475240343,-0.009310628752065094
