time,acc_x,acc_y,acc_z,mag_x,mag_y,mag_z,gyr_x,gyr_y,gyr_z
1592334588.8772032,-0.21714842473745624,9.76,-0.07285157526254377,-1.0055555555555555,-1.5911111111111111,-1.478888888888889,0.0017129479974940845,0.010132786962468129,0.003583550954988182
1592334588.8872032,-0.21,9.754613974526842,-0.0934650636828949,-1.0055555555555555,-1.5911111111111111,-1.478888888888889,0.005916351419133201,0.004279105436196131,0.002894512534628139
1592334588.8972032,-0.20462327048533946,9.74,-0.14344182378665138,-1.0055555555555555,-1.5911111111111111,-1.478888888888889,0.015436010215457053,0.0005043205761215603,-0.00021106547293411242
1592334588.9072032,-0.19436024057029763,9.746540360855446,-0.17781987971485116,-1.0055555555555555,-1.5911111111111111,-1.478888888888889,0.02348131527153882,9.824037579618549e-05,0.0009925904067002705
1592334588.9172032,-0.21,9.77,-0.1692090646522995,-1.0066101360191562,-1.590803525142561,-1.478888888888889,0.02945243112740431,0.004363323129985824,-0.003229353516277555
1592334588.9272032,-0.21,9.77,-0.15,-1.0322222222222222,-1.5833333333333333,-1.478888888888889,0.02945243112740431,0.004363323129985824,-0.002181661564992912
1592334588.9372032,-0.19111324159711257,9.77666027520866,-0.1466794495826754,-1.0322222222222222,-1.5833333333333333,-1.478888888888889,0.032482051834396494,0.0018173541042471408,-0.002908184886743597
1592334588.9472032,-0.20247784035550487,9.742566478933485,-0.17522159644495142,-1.0322222222222222,-1.5833333333333333,-1.478888888888889,0.0327055855370181,-0.0013611212358861221,0.0
1592334588.9572031,-0.2119791105639763,9.731874663383858,-0.10197911056397631,-1.0322222222222222,-1.5833333333333333,-1.478888888888889,0.041644670367536614,-0.002181661564992912,-0.001295324835089563
1592334588.9672031,-0.21992446989630088,9.78,-0.11022659031109736,-1.0321131231835456,-1.583425647904521,-1.4787797898502124,0.05132672017081753,-0.002206378733628956,-0.006536745638766721
1592334588.9772031,-0.21,9.78,-0.15333873253695082,-1.0177777777777777,-1.5955555555555556,-1.4644444444444444,0.05963237725734827,-0.0059391639141753785,-0.004969143910789181
1592334588.9872031,-0.21542511710032616,9.776383255266449,-0.2162753513009785,-1.0177777777777777,-1.5955555555555556,-1.4644444444444444,0.06237461742668744,-0.007044027004306823,-0.002877966698710455
1592334588.997203,-0.23593149281817966,9.76203425359091,-0.2635547033181677,-1.0177777777777777,-1.5955555555555556,-1.4644444444444444,0.06326818538479445,-0.005472836348170209,-0.0008689281388595789
1592334589.007203,-0.21671147040052605,9.77,-0.1682213239986849,-1.0177777777777777,-1.5955555555555556,-1.4644444444444444,0.06470307711129722,-0.00999683850828095,-0.00017936146581284677
1592334589.017203,-0.2004881350687528,9.77,-0.20877966232811804,-1.0177777777777777,-1.5955555555555556,-1.4644444444444444,0.07178184254116146,-0.010881684187013982,-0.001064207144545878
1592334589.027203,-0.24,9.76,-0.19,-1.0177777777777777,-1.5766666666666667,-1.4733333333333334,0.074176493209759,-0.007635815477475192,0.0032724923474893677
1592334589.037203,-0.18701000523690087,9.787508337697417,-0.2244849921446487,-1.0177777777777777,-1.5766666666666667,-1.4733333333333334,0.07853981633974483,-0.005073636440988243,0.014452598366378239
1592334589.047203,-0.13725084326239415,9.736374578368803,-0.28462204858162055,-1.0177777777777777,-1.5766666666666667,-1.4733333333333334,0.07913302456697056,0.002972605867960567,0.01983269016067812
1592334589.057203,-0.17,9.721573969265009,-0.16213015367496117,-1.0177777777777777,-1.5766666666666667,-1.4733333333333334,0.083529242812208,0.006888371519973495,0.019695624392448385
1592334589.067203,-0.17,9.729620896725054,-0.12189551637472901,-1.0177777777777777,-1.5766666666666667,-1.4733333333333334,0.09230707899014265,0.008643938755560427,0.014428922685687587
1592334589.077203,-0.1416418935941186,9.7,-0.06985136156471154,-1.0133333333333334,-1.5955555555555556,-1.4577777777777778,0.11248603159033736,0.013806380619576791,0.006023890210831722
1592334589.087203,-0.15399028486342664,9.703990284863426,-0.13862132936265775,-1.0133333333333334,-1.5955555555555556,-1.4577777777777778,0.1330008618610456,0.018904201039928452,-0.0023267524169914276
1592334589.097203,-0.18456645344705044,9.731522151149017,-0.25695569770196636,-1.0133333333333334,-1.5955555555555556,-1.4577777777777778,0.15646379525833615,0.030022009673867752,-0.002940410481697388
1592334589.107203,-0.2123335480692713,9.734166129826821,-0.21899806737655841,-1.0133333333333334,-1.5955555555555556,-1.4577777777777778,0.17240591058182192,0.03952445877651204,-0.00045445426589738286
1592334589.117203,-0.22822767062033425,9.694430823449164,-0.07595096441699192,-1.0133333333333334,-1.5955555555555556,-1.4577777777777778,0.18020791974458367,0.0412582385904591,0.0038799952689702565
1592334589.127203,-0.19410320627494154,9.66435943305353,-0.06,-1.0133333333333334,-1.5995440881916732,-1.4657548430500131,0.20513169684146076,0.04145156973486533,0.007719665494690345
1592334589.137203,-0.16,9.63708840750718,-0.07455796246410046,-1.0133333333333334,-1.6033333333333333,-1.4733333333333334,0.23290651835350262,0.0417691752065907,0.010590702353239185
1592334589.147203,-0.15658099165627698,9.622564256257792,-0.16256425625779228,-1.0133333333333334,-1.6033333333333333,-1.4733333333333334,0.26478303543670567,0.043539992311184605,0.008353690305277118
1592334589.157203,-0.1251698670605613,9.652954209748893,-0.19147710487444608,-1.0133333333333334,-1.6033333333333333,-1.4733333333333334,0.29936457075797124,0.04238127337075965,0.004202195983383688
1592334589.167203,-0.1822329549871725,9.685561688564098,-0.2077808442820493,-1.0133333333333334,-1.6033333333333333,-1.4733333333333334,0.32870919510373453,0.04060281128919824,0.0024237339018222774
1592334589.177203,-0.17158293654649695,9.703088864055971,-0.25841706345350307,-1.0177777777777777,-1.6033333333333333,-1.4355555555555555,0.3591697354458336,0.03752625899444038,0.0016004451731822333
1592334589.187203,-0.04,9.81,-0.39,-1.0177777777777777,-1.6033333333333333,-1.4355555555555555,0.38069994309126315,0.02945243112740431,-0.001090830782496456
1592334589.197203,0.01207464781410823,9.860720486562354,-0.6007204865623538,-1.0177777777777777,-1.6033333333333333,-1.4355555555555555,0.3976816782588521,0.037805052339741366,-0.005699402294989801
1592334589.207203,-0.10508824240470625,9.867485292932548,-0.6049705858650979,-1.0177777777777777,-1.6033333333333333,-1.4355555555555555,0.386807791129488,0.06574982761263441,-0.023867538389773523
1592334589.217203,-0.20648964461278102,9.850585059231204,-0.5711701184624063,-1.0177777777777777,-1.6033333333333333,-1.4355555555555555,0.3545460246120669,0.09708982937241484,-0.030319891693257727
1592334589.227203,-0.25,9.78,-0.31,-1.0322222222222222,-1.6033333333333333,-1.42,0.31634092692397225,0.13526301702956053,-0.019634954084936207
1592334589.237203,-0.35606848889579124,9.987531190143399,-0.38427395558316507,-1.0322222222222222,-1.6033333333333333,-1.42,0.2924648507658045,0.14542335161180847,-0.0003553091724112286
1592334589.2472029,-0.3824435055070262,10.251057254082795,-0.7354419863273832,-1.0322222222222222,-1.6033333333333333,-1.42,0.24851464939224507,0.11294728311711238,0.008286150312577284
1592334589.2572029,-0.059184349223143085,10.34071337604577,-0.8210202002390329,-1.0322222222222222,-1.6033333333333333,-1.42,0.1474401030320541,0.07189470150475559,-0.0003561726325026634
1592334589.2672029,-0.2728480181821744,10.053089206293226,-0.7552775328670233,-1.0322222222222222,-1.6033333333333333,-1.42,0.1008259215917253,0.08713395312947846,0.005022386764458349
1592334589.2772028,-0.2,9.94,-0.59,-1.0322222222222222,-1.6033333333333333,-1.4133333333333333,-0.04036073895236887,0.07853981633974483,0.01308996938995747
1592334589.2872028,-0.2756545025780407,9.82651824613294,-0.2968388025100923,-1.0322222222222222,-1.6033333333333333,-1.4133333333333333,-0.10328701239038936,0.05687667302501645,0.01515312589612208
1592334589.2972028,0.03442328747560338,9.46667658399581,-0.2444232874756034,-1.0322222222222222,-1.6033333333333333,-1.4133333333333333,-0.1290792626072736,0.03502850966869135,0.008362819636581281
1592334589.3072028,-0.21888579158809543,9.610371402803969,-0.001485611215872755,-1.0322222222222222,-1.6033333333333333,-1.4133333333333333,-0.0915300664280311,0.04523830960218372,0.004734207384721644
1592334589.3172028,0.06481491350332047,9.704938304501107,-0.37975321800442735,-1.0322222222222222,-1.6033333333333333,-1.4133333333333333,-0.04088960898863129,0.04992724084657259,-0.0018302963574227766
1592334589.3272028,-0.24,9.54,-0.18,-1.0177777777777777,-1.6133333333333333,-1.4166666666666667,0.001090830782496456,0.0643590161672909,-0.01090830782496456
1592334589.3372028,-0.3893715334583616,9.450377079924982,0.05899445353337854,-1.0177777777777777,-1.6133333333333333,-1.4166666666666667,0.03693742546201408,0.08717048550880212,-0.005477005600795222
1592334589.3472028,-0.12169813564158662,9.765387853134214,-0.45708598877580137,-1.0177777777777777,-1.6133333333333333,-1.4166666666666667,0.052053421865346554,0.09970009696497298,-0.002536132283218301
1592334589.3572028,-0.037751043945118315,9.743239212567111,-0.36823225293298867,-1.0177777777777777,-1.6133333333333333,-1.4166666666666667,0.11254688353214427,0.12381005299166127,0.024544451784483785
1592334589.3672028,-0.012730363889441241,10.001786239809107,-0.793583813879499,-1.0177777777777777,-1.6133333333333333,-1.4166666666666667,0.10253932993077747,0.10561450098917616,0.006348899781998662
1592334589.3772027,-0.45,9.53,0.33,-1.0255555555555556,-1.6133333333333333,-1.4466666666666668,0.11017390903214205,0.09490227807719166,0.004363323129985824
1592334589.3872027,0.017101722917158335,10.063830540476753,-0.7376610809535049,-1.0255555555555556,-1.6133333333333333,-1.4466666666666668,0.09145651947607471,0.07306532359511309,-0.009154791549396149
1592334589.3972027,-0.2511293120061669,9.7556908845635,-0.08556465600308345,-1.0255555555555556,-1.6133333333333333,-1.4466666666666668,0.07564172553853146,0.08418117102536511,0.00349616626396195
1592334589.4072027,-0.38,9.59,-0.15,-1.0255555555555556,-1.6133333333333333,-1.4466666666666668,0.02945243112740431,0.061086523819801536,-0.006544984694978735
1592334589.4172027,-0.0870668693009119,10.058693009118542,-0.43456361267911414,-1.0255555555555556,-1.6133333333333333,-1.4466666666666668,-0.009805398803235076,0.04647895919444734,-0.010196875851317283
1592334589.4272027,-0.34732087937122674,9.729311083266888,-0.04992345369632077,-1.04,-1.6266666666666667,-1.458888888888889,-0.045108157778317,0.04118437272897851,-0.0011158805017983451
1592334589.4372027,-0.012885294452671114,9.643313361430687,-0.04036815127007632,-1.04,-1.6266666666666667,-1.458888888888889,-0.09305496068232536,0.007830075056624863,-0.004242845908581499
1592334589.4472027,-0.34,9.64,-0.38,-1.04,-1.6266666666666667,-1.458888888888889,-0.08290313946973066,0.001090830782496456,0.006544984694978735
1592334589.4572027,-0.3213821557503868,9.574837545126353,-0.17520371325425477,-1.04,-1.6266666666666667,-1.458888888888889,-0.06970234302244889,-0.010079073903665036,0.0055295388144186
1592334589.4672027,-0.06184477413640388,9.819253321523473,-0.22231333038086803,-1.04,-1.6266666666666667,-1.458888888888889,-0.012401605890409548,-0.021589826229715232,0.015164625189528342
1592334589.4772027,-0.26344485089831454,10.065154889794407,-0.31515488979440637,-1.0344444444444445,-1.6444444444444444,-1.4733333333333334,0.0072316534795984835,-0.03836561369408829,0.005485243296934334
1592334589.4872026,-0.040095851083534,9.900070846453048,-0.15007084645304686,-1.0344444444444445,-1.6444444444444444,-1.4733333333333334,-0.006539074933840001,-0.044721334500290665,0.006544530097968064
1592334589.4972026,-0.0969388170850404,9.862040788609972,-0.2069388170850404,-1.0344444444444445,-1.6444444444444444,-1.4733333333333334,-0.044846530238745345,-0.05818136186800242,0.0034394539752138752
1592334589.5072026,-0.2133027239205424,9.878883787320092,-0.1911162126799096,-1.0344444444444445,-1.6444444444444444,-1.4733333333333334,-0.08398395334531517,-0.07126427215413113,0.009452197297150628
1592334589.5172026,0.010552704218062647,9.52990144915035,-0.11314909859397913,-1.0344444444444445,-1.6444444444444444,-1.4733333333333334,-0.10853065286156341,-0.09714423031965241,0.01447477309337298
1592334589.5272026,0.01,9.43,-0.3,-1.041111111111111,-1.6511111111111112,-1.48,-0.11999138607461016,-0.1265363707695889,0.01090830782496456
1592334589.5372026,-0.11332997379560573,9.468540616811127,-0.18437814956661963,-1.041111111111111,-1.6511111111111112,-1.48,-0.06449688169855985,-0.11812811253079339,0.011749133648844109
1592334589.5472026,0.017155597949207107,9.6426920233695,-0.24050792893764159,-1.041111111111111,-1.6511111111111112,-1.48,0.026479133620985033,-0.10789805649866413,0.0010631275564714476
1592334589.5572026,-0.5384186531463385,10.170090362677351,-0.34018072535470417,-1.041111111111111,-1.6511111111111112,-1.48,0.08511437215173691,-0.08937419637217604,-0.004387965727496937
1592334589.5672026,-0.2382990554851372,10.187240053972278,-0.3744801079445558,-1.041111111111111,-1.6511111111111112,-1.48,0.09072659550418187,-0.07534363799106364,-0.009064818521201076
1592334589.5772026,0.25,10.31,-0.49,-1.0266666666666666,-1.6755555555555555,-1.5233333333333334,0.006544984694978735,-0.062177354602297986,-0.006544984694978735
1592334589.5872025,-0.28089398862713244,10.352134443541836,-0.5321344435418359,-1.0266666666666666,-1.6755555555555555,-1.5233333333333334,-0.10835888535200529,-0.06033889268154625,-0.0019488298930993748
1592334589.5972025,-0.16290824261275272,9.748195956454122,-0.47092534992223944,-1.0266666666666666,-1.6755555555555555,-1.5233333333333334,-0.278353550747206,-0.07291262239644664,-1.4420002567993575e-05
1592334589.6072025,-0.3470742140158266,9.74,-0.1746196620802738,-1.0266666666666666,-1.6755555555555555,-1.5233333333333334,-0.3716363345599179,-0.07201162921010573,0.022554697560292977
1592334589.6172025,-0.15384752404702529,9.453944305901912,-0.07192376202351264,-1.0266666666666666,-1.6755555555555555,-1.5233333333333334,-0.3882202763644163,-0.06842867899755942,0.02736513724143392
1592334589.6272025,-0.04,9.56,0.05,-1.0266666666666666,-1.6688888888888889,-1.541111111111111,-0.32834006553143325,-0.053450708342326333,0.02617993877991494
1592334589.6372025,-0.21690479169273114,9.453857124984362,0.24105717502814966,-1.0266666666666666,-1.6688888888888889,-1.541111111111111,-0.25501025243860254,-0.0387847457237602,0.012285868930747021
1592334589.6472025,-0.23132198549791427,10.035898821355582,-0.32545815952294294,-1.0266666666666666,-1.6688888888888889,-1.541111111111111,-0.12549907525856463,-0.0017878276454802063,0.01827974518199764
1592334589.6572025,-0.08106110993637185,9.920044212914016,-0.2493368062897676,-1.0266666666666666,-1.6688888888888889,-1.541111111111111,-0.07741522539193399,-0.009795774079051717,-0.006540161814219538
1592334589.6672025,-0.46807097133849795,9.936169623805771,-0.007455642913438837,-1.0266666666666666,-1.6688888888888889,-1.541111111111111,-0.06510215918514281,-0.0018802315175431017,-0.004781152356106513
1592334589.6772025,-0.45,9.87,-0.07,-1.0266666666666666,-1.6933333333333334,-1.6211111111111112,-0.09490227807719166,-0.001090830782496456,-0.0032724923474893677
1592334589.6872025,-0.10850830284266816,9.68299264203289,-0.13504603755377748,-1.0266666666666666,-1.6933333333333334,-1.6211111111111112,-0.12062318284280853,-0.003751614034111992,0.00027521865466468036
1592334589.6972024,-0.04747732970921105,9.81477329709211,-0.01892002718091712,-1.0266666666666666,-1.6933333333333334,-1.6211111111111112,-0.13511553492878015,-0.011989246827044721,0.008716754479555356
1592334589.7072024,-0.2318819293092012,9.588829716668247,0.07794939827537192,-1.0266666666666666,-1.6933333333333334,-1.6211111111111112,-0.12974043423637963,-0.005531782446326196,0.022099530825868928
1592334589.7172024,-0.33137153870358715,9.764114616110762,-0.04560592353681561,-1.0266666666666666,-1.6933333333333334,-1.6211111111111112,-0.12171114790750089,-0.01137020755706673,0.02477681992904213
1592334589.7272024,-0.0772637967713678,9.661509197847579,0.0113809285446127,-1.0209548241771993,-1.672389910871953,-1.663949929782116,-0.10675078074816352,-0.005769417795873038,0.014808529537152957
1592334589.7372024,-0.3561294990467878,9.612835289523852,0.012835289523853276,-1.02,-1.6688888888888889,-1.6711111111111112,-0.11408165239966989,0.003126194694022275,-0.004697635442061766
1592334589.7472024,-0.4358206010442482,9.653034335073746,-0.17935107432448688,-1.02,-1.6688888888888889,-1.6711111111111112,-0.09497306488743187,0.03534582021577452,-0.007635815477475192
1592334589.7572024,-0.05779706808250712,9.481638631771837,0.09576234553399429,-1.02,-1.6688888888888889,-1.6711111111111112,-0.057349801814253545,0.051478571573595484,-0.0196801341504707
1592334589.7672024,-0.3035922330097087,9.849117387466901,0.028839364518976174,-1.02,-1.6688888888888889,-1.6711111111111112,0.012481491848441356,0.07366429376025493,-0.02026172446393461
1592334589.7772024,-0.5300266666666666,9.719013333333333,0.18914666666666666,-1.02,-1.6951585185185185,-1.711525925925926,0.08579165938178127,0.10363474210133664,-0.009715666169435101
1592334589.7872024,-0.35409111411817773,10.17469102390618,-0.009106901217861951,-1.02,-1.6977777777777778,-1.7155555555555555,0.09995444337925463,0.10943192760679037,0.003585915535784469
1592334589.7972023,-0.26896432650676017,10.061426939729593,-0.3082508566419635,-1.02,-1.6977777777777778,-1.7155555555555555,0.06071622027900665,0.1141983088040154,0.02741889097872935
1592334589.8072023,-0.33337799566862614,9.829866012994122,-0.23946000618767702,-1.02,-1.6977777777777778,-1.7155555555555555,-0.04609435675912693,0.08392045034989651,0.021551326143602667
1592334589.8172023,-0.5067823413134198,10.03743046542739,-0.38162031028492704,-1.02,-1.6977777777777778,-1.7155555555555555,-0.12866876493386686,0.06831707027645306,0.021552745375984974
1592334589.8272023,-0.27232559634797143,9.59218607342635,-0.16150388992477333,-0.9880361773719969,-1.6988432385320447,-1.756043064217693,-0.2509967754663229,0.04030070222956189,0.005080397258465458
1592334589.8372023,-0.3651614968981389,9.838746047628577,-0.1850538322993796,-0.9866666666666667,-1.698888888888889,-1.7577777777777779,-0.2673630395544374,0.022062898477388095,-0.0122063899072213
1592334589.8472023,-0.07172534526356739,9.5301986828577,0.20211687553838883,-0.9866666666666667,-1.698888888888889,-1.7577777777777779,-0.2243297884259206,0.04520756562006555,-0.007737966246836713
1592334589.8572023,-0.12368944950431209,9.600285725799951,0.15021117111308135,-0.9866666666666667,-1.698888888888889,-1.7577777777777779,-0.1964498142843131,0.048182198759435524,-0.00345813667708083
1592334589.8672023,-0.43616122422287135,9.598568688145791,0.23472991236866197,-0.9866666666666667,-1.698888888888889,-1.7577777777777779,-0.15180434324679853,0.04613852295923526,-0.002181661564992912
1592334589.8772023,-0.21361263528056507,10.152650741201079,-0.35277472943886995,-0.9923927607845514,-1.6778932104566444,-1.816947416995921,-0.130103139745248,0.030824013519425576,0.02405237728950184
1592334589.8872023,-0.3264375752709755,9.899292252107587,0.12253151344841423,-0.9933333333333333,-1.6744444444444444,-1.8266666666666667,-0.1287180323345818,0.028361600344907853,0.028361600344907853
1592334589.8972023,-0.3798872616446854,9.977738759878092,-0.26146559861909,-0.9933333333333333,-1.6744444444444444,-1.8266666666666667,-0.19241734845505343,-0.007235076310649818,0.018057299207772735
1592334589.9072022,-0.29260109648095217,9.823602923949204,-0.22660231479312123,-0.9933333333333333,-1.6744444444444444,-1.8266666666666667,-0.1906992101624446,4.344717516151925e-05,0.0013528428058822758
1592334589.9172022,-0.07411293290264545,9.525288056589115,0.10883060064603178,-0.9933333333333333,-1.6744444444444444,-1.8266666666666667,-0.14219193562386173,0.01902575785307098,-0.009913928838156396
1592334589.9272022,-0.3731437539234149,9.521010671688638,0.138090395480226,-0.9994007114459091,-1.640062635139848,-1.8954302852758598,-0.05992256012608685,0.053879508239375484,-0.01507551423423037
1592334589.9372022,-0.37704765834536824,9.403682690323912,0.19590468330926347,-1.0,-1.6366666666666667,-1.9022222222222223,-0.0067216511204500964,0.0722995530971078,-0.008082545228507884
1592334589.9472022,-0.46189133692213774,9.756172373605638,-0.3783128919473888,-1.0,-1.6366666666666667,-1.9022222222222223,0.05604499561426725,0.08414592015311317,0.012840432540773257
1592334589.9572022,-0.5583182018157821,9.817951045874496,-0.23299644042714873,-1.0,-1.6366666666666667,-1.9022222222222223,0.029765941906231635,0.051792713612605394,0.00475693490935962
1592334589.9672022,-0.4867350694370145,9.981201292448592,-0.37131427470952005,-1.0,-1.6366666666666667,-1.9022222222222223,-0.01632775253038604,0.0185911569623103,0.003794390908802322
1592334589.9772022,-0.33837093268848145,10.168288897731795,-0.42670084789861945,-1.0018510922689194,-1.6042725519605743,-1.9429462521384526,-0.09469325421057723,-0.01962153114653701,0.011088248658380746
1592334589.9872022,-0.41702460850111855,9.915096942580163,-0.15665796669152376,-1.0022222222222221,-1.5977777777777777,-1.951111111111111,-0.1515031907523651,-0.029707853100337855,0.007295252846897127
1592334589.9972022,-0.5595320084035642,9.925569534664703,-0.14836202941247498,-1.0022222222222221,-1.5977777777777777,-1.951111111111111,-0.21225423877192343,-0.04084234188869938,-0.0007862168594134828
1592334590.0072021,-0.35120633927640493,9.920116776144303,-0.19548639349390054,-1.0022222222222221,-1.5977777777777777,-1.951111111111111,-0.22123915794984605,-0.03561117232980063,0.004057717633940784
1592334590.0172021,-0.5561797997819408,9.346097730201208,0.25312181583903265,-1.0022222222222221,-1.5977777777777777,-1.951111111111111,-0.21841758061482466,-0.03683682248934602,-0.0073853860733302515
1592334590.0272021,-0.3047730485314905,9.938361865870895,-0.08953981466938904,-1.0114451250370837,-1.5627307470813045,-1.9824689806816398,-0.14373336003044396,0.006188284571033764,0.03399376166794672
1592334590.0372021,-0.2630106095445561,9.761030699100406,0.24328532816975268,-1.0133333333333334,-1.5555555555555556,-1.988888888888889,-0.11894416388082055,0.00961307553435176,0.04311881717071291
1592334590.047202,-0.1371622130222055,9.486312704984138,0.22822409806978872,-1.0133333333333334,-1.5555555555555556,-1.988888888888889,-0.10460884802735908,-0.04155755022972909,0.04000485093751923
1592334590.057202,-0.1299850007142517,9.607967001571355,-0.15991000428551017,-1.0133333333333334,-1.5555555555555556,-1.988888888888889,-0.0800758147438491,-0.05366920173247782,0.04624860730863218
1592334590.067202,-0.14,9.506522463852386,-0.13551537000426406,-1.0133333333333334,-1.5555555555555556,-1.988888888888889,-0.052909162045026964,-0.07471803950705838,0.03594506676982924
1592334590.077202,-0.14742067808197892,9.543889493147704,0.013889493147705045,-1.023227570775972,-1.515978605785001,-2.032588437593876,-0.018786398314171074,-0.09993662875121295,0.0027399076673003675
1592334590.087202,0.0008654708520179355,9.8482052815147,-0.03381415047334331,-1.0266666666666666,-1.5022222222222221,-2.0477777777777777,-0.0008513317370021541,-0.10106267290585524,-0.022087584103647907
1592334590.097202,0.01351548418810421,9.905494838603966,-0.1104432246436179,-1.0266666666666666,-1.5022222222222221,-2.0477777777777777,-0.0061018961303697375,-0.07937764516048088,-0.023290926269201935
1592334590.107202,-0.14000150806816467,10.127780123661589,-0.2688900618307947,-1.0266666666666666,-1.5022222222222221,-2.0477777777777777,-0.05781452498646501,-0.014665102061108666,0.00024264445848020885
1592334590.117202,-0.12139049005528121,10.001147134622572,-0.3390730066298125,-1.0266666666666666,-1.5022222222222221,-2.0477777777777777,-0.10855346811250033,0.015247617269490457,0.013648657761060003
1592334590.127202,-0.11349353169469598,9.88433764553687,-0.16422056921086672,-1.0127445738105505,-1.444793589190743,-2.054738824205836,-0.2081631817771864,0.03424926423977423,0.008910803332566455
1592334590.137202,-0.07667641625615763,9.807794027093596,-0.05704895320197045,-1.008888888888889,-1.4288888888888889,-2.0566666666666666,-0.2411923248164497,0.03656314995203676,0.008645371306349682
1592334590.147202,-0.2488608165429481,9.737546924708377,-0.13584464475079533,-1.008888888888889,-1.4288888888888889,-2.0566666666666666,-0.23907763130453957,0.029411481594318015,0.009261824267948303
1592334590.157202,-0.22058040425359202,9.648533971913304,-0.04876613361474147,-1.008888888888889,-1.4288888888888889,-2.0566666666666666,-0.20025843232290078,0.03117496795765868,0.010895645368442359
1592334590.167202,-0.09345919979226625,9.597971999220999,0.07375760067513469,-1.008888888888889,-1.4288888888888889,-2.0566666666666666,-0.1080487092253499,0.03260999358330527,0.012901299309147003
1592334590.177202,-0.07483227058497366,9.638899362350985,0.005932908233989464,-1.0331155469303515,-1.3812170779040756,-2.0801118196100172,-0.061984107895889554,0.03865932115854435,0.01276637944338935
1592334590.187202,-0.24234535746842037,9.945597734079959,-0.20338520640708424,-1.0433333333333332,-1.3611111111111112,-2.09,-0.04995135614854881,0.05478288845409243,0.026095487822733784
1592334590.197202,-0.32,9.882575372321105,-0.2022557210316019,-1.0433333333333332,-1.3611111111111112,-2.09,-0.11021075874618932,0.033674298903466696,0.018074586623450174
1592334590.207202,-0.28966454556369314,9.81,-0.42026749909953176,-1.0433333333333332,-1.3611111111111112,-2.09,-0.16203584702719206,0.02399827721492203,0.03211720670253925
1592334590.217202,-0.12832114183764495,9.822639904846863,-0.3104014272970562,-1.0433333333333332,-1.3611111111111112,-2.09,-0.19952582730625126,0.01296787937909465,0.05748227360007387
1592334590.227202,-0.0036554425893106993,9.502898983303798,-0.03281503591082921,-1.0376797355138927,-1.322343583206376,-2.0827310885178623,-0.18109622437448344,-0.01169206582492447,0.06317193261730619
1592334590.237202,0.07307014621506569,9.431244493799742,0.04970942069220803,-1.0355555555555556,-1.3077777777777777,-2.08,-0.13917841915750181,-0.024564023285385025,0.05893655954017822
1592334590.247202,0.15608546636563936,9.628273535892065,-0.031316269074885064,-1.0355555555555556,-1.3077777777777777,-2.08,-0.08807199735159238,-0.048994155869832995,0.048802089181719965
1592334590.257202,0.08342000192418703,9.687397777563978,0.21591110255916873,-1.0355555555555556,-1.3077777777777777,-2.08,-0.07055929875479325,-0.06370209339616943,0.027254528840495746
1592334590.267202,0.0967367654869868,9.849192650443609,0.14856176106072824,-1.0355555555555556,-1.3077777777777777,-2.08,-0.07480035236638437,-0.06386910475611324,0.006032133498494506
1592334590.277202,0.07668560667554142,9.92834280333777,0.26379103217636934,-1.0371597923453502,-1.2580464372941402,-2.0615512769173603,-0.12245780621914369,-0.058239965138674785,-0.010359793382011132
1592334590.287202,0.13064465472115966,9.92,0.2754306422387759,-1.0377777777777777,-1.238888888888889,-2.0544444444444445,-0.15180718873065496,-0.04730458953564437,-0.017799274967043137
1592334590.2972019,0.09552951122041192,9.995675017932165,-0.03950686545752641,-1.0377777777777777,-1.238888888888889,-2.0544444444444445,-0.19336364447751786,-0.016965637842585327,-0.01683424409478078
1592334590.3072019,0.05079898137832246,9.881807257679453,0.03899172369886997,-1.0377777777777777,-1.238888888888889,-2.0544444444444445,-0.2071485572565992,-0.002443822074553576,-0.01791120533051697
1592334590.3172019,0.11481012919044774,9.508101291904477,0.5055696124286568,-1.0377777777777777,-1.238888888888889,-2.0544444444444445,-0.17623128397424143,0.019068827001312266,-0.05052342585180776
1592334590.3272018,0.0885941893158388,9.704466729147141,0.37065791940018744,-1.0266112673122982,-1.21097261272519,-2.067006768718109,-0.05375515952042141,0.06005989563631236,-0.05240445133875852
1592334590.3372018,-0.013929899097185339,9.810982474774296,0.37793490630452925,-1.02,-1.1944444444444444,-2.0744444444444445,0.025932823939118756,0.10720927576293861,-0.026737643706949588
1592334590.3472018,-0.2814875186804672,9.840503403996236,0.3130431172856589,-1.02,-1.1944444444444444,-2.0744444444444445,0.09343200820394416,0.12670606025396408,-0.010796006654020661
1592334590.3572018,-0.30812121212121213,9.85969696969697,0.1592121212121212,-1.02,-1.1944444444444444,-2.0744444444444445,0.07127422221875328,0.11123168433638105,-0.013275080068199295
1592334590.3672018,-0.45671062334620227,9.831249945777122,0.1515789701991064,-1.02,-1.1944444444444444,-2.0744444444444445,-0.009925150032776123,0.10642775962774947,0.01683611879435004
1592334590.3772018,-0.7920703255565211,9.812798983889298,0.20323617888896317,-1.0280887759876998,-1.165766056851691,-2.0744444444444445,-0.08701211285913571,0.06674733689650568,0.03846850230720539
1592334590.3872018,-0.7546355086451189,9.765294262598053,0.20322354100784426,-1.0322222222222222,-1.1511111111111112,-2.0744444444444445,-0.11543811171386392,0.021313603286962666,0.033284473208902494
1592334590.3972018,-0.3704643270343232,9.47375343874534,0.23651189098855896,-1.0322222222222222,-1.1511111111111112,-2.0744444444444445,-0.08996609700754077,-0.04724280283939864,0.01816362963420143
1592334590.4072018,-0.21804023874461442,9.472176370607535,0.2571738013360212,-1.0322222222222222,-1.1511111111111112,-2.0744444444444445,-0.03971940858125332,-0.05096075632732158,0.023192108467527422
1592334590.4172018,-0.04629189000740838,9.723322002876193,0.1722316642698392,-1.0322222222222222,-1.1511111111111112,-2.0744444444444445,0.04985239762279572,-0.05357149977555611,0.024362505456325605
1592334590.4272017,-0.061860316299478926,9.81,0.18465185726909833,-1.0369251031816165,-1.130955906999421,-2.054961080469811,0.06255781744583806,-0.06529770834810267,0.013698756475352925
1592334590.4372017,-0.14348401539549133,9.852492734270678,0.24566569790275705,-1.04,-1.1177777777777778,-2.042222222222222,0.05070666614416121,-0.07770235030658794,0.006727318204141602
1592334590.4472017,-0.38,9.809629531692098,0.32265436179495993,-1.04,-1.1177777777777778,-2.042222222222222,-0.004864995102093039,-0.12634111906885329,-0.01612679821329114
1592334590.4572017,-0.39196481947401246,9.72,0.38991204868503104,-1.04,-1.1177777777777778,-2.042222222222222,-0.03053366790972785,-0.17118368085056027,-0.03226748436151468
1592334590.4672017,-0.24183118364481881,9.704693340352724,0.4304088795297008,-1.04,-1.1177777777777778,-2.042222222222222,-0.008236026044908314,-0.16700765719530894,-0.021504402785797905
1592334590.4772017,-0.03458517751200678,9.646899582509338,0.5546724424773205,-1.040684133610963,-1.089044166117337,-2.027171282781039,0.029376209596129015,-0.13273839281530736,-0.009231571102822285
1592334590.4872017,-0.033870458759023316,9.682530077708966,0.5392319829592521,-1.041111111111111,-1.0711111111111111,-2.017777777777778,0.04585267241701997,-0.11270221304846988,-0.005224163358561584
1592334590.4972017,-0.05128810816454375,9.975040457297975,0.21312382543328462,-1.041111111111111,-1.0711111111111111,-2.017777777777778,0.06631056459843185,-0.0512303529207503,0.026759634821145573
1592334590.5072017,-0.17805631933251162,9.986408457381245,0.16907746278562624,-1.041111111111111,-1.0711111111111111,-2.017777777777778,0.005793700462111161,-0.04729212203583786,0.02113369580003587
1592334590.5172017,-0.27046161574481065,9.873692925958485,0.2944606110622724,-1.041111111111111,-1.0711111111111111,-2.017777777777778,-0.06477827140784817,-0.06967880017445338,0.005756280710956962
1592334590.5272017,-0.28389914772727276,9.77088068181818,0.5586150568181818,-1.041111111111111,-1.058364898989899,-2.0098113952020205,-0.10941234180260084,-0.08821319215668429,0.00620874850207855
1592334590.5372016,-0.31803478861882273,9.766069577237646,0.71,-1.041111111111111,-1.0444444444444445,-2.0011111111111113,-0.1134854807913762,-0.09355799657608038,0.013830216382203367
1592334590.5472016,-0.19887997565765816,9.716659290199441,0.6044386047412244,-1.041111111111111,-1.0444444444444445,-2.0011111111111113,-0.11405275375091482,-0.11514388627631811,-0.006788430872212599
1592334590.5572016,-0.1331161735652089,9.452209566086978,0.6146742603478134,-1.041111111111111,-1.0444444444444445,-2.0011111111111113,-0.11614659269218094,-0.1305511250544447,-0.04522529774935756
1592334590.5672016,-0.15677763865360536,9.385666936731235,0.6458886351918687,-1.041111111111111,-1.0444444444444445,-2.0011111111111113,-0.106901336340631,-0.12797862630296106,-0.054493011335721535
1592334590.5772016,0.005602108124233485,9.555549405018395,0.44963372998773576,-1.0342640900703812,-1.0226584684057587,-1.989284438404396,0.02274763099079229,-0.0478194919371567,0.003318195224915716
1592334590.5872016,0.021335955190084615,9.506679775950422,0.39672148730782986,-1.028888888888889,-1.0055555555555555,-1.98,0.06210663455156767,-0.0460975130675859,0.007635815477475192
1592334590.5972016,-0.023097028759069965,9.946940310364917,-0.4146268735766114,-1.028888888888889,-1.0055555555555555,-1.98,0.13157400307164757,-0.08349332970640204,0.017035413220658463
1592334590.6072016,-0.2527915126800051,10.084678858162354,-0.4895281636294125,-1.028888888888889,-1.0055555555555555,-1.98,0.11592259559664606,-0.1307409764220782,0.017846454513137586
1592334590.6172016,-0.4440407102641836,10.157460558064715,-0.5131603043989359,-1.028888888888889,-1.0055555555555555,-1.98,0.05541697756416901,-0.1930831562903907,0.0040580011934632735
1592334590.6272016,-0.28094186204092697,10.002915029136739,-0.38789266838324976,-1.025216756260258,-0.9998804414931262,-1.974658716176537,-0.08011478735976343,-0.2828724231758766,-0.02018768701565233
1592334590.6372015,-0.12920820088074894,9.815607337630142,-0.05362244451573389,-1.0166666666666666,-0.9866666666666667,-1.9622222222222223,-0.16885872180978517,-0.316951415498037,-0.036171336668365965
1592334590.6472015,-0.032336940795184906,9.58502421050601,0.3359299342168721,-1.0166666666666666,-0.9866666666666667,-1.9622222222222223,-0.19265218067582945,-0.3170068898804254,-0.04777456677769299
1592334590.6572015,0.07961512472549129,9.48078579874993,0.3729599076524579,-1.0166666666666666,-0.9866666666666667,-1.9622222222222223,-0.1684932459513942,-0.2815857830290963,-0.03759355205181948
1592334590.6672015,0.4338590167589461,9.649202556575377,0.4110858013451748,-1.0166666666666666,-0.9866666666666667,-1.9622222222222223,-0.11486382068037596,-0.18971756857089564,0.0009844270515294465
1592334590.6772015,0.03499911976996655,9.364997359309898,0.643079631477026,-1.018055506653887,-0.9858119959053003,-1.958162536105732,-0.07763804539623102,-0.14361231175717984,-0.005747905597293984
1592334590.6872015,0.17373216283089854,10.068112395349626,-0.16116699996610515,-1.031111111111111,-0.9777777777777777,-1.92,-0.00722400402591279,-0.0686563415022472,0.012205044333242215
1592334590.6972015,-0.1887891061925906,10.061004135172695,-0.466822187574145,-1.031111111111111,-0.9777777777777777,-1.92,-0.005673222223714748,-0.03143757824949417,0.012980435234341236
1592334590.7072015,0.30298130666167467,9.322035407696626,0.13728612307116306,-1.031111111111111,-0.9777777777777777,-1.92,0.03169716268281675,-0.01769355359353035,0.007946439556100129
1592334590.7172015,-0.2074140350877193,9.752652631578949,-0.36095438596491225,-1.031111111111111,-0.9777777777777777,-1.92,0.09473884483363869,0.008325909477770317,0.00923876260628051
1592334590.7272015,-0.1943709408053442,9.920254221562443,-0.22325292262015217,-1.0352223665491433,-0.9685274530422052,-1.9097218614049194,0.1352228370499121,0.03462107440364401,0.004458965650811501
1592334590.7372015,-0.06,10.06,-0.32,-1.04,-0.9577777777777777,-1.8977777777777778,0.15926129424448257,0.062177354602297986,0.01090830782496456
1592334590.7472014,0.126393490264458,9.759809938971229,-0.20939029351932575,-1.04,-0.9577777777777777,-1.8977777777777778,0.1458258475552619,0.10871471284154885,0.01682669091439767
1592334590.7572014,0.16089445941197145,10.127150521260395,-0.6,-1.04,-0.9577777777777777,-1.8977777777777778,0.16800020707996313,0.18118133245917128,0.014619585800554294
1592334590.7672014,0.038773444772335665,9.976225069814422,-0.34528133726802795,-1.04,-0.9577777777777777,-1.8977777777777778,0.10627335343223236,0.22118144775221676,0.016166962980226532
1592334590.7772014,-0.08642205129739922,9.773280758986024,-0.13113398976446294,-1.0331433207966294,-0.9522067259250392,-1.887492758972722,0.03362920988570293,0.22846719938590193,0.02013373338326263
1592334590.7872014,-0.4362231305941222,9.95540771019804,-0.4054077101980407,-1.0222222222222221,-0.9433333333333334,-1.8711111111111112,0.03333533974193306,0.19073117419803898,0.001537034310695018
1592334590.7972014,-0.5629873317301732,10.040619282544561,-0.5112385650891241,-1.0222222222222221,-0.9433333333333334,-1.8711111111111112,0.009332705428143004,0.10904738157827946,-0.018679229794973957
1592334590.8072014,-0.5,10.06,-0.55,-1.0222222222222221,-0.9433333333333334,-1.8711111111111112,-0.022907446432425576,0.056723200689815706,-0.022907446432425576
1592334590.8172014,-0.8218310012879003,9.75913012158652,-0.18548470891270658,-1.0222222222222221,-0.9433333333333334,-1.8711111111111112,-0.07288864568686448,-0.04354015196238954,-0.008329898262810356
1592334590.8272014,-0.8726314778041125,9.921992184997757,-0.19823265646018834,-1.0235881394173623,-0.9355931358942057,-1.8647368308671237,-0.10321477059634872,-0.11814603663287362,0.0008570963024855244
1592334590.8372014,-0.7833174577763548,9.684190746818217,0.14830104858720883,-1.0255555555555556,-0.9244444444444444,-1.8555555555555556,-0.13129505784603623,-0.15224323493335354,0.01312703475993824
1592334590.8472013,-0.23545683582703483,9.863851611908068,0.16841997017841534,-1.0255555555555556,-0.9244444444444444,-1.8555555555555556,-0.16387240854095866,-0.20278274469445057,0.012978188540067222
1592334590.8572013,-0.16019442935103595,9.89836447825368,0.15476552717994757,-1.0255555555555556,-0.9244444444444444,-1.8555555555555556,-0.18287572292754029,-0.20114495450192388,0.005067393337375218
1592334590.8672013,-0.033993537769928556,10.209967688849643,0.20152825720478443,-1.0255555555555556,-0.9244444444444444,-1.8555555555555556,-0.21749333011113098,-0.17479832099248516,0.006753986892146868
1592334590.8772013,-0.26829453681710214,9.962241646872526,0.8416601741884402,-1.0255555555555556,-0.9290948887129409,-1.853018949590921,-0.2565263307975728,-0.10184611127205706,0.004065249084336437
1592334590.8872013,-0.64,9.51,1.17,-1.0255555555555556,-0.9366666666666666,-1.8488888888888888,-0.2923426497090502,-0.0545415391248228,-0.014180800172453926
1592334590.8972013,0.0021531780497433817,9.451558626135018,0.20660955388866956,-1.0255555555555556,-0.9366666666666666,-1.8488888888888888,-0.2721783433944082,-0.013894505539921893,-0.023498725810383585
1592334590.9072013,-0.19642193442780803,9.244185643445189,0.632843868855616,-1.0255555555555556,-0.9366666666666666,-1.8488888888888888,-0.1528433481929422,0.03124378628560344,-0.0019045818284154099
1592334590.9172013,-0.28,9.38,0.8,-1.0255555555555556,-0.9366666666666666,-1.8488888888888888,-0.08617563181722002,0.04036073895236887,0.004363323129985824
1592334590.9272013,-0.01481010700810291,9.697690975443805,0.34923176841714604,-1.0237392699806878,-0.9301280385971423,-1.8434400321642852,0.04566871330832993,0.05414348406195783,-0.019026451739915837
1592334590.9372013,-0.21,9.59,0.43,-1.02,-0.9166666666666666,-1.8322222222222222,0.09926560120717749,0.09599310885968812,-0.006544984694978735
1592334590.9472013,-0.42993322442896853,9.67771530106325,-0.025975410540796134,-1.02,-0.9166666666666666,-1.8322222222222222,0.09610468353262337,0.0878285563568966,-0.012639450305712596
1592334590.9572012,-0.5694500771696545,10.085017214769085,-0.49749139261545766,-1.02,-0.9166666666666666,-1.8322222222222222,0.054151673638935666,0.06337313721503725,0.0019117706293734632
1592334590.9672012,-0.46573454372849177,9.946786915074561,-0.28421818757169415,-1.02,-0.9166666666666666,-1.8322222222222222,-0.02027596441303904,0.0128894163470777,-0.0020617094438212767
1592334590.9772012,-0.38294786438594697,9.557511010959745,0.08207415753354501,-1.0230858760019879,-0.9162809321664181,-1.8310650187214768,-0.08701164119188963,-0.060402952916665885,-0.02854260473573488
1592334590.9872012,-0.05,9.44,0.18,-1.028888888888889,-0.9155555555555556,-1.8288888888888888,-0.05781403147231216,-0.07963064712224129,-0.0370882466048795
1592334590.9972012,-0.5445074686616458,9.755408962393975,0.0021202492055946154,-1.028888888888889,-0.9155555555555556,-1.8288888888888888,-0.04181942865063301,-0.07976359272089868,-0.019352686915707133
1592334591.0072012,-0.34,9.51,0.23,-1.028888888888889,-0.9155555555555556,-1.8288888888888888,-0.039269908169872414,-0.1090830782496456,-0.025089107997418484
1592334591.0172012,-0.3657974302529314,10.00887843119637,-0.09608113572038277,-1.028888888888889,-0.9155555555555556,-1.8288888888888888,0.017888149743919318,-0.08809785413684988,0.007063863185704846
1592334591.0272012,0.17838052411226546,9.809190262056132,0.09549263451697938,-1.0169755862235317,-0.9094287141848004,-1.8173159662996847,0.011457427541555735,-0.08649065170391895,0.014288276351582203
1592334591.0372012,0.22,9.83,0.04,-0.99,-0.8955555555555555,-1.791111111111111,-0.011999138607461015,-0.09708393964218458,0.002181661564992912
1592334591.0472012,0.15200522012411113,9.948313313979812,-0.33523237542280343,-0.99,-0.8955555555555555,-1.791111111111111,-0.03958718952326,-0.04912213189292394,0.02273940730157732
1592334591.0572011,0.07,9.86,-0.31,-0.99,-0.8955555555555555,-1.791111111111111,-0.0643590161672909,-0.030543261909900768,0.02617993877991494
1592334591.0672011,0.20610859040878798,9.87191628856132,-0.17533030849054554,-0.99,-0.8955555555555555,-1.791111111111111,-0.043273654750318996,-0.02203206793178555,0.0009210360077206142
1592334591.0772011,0.004084516087598744,9.810060368633998,0.0692286943677349,-0.9956211333033631,-0.9035434818287558,-1.7970280935357037,-0.11713151933298452,-0.04878376562391719,-0.010972688628324283
1592334591.087201,-0.15,9.7,0.26,-1.011111111111111,-0.9255555555555556,-1.8133333333333332,-0.16035212502697901,-0.07199483164476608,-0.02617993877991494
1592334591.097201,-0.10351684021916954,9.836544703835466,0.1675226570412111,-1.011111111111111,-0.9255555555555556,-1.8133333333333332,-0.1620367672741584,-0.08298650478674452,-0.005010473667702047
1592334591.107201,-0.10142723813626248,9.759981333907675,0.24334577739488356,-1.011111111111111,-0.9255555555555556,-1.8133333333333332,-0.13635486588946186,-0.11277005862366185,-0.010492801721032808
1592334591.117201,-0.05584785168333033,9.991131533257498,0.1598130076433375,-1.011111111111111,-0.9255555555555556,-1.8133333333333332,-0.1333697097431393,-0.1395236550370926,-0.014716016712765205
1592334591.127201,0.12244229736983361,9.878126080992425,0.42781087851136157,-1.0095391741714876,-0.9226736711662459,-1.8080935435345884,-0.162480991865426,-0.1624005799344207,-0.022517032194591658
1592334591.137201,0.26,9.71,0.68,-1.0044444444444445,-0.9133333333333333,-1.791111111111111,-0.17998707911191522,-0.15489797111449674,-0.014180800172453926
1592334591.147201,0.21377582577509813,9.813163283869123,0.5783671613087659,-1.0044444444444445,-0.9133333333333333,-1.791111111111111,-0.16793229194742207,-0.12754921419579626,-0.010963956381996721
1592334591.157201,0.32234336361187965,9.7817168180594,0.6018796366574444,-1.0044444444444445,-0.9133333333333333,-1.791111111111111,-0.16724636893755668,-0.09058953971086298,-0.014990717256879775
1592334591.167201,0.31,9.72,0.75,-1.0044444444444445,-0.9133333333333333,-1.791111111111111,-0.16253378659197193,-0.07308566242726255,-0.025089107997418484
1592334591.177201,-0.11140205371248026,9.689158767772511,0.5679443127962085,-1.0030945014920134,-0.9095534930665262,-1.791111111111111,-0.06436924809109985,0.008339233313226016,0.004689559942799979
1592334591.187201,0.08064894096439837,9.792194682289319,0.11179360072104552,-0.9988888888888889,-0.8977777777777778,-1.791111111111111,-0.016522718986249834,0.026490129957812764,0.0006828138606974211
1592334591.197201,0.0642578623930594,9.758357633449814,-0.08655717556332088,-0.9988888888888889,-0.8977777777777778,-1.791111111111111,0.03576652615464798,0.04354432445068598,0.008530246771454211
1592334591.207201,-0.12235023593379482,9.691762676950345,-0.16822965819540586,-0.9988888888888889,-0.8977777777777778,-1.791111111111111,0.08919133514149026,0.04575163622817904,0.007764837068506532
1592334591.217201,-0.2,9.75,-0.33,-0.9988888888888889,-0.8977777777777778,-1.791111111111111,0.09272061651219875,0.019634954084936207,-0.011999138607461015
1592334591.227201,0.05591862090386706,9.803812703836,-0.2507625407671999,-1.000084726751911,-0.8973791651567704,-1.791111111111111,0.14916496839505855,0.0023480221533469293,-0.007498762813546066
1592334591.237201,-0.1,10.05,-0.3,-1.0055555555555555,-0.8955555555555555,-1.791111111111111,0.14289883250703572,0.01308996938995747,0.01308996938995747
1592334591.247201,0.14528214406875495,9.820869614384259,-0.17651249575935768,-1.0055555555555555,-0.8955555555555555,-1.791111111111111,0.020910447728610677,-0.05875954972944609,-0.01179227179503915
1592334591.257201,0.13,10.18,-0.23,-1.0055555555555555,-0.8955555555555555,-1.791111111111111,0.01090830782496456,-0.0370882466048795,0.006544984694978735
1592334591.267201,-0.14729497774952321,9.6857805546726,-0.24341366020343294,-1.0055555555555555,-0.8955555555555555,-1.791111111111111,-0.07032954634895082,-0.015304982603358323,0.008391157716109847
1592334591.277201,0.24599514940455833,10.284689219862566,-0.49503746774043095,-1.0054684935860894,-0.8956813117336733,-1.7907918838897352,-0.14631377966894274,-0.04646886221646691,-0.013829411630223795
1592334591.287201,-0.22210014911732165,9.759860984174322,-0.10908220693636056,-0.9955555555555555,-0.91,-1.7544444444444445,-0.17388511160374767,-0.006758911151289189,0.021164237030525664
1592334591.297201,-0.22133045917066502,10.034168463018334,-0.6289136128688316,-0.9955555555555555,-0.91,-1.7544444444444445,-0.20917587320505926,-0.04556091434666333,0.004926879843961752
1592334591.307201,-0.09345649244734416,10.00094154078907,-0.39094154078906934,-0.9955555555555555,-0.91,-1.7544444444444445,-0.20477974972485558,-0.06705683875569188,0.0047000642402763755
1592334591.317201,-0.07380117460453552,9.611900587302268,-0.026608222231748618,-0.9955555555555555,-0.91,-1.7544444444444445,-0.19136425197913556,-0.06398903060759133,0.007744257908332537
1592334591.327201,-0.08869974658198541,9.62,-0.08929011669743142,-0.996133445963562,-0.9107223630100081,-1.7537220814344363,-0.1828984639128791,-0.07323777057723553,0.0007530326069450394
1592334591.3372009,-0.08,9.62,0.25,-1.0,-0.9155555555555556,-1.748888888888889,-0.14398966328953217,-0.05235987755982988,0.01308996938995747
1592334591.3472009,-0.046802373495961766,9.604534915663974,0.19732542168012746,-1.0,-0.9155555555555556,-1.748888888888889,-0.07028873418389435,-0.008669590553969965,0.03407574128746923
1592334591.3572009,-0.07,9.62,0.12,-1.0,-0.9155555555555556,-1.748888888888889,-0.0272707695624114,-0.019634954084936207,0.016362461737446838
1592334591.3672009,0.01797479374818623,9.655792877575555,0.099419178309357,-1.0,-0.9155555555555556,-1.748888888888889,0.052421562116329416,-0.0007757149542789148,-0.003604702576261764
1592334591.3772008,-0.12,9.807549065557444,0.12937928408225438,-1.0007262027977946,-0.9149201281074854,-1.7493427656375105,0.11211310695024343,0.04013968419364514,0.004541560112373932
1592334591.3872008,-0.09346071509906627,9.792063311318605,-0.02618993395581872,-1.008888888888889,-0.9077777777777778,-1.7544444444444445,0.1482767698665529,0.06138781272278757,0.001544552791412768
1592334591.3972008,0.0010119731433969013,9.856428735544153,-0.13779760537132063,-1.008888888888889,-0.9077777777777778,-1.7544444444444445,0.15345650720079573,0.06563169385207991,-0.012499092273136102
1592334591.4072008,-0.0009055023923444927,9.988178468899521,-0.1463622009569378,-1.008888888888889,-0.9077777777777778,-1.7544444444444445,0.1459732007564219,0.10670157022215608,0.004164050788953696
1592334591.4172008,-0.11,10.09,-0.19,-1.008888888888889,-0.9077777777777778,-1.7544444444444445,0.13962634015954636,0.15271630954950383,0.032724923474893676
1592334591.4272008,-0.45816221985058697,9.709588046958377,0.06429028815368197,-1.008888888888889,-0.9076644136131863,-1.7551246294319933,0.07052657573987332,0.17627010523533604,0.0427878083390803
1592334591.4372008,-0.53,9.97,-0.25,-1.008888888888889,-0.9066666666666666,-1.761111111111111,0.0,0.12435470920459597,0.006544984694978735
1592334591.4472008,-0.6714381316956294,9.832157197543443,-0.08215719754344414,-1.008888888888889,-0.9066666666666666,-1.761111111111111,-0.019791829917223846,0.10701268977595743,0.004813883017509766
1592334591.4572008,-0.59,9.71,0.04,-1.008888888888889,-0.9066666666666666,-1.761111111111111,-0.01090830782496456,0.08835729338221293,0.016362461737446838
1592334591.4672008,-0.40604538156004394,9.845581847375982,0.09744084340403955,-1.008888888888889,-0.9066666666666666,-1.761111111111111,-0.009893852712484018,0.017300541179911467,-0.004439698800001737
1592334591.4772007,-0.32082746418971797,9.88041373209486,0.024137320948589704,-1.00847515679403,-0.9069424880632393,-1.7595940934299614,-0.03207772170614906,-0.024991162965435628,-0.024998845656462702
1592334591.4872007,-0.34,9.89,0.12,-0.9988888888888889,-0.9133333333333333,-1.7244444444444444,-0.06763150851478027,-0.04799655442984406,-0.022907446432425576
1592334591.4972007,-0.21508415493873728,9.678193075102104,0.48100985926484746,-0.9988888888888889,-0.9133333333333333,-1.7244444444444444,-0.07219193657479446,-0.06149424101453915,-0.004344963370451076
1592334591.5072007,-0.22274328258483272,9.687256717415167,0.25718059466424853,-0.9988888888888889,-0.9133333333333333,-1.7244444444444444,-0.06252902557713517,-0.09998685208584432,-0.007011111426763302
1592334591.5172007,-0.33,9.58,0.51,-0.9988888888888889,-0.9133333333333333,-1.7244444444444444,-0.04581489286485115,-0.0916297857297023,0.002181661564992912
1592334591.5272007,-0.3397387855138831,9.670304750233804,0.6496662259344061,-0.9989275873312766,-0.91331237167704,-1.7244847553219316,-0.008644330028198881,-0.11126948882801001,-0.014171302145710916
1592334591.5372007,-0.16,9.88,0.42,-1.0255555555555556,-0.8988888888888888,-1.7522222222222221,0.04799655442984406,-0.11453723216212788,-0.007635815477475192
1592334591.5472007,-0.2407105164969884,9.904597036405308,0.2505372847929215,-1.0255555555555556,-0.8988888888888888,-1.7522222222222221,0.054458829952172015,-0.10444752710816527,-0.0099639987402396
1592334591.5572007,0.16622072136801264,9.779908032763327,0.4458528524213249,-1.0255555555555556,-0.8988888888888888,-1.7522222222222221,0.0758054504581716,-0.14802098762697202,-0.049177673835809114
1592334591.5672007,0.07,9.82,0.51,-1.0255555555555556,-0.8988888888888888,-1.7522222222222221,0.1265363707695889,-0.10253809355466686,-0.009817477042468103
1592334591.5772007,-0.0763241525423729,9.488331920903954,0.41245056497175137,-1.0255555555555556,-0.8988888888888888,-1.7522222222222221,0.13292096636222597,-0.04614083248637252,-0.003432881449831007
1592334591.5872006,0.18,9.88,0.49,-1.0044444444444445,-0.9044444444444445,-1.7377777777777779,0.16471544815696484,-0.06544984694978735,-0.031634092692397225
1592334591.5972006,-0.02993243453622693,9.801275337048915,0.42177195877572626,-1.0044444444444445,-0.9044444444444445,-1.7377777777777779,0.20307307576458503,-0.015642181250340247,-0.009879020317926073
1592334591.6072006,-0.21829778752242376,9.79753836954355,0.006595575044847518,-1.0044444444444445,-0.9044444444444445,-1.7377777777777779,0.20994676720873637,0.041345465405214485,0.013434808461322705
1592334591.6172006,-0.17064576180035576,10.08888305133827,-0.13635254209241718,-1.0044444444444445,-0.9044444444444445,-1.7377777777777779,0.17249972817232997,0.03345023366258513,0.025884859870108783
1592334591.6272006,-0.2767107148999599,10.024517858166599,-0.1641523820443731,-1.0044444444444445,-0.9048911374827215,-1.7372092593654251,0.09319136286977728,0.01186849906697858,0.017069034666188237
1592334591.6372006,-0.19,9.88,-0.01,-1.0044444444444445,-0.9166666666666666,-1.7222222222222223,-0.038179077387375956,-0.04908738521234052,-0.02181661564992912
1592334591.6472006,-0.13959821549276732,9.92839286197107,0.16040178450723266,-1.0044444444444445,-0.9166666666666666,-1.7222222222222223,-0.11785154681729819,-0.03043268939121538,0.005318659073634402
1592334591.6572006,0.02,9.29,0.32,-1.0044444444444445,-0.9166666666666666,-1.7222222222222223,-0.1854412330243975,-0.011999138607461015,0.053450708342326333
1592334591.6672006,0.04254768632991876,9.553056340515719,0.3275158954433063,-1.0044444444444445,-0.9166666666666666,-1.7222222222222223,-0.17642280590605586,-0.07266855740357747,0.006718858729101496
1592334591.6772006,0.07881155764490053,9.755246230579601,0.3588115576449005,-1.0044444444444445,-0.9166666666666666,-1.7222222222222223,-0.08125172810279928,-0.12519676828195164,-0.044345651426797396
1592334591.6872005,0.01,9.76,0.23,-1.0044444444444445,-0.9166666666666666,-1.7244444444444444,-0.04036073895236887,-0.06654067773228381,-0.011999138607461015
1592334591.6972005,-0.0947879012345679,9.655212098765432,0.2857355555555555,-1.0044444444444445,-0.9166666666666666,-1.7244444444444444,-0.043225152850830985,-0.053543253887231475,-0.0006719248279244218
1592334591.7072005,0.006085326378053609,9.755302391653665,0.19843413055122144,-1.0044444444444445,-0.9166666666666666,-1.7244444444444444,-0.009502962338150817,-0.09892398148795781,-0.013668370593624404
1592334591.7172005,-0.03953956722435386,9.699539567224353,0.18460432775646143,-1.0044444444444445,-0.9166666666666666,-1.7244444444444444,0.033729431964783875,-0.09445024925674107,-0.007736266326464212
1592334591.7272005,-0.03137039128995189,9.69137039128995,0.2662960871004811,-1.0044444444444445,-0.9166666666666666,-1.7244444444444444,0.0515518091185337,-0.08643017953755366,-0.009518504041839192
1592334591.7372005,0.025656148905246378,9.77870598715364,0.2365249191241971,-1.0044444444444445,-0.9111111111111111,-1.731111111111111,0.07749537233204908,-0.07550723618695239,-0.008347573740872593
1592334591.7472005,-0.020692168841988337,9.662768675367953,0.1882331296861983,-1.0044444444444445,-0.9111111111111111,-1.731111111111111,0.09088269841580841,-0.04159462578513857,-0.003985803590222922
1592334591.7572005,-0.03452033218785796,9.70246563573883,0.030410939289805268,-1.0044444444444445,-0.9111111111111111,-1.731111111111111,0.11174283732684093,-0.01310496362751756,0.0009563512143794101
1592334591.7672005,-0.13966067402740043,9.7603393259726,0.04203595583559743,-1.0044444444444445,-0.9111111111111111,-1.731111111111111,0.14913029557356353,0.012961521369612638,-0.002218676286614128
1592334591.7772005,-0.13157870397132782,9.768421296028672,0.09052777617203307,-1.0044444444444445,-0.9111111111111111,-1.731111111111111,0.16764402518635863,0.035883281842597016,-0.0031002824586519886
1592334591.7872005,-0.12933885214612278,9.833305739269386,0.12603311287673666,-1.0255555555555556,-0.9311111111111111,-1.7166666666666666,0.1708998326365482,0.06311491516232595,-0.001451430997891829
1592334591.7972004,-0.12003018331927737,9.879849083403615,0.07018109991566426,-1.0255555555555556,-0.9311111111111111,-1.7166666666666666,0.16582274138635417,0.07631535241283052,-0.006528522248085896
1592334591.8072004,-0.12,9.890365548918346,-0.12990861277041338,-1.0255555555555556,-0.9311111111111111,-1.7166666666666666,0.14245023649281505,0.0828034514665705,-0.008716677459655632
1592334591.8172004,-0.11981828193832599,9.929697136563876,-0.11963656387665197,-1.0255555555555556,-0.9311111111111111,-1.7166666666666666,0.09352071926676114,0.07198161673440544,-0.007629208022294872
1592334591.8272004,-0.09507217589679043,9.888453626494652,-0.07014435179358086,-1.0255555555555556,-0.9311111111111111,-1.7166666666666666,0.05392979174845266,0.07018202911993689,-0.006729414215060588
1592334591.8372004,-0.19,9.9,-0.07,-0.9988888888888889,-0.9311111111111111,-1.7077777777777778,0.007635815477475192,0.07526732399225547,-0.007635815477475192
1592334591.8472004,-0.1815951539626451,9.908404846037355,-0.05319030792529026,-0.9988888888888889,-0.9311111111111111,-1.7077777777777778,-0.029954070119254012,0.0670158856905344,-0.0067189889995061865
1592334591.8572004,-0.1898986887581458,9.89020262248371,-0.05989868875814579,-0.9988888888888889,-0.9311111111111111,-1.7077777777777778,-0.09323677750431217,0.04277447870193956,-0.008704543575726146
1592334591.8672004,-0.13,9.85,0.15,-0.9988888888888889,-0.9311111111111111,-1.7077777777777778,-0.14398966328953217,0.017453292519943295,-0.014180800172453926
1592334591.8772004,-0.15406258494156022,9.761770521880946,0.40666757270997544,-0.9988888888888889,-0.9311111111111111,-1.7077777777777778,-0.15886364802725625,0.0017043675035295636,-0.021180322401971145
1592334591.8872004,-0.13,9.7,0.61,-0.9988888888888889,-0.9066666666666666,-1.7166666666666666,-0.17453292519943295,-0.017453292519943295,-0.02399827721492203
1592334591.8972003,-0.17761059475846663,9.709522118951694,0.63856635685508,-0.9988888888888889,-0.9066666666666666,-1.7166666666666666,-0.17764903133956292,-0.023685504800203275,-0.011533852654402075
1592334591.9072003,-0.15,9.718076877078001,0.5825641638959982,-0.9988888888888889,-0.9066666666666666,-1.7166666666666666,-0.16503708498945305,-0.028641307235819948,-0.007957452309963383
1592334591.9172003,-0.15,9.69,0.62,-0.9988888888888889,-0.9066666666666666,-1.7166666666666666,-0.1538071403320003,-0.032724923474893676,0.0032724923474893677
1592334591.9272003,-0.12717291720978735,9.705218055193475,0.6047819448065249,-0.9988888888888889,-0.9066666666666666,-1.7166666666666666,-0.14218691419365942,-0.03355493962763231,0.004932524652966638
1592334591.9372003,-0.14795223403039653,9.70040955319392,0.6304095531939207,-0.9844444444444445,-0.9255555555555556,-1.7466666666666666,-0.12395263129669738,-0.041496245057965175,0.006276932756379675
1592334591.9472003,-0.10002285453091075,9.70999542909382,0.6399954290938179,-0.9844444444444445,-0.9255555555555556,-1.7466666666666666,-0.11454171963877854,-0.04254190190884505,2.991651100435651e-06
1592334591.9572003,-0.0901397088223534,9.71,0.64,-0.9844444444444445,-0.9255555555555556,-1.7466666666666666,-0.09732777753659967,-0.0532983096583169,-0.009680318226859616
1592334591.9672003,-0.09,9.6802646403145,0.7787650118656663,-0.9844444444444445,-0.9255555555555556,-1.7466666666666666,-0.06464769396863712,-0.043719834640262106,-0.01846714255541409
1592334591.9772003,-0.0815676212883336,9.663135242576667,0.8558914084049976,-0.9844444444444445,-0.9255555555555556,-1.7466666666666666,-0.042283100323242465,-0.027996124243657265,-0.01118548468775694
1592334591.9872003,-0.02,9.59,1.07,-1.0177777777777777,-0.9133333333333333,-1.731111111111111,-0.001090830782496456,-0.0032724923474893677,-0.008726646259971648
1592334591.9972003,-0.05733655200160932,9.636670690002012,1.0233293099979883,-1.0177777777777777,-0.9133333333333333,-1.731111111111111,0.04880079800615658,0.02218242029978259,-0.005672056742299013
1592334592.0072002,-0.12,9.65,0.85,-1.0177777777777777,-0.9133333333333333,-1.731111111111111,0.10144726277217041,0.04036073895236887,-0.00545415391248228
1592334592.0172002,-0.16631205387748518,9.71174940516998,0.6801891357825544,-1.0177777777777777,-0.9133333333333333,-1.731111111111111,0.12333866215925499,0.04541260034938839,-0.007138107711488786
1592334592.0272002,-0.188096661906462,9.721903338093538,0.621903338093538,-1.0177777777777777,-0.9133333333333333,-1.731111111111111,0.12450961029125715,0.04248967962583003,-0.004102980260261124
1592334592.0372002,-0.2,9.73,0.51,-1.0255555555555556,-0.9188888888888889,-1.731111111111111,0.13635384781205698,0.0272707695624114,-0.011999138607461015
1592334592.0472002,-0.18394866653298575,9.794205333868057,0.45382033286545015,-1.0255555555555556,-0.9188888888888889,-1.731111111111111,0.1337274545151668,0.015014267510257114,-0.007621816445977342
1592334592.0572002,-0.23971128256135915,9.770192478292428,0.34048119573106805,-1.0255555555555556,-0.9188888888888889,-1.731111111111111,0.11679762919449901,-0.008626914667959219,0.0021396693157245206
1592334592.0672002,-0.19367505610772684,9.777720823982046,0.3863249438922732,-1.0255555555555556,-0.9188888888888889,-1.731111111111111,0.1116656262476095,-0.02893971617801675,0.0013394503184076994
1592334592.0772002,-0.14791362449665915,9.755935218372494,0.4481295632550113,-1.0255555555555556,-0.9188888888888889,-1.731111111111111,0.1049237881174744,-0.041906746259443475,0.001090830782496456
1592334592.0872002,-0.14,9.740329093892862,0.46967090610713863,-1.0115864689563552,-0.9188888888888889,-1.731111111111111,0.10890358537531324,-0.045743095715118205,3.589857486647292e-05
1592334592.0972002,-0.07558466151175636,9.795213147275637,0.3871802790865439,-1.011111111111111,-0.9188888888888889,-1.731111111111111,0.10506786487319389,-0.04481108952073822,-0.005019016720564635
1592334592.1072001,-0.04325130014858841,9.817832466567609,0.21950780089153046,-1.011111111111111,-0.9188888888888889,-1.731111111111111,0.0969388737357456,-0.029162299314526352,-0.00545415391248228
1592334592.1172001,-0.06948582729070535,9.829828609096902,0.1606855636123929,-1.011111111111111,-0.9188888888888889,-1.731111111111111,0.0745504101556378,-0.00046739618234851316,-0.0022377491068747337
1592334592.1272001,-0.08287604530538796,9.849314067958082,0.11493384143114216,-1.011111111111111,-0.9188888888888889,-1.731111111111111,0.05872634797622922,0.013343307247139353,-0.002181661564992912
1592334592.1372,-0.0800103509927543,9.879979298014492,0.07002070198550861,-1.0177708771159415,-0.906679317880033,-1.7244513451062806,0.020756271057552306,0.03707130983259081,-0.0010919599006490354
1592334592.1472,-0.06437647435128543,9.895623525648714,0.05437647435128544,-1.0177777777777777,-0.9066666666666666,-1.7244444444444444,-0.007394542601989591,0.051574475907309146,0.004021956030125771
1592334592.1572,-0.14794521208613665,9.838438351539704,0.08517808483445466,-1.0177777777777777,-0.9066666666666666,-1.7244444444444444,-0.04692963464547366,0.07002237158482982,0.01025082113831914
1592334592.1672,-0.11629170413137097,9.812516681652548,0.18615825091098387,-1.0177777777777777,-0.9066666666666666,-1.7244444444444444,-0.0789224924360321,0.07294839873644536,0.009954740733285295
1592334592.1772,-0.15952575049260131,9.802924892786772,0.28490128655874514,-1.0177777777777777,-0.9066666666666666,-1.7244444444444444,-0.09447975657620963,0.07231388795349727,0.006730379147407045
1592334592.1872,-0.18867743710946352,9.782645125781073,0.36338718554731764,-1.011992819704802,-0.9124516247396424,-1.7176953266926394,-0.10778465516813938,0.05968953147893224,0.001667907707610325
1592334592.1972,-0.21839562967222542,9.761069580218516,0.417326049453709,-1.011111111111111,-0.9133333333333333,-1.7166666666666666,-0.1090830782496456,0.04232661800489555,-0.008201617297953514
1592334592.2072,-0.20104300614373483,9.816870981568796,0.3346935276468067,-1.011111111111111,-0.9133333333333333,-1.7166666666666666,-0.10701519100544456,0.019738753670754557,-0.012862420748373697
1592334592.2172,-0.22588132842496933,9.774707675256304,0.4205846494873926,-1.011111111111111,-0.9133333333333333,-1.7166666666666666,-0.11890008032324192,0.004428048433511224,-0.010266754416171767
1592334592.2272,-0.185129280804137,9.75,0.4974353595979315,-1.011111111111111,-0.9133333333333333,-1.7166666666666666,-0.12020825640089286,-0.01524342625880268,-0.0027411793043149914
1592334592.2372,-0.1684543362441285,9.758454336244128,0.5607260174647709,-1.0054748869483587,-0.9133333333333333,-1.7467265288680123,-0.12426529966408682,-0.029025810066036415,0.005533350132402501
1592334592.2472,-0.17,9.73427599138829,0.5785746695372364,-1.0044444444444445,-0.9133333333333333,-1.7522222222222221,-0.123574837290902,-0.03802607269466243,0.01028639008735957
1592334592.2572,-0.14470000471320169,9.713133336475469,0.5462666729509356,-1.0044444444444445,-0.9133333333333333,-1.7522222222222221,-0.12326387842209952,-0.04754931226662887,0.009988374036436064
1592334592.2672,-0.06525237075558275,9.71,0.639663505659223,-1.0044444444444445,-0.9133333333333333,-1.7522222222222221,-0.10514454177800116,-0.03730981639367658,0.0034757092170336753
1592334592.2772,-0.022858593750000003,9.696429296875,0.6939267578125,-1.0044444444444445,-0.9133333333333333,-1.7522222222222221,-0.09478575945317852,-0.02306391247278991,0.003661995635879997
1592334592.2872,-0.0683348593852191,9.681666448659254,0.7683348593852191,-0.9998146936995859,-0.9077776324395029,-1.729073468497929,-0.07981214310070243,-0.0010904027259434831,0.003454273696985834
1592334592.2972,-0.08,9.688078887938783,0.788078887938784,-0.9988888888888889,-0.9066666666666666,-1.7244444444444444,-0.06334866611410446,0.01187563118215435,0.0041537623126858625
1592334592.3072,-0.08829338398860256,9.739760303931615,0.582665400284936,-0.9988888888888889,-0.9066666666666666,-1.7244444444444444,-0.043711671654809436,0.025941482282034113,0.007981994548318189
1592334592.3172,-0.15692873990422415,9.75,0.556732184976056,-0.9988888888888889,-0.9066666666666666,-1.7244444444444444,-0.03214734685873088,0.03840019068157651,0.00963924538148698
