time,acc_x,acc_y,acc_z,mag_x,mag_y,mag_z,gyr_x,gyr_y,gyr_z
1592334753.0770466,-0.16951444879061228,9.799352598387483,-0.2895144487906123,-1.2744444444444445,-0.6877777777777778,-1.3644444444444443,-0.055720645608265666,0.022942756712804144,0.009500947155474043
1592334753.0870466,-0.09253997621250165,9.754920047574997,-0.27656006343332895,-1.282204455016666,-0.6764610956932882,-1.362504441801389,-0.0668581099224592,0.03552400650697161,0.01622392752547656
1592334753.0970466,-0.05,9.84,-0.39,-1.301111111111111,-0.6488888888888888,-1.3577777777777778,-0.06763150851478027,0.05563236990731925,0.01854412330243975
1592334753.1070466,-0.13247840879350956,9.690366396231353,-0.3075215912064905,-1.301111111111111,-0.6488888888888888,-1.3577777777777778,-0.0903085701156239,0.07024339305523042,0.010637955364607547
1592334753.1170466,-0.1507821165301139,9.67,-0.22712988109637813,-1.301111111111111,-0.6488888888888888,-1.3577777777777778,-0.06856084445997489,0.06574388356507516,0.004258962661669299
1592334753.1270466,-0.1147938349423073,9.664082466023077,-0.17295876698846147,-1.301111111111111,-0.6488888888888888,-1.3577777777777778,-0.033305186150264336,0.06339076193451647,-0.0016913553661048013
1592334753.1370466,-0.13477999695075468,9.66775667022412,-0.17746333282512577,-1.2974470363029595,-0.6519892598804018,-1.3594688892276938,-0.0037459119092296354,0.057766034252640194,-0.01256855260854523
1592334753.1470466,-0.09,9.72,-0.17,-1.2866666666666666,-0.6611111111111111,-1.3644444444444443,0.01090830782496456,0.04799655442984406,-0.017453292519943295
1592334753.1570466,-0.16476019592948635,9.800959216282054,-0.24287764884616392,-1.2866666666666666,-0.6611111111111111,-1.3644444444444443,0.04041305608474572,0.039736847862555366,-0.012466078300143967
1592334753.1670465,-0.15660605042823214,9.81706067221649,-0.42660605042823213,-1.2866666666666666,-0.6611111111111111,-1.3644444444444443,0.032824106563098976,0.03418597672410264,-0.00547399053012334
1592334753.1770465,-0.15383498501958978,9.727305830836599,-0.3995874625489744,-1.2866666666666666,-0.6611111111111111,-1.3644444444444443,0.007675536902604124,0.02831659948985672,8.472228018006596e-05
1592334753.1870465,-0.10600443610305409,9.71733629073537,-0.27801330830916227,-1.2885904566911222,-0.6611111111111111,-1.362668638268024,0.0025412392943536272,0.015054916509780808,0.003417775150563371
1592334753.1970465,-0.08,9.7,-0.2,-1.301111111111111,-0.6611111111111111,-1.3511111111111112,0.02617993877991494,0.006544984694978735,0.004363323129985824
1592334753.2070465,-0.254976759096009,9.74,-0.2728770636319923,-1.301111111111111,-0.6611111111111111,-1.3511111111111112,0.04799655442984406,-0.011615713073558992,0.0032724923474893677
1592334753.2170465,-0.11154858727845424,9.769483804240515,-0.32589676084810304,-1.301111111111111,-0.6611111111111111,-1.3511111111111112,0.05346406744245517,-0.03132583338001951,0.0019860186974632243
1592334753.2270465,0.05417471022979686,9.844823714712653,-0.3713541456322443,-1.301111111111111,-0.6611111111111111,-1.3511111111111112,0.06364665666028521,-0.040739210227859646,-0.00398485185449505
1592334753.2370465,-0.10618915159944367,9.838414464534074,-0.4295271210013908,-1.3000618142481841,-0.6611111111111111,-1.3500618142481842,0.0502737964389222,-0.03281140101954222,-0.012206988144598726
1592334753.2470465,-0.12735887739760354,9.687285981138093,-0.17,-1.2933333333333332,-0.6611111111111111,-1.3433333333333333,0.023254167511020798,-0.041054181109559315,-0.0009974474374551852
1592334753.2570465,0.08187104564114948,9.671589471142235,-0.2076657812122676,-1.2933333333333332,-0.6611111111111111,-1.3433333333333333,0.03189962213667552,-0.03558921698621872,0.01027620023122428
1592334753.2670465,0.0593375073833432,9.732567277023035,-0.3,-1.2933333333333332,-0.6611111111111111,-1.3433333333333333,0.0580511663578349,-0.009501297195104452,0.004851149356827948
1592334753.2770464,-0.23361326963295534,9.793682917937797,-0.28601392966096817,-1.2933333333333332,-0.6611111111111111,-1.3433333333333333,0.07290512353876095,0.01403333008105789,-0.005126144932584652
1592334753.2870464,-0.36839946329308026,9.752606223244522,-0.2311756437288352,-1.2933333333333332,-0.6620215605676598,-1.343823575348398,0.06817228904263088,0.020382003458279015,-0.005985664713537674
1592334753.2970464,0.23859416325700206,9.971366051043244,-0.25397879603047224,-1.2933333333333332,-0.6755555555555556,-1.3511111111111112,0.051286406563731186,0.02149254986464602,0.0076575152104723845
1592334753.3070464,0.030688341981244344,9.971397629361642,-0.5540286571142953,-1.2933333333333332,-0.6755555555555556,-1.3511111111111112,0.013107884209777595,0.03735618999697174,-0.02043878426121293
1592334753.3170464,-0.3984429007116232,9.69526940020332,-0.267673185844992,-1.2933333333333332,-0.6755555555555556,-1.3511111111111112,-0.03681763798093105,0.031143253164716313,-0.018036491201353512
1592334753.3270464,0.03666568047337279,9.592298816568047,-0.25287278106508876,-1.2933333333333332,-0.6755555555555556,-1.3511111111111112,-0.032235986008774704,0.010319001017615882,-0.005278588248080483
1592334753.3370464,0.3132151965526339,9.845112420484858,-0.3767848034473661,-1.28903311543009,-0.6743013253337763,-1.3532612200627328,-0.01207102286270248,0.017628110679821,-0.019738975206955993
1592334753.3470464,-0.5632006920415226,10.642922453429398,-0.15687017111437646,-1.2666666666666666,-0.6677777777777778,-1.3644444444444443,0.06276899470414733,0.06551644362456839,-0.0737814115389501
1592334753.3570464,-2.505841420118343,9.740026035502957,-0.2676165680473373,-1.2666666666666666,-0.6677777777777778,-1.3644444444444443,0.09572459666707361,0.0875744770668214,-0.041153366290182875
1592334753.3670464,-0.039111554359319456,10.042278188983946,-0.34436460636354893,-1.2666666666666666,-0.6677777777777778,-1.3644444444444443,0.0028408733713814137,0.018109856678801467,0.1125727039089541
1592334753.3770463,1.6934447793916143,9.900704302548643,-0.5133077555494656,-1.2666666666666666,-0.6677777777777778,-1.3644444444444443,-0.023593213989303315,-0.014168244707157995,0.10646705737334346
1592334753.3870463,-1.2419305485017775,9.391140490096495,-0.2483338623666836,-1.2700194684272896,-0.6669395773376221,-1.3654223449579594,-0.14953938262099903,0.07509831862629034,-0.00600275481769666
1592334753.3970463,-0.56,9.26,0.25,-1.2933333333333332,-0.6611111111111111,-1.3722222222222222,-0.26398104936414235,0.03599741582238304,-0.009817477042468103
1592334753.4070463,0.5326154338605991,9.493876870548695,0.06910773826989249,-1.2933333333333332,-0.6611111111111111,-1.3722222222222222,-0.12554400544010447,0.014221070913283904,0.026473065545175933
1592334753.4170463,0.029710052961706507,9.845462865789665,-0.2569328582237083,-1.2933333333333332,-0.6611111111111111,-1.3722222222222222,-0.039210538520469955,0.061828910668943984,0.013947208556374463
1592334753.4270463,-0.31,9.79,-0.25,-1.2933333333333332,-0.6611111111111111,-1.3722222222222222,-0.02181661564992912,0.07090400086226964,0.001090830782496456
1592334753.4370463,0.22081153542089163,9.746568246657272,-0.36055339772453854,-1.2949856590168691,-0.6618737229650508,-1.3705698965386863,-0.019196192121000773,0.07402355268242243,0.009785269169709555
1592334753.4470463,-0.16,9.72,-0.21,-1.3077777777777777,-0.6677777777777778,-1.3577777777777778,0.001090830782496456,0.09817477042468103,0.001090830782496456
1592334753.4570463,-0.2920956674676113,9.791757784438554,-0.26386484678837724,-1.3077777777777777,-0.6677777777777778,-1.3577777777777778,0.02041973940079849,0.09141899103738257,-0.0025067571864899733
1592334753.4670463,0.02976274376764649,9.852099630107903,-0.43233688634025697,-1.3077777777777777,-0.6677777777777778,-1.3577777777777778,0.02316236118794035,0.08154445361163991,0.0038017323386381986
1592334753.4770463,-0.10049769549556528,9.62900460900887,-0.33350362136411166,-1.3077777777777777,-0.6677777777777778,-1.3577777777777778,0.021215114513153797,0.08497550248581313,-0.005835621480364867
1592334753.4870462,-0.1573552422634494,9.515289515473102,-0.24415604787172235,-1.3077777777777777,-0.6677777777777778,-1.3577777777777778,0.05931431988401829,0.09029167067709656,-0.013809873767289992
1592334753.4970462,-0.06006910720956294,9.585638774747853,-0.04185282032125513,-1.3077777777777777,-0.6555555555555556,-1.3788888888888888,0.15574655352187397,0.09335954914834163,-0.0015427289288500493
1592334753.5070462,-0.30820155549362854,9.957641679122439,-0.4598880247257619,-1.3077777777777777,-0.6555555555555556,-1.3788888888888888,0.23021415353715913,0.09405648558791833,-0.0030518832694697287
1592334753.5170462,-0.38,9.83,-0.42,-1.3077777777777777,-0.6555555555555556,-1.3788888888888888,0.2476185876266955,0.10362892433716332,-0.002181661564992912
1592334753.5270462,-0.07593137466075045,10.05991750312325,-0.7443161159694999,-1.3077777777777777,-0.6555555555555556,-1.3788888888888888,0.18523803859440077,0.07270105446881935,-0.010193085987649432
1592334753.5370462,-0.44022136580854015,9.981106829042702,-0.6217709264683212,-1.3070398917493105,-0.6554079783498621,-1.378273983865166,0.10288876698056759,0.051876932283534245,-0.021768321122299556
1592334753.5470462,-0.45,10.03,-0.7,-1.2744444444444445,-0.6488888888888888,-1.3511111111111112,-0.02617993877991494,0.030543261909900768,-0.019634954084936207
1592334753.5570462,-0.2590308001339136,9.651290114304846,-0.2274197713903104,-1.2744444444444445,-0.6488888888888888,-1.3511111111111112,-0.1176682905696226,0.0027802907588211955,-0.012562057166126506
1592334753.5670462,-0.32,9.681867159646112,-0.2231202957876667,-1.2744444444444445,-0.6488888888888888,-1.3511111111111112,-0.14664839227187995,-0.015430653427402,-0.01588539432009199
1592334753.5770462,-0.32191519505138183,9.771696098972363,-0.2731872692806545,-1.2744444444444445,-0.6488888888888888,-1.3511111111111112,-0.1452655097689501,-0.014900054135874318,-0.009747323443505995
1592334753.5870461,-0.31371721257992957,9.615582669972595,-0.1613956674931489,-1.2743410616671742,-0.6494574941638754,-1.3520932474951788,-0.12595252078206323,-0.008422158847240352,0.005226037466057829
1592334753.5970461,0.02,9.73,-0.19,-1.2722222222222221,-0.6611111111111111,-1.3722222222222222,-0.0916297857297023,-0.002181661564992912,0.022907446432425576
1592334753.6070461,-0.13986409721722873,9.84689317130462,-0.4026485462956305,-1.2722222222222221,-0.6611111111111111,-1.3722222222222222,-0.06618695060070992,0.023774181180867788,0.014628992240562414
1592334753.617046,-0.24960031236688912,9.651759666808653,-0.3996003123668891,-1.2722222222222221,-0.6611111111111111,-1.3722222222222222,-0.05434958925264135,0.02767222254952354,0.002234037343725585
1592334753.627046,-0.11390553124649389,9.777811062492987,-0.26695276562324693,-1.2722222222222221,-0.6611111111111111,-1.3722222222222222,-0.037164697365431446,0.014811253776279808,-0.0045849242672954
1592334753.637046,-0.0668473016941546,9.68369460338831,-0.2434236508470773,-1.2722222222222221,-0.6611111111111111,-1.3722222222222222,-0.020909384999697342,0.002833655191002052,-0.006296009779477936
1592334753.647046,0.12423504935165472,9.82477525643507,-0.32945979291658606,-1.298888888888889,-0.6555555555555556,-1.3788888888888888,-0.0049431502529056065,-0.019065022973808476,-0.0009630798676022876
1592334753.657046,-0.0979717146257789,9.704914233704404,-0.25635720786949523,-1.298888888888889,-0.6555555555555556,-1.3788888888888888,-0.002200372868060309,-0.0077932195412380705,-0.00027738552139096323
1592334753.667046,-0.2825132455789201,9.67,-0.27647020039089176,-1.298888888888889,-0.6555555555555556,-1.3788888888888888,-0.00643409585215873,-0.01577912015291074,-0.0019483249311784724
1592334753.677046,-0.20973307649972484,9.683425976884974,-0.08868739680792515,-1.298888888888889,-0.6555555555555556,-1.3788888888888888,0.02474570942417249,-0.01090830782496456,0.0010337978026741315
1592334753.687046,-0.10255896689991352,9.82357673559242,-0.17937318185391932,-1.298888888888889,-0.6555555555555556,-1.3788888888888888,0.05532186178183546,-0.01090830782496456,0.011825380987731646
1592334753.697046,-0.11277860589676865,9.826671635380613,-0.27389302948384325,-1.3066666666666666,-0.6344444444444445,-1.3933333333333333,0.10294222540061639,-0.008120448491047365,0.009392813402653851
1592334753.707046,-0.20565617163555308,9.979311786012817,-0.44817219281136805,-1.3066666666666666,-0.6344444444444445,-1.3933333333333333,0.10373682206014637,-0.002181661564992912,-0.006620057195195126
1592334753.717046,-0.57,9.92,-0.66,-1.3066666666666666,-0.6344444444444445,-1.3933333333333333,0.08617563181722002,-0.002181661564992912,-0.01308996938995747
1592334753.727046,0.005010360547036884,9.737820140903441,-0.3692871943638624,-1.3066666666666666,-0.6344444444444445,-1.3933333333333333,0.023845027469681125,-0.0045965882289365784,0.0026504520836206883
1592334753.737046,-0.05292996270203066,9.944749866792968,-0.3610100053282813,-1.3066666666666666,-0.6344444444444445,-1.3933333333333333,0.00939860732159474,-0.007305292006702777,-0.004572757990422506
1592334753.747046,-0.1709598279738051,9.894313605708142,-0.2958203010458411,-1.2666666666666666,-0.6611111111111111,-1.4022222222222223,-0.02146538221182542,0.001935129116861993,0.0032724923474893677
1592334753.757046,-0.05798516626553367,10.035747826514072,-0.4869777493983005,-1.2666666666666666,-0.6611111111111111,-1.4022222222222223,-0.0337301337656946,0.00011798268004603357,0.002832923815655735
1592334753.767046,-0.020787910846096512,9.64034358394845,-0.42157582169219304,-1.2666666666666666,-0.6611111111111111,-1.4022222222222223,-0.06678792501622971,0.011327450589867444,-0.0029071160970756214
1592334753.777046,0.1144856048339323,9.077098850756288,-0.1902778326290431,-1.2666666666666666,-0.6611111111111111,-1.4022222222222223,-0.08581985495148617,0.01589336271329282,-0.014782327371853558
1592334753.787046,0.14761462817424273,9.424953595829548,-0.41389874017613837,-1.2666666666666666,-0.6611111111111111,-1.4022222222222223,0.005428995143990589,0.028541718172071774,-0.01116851152648814
1592334753.797046,-0.21,9.49,-0.06,-1.2933333333333332,-0.6555555555555556,-1.3788888888888888,0.1712604328519436,0.06654067773228381,0.006544984694978735
1592334753.807046,-0.4165302533962809,9.652576115232682,-0.6937643318238752,-1.2933333333333332,-0.6555555555555556,-1.3788888888888888,0.25976912249026846,0.08274139088371446,0.01303605319461874
1592334753.817046,-0.022499591950940846,9.836247347681116,-0.8375053046377691,-1.2933333333333332,-0.6555555555555556,-1.3788888888888888,0.2705271023290599,0.10853721774592287,0.020044126906491003
1592334753.827046,-0.08699098520288312,9.973052181420282,-0.6232993354347782,-1.2933333333333332,-0.6555555555555556,-1.3788888888888888,0.2199720818644626,0.12907793399998554,0.014497906982736944
1592334753.837046,-0.5333095749593431,10.192000923564962,-0.7496159174413235,-1.2933333333333332,-0.6555555555555556,-1.3788888888888888,0.17496067664025328,0.1428569355992333,0.007149106129804808
1592334753.847046,-0.51,10.28,-0.52,-1.281111111111111,-0.6555555555555556,-1.4022222222222223,0.06981317007977318,0.148352986419518,0.01090830782496456
1592334753.857046,0.07904561808966043,10.080181211755129,-0.6496134149223941,-1.281111111111111,-0.6555555555555556,-1.4022222222222223,-0.041655830140863694,0.11013042133280046,0.0032711745384184105
1592334753.8670459,-0.6977174254317111,10.200710783721773,-0.3602340297065572,-1.281111111111111,-0.6555555555555556,-1.4022222222222223,-0.22454693039201656,0.07056928271007502,0.0028000405077958784
1592334753.8770459,-0.5310049245305681,9.887039676502383,-0.576952796572847,-1.281111111111111,-0.6555555555555556,-1.4022222222222223,-0.36228439431032994,0.03385960236187131,0.008240779564400799
1592334753.8870459,-0.06920707050486452,9.576375665612364,0.11154582215638398,-1.281111111111111,-0.6555555555555556,-1.4022222222222223,-0.3943407870488236,0.013709869783389617,0.00366129488747314
1592334753.8970459,-0.12,9.66,0.36,-1.3077777777777777,-0.6555555555555556,-1.4077777777777778,-0.3021601267515183,0.002181661564992912,0.001090830782496456
1592334753.9070458,-0.25363724187900016,9.7580006440446,0.048179768948999724,-1.3077777777777777,-0.6555555555555556,-1.4077777777777778,-0.21761026881638634,-0.005593038015249107,-0.012514893482927076
1592334753.9170458,-0.5198599857853589,9.343802416488984,-0.004225302061122957,-1.3077777777777777,-0.6555555555555556,-1.4077777777777778,-0.16024467005437487,-0.04540003604060534,-0.0165929549795479
1592334753.9270458,0.22116993079075245,9.708785156825211,-0.04453320571344427,-1.3077777777777777,-0.6555555555555556,-1.4077777777777778,-0.07403907519555995,-0.07569556060926849,0.01603116465470513
1592334753.9370458,-0.0181602488587837,9.693344500073627,0.024949749668679133,-1.3077777777777777,-0.6555555555555556,-1.4077777777777778,-0.04456357374403018,-0.06727398876597428,0.01182037873305802
1592334753.9470458,-0.1,9.92,-0.06,-1.281111111111111,-0.6488888888888888,-1.45,-0.009817477042468103,-0.05235987755982988,0.017453292519943295
1592334753.9570458,-0.0906897259149844,9.892069177744954,-0.022758903659937636,-1.281111111111111,-0.6488888888888888,-1.45,-0.02708256410367196,-0.05134428420328849,0.018468885876484698
1592334753.9670458,-0.12355849273822175,9.785315267445979,-0.1358559156925257,-1.281111111111111,-0.6488888888888888,-1.45,-0.0025108573318236146,-0.04837982321567073,0.015404289772880178
1592334753.9770458,-0.02141250442791358,9.711027275947574,-0.22871590506553313,-1.281111111111111,-0.6488888888888888,-1.45,0.026864557780583772,-0.05445749530789294,0.00021010954232463658
1592334753.9870458,-0.16967185952616742,9.694245067418297,-0.0488182753104289,-1.281111111111111,-0.6488888888888888,-1.45,0.028989366106039072,-0.07430539937654103,-0.007733684446324525
1592334753.9970458,-0.09249255615635645,9.86342726471499,0.09065291441366333,-1.2933333333333332,-0.6611111111111111,-1.45,0.04069736058566111,-0.09667284810530179,-0.007533854590633142
1592334754.0070457,-0.17112528796739324,9.97196925394294,-0.2039385078858763,-1.2933333333333332,-0.6611111111111111,-1.45,0.0834583651856664,-0.118208661604669,-0.004332635661135688
1592334754.0170457,-0.2082890306574517,10.03700580365054,-0.33401160730108104,-1.2933333333333332,-0.6611111111111111,-1.45,0.0297437204478676,-0.13138395182337437,-0.003319151798158353
1592334754.0270457,0.03458362721587438,9.64490337142051,0.008061315653359602,-1.2933333333333332,-0.6611111111111111,-1.45,-0.05687364065243676,-0.14430434081107335,0.008015172437429288
1592334754.0370457,0.1975947346641181,9.736522158945355,0.03,-1.2933333333333332,-0.6611111111111111,-1.45,-0.12064609519974617,-0.15101210543698715,0.022284615094162526
1592334754.0470457,0.0,9.76,-0.02,-1.3022222222222222,-0.6555555555555556,-1.4433333333333334,-0.11453723216212788,-0.14508049407202864,0.022907446432425576
1592334754.0570457,-0.035092350345581634,9.312572533093833,0.0940501386231403,-1.3022222222222222,-0.6555555555555556,-1.4433333333333334,-0.10688126896470576,-0.12115560908008452,0.03152040502952545
1592334754.0670457,0.222890730939154,9.62064629718735,-0.1119388915620489,-1.3022222222222222,-0.6555555555555556,-1.4433333333333334,-0.027384428585372187,-0.09168661524118268,0.03977323823020065
1592334754.0770457,-0.07983421547613836,9.648166746861467,-0.1945002405844014,-1.3022222222222222,-0.6555555555555556,-1.4433333333333334,0.060674688795798765,-0.04765705655059721,0.014756443519640713
1592334754.0870457,-0.1381934011043687,9.741664162650485,-0.13125187801213634,-1.3022222222222222,-0.6555555555555556,-1.4433333333333334,0.12403497963805754,-0.03139205004623325,-0.0027417949029367433
1592334754.0970457,-0.27,9.75,-0.04,-1.3022222222222222,-0.6411111111111111,-1.4666666666666666,0.10690141668465267,-0.04363323129985824,-0.0032724923474893677
1592334754.1070457,-0.24468859454889488,9.842808486654052,-0.056874270300736746,-1.3022222222222222,-0.6411111111111111,-1.4666666666666666,0.055361890951266444,-0.05375706671177339,-0.006033538368920773
1592334754.1170456,-0.19887015287710783,9.670107604487894,0.06,-1.3022222222222222,-0.6411111111111111,-1.4666666666666666,0.02165815496149351,-0.07096855892052119,-0.005389595854230734
1592334754.1270456,-0.006231218423987911,9.688454169673905,0.06,-1.3022222222222222,-0.6411111111111111,-1.4666666666666666,-0.005359392416778238,-0.08197570785240968,0.0056175530776577534
1592334754.1370456,-0.27240789316799807,9.651836771193514,0.09053058304518899,-1.3022222222222222,-0.6411111111111111,-1.4666666666666666,-0.010966185456800844,-0.07707499200591077,0.009042762179472976
1592334754.1470456,0.19173228346456694,9.768080708661417,-0.10689960629921261,-1.3076957567804024,-0.6750470253718286,-1.473234908136483,-0.0012518786342429807,-0.05484753004314119,0.0087427510451463
1592334754.1570456,-0.11950944421796439,9.723013317026771,0.09674140508221225,-1.3077777777777777,-0.6755555555555556,-1.4733333333333334,0.0470884181628289,-0.022763736628969904,0.009751736663063677
1592334754.1670456,-0.20287994511776813,9.944571232563458,-0.4020224102446833,-1.3077777777777777,-0.6755555555555556,-1.4733333333333334,0.08447390586291158,0.01063027444052126,0.005897969628973863
1592334754.1770456,-0.21890935012474755,9.916543899251515,-0.210538196507069,-1.3077777777777777,-0.6755555555555556,-1.4733333333333334,0.04656734189932595,0.002518488130718026,0.01128530993335023
1592334754.1870456,-0.17650812132502766,9.815767596204227,-0.07127030331256913,-1.3077777777777777,-0.6755555555555556,-1.4733333333333334,0.04224227440231968,0.003462944784859507,0.019115480614550165
1592334754.1970456,-0.21441628013327235,9.90697132031097,-0.14790194028875678,-1.3128163222345621,-0.662455339967916,-1.4793795866814747,0.05738213887694274,0.012277850255095667,0.013902088524819273
1592334754.2070456,-0.11769863926158532,9.789798268151108,-0.020498144447616357,-1.3133333333333332,-0.6611111111111111,-1.48,0.023397847996028634,-0.005170780800272239,0.003959594294842616
1592334754.2170455,-0.006317596756684904,9.98736480648663,-0.36424821108132655,-1.3133333333333332,-0.6611111111111111,-1.48,-0.01980169974609896,-0.03104997539153274,0.009869989842715447
1592334754.2270455,-0.2683741101581671,9.837316990208704,-0.12422750795694748,-1.3133333333333332,-0.6611111111111111,-1.48,-0.07457559962035243,-0.04914060293413291,0.003316831614699858
1592334754.2370455,-0.08234686095054591,9.604377809890815,0.03749839434810534,-1.3133333333333332,-0.6611111111111111,-1.48,-0.09623153105022655,-0.04806477514111291,0.006187001110268566
1592334754.2470455,0.19717032967032966,9.607153607262303,0.17429885332059247,-1.3314310930615278,-0.6792088708393056,-1.5066703827573393,-0.03972880759843818,-0.029138289582182265,0.005765559260089367
1592334754.2570455,0.020039548022598885,9.804765197740112,-0.028358870056497176,-1.3344444444444445,-0.6822222222222222,-1.511111111111111,0.06948910089408508,-0.0023606810710378665,0.006370279208977552
1592334754.2670455,-0.12914801878838975,9.873584005781044,-0.27150403468625794,-1.3344444444444445,-0.6822222222222222,-1.511111111111111,0.13689796256200126,0.03790026718785603,-0.0016977704487589071
1592334754.2770455,-0.16848297537978,10.00938082765846,-0.35620743844944996,-1.3344444444444445,-0.6822222222222222,-1.511111111111111,0.13508233568151162,0.05077260163127114,-0.008312941971586402
1592334754.2870455,-0.30692694330800696,9.82982368984999,-0.22307305669199298,-1.3344444444444445,-0.6822222222222222,-1.511111111111111,0.0984907564543896,0.054588249548745006,-0.014535251109941914
1592334754.2970455,-0.48931890622378793,10.048637812447577,-0.2894648548901191,-1.3333387388394937,-0.6822222222222222,-1.515533933530914,-0.01477278768820231,0.026323223548023432,-0.01419141385898048
1592334754.3070455,-0.2588829828812632,9.89592198858751,-0.09098256859219886,-1.3333333333333333,-0.6822222222222222,-1.5155555555555555,-0.06149171633746143,0.01287415662434358,-0.005777148284724644
1592334754.3170455,-0.10248979020979021,9.56240811188811,-0.01668027972027972,-1.3333333333333333,-0.6822222222222222,-1.5155555555555555,-0.14228293266522618,0.0014529560895361181,0.001910067584713165
1592334754.3270454,-0.036440979779193555,9.457373273712951,0.005423608088322582,-1.3333333333333333,-0.6822222222222222,-1.5155555555555555,-0.12507587219312702,0.0038641162129832707,-0.0026715879383590146
1592334754.3370454,-0.05158674411274709,9.424739069746499,0.02,-1.3333333333333333,-0.6822222222222222,-1.5155555555555555,-0.026339174828222095,0.024747551094294516,-0.01188528630641969
1592334754.3470454,0.04060923601803339,9.936958998415987,-0.09060923601803339,-1.3261642161840164,-0.6986087757063753,-1.5442320241528233,0.10591542235636534,0.04470515496905993,-0.004126136882713382
1592334754.3570454,0.11866271358352189,9.842674572832957,-0.1617964422251697,-1.3255555555555556,-0.7,-1.5466666666666666,0.14449699279678518,0.048061874912450446,0.0012214717477092248
1592334754.3670454,-0.14109567660371466,9.806463243327611,-0.35760054107486605,-1.3255555555555556,-0.7,-1.5466666666666666,0.15432154073845927,0.0625586147446845,0.005196953709252794
1592334754.3770454,-0.40183174799258803,10.013345768993204,-0.2875701050030883,-1.3255555555555556,-0.7,-1.5466666666666666,0.09936143800180522,0.06940028490156822,0.02057796011531424
1592334754.3870454,-0.3620215223927837,10.07216616553252,-0.2958123120746954,-1.3255555555555556,-0.7,-1.5466666666666666,0.07650381754010568,0.04106557549057634,0.011467481597818257
1592334754.3970454,-0.354953716036228,9.894222163026106,-0.15715736547682474,-1.324556584088084,-0.7059938288048304,-1.5586543242763276,0.00017067840460012473,0.015271630954950384,-0.012529407606983716
1592334754.4070454,-0.3127690619411478,9.843010892537798,-0.05228540074784588,-1.3244444444444445,-0.7066666666666667,-1.56,-0.006544984694978735,0.015271630954950384,-0.014180800172453926
1592334754.4170454,-0.23712572051721453,9.653752401724049,0.04287427948278548,-1.3244444444444445,-0.7066666666666667,-1.56,-0.019041644555109764,-0.00010887348828780147,-0.017064644755561086
1592334754.4270453,0.22994280335939762,9.512759677575055,0.05,-1.3244444444444445,-0.7066666666666667,-1.56,-0.03646601288600977,-0.010051775574281465,-0.014501999766460088
1592334754.4370453,0.08476547586583039,9.717547041178076,-0.0002031633487864712,-1.3244444444444445,-0.7066666666666667,-1.56,-0.03209428228075883,-0.016993102931581686,-0.003836648491204811
1592334754.4470453,-0.31854857983270524,9.739095505101572,-0.04,-1.3303622677737945,-0.724420136654717,-1.566904127217575,-0.0330805790301391,-0.019880012494019886,0.012109735753622754
1592334754.4570453,-0.24434879376813323,9.72621477683717,-0.04,-1.3311111111111111,-0.7266666666666667,-1.5677777777777777,-0.0466963670300162,-0.025736296977232766,0.014445823366023373
1592334754.4670453,-0.1015302318826548,9.659377208694389,0.030622791305610693,-1.3311111111111111,-0.7266666666666667,-1.5677777777777777,-0.03399820187096061,-0.03287632066971467,0.00671190709917447
1592334754.4770453,0.00047533239175960584,9.857283397457751,0.14657039887011153,-1.3311111111111111,-0.7266666666666667,-1.5677777777777777,-0.004659658497675162,-0.018892309390613996,0.001729774035848858
1592334754.4870453,-0.17555495639561913,9.745986165603675,0.18892467319957607,-1.3311111111111111,-0.7266666666666667,-1.5677777777777777,0.016229482570670833,-0.009078546132515412,0.002467071854148672
1592334754.4970453,-0.30579139262224764,9.673687088933372,0.09735594795539035,-1.325847313570362,-0.7477218568296635,-1.5800599720395259,0.036285837158461336,-0.0011477196197734905,-0.004479089379386451
1592334754.5070453,-0.3678688276279915,9.805382459860647,0.002486367767343234,-1.3244444444444445,-0.7533333333333333,-1.5833333333333333,0.035061568268299446,-0.00526042487696621,-0.011279367084248324
1592334754.5170453,-0.4131495499791381,9.771495499791381,-0.1963783751564642,-1.3244444444444445,-0.7533333333333333,-1.5833333333333333,0.015838470244561403,-0.021936901573969082,-0.012686263821111998
1592334754.5270452,-0.41611472624031165,9.795032536162806,-0.0671318439922079,-1.3244444444444445,-0.7533333333333333,-1.5833333333333333,-0.0035853596337195436,-0.02266425089302787,0.0013411246114805979
1592334754.5370452,-0.1831124580380455,9.702445169712794,0.005703841850055947,-1.3244444444444445,-0.7533333333333333,-1.5833333333333333,0.0017209981513627397,-0.01519086634833884,0.014455501553581298
1592334754.5470452,-0.11506829539144921,9.689601332593003,0.16787007218212102,-1.3502227157751867,-0.7584889875994818,-1.5996595718428033,0.05924028817782169,0.013555858916829361,0.023358436216238378
1592334754.5570452,-0.2621188650912827,9.626737137437763,0.29216114755393974,-1.3577777777777778,-0.76,-1.6044444444444443,0.12334254617591506,0.026780831102210075,0.014795529398296887
1592334754.5670452,-0.14204519744284547,9.535782799715872,0.06746599668517006,-1.3577777777777778,-0.76,-1.6044444444444443,0.20589160543176288,0.03515634169717176,0.0003810489366232921
1592334754.5770452,-0.0070198484993767435,9.820430530252182,-0.406602742353054,-1.3577777777777778,-0.76,-1.6044444444444443,0.2214155331498842,0.027850858499004105,-0.00742704203401341
1592334754.5870452,-0.5135128591979229,10.048271990456476,-0.3591217852005193,-1.3577777777777778,-0.76,-1.6044444444444443,0.17918980547133476,0.013942854311790074,-0.007706889220961242
1592334754.5970452,0.10108043414106294,10.011825425451685,-0.76288454602092,-1.362653302874964,-0.783402520466494,-1.6356478050664363,0.012060088066534816,-0.02010344939887327,-0.010374213151906977
1592334754.6070452,0.14830279178452838,9.66223506743738,-0.5695617595211742,-1.3633333333333333,-0.7866666666666666,-1.64,-0.08032643018069503,-0.049457658605488994,-0.011645813718660764
1592334754.6170452,-0.9271429926488025,9.816757410481385,0.17351482096276966,-1.3633333333333333,-0.7866666666666666,-1.64,-0.131688754895289,-0.08066953604532934,-0.009357398401313681
1592334754.6270452,-1.009989589741163,9.89,0.40800572564236026,-1.3633333333333333,-0.7866666666666666,-1.64,-0.08289973272049274,-0.08770296525017696,-0.009599367665122777
1592334754.6370451,-0.08231371604120241,9.688253117282091,0.12737967592313715,-1.3633333333333333,-0.7866666666666666,-1.64,0.020416230996199533,-0.08982443811515559,-0.006883187576582812
1592334754.6470451,-0.09077111050773823,9.512671734998642,0.09599239750203638,-1.3538821009442785,-0.811583552055993,-1.6468736235556762,0.13099713710550503,-0.07619910613771672,-0.011358797539918974
1592334754.6570451,-0.004080276880908673,9.745904857030034,-0.19787809806973128,-1.3511111111111112,-0.8188888888888889,-1.6488888888888888,0.1714708151424146,-0.07635653313599602,-0.01570699028469543
1592334754.667045,0.3415411355735805,9.81,-0.5242641946697566,-1.3511111111111112,-0.8188888888888889,-1.6488888888888888,0.15264805362568598,-0.0808870617199255,-0.010345828452761868
1592334754.677045,0.10488497097398408,9.951801763061708,-0.23549559234573209,-1.3511111111111112,-0.8188888888888889,-1.6488888888888888,0.0748458613140903,-0.06032873533168155,0.011897584161358896
1592334754.687045,-0.21253018054912573,9.876964495566398,-0.0301940814073573,-1.3511111111111112,-0.8188888888888889,-1.6488888888888888,0.05528007674231585,-0.049609434814775255,0.011816601879888962
1592334754.697045,-0.47517959535339727,9.892071362785584,0.20681273953474555,-1.3692784165370993,-0.8362992232554608,-1.658729512661299,0.11027813410705539,-0.03852675357010931,-0.011890473596209624
1592334754.707045,0.032113830659327824,9.929577233868134,-0.13362454619978917,-1.3777777777777778,-0.8444444444444444,-1.6633333333333333,0.18659785346059882,-0.03658402958900955,-0.00947805352811126
1592334754.717045,0.043474207860888264,9.722516470219155,-0.2190422623582665,-1.3777777777777778,-0.8444444444444444,-1.6633333333333333,0.23932929054344654,-0.03897594655578416,-0.013246678845131244
1592334754.727045,0.0015482469748681338,9.812385975798946,-0.3580204778156997,-1.3777777777777778,-0.8444444444444444,-1.6633333333333333,0.25760495221507296,-0.038793706211767386,-0.0210635599592513
1592334754.737045,-0.3144712401159466,9.904488395480449,-0.42,-1.3777777777777778,-0.8444444444444444,-1.6633333333333333,0.23047856506743838,-0.04285379911807957,-0.02223962904232506
1592334754.747045,-0.2738613024827765,9.731776290133888,-0.40552125308722214,-1.365712155350463,-0.8532925675578087,-1.6786164550745988,0.16138194840739967,-0.04818397228851619,-0.0060227528254955115
1592334754.757045,0.04042831599479846,9.757968140442133,-0.46531209362808845,-1.3611111111111112,-0.8566666666666667,-1.6844444444444444,0.11553661366372828,-0.04062710770123189,-0.0004452777637425593
1592334754.767045,-0.12505082990379113,9.847763756779592,-0.35851734757842524,-1.3611111111111112,-0.8566666666666667,-1.6844444444444444,0.02698018658380301,-0.01615140704488075,-0.0076029338758442444
1592334754.777045,-0.1998853879327091,9.645674657135087,-0.097482419674424,-1.3611111111111112,-0.8566666666666667,-1.6844444444444444,0.01160474600239042,-0.01691412824724739,-0.006242939122623468
1592334754.787045,-0.13780767955693365,9.807709978743736,-0.14339047173306813,-1.3611111111111112,-0.8566666666666667,-1.6844444444444444,0.05002620295301245,-0.016032632152575693,-0.0045046786663591725
1592334754.797045,-0.23657388929734272,10.145139166053985,-0.33637398032419563,-1.3719478190510646,-0.9000134984264803,-1.6932492696456565,0.0848979356837886,0.002577198953023432,-0.01694486447641232
1592334754.807045,-0.18740774010030692,9.912021109364472,-0.07532075754173215,-1.3788888888888888,-0.9277777777777778,-1.698888888888889,0.08005672355184429,0.006218119239305908,-0.01894815284894716
1592334754.817045,-0.12791116986863943,9.719634328148294,0.10360327416950296,-1.3788888888888888,-0.9277777777777778,-1.698888888888889,0.0698444979813492,-0.0018284939380194313,-0.008695318358395633
1592334754.827045,-0.21875409085707748,10.105559675020025,-0.250735324407827,-1.3788888888888888,-0.9277777777777778,-1.698888888888889,0.06558575455431673,-0.004460909982687018,-0.012954061785428104
1592334754.837045,-0.3292556794259249,10.114492650154686,-0.28124498874183096,-1.3788888888888888,-0.9277777777777778,-1.698888888888889,0.043795616858707545,-0.0025905408939400887,-0.012408017936408193
1592334754.847045,-0.1542689516257953,9.94862454839019,-0.06167599194296128,-1.376047432795842,-0.9431216406802301,-1.7034352186377637,0.003863194811381126,-0.007810860388986836,-0.003122453851907958
1592334754.857045,0.09689697095113686,9.60722419100339,0.031721203342041954,-1.3733333333333333,-0.9577777777777777,-1.7077777777777778,-0.012939235588252926,-0.013014602489105197,-0.005755621515891374
1592334754.867045,-0.21783372641509433,9.585944575471698,-0.18070023584905662,-1.3733333333333333,-0.9577777777777777,-1.7077777777777778,0.012205213007644896,0.005721227364206237,-0.005965223570366527
1592334754.877045,-0.29971867007672637,9.88140664961637,-0.15225429302155644,-1.3733333333333333,-0.9577777777777777,-1.7077777777777778,0.03905469128183877,0.023276104990631357,-0.0027962253452667647
1592334754.887045,-0.2225732678797143,9.939322731414798,-0.1530700490902143,-1.3733333333333333,-0.9577777777777777,-1.7077777777777778,0.038767572562165266,0.02805380515159872,-0.002442673428055352
1592334754.897045,-0.04595448142931278,9.946953072874194,-0.06372970568611458,-1.3812726419057504,-0.9895350120674459,-1.7077777777777778,0.0072689974457898245,0.03638906038310885,-0.002622959183799581
1592334754.907045,0.04943466783985921,10.072170039595248,-0.009434667839859218,-1.3866666666666667,-1.011111111111111,-1.7077777777777778,-0.004970526670484567,0.049612284538497795,-0.0018626427516781213
1592334754.9170449,0.00245714285714288,9.8812099378882,-0.08747577639751553,-1.3866666666666667,-1.011111111111111,-1.7077777777777778,-0.05168288494003457,0.08222289468362727,-0.001090830782496456
1592334754.9270449,-0.5090393764793076,9.699657637411242,0.19308126329882613,-1.3866666666666667,-1.011111111111111,-1.7077777777777778,-0.06424697827211304,0.08539861667547666,-0.0040495074892327254
1592334754.9370449,-0.5094733557465827,9.598270488998047,0.11947335574658266,-1.3866666666666667,-1.011111111111111,-1.7077777777777778,-0.013557371044269767,0.08837165537628924,-0.00858107185824095
1592334754.9470448,-0.28000762068851265,9.591870713362711,-0.04124714224180776,-1.371389947317849,-1.0462475656133918,-1.7261098409963591,0.09305656535827093,0.07663190158057771,-0.016907461484614396
1592334754.9570448,-0.34665484633569743,9.674438928289991,-0.18054334121355398,-1.3644444444444443,-1.0622222222222222,-1.7344444444444445,0.1394431166912334,0.06981317007977318,-0.012424081237348426
1592334754.9670448,-0.2640144236528739,9.570010302609196,-0.36366701008697316,-1.3644444444444443,-1.0622222222222222,-1.7344444444444445,0.16006131174100163,0.053924263292324026,0.0051265675256358225
1592334754.9770448,-0.4641859059591442,9.356964100084614,-0.23764486885047745,-1.3644444444444443,-1.0622222222222222,-1.7344444444444445,0.19297971364346114,0.051748732790475226,-0.00040542566058504766
1592334754.9870448,-0.4231706352345542,9.499151965825488,-0.2668847401313187,-1.3644444444444443,-1.0622222222222222,-1.7344444444444445,0.24802373362177665,0.07207223653456114,-0.001931325349501873
1592334754.9970448,-0.153318663406683,9.797300733496334,-0.4773007334963325,-1.3644444444444443,-1.105329348908811,-1.7357915421534003,0.3189279828140005,0.11064206835574648,0.002413340865660048
1592334755.0070448,-0.12419890368050118,9.801906029757244,-0.5434346123727487,-1.3644444444444443,-1.1333333333333333,-1.7366666666666666,0.33902337349100264,0.13428067137578537,0.0037887790545691313
1592334755.0170448,-0.5294631418670587,9.78571353565053,-0.48410716160873674,-1.3644444444444443,-1.1333333333333333,-1.7366666666666666,0.32070425005395803,0.16054691214717595,-0.013830114627918284
1592334755.0270448,-0.8239944554644744,10.063128599765792,-0.4234357001171044,-1.3644444444444443,-1.1333333333333333,-1.7366666666666666,0.2919099462860672,0.1511592758923716,-0.03549771349609449
1592334755.0370448,-0.8291719431130047,10.296624455095962,-0.6399366826439434,-1.3644444444444443,-1.1333333333333333,-1.7366666666666666,0.21127367753172593,0.12576859131889515,-0.03752075325337865
1592334755.0470448,-0.5625466405740378,10.219810828440966,-0.743395955642531,-1.3452620134811915,-1.163385808509096,-1.7251572080887148,0.027167592482527536,0.07974378612707947,-0.029884636357207537
1592334755.0570447,-0.47340506768483165,10.086324192988545,-0.6110812217979869,-1.3311111111111111,-1.1855555555555555,-1.7166666666666666,-0.10875272425529357,0.043904519135907774,-0.021934558651924136
1592334755.0670447,-0.4319616841491841,9.682642773892773,-0.234241452991453,-1.3311111111111111,-1.1855555555555555,-1.7166666666666666,-0.23366467305260172,-0.000885743788788461,-0.0025700369477567415
1592334755.0770447,-0.6825841624317037,9.233795958294563,0.08066805048552955,-1.3311111111111111,-1.1855555555555555,-1.7166666666666666,-0.15513748906098862,-0.016859013177316327,-0.0031555572031246935
1592334755.0870447,-0.43630753386675114,9.14983442921651,0.0937582191238216,-1.3311111111111111,-1.1855555555555555,-1.7166666666666666,-0.014345077231594061,-0.02673438465652884,-0.012643889337731636
1592334755.0970447,-0.014688796680497926,9.71339326878746,-0.09047026279391425,-1.335787101070642,-1.2153649915475642,-1.6997162030633677,0.13735465613716902,-0.023253957455542245,-0.01854412330243975
1592334755.1070447,-0.105757970071568,10.223954131424854,-0.20122804163955757,-1.34,-1.2422222222222221,-1.6844444444444444,0.19431656441705167,-0.018504379305159465,-0.01888957670737153
1592334755.1170447,-0.6595997868521426,10.177008357639668,-0.7673970720215391,-1.34,-1.2422222222222221,-1.6844444444444444,0.06474439858167019,0.003612963958954562,-0.03275319158244996
1592334755.1270447,-0.6281868826365808,9.91969336641543,-0.49980244370581905,-1.34,-1.2422222222222221,-1.6844444444444444,-0.10140932038785343,-0.049918696214084804,-0.029933528304591665
1592334755.1370447,-0.37813199037275247,9.686263980745505,-0.17429949638978218,-1.34,-1.2422222222222221,-1.6844444444444444,-0.1522982493084682,-0.09205836973109331,-0.01994060644544641
1592334755.1470447,-0.3205819709503029,9.623489220347814,-0.006861525434768451,-1.3434883518964806,-1.270129037394067,-1.670491036858522,-0.11063076058763299,-0.10918453766196923,-0.0016743645033746816
1592334755.1570446,-0.22035802567578344,9.5478518459453,0.12986883023682322,-1.3466666666666667,-1.2955555555555556,-1.6577777777777778,-0.06843077843427313,-0.11297387620413409,0.00846370220004925
1592334755.1670446,-0.3555353128149469,9.713080858981318,-0.2544282502519575,-1.3466666666666667,-1.2955555555555556,-1.6577777777777778,-0.009015442842825,-0.131050646139807,0.002060899772807088
1592334755.1770446,-0.38657319496577613,9.66406933097814,-0.2567873702804151,-1.3466666666666667,-1.2955555555555556,-1.6577777777777778,0.0005570968425511819,-0.1575235278290019,-0.010538114203260639
1592334755.1870446,-0.14139237794784915,9.807622441627233,-0.11385250530661525,-1.3466666666666667,-1.2955555555555556,-1.6577777777777778,0.012017152365782312,-0.1870507665789334,-0.01854412330243975
1592334755.1970446,-0.06806998359759431,9.826978312374704,-0.1805066520867505,-1.3340611141485936,-1.3123629589129864,-1.6594585181135209,0.03564016725009471,-0.19974111605428088,-0.017306576077901672
1592334755.2070446,-0.18,9.97,-0.28,-1.3133333333333332,-1.34,-1.6622222222222223,0.04581489286485115,-0.19634954084936207,-0.015271630954950384
1592334755.2170446,0.2748269040553907,9.379272447521705,-0.17710737443675129,-1.3133333333333332,-1.34,-1.6622222222222223,0.13293905233907874,-0.14429069374286208,0.015219361230676458
1592334755.2270446,0.3064782577718669,9.34439831856936,-0.18164936946350962,-1.3133333333333332,-1.34,-1.6622222222222223,0.26627301936886905,-0.07437905349399535,0.017728830463815626
1592334755.2370446,0.14229831991810354,9.535060920532327,-0.17017121981573297,-1.3133333333333332,-1.34,-1.6622222222222223,0.3811025864052463,-0.012361909526275146,0.007297108129386356
1592334755.2470446,-0.0641432046113351,9.760267550728017,-0.33247292839769427,-1.3175303294498308,-1.3620342296116128,-1.6401879926106095,0.4530568100348813,0.04917494098334088,-0.005665538040393498
1592334755.2570446,-0.2849233154735404,9.86199717518461,-0.5717556841733576,-1.3222222222222222,-1.3866666666666667,-1.6155555555555556,0.4644816319826826,0.07924203959797965,-0.011999138607461015
1592334755.2670445,-0.6133223820562814,10.126004267927598,-0.6103908684772096,-1.3222222222222222,-1.3866666666666667,-1.6155555555555556,0.4118010715751007,0.09469500398420368,-0.011999138607461015
1592334755.2770445,-0.674655737704918,10.084426229508196,-0.524655737704918,-1.3222222222222222,-1.3866666666666667,-1.6155555555555556,0.3746663970910286,0.09651885353190773,-0.023490415014546632
1592334755.2870445,-0.49632634070357856,9.914333744664495,-0.4980074039609168,-1.3222222222222222,-1.3866666666666667,-1.6155555555555556,0.36008283747865605,0.08628431107204565,-0.029706464748024124
1592334755.2970445,-0.4416836751653758,9.896842402685902,-0.6741043114051125,-1.3263391284113952,-1.3990173852341854,-1.581591079494879,0.34593125751173065,0.05950222110568276,-0.03250663403199806
1592334755.3070445,-0.49,9.87,-0.76,-1.3311111111111111,-1.4133333333333333,-1.5422222222222222,0.3359758810089084,0.03490658503988659,-0.04363323129985824
1592334755.3170445,-0.38296535335259646,10.244483270773136,-1.0569201479841215,-1.3311111111111111,-1.4133333333333333,-1.5422222222222222,0.21981361115006162,-0.01580327508993178,-0.02107936003100656
1592334755.3270445,-0.15967329445654466,10.419128785217453,-1.1836750275182089,-1.3311111111111111,-1.4133333333333333,-1.5422222222222222,0.04212266352688386,-0.04038845743287213,-0.0010314340385608987
1592334755.3370445,-0.09092037082017651,10.556566674763177,-1.0794125981701885,-1.3311111111111111,-1.4133333333333333,-1.5422222222222222,-0.15706541328381465,-0.05210425963478411,0.007969043923945852
1592334755.3470445,-0.23709608793286843,10.623325257061813,-1.2214206358586455,-1.3254731513217508,-1.4324156587742454,-1.5153334909191192,-0.3546954706504308,-0.05568516451852742,0.0012245255610626809
1592334755.3570445,-0.42,9.91,-0.88,-1.3166666666666667,-1.4622222222222223,-1.4733333333333334,-0.4810563750809371,-0.05235987755982988,0.006544984694978735
1592334755.3670444,0.16773162939297126,9.508785942492013,-0.15964856230031949,-1.3166666666666667,-1.4622222222222223,-1.4733333333333334,-0.5365284311991354,-0.06635596836655758,0.030818583417304025
1592334755.3770444,0.19728637689475448,9.508960933390714,-0.29083297470472913,-1.3166666666666667,-1.4622222222222223,-1.4733333333333334,-0.4576936725365415,-0.036815186826446515,0.011839892857020539
1592334755.3870444,0.02316125545458185,9.700351895592297,-0.11262760719003964,-1.3166666666666667,-1.4622222222222223,-1.4733333333333334,-0.38018236727020754,-0.02340519611251263,0.007463712346292258
1592334755.3970444,0.2124204219198602,9.710732742479092,0.04799400823867182,-1.3044551242042193,-1.4609589592088656,-1.4699646319643824,-0.2897443182908006,-0.030921941276536972,0.012377817974097222
1592334755.4070444,0.2,9.63,-0.07,-1.2844444444444445,-1.458888888888889,-1.4644444444444444,-0.2247111411942699,-0.02617993877991494,0.007635815477475192
1592334755.4170444,-0.21966357115053103,9.62674192292721,-0.14247233498303954,-1.2844444444444445,-1.458888888888889,-1.4644444444444444,-0.17612631579024743,-0.03702692035669489,0.0033460110545118723
1592334755.4270444,0.09,9.46,0.06,-1.2844444444444445,-1.458888888888889,-1.4644444444444444,-0.15598880189699318,-0.05781403147231216,0.01308996938995747
1592334755.4370444,-0.059683326633614725,9.1526901603466,0.12689847693063555,-1.2844444444444445,-1.458888888888889,-1.4644444444444444,0.05660602493243914,-0.03700883018719808,0.008951009820353807
1592334755.4470444,0.03773203388286729,9.214103288095455,0.03014421471293681,-1.2968338882648018,-1.456953038291958,-1.4477961293108392,0.261693573537071,-0.02442785993586691,-0.0002811446856912415
1592334755.4570444,-0.06,8.96,0.18,-1.32,-1.4533333333333334,-1.4166666666666667,0.3981532356112064,-0.0272707695624114,0.0032724923474893677
1592334755.4670444,-0.06278447121820616,9.554203480589022,-0.44255689424364125,-1.32,-1.4533333333333334,-1.4166666666666667,0.6363164961740939,0.016796165542535792,0.011490960411599211
1592334755.4770443,-0.14160028568027616,9.764327341983098,-0.7689825020830854,-1.32,-1.4533333333333334,-1.4166666666666667,0.7218364755842815,0.046600301415876566,-0.0032804388828885796
1592334755.4870443,-0.19630039430272794,9.752183954293072,-1.1657974571497545,-1.32,-1.4533333333333334,-1.4166666666666667,0.7145670630714998,0.056604084461293315,-0.015152514726427996
1592334755.4970443,-0.041793242853017616,9.859390701703726,-1.0307392434305516,-1.325452882856868,-1.4646026245708603,-1.3973998139057338,0.6161760689785207,0.05932223181496103,-0.01751377173167859
1592334755.5070443,-0.21,10.29,-0.95,-1.3366666666666667,-1.4877777777777779,-1.3577777777777778,0.5126904677733343,0.053450708342326333,-0.01090830782496456
1592334755.5170443,-0.29347528642470533,10.484026980245625,-1.3377781135807896,-1.3366666666666667,-1.4877777777777779,-1.3577777777777778,0.2618893288156693,0.029558406280491306,-0.03889114290270231
1592334755.5270443,-0.36294028936330647,10.424272585890003,-1.2785941844573259,-1.3366666666666667,-1.4877777777777779,-1.3577777777777778,0.02074449745543533,-0.011058316978238732,-0.024624377789879585
1592334755.5370443,0.042764128986055,10.541669816387833,-1.2179717121884261,-1.3366666666666667,-1.4877777777777779,-1.3577777777777778,-0.17169163097561796,-0.06827983554115133,-0.013838115819926843
1592334755.5470443,-0.46020917803169925,10.623007740508662,-1.3397364541098413,-1.3309147315395011,-1.4826649465536308,-1.3392437645902444,-0.37134244040013153,-0.11115818981192507,-0.02695705016762966
1592334755.5570443,-1.08,10.68,-1.24,-1.3166666666666667,-1.47,-1.2933333333333332,-0.5454153912482279,-0.12980886311707826,-0.02617993877991494
1592334755.5670443,-0.54,9.3898957405564,-0.4463168648818568,-1.3166666666666667,-1.47,-1.2933333333333332,-0.786689878038093,-0.17830496969601864,0.028140628100944816
1592334755.5770442,-0.48828196347031966,9.139349315068493,-0.0022602739726027415,-1.3166666666666667,-1.47,-1.2933333333333332,-0.8039659462716544,-0.15293920762035643,0.006967121264917433
1592334755.5870442,-0.21190329031085256,9.027891292492274,0.3520359934557354,-1.3166666666666667,-1.47,-1.2933333333333332,-0.7314715426977338,-0.15272424142212696,0.01640212110056251
1592334755.5970442,0.046313053523296094,8.496499807470157,0.9187187139006546,-1.3228020579300903,-1.4693541693406922,-1.2920416720147179,-0.5011860253361025,-0.1311213673479623,0.02093034189133554
1592334755.6070442,-0.28,8.61,0.94,-1.3377777777777777,-1.4677777777777778,-1.288888888888889,-0.2574360646691636,-0.07308566242726255,0.00545415391248228
1592334755.6170442,-0.20321414986686953,8.952506656523394,0.6282274629136554,-1.3377777777777777,-1.4677777777777778,-1.288888888888889,0.1697974167473097,-0.01652262175343909,0.0049570769716565845
1592334755.6270442,0.20129354884580747,9.2812314547092,0.2983270133194293,-1.3377777777777777,-1.4677777777777778,-1.288888888888889,0.4817381895623036,0.007629042057912837,0.005739749202197365
1592334755.6370442,0.34717223650385604,9.506349614395885,-0.10041131105398457,-1.3377777777777777,-1.4677777777777778,-1.288888888888889,0.6551546504827173,0.05513883207256508,0.004270784785969415
1592334755.6470442,0.48924326946398256,9.246255154014067,-0.285697307785593,-1.3383178376047646,-1.4621071495944162,-1.279707871830113,0.7713649944587158,0.11042154852096492,0.007992194100813229
1592334755.6570442,0.3,9.11,-0.21,-1.34,-1.4444444444444444,-1.251111111111111,0.8737554567796613,0.17235126363444003,-0.001090830782496456
1592334755.6670442,0.090727942371229,9.667181118994746,-0.7106361371391432,-1.34,-1.4444444444444444,-1.251111111111111,0.9994488752560546,0.27537521793437364,-0.02223308459786919
1592334755.6770442,-0.3573956971353857,10.48458409604184,-1.062361583263996,-1.34,-1.4444444444444444,-1.251111111111111,0.9984888513977077,0.31366308192400283,-0.040516019939545594
1592334755.6870441,-0.3480759351420774,11.074037967571039,-1.564408412265211,-1.34,-1.4444444444444444,-1.251111111111111,0.8831708552418416,0.29973802359648405,-0.037528720537400646
1592334755.6970441,-0.7215028976592094,11.221466960209797,-1.9796422443099038,-1.34339495580665,-1.446869412877766,-1.2321963573312036,0.643800791218893,0.263163394225205,-0.04432597082777186
1592334755.7070441,-1.3,11.37,-2.05,-1.3555555555555556,-1.4555555555555555,-1.1644444444444444,0.31634092692397225,0.20943951023931953,-0.0272707695624114
1592334755.717044,-0.45465931944332716,10.80037165151637,-1.5852167967178827,-1.3555555555555556,-1.4555555555555555,-1.1644444444444444,-0.19645726963953541,0.09574348694946837,-0.01826747413125879
1592334755.727044,-0.8834874520365118,10.020554827331441,-1.1669055506565933,-1.3555555555555556,-1.4555555555555555,-1.1644444444444444,-0.5179554895820329,0.04113671352745298,-0.010938568961569957
1592334755.737044,-0.8739839487625524,9.462854431881079,-0.6073345457420731,-1.3555555555555556,-1.4555555555555555,-1.1644444444444444,-0.7055123393265222,-0.009506106826226133,0.017375449965882802
1592334755.747044,-1.073462469733656,9.350847457627118,0.21292978208232446,-1.3539332795265,-1.4530320150659133,-1.1601183750336292,-0.7626359849869048,-0.02774090970595709,0.017775523404845395
1592334755.757044,-0.42,9.82,-0.34,-1.3455555555555556,-1.44,-1.1377777777777778,-0.7352199474026113,-0.007635815477475192,-0.008726646259971648
1592334755.767044,-0.2809250920998772,8.917223905034794,-0.021281211625051172,-1.3455555555555556,-1.44,-1.1377777777777778,-0.6144483248526289,-0.10007691497377433,7.76932280615629e-06
1592334755.777044,-0.74,9.69,0.17,-1.3455555555555556,-1.44,-1.1377777777777778,-0.5159629601208237,-0.14180800172453928,-0.014180800172453926
1592334755.787044,-0.050325566717509075,9.511610477042023,-0.23247094093514964,-1.3455555555555556,-1.44,-1.1377777777777778,-0.3784821366047443,-0.23601836273252003,-0.010357183831030885
1592334755.797044,-0.5169010766059099,9.187330082790668,0.1022526915147747,-1.342973119393814,-1.4401721624107828,-1.140704538761085,-0.21327888905746656,-0.2582200535587205,-0.028314803029686385
1592334755.807044,-0.5,9.5,0.06,-1.3288888888888888,-1.441111111111111,-1.1566666666666667,-0.13308135546456762,-0.28034351110158917,0.007635815477475192
1592334755.817044,0.3668187422934649,9.370969173859432,0.17566707768187426,-1.3288888888888888,-1.441111111111111,-1.1566666666666667,0.03694271283093854,-0.253044136934195,0.026141380848433357
1592334755.827044,-0.31337710357904713,9.847729793789997,-0.3622076321403176,-1.3288888888888888,-1.441111111111111,-1.1566666666666667,0.16660649730206537,-0.18978340660282889,0.017120380996942006
1592334755.837044,-0.08565699504722182,9.617651340458384,-0.5140843375909847,-1.3288888888888888,-1.441111111111111,-1.1566666666666667,0.20098909870398038,-0.16627409969252488,0.013323879766489265
1592334755.847044,0.24015226756012925,10.218749551274382,-0.8349982050975231,-1.331388988605693,-1.4347046055868,-1.1536977982529617,0.19796858982846824,-0.13914873457941537,0.0035963021433106056
1592334755.857044,-0.37,10.15,-0.56,-1.3466666666666667,-1.3955555555555557,-1.1355555555555557,0.17453292519943295,-0.08290313946973066,-0.001090830782496456
1592334755.867044,0.11528242274793866,9.605720120212684,-0.27273792093704247,-1.3466666666666667,-1.3955555555555557,-1.1355555555555557,0.10185805802793524,-0.0865303598670108,-0.006816998905671387
1592334755.877044,-0.4004892740649032,9.796271279255256,-0.38917716244851314,-1.3466666666666667,-1.3955555555555557,-1.1355555555555557,0.08866861426956764,-0.08093737934267714,-0.01099240368158044
1592334755.887044,-0.5392959405762664,9.455228529781753,-0.37079870609612425,-1.3466666666666667,-1.3955555555555557,-1.1355555555555557,0.12897940829332777,-0.075126311662512,0.0017855680808432734
1592334755.897044,-0.07811546075739191,9.830803691168018,-0.599662813717351,-1.3461596100219255,-1.3955555555555557,-1.1345414422660736,0.20250605770740412,-0.07633649002136049,0.00452455487186513
1592334755.907044,-0.84,10.07,-0.83,-1.3422222222222222,-1.3955555555555557,-1.1266666666666667,0.26725354171163174,-0.03381575425739013,-0.019634954084936207
1592334755.917044,-0.07993223742000252,9.90286359643619,-0.7428523026728573,-1.3422222222222222,-1.3955555555555557,-1.1266666666666667,0.20430511799177786,-0.029063816672452947,0.002339078480524462
1592334755.927044,-0.48972343179945865,9.744894904083795,-0.8400553136401083,-1.3422222222222222,-1.3955555555555557,-1.1266666666666667,0.08285607596909947,-0.02045398223912838,-0.010086866157919505
1592334755.937044,0.07142323210872797,9.395712465491613,-0.7628507114036951,-1.3422222222222222,-1.3955555555555557,-1.1266666666666667,-0.05407430495869509,-0.023374958576242597,0.00031170564895460404
1592334755.947044,-0.5680037520252409,9.223238679969302,0.022219664023194342,-1.3440959608879792,-1.3947748311114903,-1.1207331608917692,-0.07057508659204643,-0.028155005719860984,0.005914038570848655
1592334755.957044,-0.25,9.61,-0.27,-1.3555555555555556,-1.39,-1.0844444444444445,0.038179077387375956,-0.04690572364734761,0.008726646259971648
1592334755.9670439,-0.4478506128189673,9.556523508137431,-0.4033991360257183,-1.3555555555555556,-1.39,-1.0844444444444445,0.14665290571384604,-0.03143382212227343,0.003340655572997987
1592334755.9770439,0.18898727145375938,9.773596116223462,-0.9841245803444194,-1.3555555555555556,-1.39,-1.0844444444444445,0.23821786205918158,-0.02184109169748459,-0.013394642171369181
1592334755.9870439,-1.0,10.26,-0.49,-1.3555555555555556,-1.39,-1.0844444444444445,0.2617993877991494,0.007635815477475192,-0.02181661564992912
1592334755.9970438,-0.29693738176921347,9.863062618230785,-0.507658789957998,-1.355835853808857,-1.389649627183373,-1.0838838479378414,0.22228350146731934,-0.011841751755646784,0.00824507746827606
1592334756.0070438,-0.4,9.76,-0.77,-1.36,-1.3844444444444444,-1.0755555555555556,0.1538071403320003,0.022907446432425576,0.001090830782496456
1592334756.0170438,1.2721311809339513,9.574516983245914,-0.9197728777308144,-1.36,-1.3844444444444444,-1.0755555555555556,0.12890706819305486,0.007545935953816829,0.02682142749388699
1592334756.0270438,-0.7856913175643583,9.984003989740666,-0.363772442291251,-1.36,-1.3844444444444444,-1.0755555555555556,0.130054318177023,0.047913527150992036,0.0005732120434192795
1592334756.0370438,1.2212954831812455,10.168222671910199,-1.1789473483257606,-1.36,-1.3844444444444444,-1.0755555555555556,0.1250834013267203,-0.004655241458973555,0.019854444681849506
1592334756.0470438,-2.061631858271925,10.160215532052996,-0.13801916688938953,-1.36,-1.3844444444444444,-1.0755555555555556,0.09888009741874684,0.013687071276607862,-0.003728528835326598
1592334756.0570438,0.21335355450236976,10.010491943127962,-1.2179694312796208,-1.3488888888888888,-1.3811111111111112,-1.0466666666666666,-0.028772859059351417,-0.014927734918686571,-0.007173634093801336
1592334756.0670438,2.2177554972956375,9.712107040789816,-1.8022152152861428,-1.3488888888888888,-1.3811111111111112,-1.0466666666666666,-0.15116739115717276,-0.002917281218311099,0.011261921573276136
1592334756.0770438,0.9861631177179591,9.930104932290313,-0.7440020797390873,-1.3488888888888888,-1.3811111111111112,-1.0466666666666666,-0.20175076834215144,0.04670489714495715,-0.031739945531783
1592334756.0870438,0.6859286222995964,9.13668117432935,-1.0957474084038934,-1.3488888888888888,-1.3811111111111112,-1.0466666666666666,-0.23944913949135901,-0.024600707224500463,0.035341208209141134
1592334756.0970438,-2.3759070586373348,9.759005499723035,0.20698484608688772,-1.3488888888888888,-1.3811111111111112,-1.0466666666666666,-0.2249669948335292,0.12927207976494137,-0.03797464912112232
1592334756.1070437,-0.18,9.47,-0.83,-1.3688888888888888,-1.3811111111111112,-1.0466666666666666,-0.15707963267948966,-0.038179077387375956,0.04363323129985824
1592334756.1170437,-0.8491302814240005,9.543705122067975,-0.3136484341538384,-1.3688888888888888,-1.3811111111111112,-1.0466666666666666,-0.2206344390672988,0.07432289555735314,0.00954734588524965
1592334756.1270437,0.37778408150722176,9.696376379925775,-0.6661586648701038,-1.3688888888888888,-1.3811111111111112,-1.0466666666666666,-0.16462045204314982,0.03931740622677992,0.0005572899054751059
1592334756.1370437,-0.4645993905346297,9.608718464313108,-0.49466800721407994,-1.3688888888888888,-1.3811111111111112,-1.0466666666666666,-0.13717257579794118,0.04909487013095421,0.0015700917042450388
1592334756.1470437,-0.19309420505200595,9.482279940564636,-0.159837147102526,-1.368762225524187,-1.3807854053161632,-1.0470466567607726,-0.10173869126354168,0.04199170116125332,-0.00835359185744656
1592334756.1570437,-0.38,9.62,-0.15,-1.3611111111111112,-1.3611111111111112,-1.07,-0.053450708342326333,0.008726646259971648,0.014180800172453926
1592334756.1670437,-0.20720046431815886,9.658133642878774,-0.3098617139396387,-1.3611111111111112,-1.3611111111111112,-1.07,0.025102926435210282,-0.014413291259285588,0.02014392403467779
1592334756.1770437,-0.1685583807054682,9.631418785529101,-0.5985697975881835,-1.3611111111111112,-1.3611111111111112,-1.07,0.07231183496281052,-0.028830878378421482,0.02477708623421647
1592334756.1870437,-0.09177084575927473,9.585877967314804,-0.599404747703686,-1.3611111111111112,-1.3611111111111112,-1.07,0.10446002730839136,-0.038307314741085875,0.021753310249036296
1592334756.1970437,-0.03339854467374449,9.627572468090182,-0.666115948944292,-1.3611111111111112,-1.3611111111111112,-1.07,0.13356828004861887,-0.039216947639217986,0.01356661416584731
1592334756.2070436,-0.04,9.73,-0.79,-1.3433333333333333,-1.3555555555555556,-1.0522222222222222,0.17671458676442586,-0.022907446432425576,-0.001090830782496456
1592334756.2170436,-0.21760473840078973,9.897737808489635,-1.2932134254689043,-1.3433333333333333,-1.3555555555555556,-1.0522222222222222,0.19608825834090704,-0.0013811446807798188,-0.03768554376029424
1592334756.2270436,-0.2379882305291497,9.90743025278155,-1.5181571486431755,-1.3433333333333333,-1.3555555555555556,-1.0522222222222222,0.16027925223937461,-0.013650601263781443,-0.06995332804822918
1592334756.2370436,-0.35684893946219076,9.872143990285748,-1.338489394621908,-1.3433333333333333,-1.3555555555555556,-1.0522222222222222,0.10123227559725,-0.01928650523042442,-0.06838333338535808
1592334756.2470436,-0.3322050960653362,9.73249554437024,-1.092050960653362,-1.3433333333333333,-1.3555555555555556,-1.0522222222222222,0.04836382507717159,-0.03362371215112364,-0.048669673869396655
1592334756.2570436,-0.34,9.57,-1.07,-1.3555555555555556,-1.3611111111111112,-1.0444444444444445,0.014180800172453926,-0.04799655442984406,-0.011999138607461015
1592334756.2670436,-0.3801370806979549,9.733669923461227,-0.901239140600005,-1.3555555555555556,-1.3611111111111112,-1.0444444444444445,0.006004602916107592,-0.06505958762645038,0.003497676030790632
1592334756.2770436,0.0310338987038039,9.886835493660167,-1.3747258227669434,-1.3555555555555556,-1.3611111111111112,-1.0444444444444445,0.027668928315174698,-0.09306124291618045,0.013607760528991875
1592334756.2870436,-0.1293557067620036,9.828067120286011,-1.273557067620036,-1.3555555555555556,-1.3611111111111112,-1.0444444444444445,-0.005909515903299525,-0.05908203367125607,0.022696601963337344
1592334756.2970436,-0.11323184561565372,9.77969553684696,-1.1123184561565371,-1.3555555555555556,-1.3611111111111112,-1.0444444444444445,-0.044604004859801066,-0.03621710837877788,0.017420080741996222
1592334756.3070436,-0.2,9.74,-0.88,-1.3555555555555556,-1.3688888888888888,-1.031111111111111,-0.08508480103472357,-0.01090830782496456,0.019634954084936207
1592334756.3170435,-0.17805242718446604,9.70342071197411,-0.7629462783171521,-1.3555555555555556,-1.3688888888888888,-1.031111111111111,-0.09226712744320363,-0.006120090219311184,0.014846736479282831
1592334756.3270435,-0.18,9.67267206187782,-0.7680161856334599,-1.3555555555555556,-1.3688888888888888,-1.031111111111111,-0.08580907892518583,-0.002981015612583239,0.011102625648235312
1592334756.3370435,-0.16770879421972357,9.703841001806335,-0.8615230054190092,-1.3555555555555556,-1.3688888888888888,-1.031111111111111,-0.06922804765987915,0.0007541789410757194,0.013257564710196519
1592334756.3470435,-0.031505347973452946,9.746404578758296,-0.9892137362748878,-1.3555555555555556,-1.3688888888888888,-1.031111111111111,-0.05065618367893748,0.00911151773249947,0.015114751108290688
1592334756.3570435,-0.2,9.87,-1.32,-1.3555555555555556,-1.3511111111111112,-1.0377777777777777,-0.04581489286485115,0.031634092692397225,0.008726646259971648
1592334756.3670435,-0.21952770501712673,9.850472294982874,-1.271180737457183,-1.3555555555555556,-1.3511111111111112,-1.0377777777777777,-0.07670195439393002,0.06784650965752417,0.0002060775622947167
1592334756.3770435,-0.2894665244697239,9.847866097878896,-1.3246652446972391,-1.3555555555555556,-1.3511111111111112,-1.0377777777777777,-0.13868157393259214,0.07515093768622871,0.004945254660119613
1592334756.3870435,-0.2827690267938418,9.806439822693633,-1.2125946887244232,-1.3555555555555556,-1.3511111111111112,-1.0377777777777777,-0.18162680064395298,0.07213634996134596,0.015357932088215528
1592334756.3970435,-0.34086872204852176,9.731740214509044,-0.8473966042664345,-1.3555555555555556,-1.3511111111111112,-1.0377777777777777,-0.21603142306429288,0.052217884349570226,0.01716870168928605
1592334756.4070435,-0.21,9.71,-0.7,-1.3455555555555556,-1.39,-1.058888888888889,-0.24652775684419903,0.009817477042468103,0.022907446432425576
1592334756.4170434,-0.24435994981585657,9.735769962361893,-0.7171799749079283,-1.3455555555555556,-1.39,-1.058888888888889,-0.24465371229699057,-0.015482124344846498,0.027592557800446796
1592334756.4270434,-0.020715304860648723,9.740715304860649,-0.8482117378483782,-1.3455555555555556,-1.39,-1.058888888888889,-0.23760604144401112,-0.030309178941641278,0.021660560337756127
1592334756.4370434,-0.04282773744149191,9.76179946928095,-0.8012853352006781,-1.3455555555555556,-1.39,-1.058888888888889,-0.23226283167958156,-0.023072902301122886,0.0173130841996707
1592334756.4470434,-0.127848376515682,9.81590351232816,-0.8399310802344009,-1.3455555555555556,-1.39,-1.058888888888889,-0.2297334735818639,0.0047500367737713725,0.013097487370141263
1592334756.4570434,0.0,9.82,-0.7,-1.3455555555555556,-1.3511111111111112,-1.0522222222222222,-0.27598018797160334,0.0839939702522271,0.011999138607461015
1592334756.4670434,-0.12416063856323273,9.649279121975555,-0.33527812422050385,-1.3455555555555556,-1.3511111111111112,-1.0522222222222222,-0.27598018797160334,0.0839939702522271,0.011999138607461015
1592334756.4770434,-0.08513949484706271,9.294590477088885,0.09405042096078108,-1.3455555555555556,-1.3511111111111112,-1.0522222222222222,-0.2741539474402866,0.11904685519212213,0.008844468229734018
1592334756.4870434,0.08363332542319253,9.459729077677583,0.24108368928966933,-1.3455555555555556,-1.3511111111111112,-1.0522222222222222,-0.20514217451962594,0.16434866687641614,0.0128978746241346
1592334756.4970434,-0.306202341401677,9.4431403258978,0.30743869640879606,-1.3455555555555556,-1.3511111111111112,-1.0522222222222222,-0.008805770751946773,0.20868269353363403,0.0011357859191584285
1592334756.5070434,-0.05,9.42,0.11,-1.3644444444444443,-1.3577777777777778,-1.1033333333333333,0.14398966328953217,0.20289452554434081,0.011999138607461015
1592334756.5170434,0.031018599475399408,9.663055798426198,-0.28609093076861936,-1.3644444444444443,-1.3577777777777778,-1.1033333333333333,0.22058356791704684,0.19798465986308986,-0.0007665121637914253
1592334756.5270433,-0.5155542878874311,9.920158775432592,-0.8158746910058947,-1.3644444444444443,-1.3577777777777778,-1.1033333333333333,0.21849491991253647,0.14348708048177616,-0.008570768843533905
1592334756.5370433,-0.24157688406927758,9.929789748790762,-1.179369246372289,-1.3644444444444443,-1.3577777777777778,-1.1033333333333333,0.17064119192599295,0.044058951458185475,0.001010558810613964
1592334756.5470433,-0.3642842097051022,9.91342877203932,-1.1302863161179593,-1.3644444444444443,-1.3577777777777778,-1.1033333333333333,0.12245413783109829,-0.007697514051145805,-0.005235911164650156
1592334756.5570433,-0.22,9.88,-1.0,-1.3455555555555556,-1.3633333333333333,-1.0822222222222222,0.0643590161672909,-0.06544984694978735,-0.00545415391248228
1592334756.5670433,-0.09298974966308654,9.812261199820314,-0.8560550496181647,-1.3455555555555556,-1.3633333333333333,-1.0822222222222222,0.044038834855811615,-0.06267891313458564,-0.00637779851754952
1592334756.5770433,-0.15,9.76,-0.87,-1.3455555555555556,-1.3633333333333333,-1.0822222222222222,0.038179077387375956,-0.0545415391248228,-0.004363323129985824
1592334756.5870433,-0.20762171545806044,9.727073305452537,-0.8206099581788053,-1.3455555555555556,-1.3633333333333333,-1.0822222222222222,0.030995586991729763,-0.053643602825367016,-0.006159195728897372
1592334756.5970433,-0.2663282216176107,9.774049591887213,-0.8794923324264161,-1.3455555555555556,-1.3633333333333333,-1.0822222222222222,0.023556535266210103,-0.060188875040834006,-0.0031759013457249036
1592334756.6070433,-0.23258067487488104,9.856387055175166,-0.947419325125119,-1.3455555555555556,-1.3696559100166825,-1.095921138369479,-0.0009430265440133305,-0.0735571756992692,0.0029909843881758265
1592334756.6170433,-0.0236491433592034,9.86,-0.9106950749255626,-1.3455555555555556,-1.37,-1.0966666666666667,-0.03540980375055062,-0.07310461765538619,0.009703745673726344
1592334756.6270432,-0.3541174795768633,9.661335552684028,-0.7745469677391095,-1.3455555555555556,-1.37,-1.0966666666666667,-0.05175809178746729,-0.06619036669253818,-0.003973114426980619
1592334756.6370432,-0.21352941176470588,9.842941176470587,-0.7776470588235295,-1.3455555555555556,-1.37,-1.0966666666666667,-0.054413206091587916,-0.07988731318871103,-0.0016041629154359641
1592334756.6470432,-0.007094787293036503,9.87,-0.7726837914917215,-1.3455555555555556,-1.37,-1.0966666666666667,-0.05374346457962352,-0.0706392650544444,0.0005053183079020856
1592334756.6570432,-0.1257795226779626,9.61577539001963,-0.5353311292488894,-1.3553334251701852,-1.3776050097002674,-1.0684194877799589,-0.05985030904005119,-0.023876673080784866,0.0021574308987839298
1592334756.6670432,-0.11178833020770673,9.676776122571741,-0.596776122571742,-1.3555555555555556,-1.3777777777777778,-1.0677777777777777,-0.04675179303057552,-0.010325741426032497,-0.0017915084370259547
1592334756.6770432,-0.1,9.830597550209667,-0.784627565658795,-1.3555555555555556,-1.3777777777777778,-1.0677777777777777,-0.02147463261604339,0.01730685733489508,-0.0052913478395042995
1592334756.6870432,-0.06595564253098499,9.807444553163732,-0.8525554468362687,-1.3555555555555556,-1.3777777777777778,-1.0677777777777777,-0.030613529059132026,0.048578259690568684,0.002901588534458527
1592334756.6970432,-0.17756156389807431,9.827661544446606,-0.81159229721844,-1.3555555555555556,-1.3777777777777778,-1.0677777777777777,-0.04856630716611317,0.06929209203354583,0.00813508115170475
1592334756.7070432,-0.16475079732349446,9.758438496654367,-0.6921261959852417,-1.3519305998513054,-1.364184193886839,-1.0913399898554048,-0.07164693364021779,0.08347573865604016,0.02049385286440046
1592334756.7170432,-0.23413117049830784,9.681108180651185,-0.6111081806511844,-1.3511111111111112,-1.3611111111111112,-1.0966666666666667,-0.06150139341020368,0.08324934362378333,0.02657836125430605
1592334756.7270432,-0.17445941104821955,9.72036039263452,-0.6503603926345203,-1.3511111111111112,-1.3611111111111112,-1.0966666666666667,-0.040593306753361105,0.0737473617190069,0.02452403623719427
1592334756.7370431,-0.13391665020738694,9.738694449930872,-0.651305550069129,-1.3511111111111112,-1.3611111111111112,-1.0966666666666667,-0.03234615979414535,0.061562240661150965,0.015462520955600563
1592334756.7470431,-0.2011885803068557,9.704405709846572,-0.550335987570402,-1.3511111111111112,-1.3611111111111112,-1.0966666666666667,-0.029304451849569046,0.05378331745642995,0.008744971539188184
1592334756.7570431,-0.30130601431711856,9.65434699284144,-0.4590671326306296,-1.3607317638364367,-1.3582815073683683,-1.0893096969355354,-0.018916546618463707,0.042379584446562465,0.004878210507959181
1592334756.767043,-0.3816083608360836,9.672237623762376,-0.5028668866886689,-1.37,-1.3555555555555556,-1.0822222222222222,0.009176658959021342,0.008490239588737541,0.004538768080921997
