time,acc_x,acc_y,acc_z,mag_x,mag_y,mag_z,gyr_x,gyr_y,gyr_z
1592334770.47703,-0.16431498079385404,9.7855185659411,-0.5224071702944942,-1.3688888888888888,-1.4,-1.1822222222222223,0.007033833317096226,0.006658118233240212,0.0004888486221174899
1592334770.48703,-0.10556277525088441,9.77,-0.5866883257526533,-1.3688888888888888,-1.4,-1.1822222222222223,0.008726646259971648,0.0018204139439322487,0.0024236746322524316
1592334770.49703,-0.09182520989248946,9.762699160430042,-0.5180974812901266,-1.3688888888888888,-1.4,-1.1822222222222223,0.009323944800545011,-0.002077895266342639,0.0024760942933915488
1592334770.50703,-0.09979219693803898,9.730831212247844,-0.42249363674353224,-1.3688888888888888,-1.4,-1.1822222222222223,0.011931135214455784,0.003136485561478907,-0.0010001595918228156
1592334770.51703,-0.10214643289283258,9.744292865785665,-0.43214643289283255,-1.3755555555555556,-1.4,-1.2033333333333334,0.01956054808480151,0.014026527418783345,-0.002181661564992912
1592334770.52703,-0.11206372549019608,9.757936274509804,-0.45650980392156865,-1.3755555555555556,-1.4,-1.2033333333333334,0.028171239678942788,0.01880399769474038,-0.002631896623258606
1592334770.53703,-0.13320196576529522,9.746228009781344,-0.503026044016049,-1.3755555555555556,-1.4,-1.2033333333333334,0.0328684736049328,0.024409737519100555,-0.00477478343416435
1592334770.54703,-0.18101815798604418,9.728503026331008,-0.42850302633100734,-1.3755555555555556,-1.4,-1.2033333333333334,0.03932213885848264,0.025690055292297793,-0.006544984694978735
1592334770.55703,-0.1325085778171865,9.720418096302865,-0.4204180963028644,-1.3755555555555556,-1.4,-1.2033333333333334,0.04549564224280243,0.023044268127589314,-0.006544984694978735
1592334770.56703,-0.12,9.72,-0.38,-1.39,-1.3877777777777778,-1.218888888888889,0.061086523819801536,0.019634954084936207,-0.002181661564992912
1592334770.57703,-0.14,9.690370822482638,-0.3070456271701389,-1.39,-1.3877777777777778,-1.218888888888889,0.07389467158507107,0.023028797806096853,-0.0031915914317085163
1592334770.58703,-0.14608414544939713,9.706084145449397,-0.49,-1.39,-1.3877777777777778,-1.218888888888889,0.09838658397642042,0.026345858108449645,-0.0014226694395658608
1592334770.59703,-0.18468615984405456,9.741171539961014,-0.48882846003898633,-1.39,-1.3877777777777778,-1.218888888888889,0.11985444747345465,0.02663179363621221,-0.0032724923474893677
1592334770.60703,-0.21739025341130605,9.749347563352826,-0.4806524366471735,-1.39,-1.3877777777777778,-1.218888888888889,0.13412430026417554,0.02217246463911193,-0.0032724923474893677
1592334770.61703,-0.17401587051105752,9.747322752992629,-0.5253544940147433,-1.39,-1.4077777777777778,-1.21,0.14603395970312344,0.012797927045158718,0.0013828731272952095
1592334770.62703,-0.20087854523684803,9.737028361894785,-0.5679069071316322,-1.39,-1.4077777777777778,-1.21,0.16012380401383508,0.011291645500232341,0.0036558300227571487
1592334770.63703,-0.21641083736793149,9.802306995158483,-0.65,-1.39,-1.4077777777777778,-1.21,0.16879904573724994,0.014712179855548924,0.008614854901427747
1592334770.6470299,-0.24408276568098594,9.748938851045398,-0.6436331062723943,-1.39,-1.4077777777777778,-1.21,0.16666560293305924,0.010329540852718241,0.015618891138298174
1592334770.6570299,-0.1202206953577194,9.740681379690514,-0.5940882781430877,-1.39,-1.4077777777777778,-1.21,0.1648641021451611,0.005825788882972911,0.01832114232014537
1592334770.6670299,-0.18,9.65,-0.48,-1.3755555555555556,-1.4,-1.1955555555555555,0.16907877128695067,0.008726646259971648,0.0272707695624114
1592334770.6770298,-0.14260810277389027,9.668695948613054,-0.4519560770804177,-1.3755555555555556,-1.4,-1.1955555555555555,0.18335465266551518,0.017903998574763123,0.03236929862618444
1592334770.6870298,-0.17084127915505354,9.879636692582269,-0.686749547699379,-1.3755555555555556,-1.4,-1.1955555555555555,0.21070137172467038,0.03033260051556945,0.03573461579962816
1592334770.6970298,-0.2452312271519607,10.00603308096446,-0.582846840727941,-1.3755555555555556,-1.4,-1.1955555555555555,0.19891348021489708,0.04537430260952652,0.03420589857369322
1592334770.7070298,-0.2117163746778801,10.399832597534909,-0.5325745620168202,-1.3755555555555556,-1.4,-1.1955555555555555,0.1632684232840813,0.04994418170322083,0.03694782602990982
1592334770.7170298,-0.23030254851531448,10.023096095393967,-0.7388791208791208,-1.3688888888888888,-1.4266666666666667,-1.1822222222222223,0.014041086096547556,0.0482178321448064,0.034679492281239205
1592334770.7270298,-0.04,9.99,-0.35,-1.3688888888888888,-1.4266666666666667,-1.1822222222222223,-0.10690141668465267,0.028361600344907853,0.028361600344907853
1592334770.7370298,0.028558314699305636,9.794119100859126,-0.5654689890549605,-1.3688888888888888,-1.4266666666666667,-1.1822222222222223,-0.13254216642296646,0.016609590048180706,0.021951412910329413
1592334770.7470298,0.08329767919166403,9.748793811177771,-0.4303208872750237,-1.3688888888888888,-1.4266666666666667,-1.1822222222222223,-0.17971226174198016,0.013329783388161815,0.012741916183227862
1592334770.7570298,0.10812973634354278,9.815012630249448,-0.20683237290811496,-1.3688888888888888,-1.4266666666666667,-1.1822222222222223,-0.20228523868696402,0.015135621543760525,0.001906887249635619
1592334770.7670298,0.0,9.89,-0.24,-1.3633333333333333,-1.4222222222222223,-1.1766666666666667,-0.19962203319685143,0.020725784867432664,-0.014180800172453926
1592334770.7770298,-0.028867818461192515,9.620567027695536,-0.36509387999850096,-1.3633333333333333,-1.4222222222222223,-1.1766666666666667,-0.20696967769708205,0.03752040086795974,-0.02887608917291512
1592334770.7870297,0.009126969019178604,9.667089896730594,-0.19650787607671444,-1.3633333333333333,-1.4222222222222223,-1.1766666666666667,-0.236753548609479,0.025343062415539297,-0.04167377985072104
1592334770.7970297,-0.022716387680943587,9.571358193840473,-0.08158455948055043,-1.3633333333333333,-1.4222222222222223,-1.1766666666666667,-0.20084068098948493,0.034186144169836064,-0.0491614631948297
1592334770.8070297,-0.12265800917376542,9.621329004586883,-0.13988383868469648,-1.3633333333333333,-1.4222222222222223,-1.1766666666666667,-0.1654093769069666,0.04781356881695849,-0.051886948124254186
1592334770.8170297,-0.08369576220494179,9.611087286614826,-0.005081673031794966,-1.3755555555555556,-1.4266666666666667,-1.2266666666666666,-0.12728920613086733,0.0545415391248228,-0.06055001757427148
1592334770.8270297,-0.16150495285833633,9.839189640768588,-0.11358873373910967,-1.3755555555555556,-1.4266666666666667,-1.2266666666666666,-0.07510315910184755,0.05466781980975197,-0.07196957550778024
1592334770.8370297,-0.2893102288021534,9.771241588156123,-0.41241251682368774,-1.3755555555555556,-1.4266666666666667,-1.2266666666666666,-0.061252057024009446,0.06593139808930126,-0.06945200672513775
1592334770.8470297,-0.24076836881703217,9.868452056987353,0.12462141828077478,-1.3755555555555556,-1.4266666666666667,-1.2266666666666666,-0.07233131810512639,0.10102696027601721,-0.041202566261863895
1592334770.8570297,-0.24916099727869379,9.960770970065632,0.06587301904914358,-1.3755555555555556,-1.4266666666666667,-1.2266666666666666,-0.06409187438029366,0.1083509102536463,-0.014653247592958482
1592334770.8670297,-0.31,9.58,0.16,-1.3955555555555557,-1.4344444444444444,-1.248888888888889,-0.1090830782496456,0.12326387842209952,0.0032724923474893677
1592334770.8770297,-0.24780963855421687,9.731033734939759,0.13334698795180724,-1.3955555555555557,-1.4344444444444444,-1.248888888888889,-0.0945461152554368,0.13780084141630833,0.02556250227194285
1592334770.8870296,-0.3920780886541012,9.72603904432705,0.028117132981151767,-1.3955555555555557,-1.4344444444444444,-1.248888888888889,-0.04388121098403758,0.13176384037480615,0.04883940552816118
1592334770.8970296,-0.3008956716450357,9.680447835822518,-0.10865649253244636,-1.3955555555555557,-1.4344444444444444,-1.248888888888889,-0.009068605430466628,0.14171029910439786,0.08365201108173212
1592334770.9070296,-0.12240704710183661,9.937509781702337,0.17414872463706144,-1.3955555555555557,-1.4344444444444444,-1.248888888888889,0.029049506396301515,0.1330904280346301,0.10433497552868187
1592334770.9170296,0.04,10.3,0.25,-1.3822222222222222,-1.44,-1.24,0.074176493209759,0.10253809355466686,0.11235557059713495
1592334770.9270296,-0.13705100034694115,10.565576500520413,-0.23197216761111755,-1.3822222222222222,-1.44,-1.24,0.074176493209759,0.10253809355466686,0.11235557059713495
1592334770.9370296,-0.16354640593524297,9.270201444504496,-0.29571807595931804,-1.3822222222222222,-1.44,-1.24,-0.4123292657772907,-0.03260647724930939,-0.03451973216374748
1592334770.9470296,-0.22527876188700355,8.388878737025298,0.5770818571694947,-1.3822222222222222,-1.44,-1.24,-0.25812877509894583,-0.08014226431937711,-0.022199820049374076
1592334770.9570296,0.13969233637889245,9.701036733171733,1.1245385045683385,-1.3822222222222222,-1.44,-1.24,0.05373323005720376,-0.039382184618117426,0.0204560773124093
1592334770.9670296,0.03,9.9,-0.16,-1.39,-1.44,-1.2477777777777779,0.05781403147231216,-0.05126904677733343,-0.004363323129985824
1592334770.9770296,-0.07385051235684147,9.415364275668074,-0.298467349809122,-1.39,-1.44,-1.2477777777777779,0.01061264161528247,-0.07770182509727006,-0.024187906869938294
1592334770.9870296,-0.08189599544505599,10.017583981780223,0.08210001897893338,-1.39,-1.44,-1.2477777777777779,0.07301454829293202,-0.06988211041960452,-0.004708024829142514
1592334770.9970295,-0.1357326853462931,10.225294494110118,-0.14090938181236376,-1.39,-1.44,-1.2477777777777779,-0.027908958256244898,-0.07292581528133843,-0.015247131385566902
1592334771.0070295,0.023647527049458994,9.302566948661028,0.572107357852843,-1.39,-1.44,-1.2477777777777779,0.029738310341296703,-0.10769718364176034,-0.014332095376082113
1592334771.0170295,-0.04,10.02,0.18,-1.3822222222222222,-1.48,-1.2922222222222222,0.22798363354175932,-0.07308566242726255,0.017453292519943295
1592334771.0270295,0.09150237769001368,9.66932699282663,-0.06547110502135894,-1.3822222222222222,-1.48,-1.2922222222222222,0.2126826371091468,-0.08456140975172191,-0.0035855775748988815
1592334771.0370295,-0.020406711830082695,9.772846982810579,-0.5390122712697992,-1.3822222222222222,-1.48,-1.2922222222222222,0.1961530656022242,-0.10797323373355516,-0.04152128675804328
1592334771.0470295,-0.08930327706842708,10.252614736925327,-0.3698606554136854,-1.3822222222222222,-1.48,-1.2922222222222222,0.16137857622461296,-0.10487175648378595,-0.05355710929721466
1592334771.0570295,-0.04785270980748706,9.813238723959364,-0.3615705419614974,-1.3822222222222222,-1.48,-1.2922222222222222,0.0926509330499497,-0.11391486742782059,-0.05988728695803892
1592334771.0670295,0.09,10.0,-0.05,-1.3955555555555557,-1.4822222222222223,-1.3133333333333332,0.08508480103472357,-0.1308996938995747,-0.06872233929727672
1592334771.0770295,0.009586901963908698,10.071478309365414,-0.19295661873082898,-1.3955555555555557,-1.4822222222222223,-1.3133333333333332,0.014911134911784599,-0.12700115689274477,-0.09308819558996387
1592334771.0870295,0.32,9.66,-0.08,-1.3955555555555557,-1.4822222222222223,-1.3133333333333332,0.039269908169872414,-0.0818123086872342,-0.07090400086226964
1592334771.0970294,0.1981145305804441,10.299898714452668,-0.5370705103233347,-1.3955555555555557,-1.4822222222222223,-1.3133333333333332,0.05256555036806061,0.017074030161790557,-0.020214364981677127
1592334771.1070294,-0.38816651823434045,9.780020095453404,-0.20546779018519784,-1.3955555555555557,-1.4822222222222223,-1.3133333333333332,0.002282347505548059,0.041749243408698594,9.904188511808149e-05
1592334771.1170294,-0.02,9.65,-0.31,-1.37,-1.508888888888889,-1.3488888888888888,0.01854412330243975,0.04799655442984406,0.011999138607461015
1592334771.1270294,-0.175282927420332,9.780764570459228,-0.3835550708833152,-1.37,-1.508888888888889,-1.3488888888888888,0.03904891349298715,0.05334563013172599,0.011107625990480693
1592334771.1370294,0.12,9.83,-0.39,-1.37,-1.508888888888889,-1.3488888888888888,0.039269908169872414,0.04145156973486533,0.00545415391248228
1592334771.1470294,0.12,9.948243357318006,-0.5166893114121478,-1.37,-1.508888888888889,-1.3488888888888888,-0.0012677613692783501,0.043294191077553994,0.00545415391248228
1592334771.1570294,-0.005229057844844259,9.704809053975623,-0.3558396208164055,-1.37,-1.508888888888889,-1.3488888888888888,-0.04086869594472115,0.027562206457483484,-0.010616870929892473
1592334771.1670294,-0.11354867653656348,10.06391911811831,-0.5351163237838877,-1.368991290848626,-1.513932434645759,-1.3488888888888888,-0.05929196281512926,0.0762829997987099,0.012356177177364848
1592334771.1770294,-0.166197053189225,9.601832414918526,0.0036040489085448213,-1.3688888888888888,-1.5144444444444445,-1.3488888888888888,-0.07209005328036892,0.07778085527287958,-0.011940679591943264
1592334771.1870294,-0.07320669832541865,9.674392083797231,-0.345972597759651,-1.3688888888888888,-1.5144444444444445,-1.3488888888888888,-0.04236999318912463,0.0985660081584682,-0.0007426948807685869
1592334771.1970294,-0.12084192806505917,9.768225336083647,-0.4260751120278825,-1.3688888888888888,-1.5144444444444445,-1.3488888888888888,-0.004046835558906586,0.12135773717211087,0.016260716039593955
1592334771.2070293,-0.059806135820550374,9.787019386417944,-0.44403877283588994,-1.3688888888888888,-1.5144444444444445,-1.3488888888888888,0.013341971228787492,0.1006181245899071,0.005527286578255523
1592334771.2170293,-0.07360917116879695,9.912105679272631,-0.45,-1.3747034450447286,-1.5309190202193235,-1.3934671527503257,-0.001435371747794123,0.10385861831402843,0.013319663366822583
1592334771.2270293,-0.23309854489530346,9.767895658346148,-0.35093623565598014,-1.3755555555555556,-1.5333333333333334,-1.4,-0.02892282394281122,0.10286344580461719,0.034919231605210696
1592334771.2370293,-0.1897149898455149,9.75,-0.3486121443077836,-1.3755555555555556,-1.5333333333333334,-1.4,-0.039149606383782794,0.09126482301758851,0.030512172124917126
1592334771.2470293,-0.18,9.67365126676602,-0.3245504222553403,-1.3755555555555556,-1.5333333333333334,-1.4,-0.058868194155976564,0.07926902380272516,0.0044673666025339225
1592334771.2570293,-0.18693802233851442,9.680814067015543,-0.1257353745215965,-1.3755555555555556,-1.5333333333333334,-1.4,-0.05233868376484855,0.06912395638709884,-0.024218266676798612
1592334771.2670293,-0.23285015011095156,9.71571009006657,-0.43422138102075447,-1.3546065932790903,-1.5276199799852064,-1.4571335334812687,-0.03864810187472008,0.08134221629349811,-0.03397173978437419
1592334771.2770293,-0.24,9.618979783943699,-0.49158164866197496,-1.3511111111111112,-1.5266666666666666,-1.4666666666666666,0.006071838248843678,0.10419656316248052,-0.0025935652142712352
1592334771.2870293,-0.31278151567308193,9.891126062692328,-0.68105147864184,-1.3511111111111112,-1.5266666666666666,-1.4666666666666666,0.07670225035564893,0.09806820775553088,0.05090788296325699
1592334771.2970293,-0.30749577592929556,10.045042240707044,-0.7166722987609392,-1.3511111111111112,-1.5266666666666666,-1.4666666666666666,0.06608048201907635,0.0902639433784058,0.08927768480862787
1592334771.3070292,-0.29386729919417726,10.181327008058227,-0.7348436010744303,-1.3511111111111112,-1.5266666666666666,-1.4666666666666666,0.04774530229159164,0.0828307624078039,0.12594804426359726
1592334771.3170292,-0.31830585131442574,9.757671095197715,-0.579600175884921,-1.376271867835045,-1.5402954098921309,-1.5086012612065565,-0.050088281298268186,0.03337690719897131,0.11576925185302811
1592334771.3270292,-0.19772366751269035,9.890889911167513,-0.3254473350253807,-1.3777777777777778,-1.541111111111111,-1.511111111111111,-0.11389958758194078,0.002462675078757866,0.08645664533098497
1592334771.3370292,-0.2179550549802498,9.566611241592826,-0.2427730329881499,-1.3777777777777778,-1.541111111111111,-1.511111111111111,-0.22100770838445236,-0.03707598975211365,0.02005363769449854
1592334771.3470292,-0.16732417950435363,9.554768443211177,0.09024016840493737,-1.3777777777777778,-1.541111111111111,-1.511111111111111,-0.20683872791965108,-0.07942857570372505,-0.04355839389950899
1592334771.3570292,-0.29343896759935284,9.515520344133549,-0.06274517542128735,-1.3777777777777778,-1.541111111111111,-1.511111111111111,-0.174873489638453,-0.08075931839796219,-0.06149949748476417
1592334771.3670292,-0.3222832565284178,9.526575115207372,-0.4311846390168971,-1.3699036695681857,-1.528315685270524,-1.5544187062638677,-0.08741157157938498,-0.07866434866502153,-0.0644835484925676
1592334771.3770292,-0.355875849985399,9.649586166617997,-0.42216553335280127,-1.3688888888888888,-1.5266666666666666,-1.56,-0.003093470683881619,-0.074626368188515,-0.04218280997698853
1592334771.3870292,-0.4501710562041814,10.098398045071953,-0.7408552810209069,-1.3688888888888888,-1.5266666666666666,-1.56,0.03542401142517611,-0.045204169793032614,0.016742460622579333
1592334771.3970292,-0.3004425281910358,10.070221264095519,-0.7102212640955178,-1.3688888888888888,-1.5266666666666666,-1.56,-0.008729850633539107,-0.05788964435181526,0.04224635774648432
1592334771.4070292,-0.22039111859919372,9.76940670317107,-0.47646669474697634,-1.3688888888888888,-1.5266666666666666,-1.56,-0.12553303486843714,-0.054306162797364325,0.05447754249368169
1592334771.4170291,0.01938590457132139,9.761410793571384,-0.10748546057157149,-1.3810769946984067,-1.4911180247222398,-1.5884389135555417,-0.2304328013861318,-0.059339837083436514,0.026902782153482806
1592334771.4270291,-0.039883915083088174,9.670145106146139,-0.09997097877077205,-1.3822222222222222,-1.4877777777777779,-1.5911111111111111,-0.24542426316162747,-0.055638701357356796,-0.004322168704741763
1592334771.4370291,-0.10468639575971732,9.406051236749116,-0.4062367491166078,-1.3822222222222222,-1.4877777777777779,-1.5911111111111111,-0.25339073991216704,-0.04806497226160842,-0.040984690305431115
1592334771.447029,-0.024682685929092646,9.564761553770177,-0.1031355494950984,-1.3822222222222222,-1.4877777777777779,-1.5911111111111111,-0.17040349510005684,-0.0543510638448247,-0.05791357068575144
1592334771.457029,-0.08551580224013697,9.675515802240136,-0.25766319469215954,-1.3822222222222222,-1.4877777777777779,-1.5911111111111111,-0.12110058284588232,-0.03431179159830705,-0.04400525930554593
1592334771.467029,-0.22690886443844716,9.676182271123105,-0.4049096948308076,-1.3744040781491478,-1.488646460452564,-1.6397573408991304,-0.016898252817244767,0.004303765626187492,0.006703502765924869
1592334771.477029,-0.16542013081917722,10.047759302297722,-0.43629321704962026,-1.3722222222222222,-1.488888888888889,-1.6533333333333333,-0.007231468182844465,0.04017742230027528,0.05866044005201717
1592334771.487029,-0.2578564444974365,10.21296649576726,-0.5910430428043401,-1.3722222222222222,-1.488888888888889,-1.6533333333333333,-0.06845823520917166,0.07677151812194762,0.10473749558928329
1592334771.497029,-0.13239643715537963,10.12339742683444,-0.316592676374947,-1.3722222222222222,-1.488888888888889,-1.6533333333333333,-0.13618065355661468,0.09274267063377332,0.12935112442593594
1592334771.507029,-0.1345106836747012,9.582339744879482,-0.0912508550963744,-1.3722222222222222,-1.488888888888889,-1.6533333333333333,-0.1995506162847303,0.10167843497111682,0.14663366925241794
1592334771.517029,0.014795791674834996,9.323979611840816,0.17948964255374764,-1.3654761956624335,-1.4474490114501877,-1.7179024446913096,-0.19982240732804124,0.1018813710820053,0.14041664538633447
1592334771.527029,0.08178999413391436,9.415519986591805,0.06075002095030585,-1.3644444444444443,-1.441111111111111,-1.7277777777777779,-0.16509069833396542,0.09298132625758382,0.12160363634787673
1592334771.537029,0.14201921648259125,9.375937546431578,0.008028824723886878,-1.3644444444444443,-1.441111111111111,-1.7277777777777779,-0.05317804116589825,0.08552008525118505,0.09271013554682783
1592334771.547029,0.16626046690179708,9.821553540152115,-0.15073490246886923,-1.3644444444444443,-1.441111111111111,-1.7277777777777779,0.04040640942707931,0.09572725173527058,0.09190477694906193
1592334771.557029,0.05180891768732335,10.172948335864946,-0.4066836509065739,-1.3644444444444443,-1.441111111111111,-1.7277777777777779,0.08035972033707639,0.11608122470290883,0.10059945639461898
1592334771.567029,-0.03308518116173557,10.053758067608154,-0.46613457728928365,-1.3704294914123019,-1.4094758628524364,-1.7329078180359412,0.016335136945655762,0.12460613911273481,0.10891675949144784
1592334771.577029,-0.05940385154341994,9.972238459382632,-0.3762653641350042,-1.3722222222222222,-1.4,-1.7344444444444445,-0.03956444165256274,0.11546485540832337,0.1055173189483802
1592334771.587029,0.18187648725212466,9.627706515580737,-0.11650963172804535,-1.3722222222222222,-1.4,-1.7344444444444445,-0.1122250108221761,0.08661870070558926,0.0849938263654978
1592334771.597029,0.20685926909039198,9.52,-0.12524813954590702,-1.3722222222222222,-1.4,-1.7344444444444445,-0.12751003690530444,0.07578567155800067,0.045422603290655734
1592334771.607029,0.09726802677462022,9.559742274239449,0.17793819391558785,-1.3722222222222222,-1.4,-1.7344444444444445,-0.11319055960946917,0.06261593424794398,0.0020382738720514243
1592334771.617029,0.009666998810710037,9.725198804281444,-0.1197962135579056,-1.3793925335447628,-1.3820742216936488,-1.7944958017707207,-0.08536130425065257,0.0602429190296352,-0.048708955183235564
1592334771.627029,-0.08660232453078157,9.612266622859256,-0.1535861842375457,-1.3811111111111112,-1.3777777777777778,-1.808888888888889,-0.06627335721484341,0.060530826870190214,-0.06839283663165344
1592334771.637029,-0.25379116832990534,9.279565526522942,-0.3846951575632919,-1.3811111111111112,-1.3777777777777778,-1.808888888888889,0.03488747244142736,0.03922251446557716,-0.07963064712224129
1592334771.647029,0.09243351444094938,10.081252502144697,-0.05325326470307873,-1.3811111111111112,-1.3777777777777778,-1.808888888888889,0.22468213139650836,0.05303802057416998,-0.048314622427523664
1592334771.657029,0.1495421593332041,10.44983737158364,-0.371506105834464,-1.3811111111111112,-1.3777777777777778,-1.808888888888889,0.23446421291470887,0.08160926065458612,-0.016565509770094897
1592334771.667029,-0.27010379550735863,10.385236870642913,-0.6938351665375677,-1.402389499956967,-1.3241877614252517,-1.8309553662105174,0.06338712058304713,0.09722339023269055,-0.004046196399322331
1592334771.677029,-0.3694573050444865,10.151933250130842,-0.5597399251177584,-1.4111111111111112,-1.3022222222222222,-1.84,-0.05531358329553368,0.07175803629957422,-0.0070826928193350545
1592334771.687029,-0.288279525950143,9.434086636697998,-0.4184675112382509,-1.4111111111111112,-1.3022222222222222,-1.84,-0.1476932277116738,-0.007621104641421912,-0.01122793417194043
1592334771.6970289,-0.17419419134396355,9.195996583143508,-0.35419419134396357,-1.4111111111111112,-1.3022222222222222,-1.84,-0.08316218072047155,-0.06270289152826154,-0.022209836541341565
1592334771.7070289,-0.12387354435635342,9.604978350698907,0.05758733861879434,-1.4111111111111112,-1.3022222222222222,-1.84,0.052100686900780825,-0.09348800892610154,-0.02083359765696389
1592334771.7170289,-0.20847793098898199,10.344509137692155,-0.329345516922874,-1.3955455491778643,-1.2760065389662274,-1.8334460791860014,0.1364190155413933,-0.08432603419828759,0.0026538847080522544
1592334771.7270288,-0.3266631874749097,10.464387796065838,-0.641224407868326,-1.39,-1.2666666666666666,-1.8311111111111111,0.039216570879905294,-0.06749794633547018,0.0202660682253352
1592334771.7370288,-0.2584592342739195,9.781017192337705,-0.46409872378986583,-1.39,-1.2666666666666666,-1.8311111111111111,-0.2658155572658054,-0.07590391424224659,0.022589151307430007
1592334771.7470288,0.021050116494698318,9.493612048880225,-0.02978603014597503,-1.39,-1.2666666666666666,-1.8311111111111111,-0.36782740333566566,-0.10780982856828365,0.014574813583096993
1592334771.7570288,0.19851621501554864,9.701661483784985,0.13925810750777434,-1.39,-1.2666666666666666,-1.8311111111111111,-0.2676954953649577,-0.1153755872281958,0.02047815513404497
1592334771.7670288,0.2292029569892473,9.763007392473117,0.11867159498207887,-1.4025469434488251,-1.2370102548785344,-1.8470799482277978,-0.12854294715186254,-0.08878155422553066,0.02900845029211806
1592334771.7770288,0.20593941886770278,9.707818256603108,-0.09036430942797544,-1.4144444444444444,-1.208888888888889,-1.8622222222222222,-0.08874084841952284,-0.04492231337419954,0.030133363102481495
1592334771.7870288,0.08360267678785457,9.614668897323213,-0.0033819416699960025,-1.4144444444444444,-1.208888888888889,-1.8622222222222222,-0.1268171409380361,-0.049251848762697926,0.009977854880246249
1592334771.7970288,-0.020313442842775732,9.440622575547149,0.0943752693836502,-1.4144444444444444,-1.208888888888889,-1.8622222222222222,-0.13918326361715166,-0.06769989113507086,-0.012715275467853364
1592334771.8070288,-0.0043708153885129025,9.39,0.12515001266693207,-1.4144444444444444,-1.208888888888889,-1.8622222222222222,-0.12837168734327342,-0.0788534336440824,-0.027231685834907093
1592334771.8170288,0.05587140893701184,9.376522074352184,0.22,-1.4204346336212517,-1.1789379430048532,-1.8532369384570115,-0.015652695873471234,-0.1142761436372033,-0.0886648585899357
1592334771.8270288,-0.022624697336561746,9.405520581113802,0.12764648910411622,-1.4233333333333333,-1.1644444444444444,-1.8488888888888888,0.05743422162600953,-0.11812561642629175,-0.1118373599445301
1592334771.8370287,-0.06664996917385943,9.796830302096179,-0.3401502774352651,-1.4233333333333333,-1.1644444444444444,-1.8488888888888888,0.1909248938422941,-0.09343617998481049,-0.11271116663674347
1592334771.8470287,-0.24207044287168322,9.96,-0.42826307193410185,-1.4233333333333333,-1.1644444444444444,-1.8488888888888888,0.20762718243797446,-0.04888831059560921,-0.07927848386704045
1592334771.8570287,-0.3413173889020443,9.9090717499408,-0.337754361038756,-1.4233333333333333,-1.1644444444444444,-1.8488888888888888,0.19563101666592747,-0.03751936111494026,-0.049730742036621325
1592334771.8670287,-0.3687246494742113,10.01979719579369,-0.36489859789684526,-1.4365099385188895,-1.1207535956712849,-1.8641460106826906,0.21540589578239072,-0.03899904401650715,-0.010806059508941243
1592334771.8770287,-0.3443591298415827,10.035976654286364,-0.35790949746077466,-1.4444444444444444,-1.0944444444444446,-1.8733333333333333,0.2083337139166403,-0.03788001463134703,0.014531456834969463
1592334771.8870287,-0.10017010436354673,9.733870490590846,-0.2075141753636289,-1.4444444444444444,-1.0944444444444446,-1.8733333333333333,0.117846835524816,-0.05411314892763727,0.03191762443412097
1592334771.8970287,0.03701925136234918,9.502074102277325,-0.16641482045546485,-1.4444444444444444,-1.0944444444444446,-1.8733333333333333,0.10770006482222183,-0.06216087130631995,0.004931205123862394
1592334771.9070287,-0.10470197740112996,9.51654943502825,-0.22951129943502824,-1.4444444444444444,-1.0944444444444446,-1.8733333333333333,0.1352779620275693,-0.04869604196551269,-0.01784463576677112
1592334771.9170287,-0.10730947063819081,9.564170414871198,-0.10273550781618593,-1.4444444444444444,-1.073637278646243,-1.8460687712529313,0.1611690215167868,-0.0329303741944102,-0.030088340218172385
1592334771.9270287,-0.04,9.596117383297303,-0.046117383297301626,-1.4444444444444444,-1.0622222222222222,-1.8311111111111111,0.18700677477677694,-0.01975050930354801,-0.02624413612358817
1592334771.9370286,-0.12454405118797263,9.520911897624055,-0.10618237952481097,-1.4444444444444444,-1.0622222222222222,-1.8311111111111111,0.2590619145407618,0.003074108450426553,-0.01096787912435321
1592334771.9470286,-0.31300362284297834,9.694835065306512,-0.3741390981027744,-1.4444444444444444,-1.0622222222222222,-1.8311111111111111,0.289601585076172,-0.004463212820765482,-0.010552688046077474
1592334771.9570286,-0.40662471668853634,9.839622450196828,-0.42937075032804484,-1.4444444444444444,-1.0622222222222222,-1.8311111111111111,0.2743343776725439,-0.035947903581808084,-0.030598174302864323
1592334771.9670286,-0.2939098514597917,9.598714358886802,-0.2856991633942291,-1.434301595431867,-1.0446056949898508,-1.8102915789273992,0.2318532239750748,-0.10104534834010154,-0.08799802881341737
1592334771.9770286,-0.054428100431143794,9.80195559449427,-0.44929887257049317,-1.4233333333333333,-1.0255555555555556,-1.7877777777777777,0.20254031299873226,-0.16357228023250506,-0.15275252554394267
1592334771.9870286,0.09196389644108066,10.436140054375782,-0.6225169618144855,-1.4233333333333333,-1.0255555555555556,-1.7877777777777777,0.14752931259183533,-0.16090738613658398,-0.1717824563126048
1592334771.9970286,0.2547296595362894,10.298392123530245,-0.8284931765594749,-1.4233333333333333,-1.0255555555555556,-1.7877777777777777,0.0651572692076813,-0.06957957147758112,-0.11153527120575488
1592334772.0070286,0.055843163778869664,9.98792675406314,-0.4758328194314588,-1.4233333333333333,-1.0255555555555556,-1.7877777777777777,-0.02200846420367101,0.049806931213191935,-0.029599816646804257
1592334772.0170286,-0.3049841625973341,9.661707140029035,-0.2433086973736307,-1.4278696860381563,-1.0100023462818766,-1.792314130482601,-0.17106384720676754,0.09908629148834426,-0.0058150768069944354
1592334772.0270286,-0.4004462426837412,9.482267745610246,-0.28025965353340926,-1.431111111111111,-0.9988888888888889,-1.7955555555555556,-0.24664945065817126,0.09462658159863636,-0.013414343394101642
1592334772.0370286,-0.49167249636764787,9.331567561749987,-0.0400349782058871,-1.431111111111111,-0.9988888888888889,-1.7955555555555556,-0.22186995052973774,0.10543807273712782,0.0008152614390949803
1592334772.0470285,-0.47318821005799633,9.226561531739096,-0.0863438468260904,-1.431111111111111,-0.9988888888888889,-1.7955555555555556,-0.17249486469955458,0.08953002097010059,-0.0053995560422214735
1592334772.0570285,-0.21439711621138965,9.660567497850387,-0.16496461406177657,-1.431111111111111,-0.9988888888888889,-1.7955555555555556,-0.008401684169597669,0.06892606590085561,-0.010230076925716756
1592334772.0670285,0.02856760208054318,9.82884916061918,-0.37161117513314856,-1.4237226565338814,-0.9778602104767739,-1.7819153317206702,0.06240332138631343,0.08148030636977834,0.00606233785484591
1592334772.0770285,0.1774524578399713,9.782972132520033,-0.4431136626400351,-1.4166666666666667,-0.9577777777777777,-1.768888888888889,0.07109939625778677,0.09083228722914734,0.008695769177662016
1592334772.0870285,-0.13520813334496903,9.995007708642406,-0.7351156296360939,-1.4166666666666667,-0.9577777777777777,-1.768888888888889,-0.020224936245652865,0.0997933580671269,0.005998728421287707
1592334772.0970285,-0.25247949660633484,9.871516308446456,-0.5588727846907995,-1.4166666666666667,-0.9577777777777777,-1.768888888888889,-0.078392305333194,0.09026848382487729,0.010550661759587233
1592334772.1070285,-0.24891204255709437,9.766631936164359,-0.39336806383564155,-1.4166666666666667,-0.9577777777777777,-1.768888888888889,-0.12502765665109947,0.07510318412416744,0.00883395847654559
1592334772.1170285,-0.23429091626998927,9.657447298571961,-0.33801456555596987,-1.4160953536948886,-0.9494937396869965,-1.7711741407760009,-0.16212759946553507,0.047530474144204166,0.0019012189657681667
1592334772.1270285,-0.15619809810752283,9.477443743526976,-0.16041521513981735,-1.4144444444444444,-0.9255555555555556,-1.7777777777777777,-0.16448025349620626,0.025404515335055868,0.001090830782496456
1592334772.1370285,-0.14227918935269207,9.831766485178463,-0.3447005444646098,-1.4144444444444444,-0.9255555555555556,-1.7777777777777777,-0.10067038404337793,0.017701913510448763,0.0015880727635073934
1592334772.1470284,-0.05520379795560497,9.762978059107823,-0.5967084384756853,-1.4144444444444444,-0.9255555555555556,-1.7777777777777777,-0.060703536355898646,0.02122503554975996,0.005953404594809579
1592334772.1570284,0.0658507723222441,9.735874114518847,-0.7247086284937179,-1.4144444444444444,-0.9255555555555556,-1.7777777777777777,-0.06795698423895057,0.02540949124427183,0.010651491979750188
1592334772.1670284,-0.09704643587607,9.709430346185895,-0.6979009165972274,-1.4149841762829416,-0.9215975220732436,-1.7702215320388186,-0.09999338638381848,0.023437326925778997,0.012466879509235213
1592334772.1770284,-0.06562266864410587,9.787735832097434,-0.46218866567794703,-1.4177777777777778,-0.9011111111111111,-1.731111111111111,-0.13733354141492468,0.011122346169145923,0.016465362901999445
1592334772.1870284,-0.17036629853580532,9.691009944530508,-0.3796337014641947,-1.4177777777777778,-0.9011111111111111,-1.731111111111111,-0.14963389900395163,-0.01672930635070656,-0.0037894617908423014
1592334772.1970284,-0.3170861026435461,9.523330168407375,-0.23291389735645396,-1.4177777777777778,-0.9011111111111111,-1.731111111111111,-0.1633521686087437,-0.03883096293620482,-0.023604740108875217
1592334772.2070284,0.026278189066059224,9.623783314350797,-0.35758712984054675,-1.4177777777777778,-0.9011111111111111,-1.731111111111111,-0.1251957546467497,-0.03668226001154205,-0.0019139856058939812
1592334772.2170284,-0.11119269090775397,9.633578072723262,-0.25772491635721906,-1.401300701414676,-0.8869225175762181,-1.7187533038387848,-0.018147800283482073,-0.04280561322464971,0.009430177771665197
1592334772.2270284,-0.16468287610973367,9.831933136047349,-0.5506342477805327,-1.3777777777777778,-0.8666666666666667,-1.701111111111111,0.023704957764329928,-0.06741069009436128,0.0013808349031889473
1592334772.2370284,-0.061511066860687746,10.087770289244594,-0.7759704883714993,-1.3777777777777778,-0.8666666666666667,-1.701111111111111,0.022993886368829267,-0.0837741944860873,0.011669474958251318
1592334772.2470284,-0.00962289337560487,9.923020190221925,-0.8803771066243952,-1.3777777777777778,-0.8666666666666667,-1.701111111111111,-0.028525780115608974,-0.10002698034336682,0.015765626406926917
1592334772.2570283,-0.028299436266209836,9.790211549570726,-0.7297802832612896,-1.3777777777777778,-0.8666666666666667,-1.701111111111111,-0.08587474669849274,-0.12379820102407134,0.011697362588909377
1592334772.2670283,-0.03252241644778553,9.757912930592036,-0.468348277631857,-1.3848114938595875,-0.8591933433297441,-1.7015507183662242,-0.11819381892788419,-0.15021200603854837,0.009817477042468103
1592334772.2770283,0.04,9.77,-0.42,-1.3955555555555557,-0.8477777777777777,-1.7022222222222223,-0.12544553998709243,-0.16471544815696484,0.009817477042468103
1592334772.2870283,-0.07364184731385484,9.929344643418158,-0.17416211121583414,-1.3955555555555557,-0.8477777777777777,-1.7022222222222223,-0.1209981855319831,-0.17317307080265446,0.002988732407839017
1592334772.2970283,0.053532147614929776,9.824750742047817,-0.33,-1.3955555555555557,-0.8477777777777777,-1.7022222222222223,-0.1499620427685605,-0.1642395178732889,-0.004381449679787281
1592334772.3070283,0.291200765203383,9.791830648409181,-0.25183064840918246,-1.3955555555555557,-0.8477777777777777,-1.7022222222222223,-0.1656688597414086,-0.1417521641923382,0.004294613530959466
1592334772.3170283,0.18635840320360406,9.640224002002252,-0.15193279939932425,-1.3876003559560062,-0.8371708449783785,-1.6969187558225225,-0.17804068808297946,-0.12415609091044852,0.013300805098074825
1592334772.3270283,0.09,9.58,-0.17,-1.3755555555555556,-0.8211111111111111,-1.6888888888888889,-0.17344209441693648,-0.11890055529211369,0.015271630954950384
1592334772.3370283,-0.06055660450559967,9.498608488736002,-0.3165408788764452,-1.3755555555555556,-0.8211111111111111,-1.6888888888888889,-0.12463444919395149,-0.09952150052169635,0.005868360950679793
1592334772.3470283,0.093477032266544,9.625220258044731,-0.36174322577818674,-1.3755555555555556,-0.8211111111111111,-1.6888888888888889,-0.07508995138489809,-0.09368110005326527,-0.0057030920538603015
1592334772.3570282,0.10175834755590565,9.63016454422126,-0.19460154916633846,-1.3755555555555556,-0.8211111111111111,-1.6888888888888889,-0.03518980673839219,-0.08190372442170887,-0.005947130565181982
1592334772.3670282,-0.034972840847365565,9.941086969642102,-0.20062496227895465,-1.3781461363590641,-0.8133393687005854,-1.6811171464783632,-0.0015828863844264771,-0.07974329190882173,-0.007872955466524152
1592334772.3770282,-0.08970852386748691,9.989417047734975,-0.06276902325887423,-1.3822222222222222,-0.8011111111111111,-1.6688888888888889,0.012819710922905432,-0.09679778361824712,-0.01827386483538771
1592334772.3870282,0.03599416497215102,9.921734889340758,-0.14753897386025402,-1.3822222222222222,-0.8011111111111111,-1.6688888888888889,-0.027422276516641964,-0.07320952330030528,-0.001156216979166299
1592334772.3970282,0.0879919051338493,9.742192714620463,-0.04993846008189542,-1.3822222222222222,-0.8011111111111111,-1.6688888888888889,-0.08363854464329326,-0.05667179487931249,-0.0001743563226158859
1592334772.4070282,-0.06625045220007235,9.532508139601303,-0.04501266160202583,-1.3822222222222222,-0.8011111111111111,-1.6688888888888889,-0.10022022612398952,-0.03913449154220202,0.010225700020514367
1592334772.4170282,-0.19803170009422533,9.515088504509356,0.0901241755283349,-1.391083516549259,-0.8007702920985328,-1.6607092325870088,-0.09315579617724437,-0.021830161098803168,0.022820410499416452
1592334772.4270282,-0.51,9.73,0.0,-1.4111111111111112,-0.8,-1.6422222222222222,-0.0818123086872342,-0.011999138607461015,0.025089107997418484
1592334772.4370282,0.03873713893758096,9.616813505068212,-0.050440515204633773,-1.4111111111111112,-0.8,-1.6422222222222222,0.004219691395979799,0.005502206667019506,0.022985400526147157
1592334772.4470282,0.25292156956918493,9.711535949281975,-0.35614379712789973,-1.4111111111111112,-0.8,-1.6422222222222222,0.057679282095597265,0.04542704308420559,0.022237262129572943
1592334772.4570282,0.19678255982013815,9.721695639955035,-0.3345477356672555,-1.4111111111111112,-0.8,-1.6422222222222222,0.051288009750226515,0.07452746148866243,0.009018798666830242
1592334772.4670281,0.019454689547962326,9.828999603743103,-0.18529521138781357,-1.4047929473046066,-0.7975429362974704,-1.6394141494193313,0.05156400699532124,0.10145218376329454,0.00694661072057616
1592334772.4770281,-0.09,10.13,-0.37,-1.3911111111111112,-0.7922222222222223,-1.6333333333333333,0.09708393964218458,0.12980886311707826,0.00545415391248228
1592334772.4870281,-0.44406892850754276,9.832813785701509,-0.39623457158189734,-1.3911111111111112,-0.7922222222222223,-1.6333333333333333,-0.005463129802291144,0.09405217025254026,-0.007768242373495868
1592334772.497028,-0.4105250346858798,9.605521992064844,-0.23618284935374728,-1.3911111111111112,-0.7922222222222223,-1.6333333333333333,-0.06984213817810347,0.07170714205227408,0.005181280267623918
1592334772.507028,-0.32,9.3,-0.14,-1.3911111111111112,-0.7922222222222223,-1.6333333333333333,-0.08835729338221293,0.0272707695624114,-0.006544984694978735
1592334772.517028,-0.4839791707604637,9.6916090260038,-0.25001735769961353,-1.382575926289819,-0.7836870374009302,-1.6315551698288975,0.013529709879305376,0.009858989630706161,-0.01396377007473774
1592334772.527028,-0.28,9.78,-0.42,-1.3644444444444443,-0.7655555555555555,-1.6277777777777778,0.04690572364734761,-0.01090830782496456,-0.025089107997418484
1592334772.537028,-0.11638968481375359,9.941079274116523,-0.20083094555873926,-1.3644444444444443,-0.7655555555555555,-1.6277777777777778,0.06066561108233394,0.0051509717179202275,0.002168117343242717
1592334772.547028,-0.06,10.01,-0.37,-1.3644444444444443,-0.7655555555555555,-1.6277777777777778,0.06544984694978735,0.017453292519943295,0.007635815477475192
1592334772.557028,-0.021859051980361508,9.79982761277823,-0.3944228440589155,-1.3644444444444443,-0.7655555555555555,-1.6277777777777778,0.03712013985423895,0.0378806065266537,-0.006912957862663522
1592334772.567028,-0.18685786849196273,9.723715736983927,-0.12590609223526497,-1.3667584132588624,-0.7670017860645667,-1.6260423011669642,0.018976948685862246,0.06806433389820277,0.00691902339764601
1592334772.577028,-0.32,9.99,-0.37,-1.3733333333333333,-0.7711111111111111,-1.6211111111111112,0.01090830782496456,0.05999569303730508,0.014180800172453926
1592334772.587028,-0.6570697066985907,9.926410186646352,-0.34684986668117757,-1.3733333333333333,-0.7711111111111111,-1.6211111111111112,-0.053420732310049,0.008407000846479596,-0.008383020020657724
1592334772.597028,-0.51,10.02,-0.28,-1.3733333333333333,-0.7711111111111111,-1.6211111111111112,-0.0643590161672909,-0.007635815477475192,-0.001090830782496456
1592334772.607028,-0.2622976680384088,9.812741492986415,-0.32723239966370193,-1.3733333333333333,-0.7711111111111111,-1.6211111111111112,-0.07145938379883339,-0.03137491237970132,0.009264941975994501
1592334772.617028,-0.004886469673405905,10.037261586314152,-0.08780653188180403,-1.3702639018489717,-0.7680416796267496,-1.6144141696906862,-0.09660044543843421,-0.033208417678644055,-0.001922576530618326
1592334772.627028,0.07,9.88,-0.29,-1.3611111111111112,-0.7588888888888888,-1.5944444444444446,-0.13744467859455345,0.007635815477475192,-0.01090830782496456
1592334772.637028,0.32061243144424134,9.281768230753606,-0.3023806621978469,-1.3611111111111112,-0.7588888888888888,-1.5944444444444446,-0.1754754091997069,0.06355014398132638,0.0006975290073733178
1592334772.647028,0.1317701250274183,9.631696034705467,-0.2966820209110185,-1.3611111111111112,-0.7588888888888888,-1.5944444444444446,-0.07023167945507622,0.08707337191283895,0.011506801222043846
1592334772.657028,0.02,9.7,0.02,-1.3611111111111112,-0.7588888888888888,-1.5944444444444446,0.032724923474893676,0.09926560120717749,0.019634954084936207
1592334772.667028,-0.28113846427301814,10.014356558833985,-0.4535149306789904,-1.3647744598491134,-0.7574642532685547,-1.5889494213374413,0.0985096201867449,0.1088508937736343,0.014947639089050706
1592334772.677028,-0.41660820921943964,9.828772393608233,-0.4376604432695258,-1.3811111111111112,-0.7511111111111111,-1.5644444444444445,0.03777734413509724,0.07688769702942193,-0.00923054432318684
1592334772.687028,-0.45508666782721147,9.700404615652433,-0.5569364104349557,-1.3811111111111112,-0.7511111111111111,-1.5644444444444445,-0.02087710301681381,0.025032384037153882,-0.03681710553226126
1592334772.697028,-0.43218098603239347,9.798075837700681,-0.525385235599611,-1.3811111111111112,-0.7511111111111111,-1.5644444444444445,-0.041759296334703544,-0.020404270584531755,-0.039843558563114875
1592334772.707028,-0.25,9.93,-0.45,-1.3811111111111112,-0.7511111111111111,-1.5644444444444445,-0.03490658503988659,-0.0032724923474893677,-0.007635815477475192
1592334772.717028,-0.3436557910474013,9.74724034825433,-0.5393075953448832,-1.3789194409430097,-0.7509425210981802,-1.5664675245996151,-0.08453604404887004,-0.05609891407278764,-0.003136973898328638
1592334772.727028,-0.2801778733385457,9.670844409695073,-0.3874887607505864,-1.3666666666666667,-0.75,-1.5777777777777777,-0.11763520437758569,-0.07887675639917407,0.008777552407219698
1592334772.737028,0.02,9.78,-0.79,-1.3666666666666667,-0.75,-1.5777777777777777,-0.07744898555724837,-0.09599310885968812,0.006544984694978735
1592334772.7470279,0.2574015531200088,9.913433937324447,-0.7416010354133392,-1.3666666666666667,-0.75,-1.5777777777777777,-0.02403119979402695,-0.025129660444308678,0.02172547778039962
1592334772.7570279,0.12,9.86,-0.65,-1.3666666666666667,-0.75,-1.5777777777777777,-0.006544984694978735,0.02399827721492203,0.042542400517361786
1592334772.7670279,-0.02883926230224631,9.978047373481338,-0.44701861725373654,-1.3621635637910439,-0.7479360778486729,-1.5717736406102807,-0.06095990697869015,0.039425318901055814,0.03684645420348006
1592334772.7770278,-0.22,9.87,-0.58,-1.34,-0.7377777777777778,-1.5422222222222222,-0.0818123086872342,0.02945243112740431,0.014180800172453926
1592334772.7870278,-0.23005556620042156,9.712146826157174,-0.3029920893438809,-1.34,-0.7377777777777778,-1.5422222222222222,-0.18040566933828092,-0.004535608286282995,-0.021360373502923788
1592334772.7970278,-0.36218287463236176,9.764365749264723,-0.46859257310920344,-1.34,-0.7377777777777778,-1.5422222222222222,-0.2260479116589394,-0.05368099802881546,-0.04881846611983822
1592334772.8070278,-0.41,9.86,-0.25,-1.34,-0.7377777777777778,-1.5422222222222222,-0.20071286397934787,-0.08944812416470939,-0.05999569303730508
1592334772.8170278,-0.1683781186945521,9.629574992793772,-0.27563751080933924,-1.3417288181433202,-0.7368468757006053,-1.5432861103104192,-0.156574446979368,-0.08325697908043828,-0.02330764713746663
1592334772.8270278,-0.23,9.7,-0.17,-1.3544444444444443,-0.73,-1.551111111111111,-0.10471975511965977,-0.06981317007977318,-0.002181661564992912
1592334772.8370278,-0.09089319570254899,9.735001053296818,-0.18785759427006532,-1.3544444444444443,-0.73,-1.551111111111111,-0.0839744377861407,-0.0885326259895533,0.001012930711869471
1592334772.8470278,-0.16,9.95,-0.28,-1.3544444444444443,-0.73,-1.551111111111111,-0.07308566242726255,-0.09272061651219875,0.004363323129985824
1592334772.8570278,0.03773278835100269,9.781927129901646,0.10557893728445522,-1.3544444444444443,-0.73,-1.551111111111111,-0.08602724316179036,-0.07222978034919636,0.005441788191196476
1592334772.8670278,0.08733951005025126,9.891865577889448,0.0595411432160804,-1.353350328029034,-0.7298436976549414,-1.5522052275265215,-0.12762720155208535,-0.051862871210531014,-0.0016879441527266924
1592334772.8770278,0.01,9.72,0.24,-1.3466666666666667,-0.7288888888888889,-1.558888888888889,-0.12762720155208535,-0.002181661564992912,-0.011999138607461015
1592334772.8870277,-0.11473374253483742,9.80321499668215,0.2764299933642999,-1.3466666666666667,-0.7288888888888889,-1.558888888888889,-0.13901315500584874,0.07468209725858035,0.0008864357312639165
1592334772.8970277,-0.03429911686571094,9.758598233731421,0.15299116865710935,-1.3466666666666667,-0.7288888888888889,-1.558888888888889,-0.12247886559872911,0.12790743460426726,-0.0026557394478484543
1592334772.9070277,-0.02,9.73,0.01,-1.3466666666666667,-0.7288888888888889,-1.558888888888889,-0.1287180323345818,0.16144295580947549,0.004363323129985824
1592334772.9170277,-0.157059683636847,9.749579954805263,-0.08789977402631928,-1.3466666666666667,-0.7288888888888889,-1.558888888888889,-0.10095208968666922,0.20522771152349148,0.01397461096964787
1592334772.9270277,-0.2005446176168914,9.871274610361993,-0.0236384559577715,-1.3666666666666667,-0.7288888888888889,-1.558888888888889,-0.040003032252922656,0.21580626923593976,0.015033996690472382
1592334772.9370277,-0.17,9.94,-0.1,-1.3666666666666667,-0.7288888888888889,-1.558888888888889,-0.014180800172453926,0.22580197197676635,0.028361600344907853
1592334772.9470277,-0.11282354827503273,9.754352903449934,-0.3555530317201571,-1.3666666666666667,-0.7288888888888889,-1.558888888888889,-0.04926960330435798,0.22298378597451649,0.030381565580286173
1592334772.9570277,-0.0867450914014895,9.810230948619575,-0.13883660573234033,-1.3666666666666667,-0.7288888888888889,-1.558888888888889,-0.08594748299580757,0.19987537460460456,0.01966014667127687
1592334772.9670277,-0.15773865944482057,9.684020160986986,-0.09150756037011962,-1.3666666666666667,-0.7288888888888889,-1.558888888888889,-0.09885447789262794,0.1732009184845091,0.0058926854480018075
1592334772.9770277,-0.10356737342138803,9.672310276908817,-0.088391843355347,-1.3611111111111112,-0.7333333333333333,-1.5233333333333334,-0.05563236990731925,0.14726215563702155,-0.008726646259971648
1592334772.9870276,-0.08507981715051577,9.581370892468229,-0.08959624727760093,-1.3611111111111112,-0.7333333333333333,-1.5233333333333334,-0.0457626526619989,0.144570414570116,-0.00887618743035529
1592334772.9970276,-0.1562067080272885,9.627789346074307,-0.1877893460743065,-1.3611111111111112,-0.7333333333333333,-1.5233333333333334,0.028728996321926378,0.13083334014806153,-0.006305991913541814
1592334773.0070276,0.007378228742540771,9.874895624636464,-0.429930416424309,-1.3611111111111112,-0.7333333333333333,-1.5233333333333334,0.11162541261779574,0.14633709146603613,0.013511365318170628
1592334773.0170276,0.128315099901736,9.978315099901737,-0.5,-1.3602218582814718,-0.7329589110892746,-1.524128980601958,0.15929530901372385,0.11704053338332888,0.0013205733940736656
1592334773.0270276,0.09,9.94,-0.5,-1.34,-0.7244444444444444,-1.5422222222222222,0.13526301702956053,0.12435470920459597,0.006544984694978735
1592334773.0370276,0.03283029931501373,9.961433940136999,-0.618528478904022,-1.34,-0.7244444444444444,-1.5422222222222222,0.05231478364624871,0.09488178084374567,0.01013441369749606
1592334773.0470276,-0.01,9.97,-0.55,-1.34,-0.7244444444444444,-1.5422222222222222,-0.019634954084936207,0.062177354602297986,0.01854412330243975
1592334773.0570276,-0.07281061661987867,9.783486130469777,-0.21814837354482813,-1.34,-0.7244444444444444,-1.5422222222222222,-0.031517640901132855,-0.00840821335520865,-0.004638991373631692
1592334773.0670276,-0.17161821001590138,9.964633385029153,-0.35812579752252693,-1.34,-0.7244444444444444,-1.5422222222222222,-0.03061945453095973,-0.02277919527797866,0.0016483132175801885
1592334773.0770276,-0.19,9.78,-0.25,-1.3455555555555556,-0.7444444444444445,-1.53,-0.07526732399225547,-0.0643590161672909,0.016362461737446838
1592334773.0870275,0.02087478886285621,9.763876477960006,-0.17262436658856864,-1.3455555555555556,-0.7444444444444445,-1.53,-0.1105013425188076,-0.12716318390271195,0.004309057968735932
1592334773.0970275,0.024444541867601928,9.707407277509864,-0.20185181937746602,-1.3455555555555556,-0.7444444444444445,-1.53,-0.09991206549993449,-0.145282496230085,-0.010059841374151227
1592334773.1070275,0.011972627596324609,9.73723708593931,-0.19342251563585822,-1.3455555555555556,-0.7444444444444445,-1.53,-0.08725220708972208,-0.1446643890011285,-0.020223472916300455
1592334773.1170275,0.11722685506910664,9.712947648830207,-0.04768589298123699,-1.3455555555555556,-0.7444444444444445,-1.53,-0.07753712967074405,-0.13141655615706754,-0.015807528634946808
1592334773.1270275,0.08852043964079245,9.756908804241027,-6.603752027968882e-05,-1.3511111111111112,-0.73,-1.5233333333333334,-0.06853933357086196,-0.07524571326427922,0.0061789732421492225
1592334773.1370275,0.18860005452562706,9.916163667757179,-0.04749091239549255,-1.3511111111111112,-0.73,-1.5233333333333334,-0.0722843915062412,-0.056031022760082747,0.00518442012847893
1592334773.1470275,-0.09495772520162765,9.740755829536317,-0.02747886260081382,-1.3511111111111112,-0.73,-1.5233333333333334,-0.10279466112230502,-0.036272429250576575,0.010999978967695737
1592334773.1570275,-0.043492534917322204,9.647858203563976,0.008731337293305505,-1.3511111111111112,-0.73,-1.5233333333333334,-0.07543095298766325,-0.04003186108922417,0.012284870952217922
1592334773.1670275,-0.07716005779418847,9.723610130036924,0.09290014448547118,-1.3511111111111112,-0.73,-1.5233333333333334,-0.013915622694143565,-0.047376975154122036,0.015039288726554627
1592334773.1770275,-0.03542592256777587,9.853375419348989,-0.042523574213437304,-1.3422222222222222,-0.73,-1.5144444444444445,0.008833340765966573,-0.04923191114224558,0.0011837526720744253
1592334773.1870275,0.058262638688462536,9.799575832130776,-0.1865252773769251,-1.3422222222222222,-0.73,-1.5144444444444445,-0.02712752237938668,-0.04837780715584067,-0.020772054404302295
1592334773.1970274,0.04786805016352556,9.695507635114467,-0.14370555986917954,-1.3422222222222222,-0.73,-1.5144444444444445,-0.03494256877572951,-0.024302804337444334,-0.029635147400917692
1592334773.2070274,0.13886132341521235,9.755445293660848,-0.061459925614092456,-1.3422222222222222,-0.73,-1.5144444444444445,-0.008326952878474908,0.0381089917213734,0.007228141603475616
1592334773.2170274,0.12171864143540279,9.686874565741611,0.06711018923447912,-1.3422222222222222,-0.73,-1.5144444444444445,0.014112765359273333,0.06989859255818343,0.01751301246244356
1592334773.2270274,-0.16298801369863014,10.029743150684933,-0.005453767123287672,-1.3288888888888888,-0.7288888888888889,-1.5233333333333334,-0.00413637802712055,0.06883534488347713,-0.0076218065205082
1592334773.2370274,-0.08025658492279746,9.789486830154404,-0.06897366030881018,-1.3288888888888888,-0.7288888888888889,-1.5233333333333334,-0.026878922537454678,0.09621702144537768,0.005873990010650193
1592334773.2470274,-0.10214107978541262,9.777588174865883,-0.03379408743294145,-1.3288888888888888,-0.7288888888888889,-1.5233333333333334,-0.013157976669194951,0.103229820468859,0.019747261968261376
1592334773.2570274,-0.2482802360460329,9.858821534299214,-0.07455408081243751,-1.3288888888888888,-0.7288888888888889,-1.5233333333333334,-0.02677051050651403,0.08467834055180697,-0.005735549631424549
1592334773.2670274,-0.19894230203697533,9.53812496324034,0.08168271021624483,-1.3288888888888888,-0.7288888888888889,-1.5233333333333334,-0.012418687263351687,0.07301748416673755,-0.013808450205703367
1592334773.2770274,-0.1089612525021447,9.79722333428653,-0.009097083214183586,-1.3288888888888888,-0.7333333333333333,-1.5066666666666666,0.06772259304108537,0.0799335343655367,-0.000984929424001304
1592334773.2870274,-0.28394906172230566,9.889430083178262,-0.03632580768109768,-1.3288888888888888,-0.7333333333333333,-1.5066666666666666,0.0735486229167511,0.07254774293617428,-0.010263244651654995
1592334773.2970273,-0.11026502104860314,10.090194221201683,-0.42284443168771524,-1.3288888888888888,-0.7333333333333333,-1.5066666666666666,0.005669982276259804,0.0787132722104403,-0.002954489917880996
1592334773.3070273,-0.12219538041878446,9.725365308004788,-0.1585364130541437,-1.3288888888888888,-0.7333333333333333,-1.5066666666666666,-0.06624798135516047,0.08465906084981689,0.008779863783084983
1592334773.3170273,-0.19627489844378593,9.56897521439645,-0.1091500677041427,-1.3288888888888888,-0.7333333333333333,-1.5066666666666666,-0.05637142130231715,0.0702931553184084,0.010575601974511042
1592334773.3270273,-0.1320014999531265,9.665997000093748,-0.04899268772850848,-1.3422222222222222,-0.7333333333333333,-1.5144444444444445,0.020834233920103282,0.04396082822605374,0.004690715531800992
1592334773.3370273,-0.06323467616698639,9.805147985749521,-0.4008086690417466,-1.3422222222222222,-0.7333333333333333,-1.5144444444444445,0.049945865151949785,0.026035800045386658,-0.002710934215146372
1592334773.3470273,-0.095977420425976,9.758045159148049,-0.4091954840851952,-1.3422222222222222,-0.7333333333333333,-1.5144444444444445,0.033853476170033744,0.011999138607461015,-0.008595007651240041
1592334773.3570273,-0.004582497362814652,9.941751504746932,-0.3863340021097483,-1.3422222222222222,-0.7333333333333333,-1.5144444444444445,0.008160123619110716,0.011899164023779675,-0.005554128496163621
1592334773.3670273,-0.13471363269696154,9.70751546114547,-0.2822290938424308,-1.3422222222222222,-0.7333333333333333,-1.5144444444444445,-0.007927661841708579,0.00906014306010568,-0.008393149459837615
1592334773.3770273,0.28826306434411664,9.80443085673658,-0.68571773906861,-1.3666666666666667,-0.7333333333333333,-1.4933333333333334,0.0059505924363898385,0.0020477216601673598,-0.007296195996739181
1592334773.3870273,-0.26141379062582326,9.373519268076546,0.3751622637894283,-1.3666666666666667,-0.7333333333333333,-1.4933333333333334,0.0399268415644997,-0.047766882468334076,-0.06388174994127971
1592334773.3970273,0.1811548675742278,9.136535397277317,-0.9649104002679618,-1.3666666666666667,-0.7333333333333333,-1.4933333333333334,0.24833832663475078,-0.03504281818304594,-0.04717135217820506
1592334773.4070272,-0.15,10.13,1.16,-1.3666666666666667,-0.7333333333333333,-1.4933333333333334,0.40687988187117813,-0.074176493209759,-0.07526732399225547
1592334773.4170272,-0.1831515743688341,9.931090553786996,-0.14617203013206437,-1.3666666666666667,-0.7333333333333333,-1.4933333333333334,0.1667591700144728,0.00031878787831522704,-0.036934800713926005
1592334773.4270272,-0.38,10.16,-0.05,-1.3277777777777777,-0.7333333333333333,-1.4933333333333334,-0.08944812416470939,0.1287180323345818,0.11562806294462433
1592334773.4370272,-0.16188636910008816,10.123647728183347,-0.5771079413414536,-1.3277777777777777,-0.7333333333333333,-1.4933333333333334,-0.24707347818205666,0.056349159106491534,0.0997663921001114
1592334773.4470272,-0.01,9.66,-0.08,-1.3277777777777777,-0.7333333333333333,-1.4933333333333334,-0.17016960206944715,-0.07526732399225547,0.007635815477475192
1592334773.4570272,0.15629998381091145,9.616236846365549,0.16507366035292215,-1.3277777777777777,-0.7333333333333333,-1.4933333333333334,-0.06323604499262764,-0.027529128868675333,0.017183454502191216
1592334773.4670272,-0.23755763705589683,9.61,0.2635413795519843,-1.3277777777777777,-0.7333333333333333,-1.4933333333333334,0.0025028388795468315,-0.016765048137284355,0.013593202389754368
1592334773.4770272,-0.24,9.89,0.11,-1.3133333333333332,-0.7388888888888889,-1.5,0.04363323129985824,-0.0272707695624114,0.004363323129985824
1592334773.4870272,-0.19566534914361,10.040737812911727,-0.20034255599472994,-1.3133333333333332,-0.7388888888888889,-1.5,-0.004728370585524826,-0.015663985109919464,0.0033960910922781625
1592334773.4970272,-0.15254220647046146,9.732244306616538,-0.06207548073469191,-1.3133333333333332,-0.7388888888888889,-1.5,-0.11918761052497019,-0.013159297316793496,0.014509023759754101
1592334773.5070271,-0.02426591502141695,9.429516271970853,0.13376520112254442,-1.3133333333333332,-0.7388888888888889,-1.5,-0.11176587427534818,-0.02047521763707782,0.022656879202070733
1592334773.5170271,0.10240530493318596,9.754574500150708,0.10735858535115042,-1.3133333333333332,-0.7388888888888889,-1.5,-0.0222490901066488,-0.03140766283239143,0.014005881461626605
1592334773.5270271,0.06926037621227572,9.888098110260138,-0.11841509188344795,-1.3277777777777777,-0.7266666666666667,-1.5233333333333334,0.04870703456892856,-0.014030965070503762,0.002054878017188926
1592334773.5370271,0.005560087652687076,9.724297368249768,0.018085526458527706,-1.3277777777777777,-0.7266666666666667,-1.5233333333333334,0.01594923777913853,-0.0011263784563440536,-0.008864387579407749
1592334773.547027,-0.018527283726557774,9.747054567453116,-0.0441091349062311,-1.3277777777777777,-0.7266666666666667,-1.5233333333333334,-0.004088642304271169,-0.005052532851243718,-0.018912036174706798
1592334773.557027,-0.23337389049566168,9.769397626408695,-0.011204747182606965,-1.3277777777777777,-0.7266666666666667,-1.5233333333333334,0.019937279680284536,0.006183586484202508,-0.005881260888854184
1592334773.567027,-0.16371437132476874,9.754742874264954,-0.01762856286752313,-1.3277777777777777,-0.7266666666666667,-1.5233333333333334,0.048186639834374746,0.003216396214137271,-0.0004612711912200824
1592334773.577027,-0.08,9.84,-0.08,-1.3333333333333333,-0.7266666666666667,-1.508888888888889,0.061086523819801536,-0.008726646259971648,-0.001090830782496456
1592334773.587027,-0.08,9.880520913806423,-0.14753485634403857,-1.3333333333333333,-0.7266666666666667,-1.508888888888889,0.04119586676808214,-0.005779882252309515,0.0003825512213346102
1592334773.597027,-0.07071752900947363,9.714350580189471,-0.2078474129715791,-1.3333333333333333,-0.7266666666666667,-1.508888888888889,-0.02304417481572408,-0.01651404924290167,-0.007009653292780775
1592334773.607027,-0.13370444829578282,9.53618856152513,-0.01888665511265164,-1.3333333333333333,-0.7266666666666667,-1.508888888888889,-0.014365340256998272,-0.015467841857572046,-0.007635815477475192
1592334773.617027,-0.03601319565090086,9.579421031056627,0.0,-1.3333333333333333,-0.7266666666666667,-1.508888888888889,0.048487405924077964,-0.014461402332397285,-0.0019642151196035077
1592334773.627027,-0.08185051693066489,9.754606531980144,-0.06366151316829492,-1.3525328373047238,-0.7448556704290367,-1.4957523861716218,0.13132065822127795,-0.013188743912107075,-0.0039682250413874045
1592334773.637027,-0.09,9.878337106685764,-0.22347756780483294,-1.3544444444444443,-0.7466666666666667,-1.4944444444444445,0.15517129622346862,0.0016822119674718347,-0.006332947310976398
1592334773.647027,-0.09982938709593395,9.880170612904067,-0.3972701935349431,-1.3544444444444443,-0.7466666666666667,-1.4944444444444445,0.12491303862753508,0.005416931950953005,-0.0033283252897832786
1592334773.657027,-0.09,9.89,-0.42,-1.3544444444444443,-0.7466666666666667,-1.4944444444444445,0.07963064712224129,0.009817477042468103,0.0
1592334773.667027,-0.09,9.834354458086803,-0.2901604022025377,-1.3544444444444443,-0.7466666666666667,-1.4944444444444445,0.06411845811518457,0.00914303404216129,-0.0006744430003068139
1592334773.677027,-0.0417704938581098,9.761416395086489,-0.15212459262973177,-1.3287220411687697,-0.7327336982256761,-1.4944444444444445,0.03349744715515251,0.010831055456938675,0.0020657830129540873
1592334773.687027,-0.05965904833270888,9.766553016110903,-0.1172349194454852,-1.3277777777777777,-0.7322222222222222,-1.4944444444444445,0.03058045396730323,0.009478661486570929,0.0036113079033865438
1592334773.697027,-0.01614047592937822,9.787953174690207,-0.24362539752165807,-1.3277777777777777,-0.7322222222222222,-1.4944444444444445,0.02847323734762359,0.007747452480190931,-0.0005326457689177645
1592334773.707027,-0.04556072591903211,9.83445090739879,-0.20665891112145185,-1.3277777777777777,-0.7322222222222222,-1.4944444444444445,0.025452295258877867,0.009575352201495182,-0.0030303675065164455
1592334773.717027,-0.09373808683374515,9.832710318861043,-0.2,-1.3277777777777777,-0.7322222222222222,-1.4944444444444445,0.008390309977405232,0.009817477042468103,-0.004067673205585237
1592334773.727027,-0.06738574372651229,9.838522851254698,-0.14034004121711724,-1.3277777777777777,-0.7322222222222222,-1.5010733287536535,-0.01827171314218485,0.006098681641163057,-0.0025039254293333004
1592334773.737027,-0.07740083556306623,9.848700417781533,-0.06039665774773506,-1.3277777777777777,-0.7322222222222222,-1.5022222222222221,-0.041747051076948406,0.0035560172051471092,-0.00028352485765774176
1592334773.747027,-0.08,9.806219635384098,-0.09378036461590264,-1.3277777777777777,-0.7322222222222222,-1.5022222222222221,-0.06096143167561607,0.0013622135718115587,0.0009551393878389046
1592334773.757027,-0.08843545686036108,9.808435456860362,-0.04095180197747241,-1.3277777777777777,-0.7322222222222222,-1.5022222222222221,-0.08075133179942973,0.001090830782496456,0.0029311619840370114
1592334773.767027,-0.06943176716313025,9.803143922387711,0.07969724179663863,-1.3277777777777777,-0.7322222222222222,-1.5022222222222221,-0.09222067280956481,0.003334476934497648,0.0025246102968223038
1592334773.777027,-0.05047343387043251,9.790473433870432,0.14905313225913497,-1.3277777777777777,-0.7459828177427086,-1.5022222222222221,-0.09599310885968812,0.004363323129985824,0.0011424744064308778
1592334773.787027,-0.04334130036972028,9.756706501848601,0.21658699630279715,-1.3277777777777777,-0.7466666666666667,-1.5022222222222221,-0.09962486612374157,0.00654237748841789,0.001090830782496456
1592334773.7970269,-0.05810579455662862,9.721894205443371,0.21378841088674275,-1.3277777777777777,-0.7466666666666667,-1.5022222222222221,-0.09848470906558131,0.012573404988457009,0.0020783486846928196
1592334773.8070269,-0.06617249586510146,9.726172495865102,0.27172495865101454,-1.3277777777777777,-0.7466666666666667,-1.5022222222222221,-0.08874836253240237,0.014436599088854423,0.002854976414441388
1592334773.8170269,-0.08323289570251978,9.74323289570252,0.3232328957025198,-1.3277777777777777,-0.7466666666666667,-1.5022222222222221,-0.07135525949063175,0.016715115952337746,0.0018290073501020044
1592334773.8270268,-0.07220084269662921,9.73220084269663,0.33,-1.344588093008739,-0.7338117197253433,-1.5022222222222221,-0.05380032573637927,0.01648249908549262,-0.0027923429553062366
1592334773.8370268,-0.08107914236165853,9.707841715276682,0.31338128645751223,-1.3466666666666667,-0.7322222222222222,-1.5022222222222221,-0.04752568974712684,0.01817528216721048,-0.001459671917725728
1592334773.8470268,-0.08196357815739064,9.730182109213047,0.25178146894434383,-1.3466666666666667,-0.7322222222222222,-1.5022222222222221,-0.03486685497281306,0.020511591717640727,-0.0026299128981135526
1592334773.8570268,-0.06344065353195578,9.715160980297934,0.2731186929360884,-1.3466666666666667,-0.7322222222222222,-1.5022222222222221,-0.020983684312405392,0.022532129353969324,-0.004175664590757697
1592334773.8670268,-0.080735434385184,9.71691181146173,0.31455905730864003,-1.3466666666666667,-0.7322222222222222,-1.5022222222222221,-0.006480736574016183,0.025923293114531468,-0.004363323129985824
1592334773.8770268,-0.10584991745460003,9.72,0.33,-1.3413833608484667,-0.7533554454950222,-1.5127888338586222,0.011011873719157454,0.02986420624133724,-0.0060922809159363826
1592334773.8870268,-0.11,9.73655755914258,0.2886061021435493,-1.34,-0.7588888888888888,-1.5155555555555555,0.028629996329039696,0.03415556094904721,-0.006544984694978735
1592334773.8970268,-0.1020943387619178,9.747905661238082,0.2088490488572602,-1.34,-0.7588888888888888,-1.5155555555555555,0.03680833587309069,0.03145708958609095,-0.003957863104632002
1592334773.9070268,-0.06763706411142942,9.774272201916427,0.1333648621950015,-1.34,-0.7588888888888888,-1.5155555555555555,0.04612213689019867,0.03407351057782198,-0.0006248058465484615
1592334773.9170268,-0.09336128717698683,9.793344514870794,0.12667225743539737,-1.34,-0.7588888888888888,-1.5155555555555555,0.05090787594955298,0.04000139769937721,-0.0007278303799272306
1592334773.9270267,-0.09506602641056422,9.777599039615847,0.13,-1.34,-0.7389769241029746,-1.5055995731625984,0.0474727461309262,0.042542400517361786,-0.001090830782496456
1592334773.9370267,-0.09,9.77775191466716,0.17651148800296165,-1.34,-0.7322222222222222,-1.5022222222222221,0.04074127657951663,0.036623181517804845,-0.0036276389251637155
1592334773.9470267,-0.09790342358249951,9.787903423582499,0.1030623405925054,-1.34,-0.7322222222222222,-1.5022222222222221,0.039269908169872414,0.02542315753589782,-0.005225452903075712
1592334773.9570267,-0.0921735258273179,9.79,0.0721735258273179,-1.34,-0.7322222222222222,-1.5022222222222221,0.03500122869688485,0.0177850310648405,-0.007161625701677304
1592334773.9670267,-0.09,9.783394864537,0.0766051354630004,-1.34,-0.7322222222222222,-1.5022222222222221,0.031654228731710185,0.017082970246006822,-0.005474289951795245
1592334773.9770267,-0.10589986724824578,9.764100132751754,0.11974966812061447,-1.3285167625429337,-0.7322222222222222,-1.5128221337210528,0.027074448983502024,0.01832049575154298,-0.002628916666786452
1592334773.9870267,-0.10549082435187883,9.778036702592486,0.11647247305563647,-1.3255555555555556,-0.7322222222222222,-1.5155555555555555,0.024704314499718747,0.01854412330243975,-0.001689786804927513
1592334773.9970267,-0.10709422701103893,9.785811545977921,0.03615195690064965,-1.3255555555555556,-0.7322222222222222,-1.5155555555555555,0.01903814583159603,0.015448682821776116,-0.0018646909026623646
1592334774.0070267,-0.11,9.795305844814367,0.03295876722154889,-1.3255555555555556,-0.7322222222222222,-1.5155555555555555,0.013279270851037268,0.004997952500860669,-0.003016465898774117
1592334774.0170267,-0.09760777425636717,9.8,0.06478445148726565,-1.3255555555555556,-0.7322222222222222,-1.5155555555555555,0.007943792216021098,-0.0032254669569269753,-0.0032724923474893677
