time,acc_x,acc_y,acc_z,mag_x,mag_y,mag_z,gyr_x,gyr_y,gyr_z
1592334788.327013,-0.10497566313247557,9.737512168433762,0.6624878315662378,-1.3844444444444444,-0.7833333333333333,-1.6444444444444444,0.0207310943482817,0.025089107997418484,0.008998026585383503
1592334788.337013,-0.0908148337432523,9.749185166256748,0.6324445012297569,-1.3905678886156096,-0.790477351533026,-1.6485267405585544,0.02181661564992912,0.02208326936885605,0.011732484888534086
1592334788.347013,-0.06261020720344876,9.777389792796551,0.5478306216103463,-1.3911111111111112,-0.7911111111111111,-1.6488888888888888,0.01584108982819356,0.025800299531086156,0.012995059577750274
1592334788.357013,-0.11565963028639445,9.798553210095465,0.4379573444749435,-1.3911111111111112,-0.7911111111111111,-1.6488888888888888,0.00717626588044757,0.035287224488730604,0.015113810658583176
1592334788.367013,-0.1292410767224001,9.818482153444801,0.43,-1.3911111111111112,-0.7911111111111111,-1.6488888888888888,-0.0005113309715651,0.04002959620326524,0.019303811335832574
1592334788.377013,-0.16020366797248048,9.78979633202752,0.46020366797248047,-1.3911111111111112,-0.7911111111111111,-1.6488888888888888,-0.013445989820752957,0.04036073895236887,0.023753340431021706
1592334788.387013,-0.12234719698935893,9.789530560602127,0.5176528030106411,-1.3985237693572108,-0.7974648181791966,-1.6361814747527181,-0.034087258726742356,0.032043755848969346,0.02716835377326837
1592334788.397013,-0.10130779392338177,9.821153676794363,0.4639233817701453,-1.3988888888888888,-0.7977777777777778,-1.6355555555555557,-0.035586252832591335,0.01940007242371174,0.01775542046454491
1592334788.407013,-0.08120154724228408,9.831201547242284,0.39480618896913633,-1.3988888888888888,-0.7977777777777778,-1.6355555555555557,-0.06287076052046366,0.0004819908797121797,0.011039376296815279
1592334788.417013,-0.11542759972603386,9.812286200136983,0.4608551994520677,-1.3988888888888888,-0.7977777777777778,-1.6355555555555557,-0.09842322870545844,-0.007853796140442588,0.006077618283574466
1592334788.427013,-0.06881739713069526,9.8026881995901,0.49193540122970203,-1.3988888888888888,-0.7977777777777778,-1.6355555555555557,-0.12008515487236457,-0.008726646259971648,0.004656560216223293
1592334788.437013,-0.05944312835741216,9.828329385072237,0.5094431283574121,-1.373707213269123,-0.7977777777777778,-1.6439494474288108,-0.14507790994118358,-0.008726646259971648,0.0033332376204527852
1592334788.447013,-0.054148780843918824,9.835851219156082,0.5334048766243248,-1.3722222222222222,-0.7977777777777778,-1.6444444444444444,-0.16340458777510808,-0.006173570271737133,0.0026342233504307393
1592334788.457013,-0.0580658946424332,9.807736421430267,0.4451433696483684,-1.3722222222222222,-0.7977777777777778,-1.6444444444444444,-0.1967402187763439,-0.004363323129985824,0.0013018089485589746
1592334788.467013,-0.05173172479694219,9.76692689918777,0.44480482560917345,-1.3722222222222222,-0.7977777777777778,-1.6444444444444444,-0.21533262842631576,0.0037540370686970125,-0.006124600505221621
1592334788.4770129,-0.029498099158902436,9.67799239663561,0.5320076033643902,-1.3722222222222222,-0.7977777777777778,-1.6444444444444444,-0.21742068634805256,0.003963213610005,-0.009126755779952471
1592334788.4870129,0.08540020000740768,9.515436127263973,0.6658183636430979,-1.3903212464659185,-0.7977777777777778,-1.6710606565675272,-0.15540756956849977,0.018950735436038934,-0.0066818284247581895
1592334788.4970129,0.028876175548589338,8.953094043887146,0.9416614420062697,-1.3911111111111112,-0.7977777777777778,-1.6722222222222223,-0.03936753581513973,0.03889683720319416,-0.00802666801176781
1592334788.5070128,-0.3737799572886182,9.126076616836722,1.1144976139629308,-1.3911111111111112,-0.7977777777777778,-1.6722222222222223,0.2995922784758986,0.07614938732372126,1.0439810541966119e-05
1592334788.5170128,0.03594910425418901,9.198237964170167,0.8099546091071514,-1.3911111111111112,-0.7977777777777778,-1.6722222222222223,0.60445596867572,0.09753572657643887,0.018001183600349732
1592334788.5270128,-0.01915102738506462,9.60243652291585,0.23758555606994058,-1.3911111111111112,-0.7977777777777778,-1.6722222222222223,0.7233879625595134,0.12026078216009903,0.013272778038596349
1592334788.5370128,-0.71417928051897,10.226858659327698,0.1472282288185571,-1.3723967411484612,-0.8098870759889042,-1.6579112334272548,0.772469449118251,0.16984709184792668,-0.01396915283958111
1592334788.5470128,0.09263865220759093,10.068936483346244,-0.16480596436870645,-1.3722222222222222,-0.81,-1.6577777777777778,0.6836630683200436,0.15499611208691114,-0.002201729133609713
1592334788.5570128,-0.24078339169584784,10.430522261130566,-0.7793701850925463,-1.3722222222222222,-0.81,-1.6577777777777778,0.5002310957081657,0.1523108086218034,-0.0226655974065114
1592334788.5670128,-0.3652578400533791,10.278452959679726,-0.43572037937279573,-1.3722222222222222,-0.81,-1.6577777777777778,0.2721504007726713,0.1344476493535867,0.0065113478864630946
1592334788.5770128,-0.3357938249926836,10.245113403570384,-0.27738147497805093,-1.3722222222222222,-0.81,-1.6577777777777778,0.16545543813467242,0.11333395035735036,0.013573532728496103
1592334788.5870128,0.034036400213749096,10.143305252569705,-0.12604784207713826,-1.3771057953247625,-0.7933958514513634,-1.6314064830240607,-0.060929960988478526,0.07751036257609818,0.02691022243771551
1592334788.5970128,0.03472597807824626,9.987710216817346,-0.02945195615649253,-1.3777777777777778,-0.7911111111111111,-1.6277777777777778,-0.15550644156937837,0.07173973136656486,0.014956748367283593
1592334788.6070127,-0.1949230293184807,9.406230886258735,0.03707691910987339,-1.3777777777777778,-0.7911111111111111,-1.6277777777777778,-0.3109119194161611,0.07074457153153578,-0.006335206298963716
1592334788.6170127,-0.23,9.16472795586417,0.7646028726338818,-1.3777777777777778,-0.7911111111111111,-1.6277777777777778,-0.2975875971566596,0.06714010029772488,-0.013431521965652582
1592334788.6270127,-0.10548183383908802,9.174865086525056,0.9845952595751661,-1.3777777777777778,-0.7911111111111111,-1.6277777777777778,-0.1961762496801916,0.062194173776177204,-0.01744067813953388
1592334788.6370127,0.5834405287649308,9.130766175642432,0.6586158451643498,-1.3660394334285082,-0.7969802832857459,-1.6326687545899734,0.027499417574913684,0.060695054626450605,-0.05337738061433494
1592334788.6470127,-0.11730231031228189,10.000180557265377,0.268503426484468,-1.3644444444444443,-0.7977777777777778,-1.6333333333333333,0.1145515563383517,0.06607420198094419,-0.09958583607188182
1592334788.6570127,-1.9028255059182895,9.878163421153111,0.02,-1.3644444444444443,-0.7977777777777778,-1.6333333333333333,0.11441394620885603,0.06887597073132494,-0.07935372973492123
1592334788.6670127,-0.9994798650900079,9.756182697387136,-0.04182697387134787,-1.3644444444444443,-0.7977777777777778,-1.6333333333333333,0.04173995792905939,-6.928231594302559e-05,-0.0021123792490498894
1592334788.6770127,0.05279971806788397,9.98224598577124,-0.04415387326270346,-1.3644444444444443,-0.7977777777777778,-1.6333333333333333,0.011566155599787867,-0.02611953595647061,0.066168097548055
1592334788.6870127,-0.5067536002809976,9.499488057604497,0.6086327713382508,-1.3757979159349023,-0.8081851266440307,-1.6409023143269719,-0.028384493614754765,0.02402117048476894,0.052207958204276726
1592334788.6970127,-0.3363805522208883,9.405338535414167,0.7093229291716686,-1.3777777777777778,-0.81,-1.6422222222222222,-0.009791941387895856,0.021734246794924285,0.03867905240869306
1592334788.7070127,0.08689595466708643,9.839161026286794,0.3105761057767983,-1.3777777777777778,-0.81,-1.6422222222222222,0.10845224048876223,0.021759266762576085,0.02880940243537704
1592334788.7170126,-0.11401506663170194,9.86052780890171,0.15306315111926957,-1.3777777777777778,-0.81,-1.6422222222222222,0.1694591720947881,0.05061619182240045,0.016827170681667204
1592334788.7270126,-0.07735429287654064,9.918392521412157,0.12574681428869855,-1.3777777777777778,-0.81,-1.6422222222222222,0.14282283667123824,0.047394512456299956,0.0001877678221802962
1592334788.7370126,-0.12741007194244605,10.081115107913668,0.06755395683453237,-1.3729216626698642,-0.81,-1.6597042366107115,0.07532225791655384,0.02837729575185025,-0.008314641827733778
1592334788.7470126,-0.05560370104906498,9.993394148693556,0.09997719423991659,-1.3722222222222222,-0.81,-1.6622222222222223,0.03129121345249608,0.019880954302452347,-0.004850348119994667
1592334788.7570126,-0.20986753146814713,9.866838619249162,0.21838619249161767,-1.3722222222222222,-0.81,-1.6622222222222223,-0.049987726828894505,0.0023014293046750237,-0.008951731664110145
1592334788.7670126,-0.07086265607264469,9.650125890001032,0.3992002889278712,-1.3722222222222222,-0.81,-1.6622222222222223,-0.09395158601352796,-0.014173933938037222,-0.006237242319646437
1592334788.7770126,0.17623928866665323,9.542550960743593,0.5823471177692199,-1.3722222222222222,-0.81,-1.6622222222222223,-0.06965252673369672,-0.018932117451965328,0.0008125641320912876
1592334788.7870126,-0.12706155734829883,9.702146615222729,0.5968739038933707,-1.3612596944541875,-0.8159028995674033,-1.6386106239526093,0.00589368104730964,-0.015495555443009328,-0.007489944121520518
1592334788.7970126,-0.12594037424674911,9.67581668252458,0.5578464954012052,-1.3577777777777778,-0.8177777777777778,-1.6311111111111112,0.05215471972474571,-0.007897711735752964,-0.010424993329833716
1592334788.8070126,-0.12175584147104426,9.661053504882625,0.27201506949922477,-1.3577777777777778,-0.8177777777777778,-1.6311111111111112,0.11183432302876145,0.0,-0.008989777325966767
1592334788.8170125,-0.20605690613757768,9.848650387005343,0.18278861877248445,-1.3577777777777778,-0.8177777777777778,-1.6311111111111112,0.12392458438825567,0.0,-0.005580087609055238
1592334788.8270125,-0.19664256384576864,9.810730896344516,0.2559116675012519,-1.3577777777777778,-0.8177777777777778,-1.6311111111111112,0.12226066369243853,0.001910925776792339,-0.0005414715764011451
1592334788.8370125,-0.07988808675640742,9.840111913243593,0.269955234702563,-1.3711260328769235,-0.8103620805004746,-1.6311111111111112,0.09742232036472691,-0.0010957139189396478,0.005093799075945589
1592334788.8470125,0.03518780859212772,9.832055281251442,0.22827073046929075,-1.3777777777777778,-0.8066666666666666,-1.6311111111111112,0.07195385816606403,-0.0016922952751387038,0.0049647876226280715
1592334788.8570125,-0.11252208724461624,9.816900883489785,0.1923964660408614,-1.3777777777777778,-0.8066666666666666,-1.6311111111111112,0.05901298159520515,0.002673017286042875,-0.005422681848216438
1592334788.8670125,-0.20353215151371132,9.77263746970201,0.24766075756855666,-1.3777777777777778,-0.8066666666666666,-1.6311111111111112,0.05194204805117866,0.005839451872442056,-0.01055554141369622
1592334788.8770125,-0.1887513592560651,9.834994562975739,0.2746878398140163,-1.3777777777777778,-0.8066666666666666,-1.6311111111111112,0.04322461457192919,-0.0015675502984136705,-0.006272573543026042
1592334788.8870125,-0.17,9.89839516322406,0.18876614256842394,-1.3745542120066836,-0.7982853956618216,-1.640781808424394,0.016201039856160754,-0.01125842889617998,0.00035012107121542126
1592334788.8970125,-0.10995618075998292,9.716540077751063,0.2767737803644862,-1.3722222222222222,-0.7922222222222223,-1.6477777777777778,-0.02656373099945039,-0.020367485648364537,-0.0036403514417327402
1592334788.9070125,-0.15271777003484321,9.74899271460247,0.36322141273360786,-1.3722222222222222,-0.7922222222222223,-1.6477777777777778,-0.0468507847514284,-0.02688274201450404,-0.004381636095292226
1592334788.9170125,-0.04716330453713782,9.751566806401557,0.29208907520207517,-1.3722222222222222,-0.7922222222222223,-1.6477777777777778,-0.03813830102767173,-0.02694513976053547,-0.0018560317631169867
1592334788.9270124,-0.11712311040527029,9.825087936003765,0.2762719840009411,-1.3722222222222222,-0.7922222222222223,-1.6477777777777778,-0.04023157935204151,-0.0250336072252957,0.002348163881361261
1592334788.9370124,-0.05389972688255951,9.741202692157627,0.3,-1.3754264750509386,-0.7883771188277626,-1.6477777777777778,-0.061837933006885996,-0.02966065936007555,0.009229075342584627
1592334788.9470124,0.016986392528511432,9.722839211546844,0.24689919456619014,-1.3777777777777778,-0.7855555555555556,-1.6477777777777778,-0.06765053215907448,-0.03164360451454433,0.009826988864615208
1592334788.9570124,-0.059830694008611254,9.760084652995694,0.19344620399425916,-1.3777777777777778,-0.7855555555555556,-1.6477777777777778,-0.040829003585872846,-0.021129410035462863,0.013795643423130517
1592334788.9670124,-0.06043956043956045,9.78912087912088,0.27780219780219784,-1.3777777777777778,-0.7855555555555556,-1.6477777777777778,-0.0006233318757122609,-0.012806273472165352,0.011383798166052759
1592334788.9770124,-0.07091639808954296,9.857061895701472,0.16789791480604202,-1.3777777777777778,-0.7855555555555556,-1.6477777777777778,0.010187956265824808,-0.012049120369715735,0.008726646259971648
1592334788.9870124,-0.09533952230180444,9.85194429928376,0.21222280286495956,-1.3777777777777778,-0.7891152370900919,-1.651337459312314,-0.008016303531607781,-0.009595260215576707,0.010474000847162029
1592334788.9970124,0.010847251302527158,9.65350976286702,0.37347957345279253,-1.3777777777777778,-0.7922222222222223,-1.6544444444444444,-0.03993002624772536,-0.015080203086219934,0.007020261212570316
1592334789.0070124,0.07635830573951435,9.684449503311258,0.3064169426048565,-1.3777777777777778,-0.7922222222222223,-1.6544444444444444,-0.04879104886979974,-0.020328537647454823,0.005750490255023053
1592334789.0170124,0.0925488499531329,9.862939649578196,0.2637255750234336,-1.3777777777777778,-0.7922222222222223,-1.6544444444444444,-0.024041378755682578,-0.014565882551219711,0.001069515969456111
1592334789.0270123,0.05317421589075597,9.799928377474322,0.28081145960410847,-1.3777777777777778,-0.7922222222222223,-1.6544444444444444,-0.020600822905768534,-0.007503040710238108,-0.006722017717961513
1592334789.0370123,0.01,9.726839350601727,0.3526942694269427,-1.3816810569945883,-0.7922222222222223,-1.6544444444444444,-0.04140069557195862,-0.0075566859717675445,-0.008992290119895528
1592334789.0470123,-0.0038816930514041104,9.769915495036717,0.37413520794125243,-1.3844444444444444,-0.7922222222222223,-1.6544444444444444,-0.04303035397488501,-0.006572638879545512,-0.006121557668111316
1592334789.0570123,-0.12534583063994828,9.788218056453351,0.17930833872010343,-1.3844444444444444,-0.7922222222222223,-1.6544444444444444,-0.014980061123946967,0.01307909868888217,-0.0011880207261642612
1592334789.0670123,-0.18,9.841419129359739,0.058096811773376764,-1.3844444444444444,-0.7922222222222223,-1.6544444444444444,-0.03602021224324357,0.012051941238714736,0.0017136476732420966
1592334789.0770123,-0.07863710333604555,9.711408229687319,0.14170928745786354,-1.3844444444444444,-0.7922222222222223,-1.6544444444444444,-0.07447383113663965,0.0039501565480068975,0.006469413946824849
1592334789.0870123,0.003942481961495058,9.493942481961495,0.4015566118387307,-1.3809701087059771,-0.7922222222222223,-1.658497836139323,-0.09533233614549524,-0.0017054605675114716,0.01668546224169185
1592334789.0970123,-0.12589468051901725,9.669331163329915,0.475250813751282,-1.3777777777777778,-0.7922222222222223,-1.6622222222222223,-0.02952811368403535,0.0028429111520103163,0.026036745048088592
1592334789.1070123,-0.06288764745261893,9.801555668413398,0.2277758027655301,-1.3777777777777778,-0.7922222222222223,-1.6622222222222223,0.06355960911677884,0.015368679867338513,0.022228658035348667
1592334789.1170123,-0.07683946221702627,9.853992719736423,-0.007985439472845149,-1.3777777777777778,-0.7922222222222223,-1.6622222222222223,0.10842778562658623,0.02524437371380263,0.008946400723593926
1592334789.1270123,-0.16772709242364142,9.963181277270925,-0.04336374454581515,-1.3777777777777778,-0.7922222222222223,-1.6622222222222223,0.08162408520830283,0.022431479014438226,-0.0033815321559737418
1592334789.1370122,-0.16232685642861203,10.162831089142662,-0.04660388614283279,-1.3777777777777778,-0.7922222222222223,-1.6646820572063457,0.027023580279075955,0.012506779931216964,-0.002689302888748862
1592334789.1470122,-0.2028782429386659,10.100228744065602,-0.11030259435093273,-1.3777777777777778,-0.7922222222222223,-1.6666666666666667,-0.03760026174414365,0.0028345488712000896,-0.000561919352878575
1592334789.1570122,-0.13256341055648435,9.924162407451636,-0.013604012419393352,-1.3777777777777778,-0.7922222222222223,-1.6666666666666667,-0.1279566913277298,-0.002068149510554482,-0.0035604279053625667
1592334789.1670122,-0.1950558066796632,10.027793226075966,-0.05368709698151204,-1.3777777777777778,-0.7922222222222223,-1.6666666666666667,-0.20410112520998575,-0.00947316159549403,-0.00498339005478629
1592334789.1770122,-0.1430054146254388,10.08379618794502,-0.01462226541581546,-1.3777777777777778,-0.7922222222222223,-1.6666666666666667,-0.27196190479320825,-0.021254898051286632,-0.0016813017104381697
1592334789.1870122,-0.14062340474901386,9.855440482635935,0.16030396782427103,-1.3777777777777778,-0.7859253529962789,-1.663232010725243,-0.3560104154624658,-0.03728719308064148,-0.003471438823251348
1592334789.1970122,-0.26858762846005435,9.69839075481356,0.23136315312832226,-1.3777777777777778,-0.78,-1.66,-0.3921241373803205,-0.044537782872066584,-0.009093835784701427
1592334789.2070122,-0.25178400195032097,9.566902511038275,0.5568686512988595,-1.3777777777777778,-0.78,-1.66,-0.38780327051360464,-0.04111368610407607,-0.0048407924426157834
1592334789.2170122,0.06101611374407584,9.418350710900473,0.6494293838862559,-1.3777777777777778,-0.78,-1.66,-0.3017471619984102,-0.0189107665208978,0.008966525635838166
1592334789.2270122,0.07344915237275584,9.518384604607409,0.5773796609491023,-1.3777777777777778,-0.78,-1.66,-0.2060192318588314,-0.0064973455866904565,0.015223991846662104
1592334789.2370121,-0.16356949458483755,9.698215252707582,0.45435694945848376,-1.3746427496991576,-0.7762379663056559,-1.66,-0.11421652988108255,0.004254535403031078,0.014321092037531315
1592334789.2470121,-0.07706175872260393,9.758848884965264,0.37230223006947377,-1.3722222222222222,-0.7733333333333333,-1.66,-0.0669942101099755,0.01358478527248705,0.017502028827885794
1592334789.2570121,0.009678213136475489,9.704175421162219,0.17542234525837594,-1.3722222222222222,-0.7733333333333333,-1.66,0.04103997881851877,0.030021978801011852,0.02508472030971679
1592334789.2670121,-0.015281500702263903,9.574616135406004,0.31979527221653536,-1.3722222222222222,-0.7733333333333333,-1.66,0.06278139237770804,0.03816791121896418,0.02291302951663146
1592334789.277012,-0.0628090885761099,9.744584361490022,0.30242691039737846,-1.3722222222222222,-0.7733333333333333,-1.66,0.07728722467843374,0.04215509604899648,0.014639187263418691
1592334789.287012,-0.15583407831217594,9.778890279516062,0.3030544132546636,-1.3818517194111688,-0.7757407076305699,-1.6624073742972365,0.13423251707525152,0.047481401970192,0.0031816060351984063
1592334789.297012,-0.10233435808020555,9.764633614756354,0.3229969257593833,-1.3988888888888888,-0.78,-1.6666666666666667,0.18241955067282856,0.05800405345385515,0.001090830782496456
1592334789.307012,-0.21934957954350437,9.913013557576797,0.16150677878839884,-1.3988888888888888,-0.78,-1.6666666666666667,0.18634523540103648,0.06637631366380399,0.0020994795307530036
1592334789.317012,-0.2620544665924012,9.8889727667038,0.18268872508354864,-1.3988888888888888,-0.78,-1.6666666666666667,0.14757199697990123,0.06975714319475813,0.006894305988674302
1592334789.327012,-0.28320687587447535,9.795437537477513,0.3366616030381771,-1.3988888888888888,-0.78,-1.6666666666666667,0.12191703054889602,0.07348955108236878,0.007460907531499045
1592334789.337012,-0.3212884168185532,9.708067374772169,0.4559663126139149,-1.3891036250253144,-0.78,-1.6695207019602092,0.1253355382278997,0.08145176069621234,0.0053838816761640805
1592334789.347012,-0.18921476320497127,9.849738254401657,0.2825134168157424,-1.3722222222222222,-0.78,-1.6744444444444444,0.1288607924125095,0.08387976218988495,0.008669542228800568
1592334789.357012,-0.16487311157470028,9.893604227321703,0.12177643795419638,-1.3722222222222222,-0.78,-1.6744444444444444,0.10599876365228314,0.07537805503246303,0.012392298818423839
1592334789.367012,-0.19789958675723177,9.936050206621383,0.11509903576687408,-1.3722222222222222,-0.78,-1.6744444444444444,0.04592442672103304,0.058730509640782094,0.017022436899753808
1592334789.377012,-0.19439753881259933,9.836927590562732,0.1860441709791777,-1.3722222222222222,-0.78,-1.6744444444444444,-0.00505771041999681,0.040408922016148915,0.013977088935088651
1592334789.387012,-0.07004558404558406,9.665818263607738,0.283090718248613,-1.3791767548024858,-0.7820454507589011,-1.6830353376318288,-0.03708327415686812,0.027389781179946924,0.010794268655440413
1592334789.397012,-0.1107005388760585,9.636654995157565,0.23190891256301377,-1.3911111111111112,-0.7855555555555556,-1.6977777777777778,-0.03999967501981789,0.009576767754100785,0.001940952276625594
1592334789.407012,-0.2592257761789317,9.671483537968248,0.0321295065300696,-1.3911111111111112,-0.7855555555555556,-1.6977777777777778,-0.029248289572503708,0.0030754313396245975,-0.004560384137850594
1592334789.417012,-0.08948548005004126,9.58570177539993,0.2678964039500652,-1.3911111111111112,-0.7855555555555556,-1.6977777777777778,0.05276268560490889,-0.010296648178339142,-0.008538032329254912
1592334789.427012,-0.05472212633759062,10.017759751467034,-0.05649637556092509,-1.3911111111111112,-0.7855555555555556,-1.6977777777777778,0.09082437080261914,-0.02219390679389234,-0.005311445984775632
1592334789.437012,-0.1804528147150138,10.02006912307422,-0.02264776521586316,-1.3883584897063896,-0.7832617043849543,-1.7005303991824992,0.05998230606238076,-0.030613583465529455,-0.005193794822605775
1592334789.447012,-0.11,9.75,0.13,-1.3844444444444444,-0.78,-1.7044444444444444,0.019634954084936207,-0.03381575425739013,-0.0032724923474893677
1592334789.457012,-0.3189567103043932,9.921585414826117,0.051757020855085274,-1.3844444444444444,-0.78,-1.7044444444444444,-0.054962300239437656,-0.04792018780611295,0.006774084566172074
1592334789.467012,-0.02929833235941924,9.737005888434394,0.08898233469681306,-1.3844444444444444,-0.78,-1.7044444444444444,-0.04000608533391259,-0.04157660315489346,0.020663268157418594
1592334789.477012,-0.08374820872422951,9.766874104362115,0.23519689703269198,-1.3844444444444444,-0.78,-1.7044444444444444,-0.007531874229174564,-0.040421723931820974,0.015673598252870145
1592334789.487012,-0.2243413349960165,9.892780491184316,0.2888780352627386,-1.3844444444444444,-0.78,-1.706298105233988,0.01297290978400735,-0.04678866404139749,-0.0017027676186366098
1592334789.497012,0.05,9.9,0.26,-1.3844444444444444,-0.78,-1.711111111111111,0.02399827721492203,-0.05781403147231216,-0.017453292519943295
1592334789.507012,0.004988776025590655,9.773097255738257,0.08673691003984511,-1.3844444444444444,-0.78,-1.711111111111111,0.008236724336613484,-0.07570052810204479,-0.016493987071988264
1592334789.517012,-0.2159725400457666,9.795766590389016,0.19221967963386727,-1.3844444444444444,-0.78,-1.711111111111111,-0.014389231225860001,-0.08595971222297301,-0.00938938212439455
1592334789.5270119,-0.18076885281342742,9.990128142135571,0.029615573593286294,-1.3844444444444444,-0.78,-1.711111111111111,-0.0250611517202153,-0.0843529211335254,0.0035615525357796875
1592334789.5370119,-0.10067222511724858,9.876693130613372,0.12110228979554302,-1.3860394336647286,-0.7813291576835703,-1.711111111111111,-0.0331061441398001,-0.08404088303118191,0.01422771295140873
1592334789.5470119,-0.07242005981136418,9.650910973084885,0.23181849551414768,-1.3911111111111112,-0.7855555555555556,-1.711111111111111,-0.05718630816832898,-0.0759944190445406,0.01821376242708742
1592334789.5570118,0.1288334652942729,9.827363420427552,0.2537424122459752,-1.3911111111111112,-0.7855555555555556,-1.711111111111111,-0.08248166249280407,-0.06831410544940658,0.027819495735923735
1592334789.5670118,-0.12375539178230754,9.850077148702274,0.27563875674743044,-1.3911111111111112,-0.7855555555555556,-1.711111111111111,-0.09655894489571479,-0.0620872564052571,0.01869189402489176
1592334789.5770118,-0.1608175068386088,9.652755373192655,0.29663266901133256,-1.3911111111111112,-0.7855555555555556,-1.711111111111111,-0.06837744238984497,-0.04683896940719952,0.006155414451866774
1592334789.5870118,0.17502430345966896,9.5933522889729,0.279837659243257,-1.3911111111111112,-0.7892252897177128,-1.7190151539219112,0.024405575692752854,-0.033261484551406456,-0.001957652600413787
1592334789.5970118,-0.2326777267749377,9.64244937903395,0.3102283477409884,-1.3911111111111112,-0.8,-1.7422222222222221,0.10771260722507663,-0.03679615192555781,-0.008561917264437021
1592334789.6070118,-0.1778966023253189,9.697415058132972,0.2320679534936223,-1.3911111111111112,-0.8,-1.7422222222222221,0.15723221846859337,-0.04492530983389688,-0.005023461067802733
1592334789.6170118,-0.03488191415838515,9.884563284955076,0.054933152212769,-1.3911111111111112,-0.8,-1.7422222222222221,0.22818318114754665,-0.04611871163358965,0.0023262789869568246
1592334789.6270118,0.12253461362232802,9.8275847162181,0.11578520628722833,-1.3911111111111112,-0.8,-1.7422222222222221,0.2320584994371124,-0.046038265767878846,0.013523698329691853
1592334789.6370118,-0.17207395498392283,10.079496784565917,0.03414790996784566,-1.3928279742765275,-0.8,-1.7402600928903178,0.17452170121710503,-0.04186370033596929,0.00814650667339636
1592334789.6470118,-0.18630826779205834,9.819445616727412,0.151784960675235,-1.3988888888888888,-0.8,-1.7333333333333334,0.11671889372712078,-0.016362461737446838,-0.00545415391248228
1592334789.6570117,-0.1,9.9,0.1,-1.3988888888888888,-0.8,-1.7333333333333334,0.11671889372712078,-0.016362461737446838,-0.00545415391248228
1592334789.6670117,-0.24,9.879154848046309,0.11126772793053546,-1.3988888888888888,-0.8,-1.7333333333333334,0.02573445043429917,-0.00034824496471594525,-0.0008808734828263712
1592334789.6770117,-0.23066616331745846,9.85777442211639,0.12155941456615171,-1.3988888888888888,-0.8,-1.7333333333333334,-0.0007027236054971938,0.00162427225006645,0.007223760453119462
1592334789.6870117,-0.2156760374832664,9.759732262382865,0.2951360999553771,-1.3988888888888888,-0.8,-1.7402707124795478,0.00754722502570618,0.005365563460713268,0.010996898276733572
1592334789.6970117,-0.17605263157894735,9.851842105263158,0.3742105263157895,-1.3988888888888888,-0.8,-1.77,-0.014582685197584197,-0.009788770969244513,0.022275912821506573
1592334789.7070117,0.00042432979143899874,9.75976121276942,0.3822281382966356,-1.3988888888888888,-0.8,-1.77,-0.038639134109543484,-0.020798119713434194,0.020436445483426532
1592334789.7170117,0.07287738199767436,9.802753031633404,0.3634991338190275,-1.3988888888888888,-0.8,-1.77,-0.034088934381448256,-0.02143491936174216,0.007213425627739918
1592334789.7270117,-0.013858421770320746,9.793150530621926,0.35396810339716606,-1.3988888888888888,-0.8,-1.77,-0.024472455865379373,-0.015520684689662771,0.0008417770477840677
1592334789.7370117,-0.0329266740893908,9.989512008907269,0.22243868299665978,-1.4009756287224078,-0.8032249615608928,-1.77,-0.040626827402828,-0.002979788111753481,0.00965785173311599
1592334789.7470117,0.15810596086620965,9.756669314931674,0.13008830072184135,-1.4111111111111112,-0.8188888888888889,-1.77,-0.05466935654206633,0.024745050846585685,0.014180800172453926
1592334789.7570117,0.1658266230197606,9.592353826670807,0.3130216721225299,-1.4111111111111112,-0.8188888888888889,-1.77,-0.02899718631970358,0.03453326136069859,0.012387032414182772
1592334789.7670116,-0.20292067952484352,9.782475922850939,0.3281430578617959,-1.4111111111111112,-0.8188888888888889,-1.77,0.001960095705965467,0.0329084795449998,0.011429465502681988
1592334789.7770116,-0.19,9.86,0.27,-1.4111111111111112,-0.8188888888888889,-1.77,-0.016362461737446838,0.0272707695624114,0.016362461737446838
1592334789.7870116,0.015674283665286698,9.57,0.7677087068487792,-1.4105591231939962,-0.8166809372204293,-1.779383794590953,0.08682038012208118,0.007121922773865361,-0.00896958252838172
1592334789.7970116,-0.3,9.57,0.67,-1.4088888888888889,-0.81,-1.8077777777777777,0.1679879405044542,-0.007635815477475192,-0.022907446432425576
1592334789.8070116,-0.166241925860593,10.052991776699784,0.08254844483644193,-1.4088888888888889,-0.81,-1.8077777777777777,0.24095574487550006,-0.00034044424353977696,-0.012749525146417693
1592334789.8170116,-0.15410174613834787,10.18380648565672,-0.10359301544660848,-1.4088888888888889,-0.81,-1.8077777777777777,0.14325236089457033,-0.011180335255781397,-0.011191978249598219
1592334789.8270116,-0.11,10.02,-0.28,-1.4088888888888889,-0.81,-1.8077777777777777,0.030543261909900768,-0.028361600344907853,-0.009817477042468103
1592334789.8370116,-0.08760372484612686,9.813645438020218,0.3256245814331728,-1.4088888888888889,-0.8141781916495697,-1.8077777777777777,-0.1439782877859484,-0.08642564938375387,-0.014669459801937861
1592334789.8470116,-0.24,9.95,0.47,-1.4088888888888889,-0.8311111111111111,-1.8077777777777777,-0.148352986419518,-0.074176493209759,0.00545415391248228
1592334789.8570116,0.2960292326431182,9.555408038976857,0.42375152253349574,-1.4088888888888889,-0.8311111111111111,-1.8077777777777777,-0.14656992319161272,-0.09115943969193892,0.007587983677024677
1592334789.8670115,-0.07,9.88,0.7,-1.4088888888888889,-0.8311111111111111,-1.8077777777777777,-0.10362892433716332,-0.10471975511965977,-0.011999138607461015
1592334789.8770115,0.06116411718952554,9.605656814449919,0.41247774608936133,-1.4088888888888889,-0.8311111111111111,-1.8077777777777777,-0.02366935935128621,-0.06828274514475914,-0.008202395116469549
1592334789.8870115,-0.04505598375995179,9.765055983759952,0.6186034192914011,-1.4131905985345894,-0.832306030457139,-1.8154252615923563,0.050074727719059166,-0.05718023065796986,-0.009125825209369358
1592334789.8970115,-0.1,9.82,0.65,-1.4288888888888889,-0.8366666666666667,-1.8433333333333333,0.10144726277217041,-0.04690572364734761,-0.01854412330243975
1592334789.9070115,0.39543774164504,9.490963402362164,0.1833441025369419,-1.4288888888888889,-0.8366666666666667,-1.8433333333333333,0.12181785312391066,-0.04998975722610102,-0.02588638911592127
1592334789.9170115,-0.05725914103308184,9.553012188044109,0.563554846198491,-1.4288888888888889,-0.8366666666666667,-1.8433333333333333,0.19421377901259376,-0.05949467376249478,-0.028159562403257142
1592334789.9270115,0.017893964046192312,9.508595976030795,0.2855787928092385,-1.4288888888888889,-0.8366666666666667,-1.8433333333333333,0.24781736912410507,-0.040031615318918315,-0.01709728663259654
1592334789.9370115,0.13127940150890763,9.588255880301782,0.30854656691815124,-1.428695097811309,-0.837409532464056,-1.843527124410913,0.2886007813062255,-0.033562082330033445,-0.02518423497017724
1592334789.9470115,-0.16523723556913392,9.603321297967874,0.2364324399388974,-1.4222222222222223,-0.8622222222222222,-1.85,0.35036370827057384,-0.02137569844432068,-0.026647719012708865
1592334789.9570115,-0.13356314168377822,9.781621919917864,0.1828991273100616,-1.4222222222222223,-0.8622222222222222,-1.85,0.35592985269999877,-0.00781273949479026,-0.020128123833470412
1592334789.9670115,-0.015590536111576278,9.871495897227339,0.026677352216454148,-1.4222222222222223,-0.8622222222222222,-1.85,0.3223001390638758,0.004832290857845057,-0.017312427359685984
1592334789.9770114,-0.05,10.25,-0.4,-1.4222222222222223,-0.8622222222222222,-1.85,0.2945243112740431,0.01308996938995747,-0.02181661564992912
1592334789.9870114,-0.3788755310494441,10.189574256530777,-0.11859170206996293,-1.4236305201522594,-0.8666035935601153,-1.8510953428344734,0.16265881356767523,0.03582831387969287,-0.012798206912744508
1592334789.9970114,-0.25,10.37,-0.11,-1.4322222222222223,-0.8933333333333333,-1.8577777777777778,0.04363323129985824,0.04145156973486533,-0.004363323129985824
1592334790.0070114,-0.10629114023797641,10.14964014604292,-0.014162748548764151,-1.4322222222222223,-0.8933333333333333,-1.8577777777777778,-0.09720170157426045,0.04626897829052959,0.004180663198846245
1592334790.0170114,-0.0757943207981581,9.874735226400613,0.049213353798925566,-1.4322222222222223,-0.8933333333333333,-1.8577777777777778,-0.18006629619771242,0.04089872447163348,0.007018612872413402
1592334790.0270114,-0.3531219662690251,9.675783216783216,0.3416476758535582,-1.4322222222222223,-0.8933333333333333,-1.8577777777777778,-0.1839507300995853,0.024528615718349658,0.006805128317419015
1592334790.0370114,-0.12207005296837206,9.41178530969658,0.596998867150424,-1.4302141868147196,-0.8955239174142453,-1.8592381671650524,-0.11395175518294282,0.02945243112740431,0.01090830782496456
1592334790.0470114,0.02,9.37,0.48,-1.42,-0.9066666666666666,-1.8666666666666667,0.0,0.02945243112740431,0.01090830782496456
1592334790.0570114,-0.1899645811723632,9.565524072153211,0.5634454929541832,-1.42,-0.9066666666666666,-1.8666666666666667,0.16882112471156205,0.04217428272932524,-0.019272631689019593
1592334790.0670114,-0.3542338505954529,9.714233850595452,0.05537639841212559,-1.42,-0.9066666666666666,-1.8666666666666667,0.22819329665065774,0.0649889765210271,-0.00977496180446391
1592334790.0770113,-0.42,9.78,-0.12,-1.42,-0.9066666666666666,-1.8666666666666667,0.22580197197676635,0.07853981633974483,0.002181661564992912
1592334790.0870113,0.028571248105103586,9.790476250631631,-0.07666498231430015,-1.4208466677895681,-0.9075133344562348,-1.8691008365616755,0.22195815769594826,0.09079884717254545,0.009973329697218418
1592334790.0970113,0.0,9.8,0.19,-1.4377777777777778,-0.9244444444444444,-1.9177777777777778,0.23234695667174513,0.11780972450961724,0.01308996938995747
1592334790.1070113,-0.017019783991117393,9.717164631068941,-0.0074618956293529826,-1.4377777777777778,-0.9244444444444444,-1.9177777777777778,0.2420014752446367,0.1315182754415213,0.00014633230139676854
1592334790.1170113,-0.3370629401215938,9.780878493636006,-0.04057691466561693,-1.4377777777777778,-0.9244444444444444,-1.9177777777777778,0.22856146897922658,0.11918995012705365,-0.014629909657457606
1592334790.1270113,-0.1883151092375837,9.883133973851454,-0.3574726638563756,-1.4377777777777778,-0.9244444444444444,-1.9177777777777778,0.21343524722754784,0.09913418706074018,-0.015705391005260264
1592334790.1370113,-0.04681819673745364,9.772958282732136,-0.11724291856763054,-1.4381147543972896,-0.925669813969942,-1.918206657111702,0.17712181784461475,0.09721236744987206,-0.0111489085686668
1592334790.1470113,-0.64,10.23,-0.02,-1.45,-0.9688888888888889,-1.9333333333333333,0.11453723216212788,0.06326818538479445,-0.019634954084936207
1592334790.1570113,-0.3479361120691942,9.980730678411291,-0.14858454272903346,-1.45,-0.9688888888888889,-1.9333333333333333,-0.019600108624159743,0.020451825455713377,-0.010214958403185684
1592334790.1670113,-0.4551783796682974,10.285142584417134,-0.3524997017062403,-1.45,-0.9688888888888889,-1.9333333333333333,-0.1546331052700414,-0.02067515449225176,-0.009412303885814783
1592334790.1770113,-0.0816549441456351,9.693778237484484,0.2256830781961109,-1.45,-0.9688888888888889,-1.9333333333333333,-0.24721836059404434,-0.04708625004908471,0.0087658204891486
1592334790.1870112,0.005641713519221439,9.329040783127374,0.3484625702788322,-1.4496082143389428,-0.971396317119654,-1.93537061877083,-0.23820579420367063,-0.037871369648736296,0.027976965671608282
1592334790.1970112,0.08,9.58,0.46,-1.4444444444444444,-1.0044444444444445,-1.9622222222222223,-0.14289883250703572,-0.03381575425739013,0.022907446432425576
1592334790.2070112,-0.18964073129251702,9.695264668367347,0.5726227678571428,-1.4444444444444444,-1.0044444444444445,-1.9622222222222223,-0.03071492166473559,-0.019099336227820736,0.0003443630340151441
1592334790.2170112,0.67,9.85,-0.33,-1.4444444444444444,-1.0044444444444445,-1.9622222222222223,0.028361600344907853,-0.042542400517361786,-0.01090830782496456
1592334790.2270112,0.34632369018585485,9.486863173828947,-0.15892103271381716,-1.4444444444444444,-1.0044444444444445,-1.9622222222222223,-0.009528692642224319,-0.02038361021276007,-0.014985575695719067
1592334790.2370112,0.39923303338659494,9.627954755697587,0.017443444621983023,-1.4444444444444444,-1.0044444444444445,-1.9622222222222223,0.002014335406783044,-0.035774314278103216,-0.021719008724306696
1592334790.2470112,-0.69,9.58,0.84,-1.4522222222222223,-1.041111111111111,-1.9777777777777779,0.039269908169872414,-0.039269908169872414,-0.016362461737446838
1592334790.2570112,0.0055371857587569046,9.381852617260053,0.40517906191958564,-1.4522222222222223,-1.041111111111111,-1.9777777777777779,0.18736558898953246,-0.043410482324313014,-0.024785974207101172
1592334790.2670112,-0.37844538113618603,9.460147055341116,0.2101638684316465,-1.4522222222222223,-1.041111111111111,-1.9777777777777779,0.33068947568392604,-0.03185546709875292,-0.023128820838781268
1592334790.2770112,-0.1368185375014672,9.84955064752142,-0.06136527250674909,-1.4522222222222223,-1.041111111111111,-1.9777777777777779,0.4147139836593649,-0.03936913668308906,-0.02870864406758362
1592334790.2870111,-0.17784420360733988,10.448525372667163,-0.25008333659376347,-1.4522222222222223,-1.041111111111111,-1.9777777777777779,0.40934373652408,-0.046529466196802254,-0.02423343812151288
1592334790.2970111,-0.27,10.37,-0.69,-1.4322222222222223,-1.0977777777777777,-2.01,0.3174317577064687,-0.05235987755982988,-0.03490658503988659
1592334790.3070111,-0.03698637646994326,10.146986376469943,-0.4665932951399358,-1.4322222222222223,-1.0977777777777777,-2.01,0.12884152486855044,-0.041437276894372106,-0.01383777200061655
1592334790.317011,0.09572119258662369,9.892441579371475,-0.05480257856567283,-1.4322222222222223,-1.0977777777777777,-2.01,-0.03852100581154286,-0.040835395376662253,0.009467637677896315
1592334790.327011,-0.46,9.73,0.86,-1.4322222222222223,-1.0977777777777777,-2.01,-0.1112647398146385,-0.04363323129985824,-0.00545415391248228
1592334790.337011,-0.4132048497294735,9.73,0.34525334702420907,-1.4322222222222223,-1.0977777777777777,-2.01,-0.018361765310958067,-0.05384234937718576,-0.03199786091353383
1592334790.347011,-0.29,9.75,0.17,-1.4255555555555555,-1.1566666666666667,-1.9866666666666666,0.04363323129985824,-0.006544984694978735,-0.028361600344907853
1592334790.357011,0.08507912267305616,9.799552647515734,-0.08268411490560573,-1.4255555555555555,-1.1566666666666667,-1.9866666666666666,0.06235528705701153,-0.01934216256865698,-0.02469871930904618
1592334790.367011,-0.02,9.79,-0.14,-1.4255555555555555,-1.1566666666666667,-1.9866666666666666,0.08944812416470939,-0.01308996938995747,-0.016362461737446838
1592334790.377011,-0.29987183595001604,10.10847484780519,-0.12069849407241268,-1.4255555555555555,-1.1566666666666667,-1.9866666666666666,0.06628797966892433,-0.009931767867804964,-0.003729655648836809
1592334790.387011,-0.027543482119087748,10.06533099653918,0.1533450173041086,-1.4255555555555555,-1.1566666666666667,-1.9866666666666666,0.0008456624743619356,-0.0018661927993388217,0.0046787918956399145
1592334790.397011,-0.03,9.85,0.39,-1.4466666666666668,-1.2333333333333334,-1.9977777777777779,-0.07853981633974483,0.01308996938995747,-0.006544984694978735
1592334790.407011,0.2831412773711163,9.568172850365995,0.31171468065722097,-1.4466666666666668,-1.2333333333333334,-1.9977777777777779,-0.12123783441807913,0.016505810836224218,0.007118381090088243
1592334790.417011,0.31522487428288126,9.398913048610618,0.34093703520079327,-1.4466666666666668,-1.2333333333333334,-1.9977777777777779,-0.09461852867186207,0.06783920854690799,0.01571319633013475
1592334790.427011,-0.32770378988050636,9.663755373269709,0.4924462673029144,-1.4466666666666668,-1.2333333333333334,-1.9977777777777779,0.04517352377007496,0.10205120540558396,-0.0010650839582142407
1592334790.437011,0.027927593958275876,9.705107859762592,0.0789214023740979,-1.4466666666666668,-1.2333333333333334,-1.9977777777777779,0.14621670981629242,0.13272502974104283,-0.012793310910007336
1592334790.447011,-0.17,9.81,0.15,-1.4322222222222223,-1.2922222222222222,-2.017777777777778,0.17562375598192942,0.15707963267948966,0.0
1592334790.457011,-1.0478517207775555,9.989792532184438,0.3213332820433913,-1.4322222222222223,-1.2922222222222222,-2.017777777777778,0.17803489092510405,0.11831231121111827,-0.020431662826934954
1592334790.467011,0.02023043116759711,9.479668606722889,-0.0865993585936572,-1.4322222222222223,-1.2922222222222222,-2.017777777777778,0.13532274775657455,0.08528912935685172,-0.005645914164067355
1592334790.477011,-0.5914098942781051,9.552082156403841,0.2485465257041401,-1.4322222222222223,-1.2922222222222222,-2.017777777777778,0.1549146095632008,0.054387743516960525,-0.0062302627155239034
1592334790.487011,-0.4898611895730772,9.2220488661125,0.11314825276410298,-1.4322222222222223,-1.2922222222222222,-2.017777777777778,0.24537877952535858,0.06546498881844924,0.010385605236709155
1592334790.497011,-0.87,9.85,0.81,-1.4222222222222223,-1.3633333333333333,-1.9977777777777779,0.3719732968312915,0.06763150851478027,0.02617993877991494
1592334790.507011,-0.23172482350077106,9.85952649517163,-0.4093913819686765,-1.4222222222222223,-1.3633333333333333,-1.9977777777777779,0.42704980599863784,0.063474790841773,0.0022788121601231455
1592334790.517011,0.2802735739231665,9.608533178114087,-0.6295401629802095,-1.4222222222222223,-1.3633333333333333,-1.9977777777777779,0.4014356753872517,0.036637860903452946,-0.015691962723293023
1592334790.527011,-0.59,10.17,-0.04,-1.4222222222222223,-1.3633333333333333,-1.9977777777777779,0.36979163526629855,0.014180800172453926,-0.02181661564992912
1592334790.537011,0.030813820568605044,10.13167815922416,-0.676142556878941,-1.4222222222222223,-1.3633333333333333,-1.9977777777777779,0.3104318814107948,0.009164482945228255,-0.022652668521133398
1592334790.547011,-0.35,10.15,-0.31,-1.4144444444444444,-1.4266666666666667,-1.9422222222222223,0.11780972450961724,-0.03599741582238304,-0.02617993877991494
1592334790.557011,-0.47544464609800363,9.957651542649728,-0.2849110707803993,-1.4144444444444444,-1.4266666666666667,-1.9422222222222223,-0.040011118777797394,-0.0633651921149983,-0.02617993877991494
1592334790.5670109,-0.9404064691570059,10.144749534850437,0.05906898525833691,-1.4144444444444444,-1.4266666666666667,-1.9422222222222223,-0.17619906891072565,-0.10741951056639228,-0.022022307585801322
1592334790.5770109,-0.35,10.04,0.24,-1.4144444444444444,-1.4266666666666667,-1.9422222222222223,-0.20943951023931953,-0.09599310885968812,-0.004363323129985824
1592334790.5870109,0.08214623066661858,9.91548328946894,-0.09692756967227889,-1.4144444444444444,-1.4266666666666667,-1.9422222222222223,-0.2038466477365115,-0.09599310885968812,0.006822401875630212
1592334790.5970109,-0.21,9.9,0.16,-1.4,-1.4877777777777779,-1.8822222222222222,-0.210530341021816,-0.05563236990731925,0.01854412330243975
1592334790.6070108,-0.13573728813559321,9.635954802259887,0.2590169491525424,-1.4,-1.4877777777777779,-1.8822222222222222,-0.19792908847396007,-0.0448312962948713,0.020344302237847747
1592334790.6170108,0.3265684575389948,9.318058925476604,0.1787305025996534,-1.4,-1.4877777777777779,-1.8822222222222222,-0.13995213999464207,-0.028239504178467247,0.00928025391012944
1592334790.6270108,-0.26,9.67,0.56,-1.4,-1.4877777777777779,-1.8822222222222222,-0.05890486225480862,-0.022907446432425576,-0.014180800172453926
1592334790.6370108,-0.4940914957693962,9.362754911802668,0.7063071848558726,-1.4,-1.4877777777777779,-1.8822222222222222,0.0216913101204899,-0.01811955500419002,-0.016574745886571707
1592334790.6470108,-0.09,9.02,0.34,-1.3966666666666667,-1.5122222222222221,-1.8522222222222222,0.23234695667174513,-0.009817477042468103,-0.01854412330243975
1592334790.6570108,0.07975303740173112,9.877252838878741,0.10234574763757642,-1.3966666666666667,-1.5122222222222221,-1.8522222222222222,0.3110449880852793,0.021661735522945577,-0.019469982495540154
1592334790.6670108,-0.642473409950746,9.69,0.39835106003283605,-1.3966666666666667,-1.5122222222222221,-1.8522222222222222,0.32150528794886857,0.02078574201658837,-0.021716687068002942
1592334790.6770108,-0.8986374258493619,9.68753510296203,0.21362733936525058,-1.3966666666666667,-1.5122222222222221,-1.8522222222222222,0.2899576897233116,0.027237979494549192,-0.010803379607805494
1592334790.6870108,0.6846863203307568,9.344062755907084,-0.674374338386562,-1.3966666666666667,-1.5122222222222221,-1.8522222222222222,0.261628966595948,0.02266883060303893,0.0038178968450273427
1592334790.6970108,-0.43,10.33,0.46,-1.3966666666666667,-1.5477777777777777,-1.8044444444444445,0.22580197197676635,0.053450708342326333,0.022907446432425576
1592334790.7070107,-0.9122025264873677,9.742589649551752,0.3197229013854931,-1.3966666666666667,-1.5477777777777777,-1.8044444444444445,0.22388923976116643,0.03432338618632695,0.005692856492026128
1592334790.7170107,-0.51,10.08,0.18,-1.3966666666666667,-1.5477777777777777,-1.8044444444444445,0.18762289458939044,0.00545415391248228,-0.001090830782496456
1592334790.7270107,-0.5333960136903564,10.58691362995772,-0.0929534930541574,-1.3966666666666667,-1.5477777777777777,-1.8044444444444445,0.1017018851215214,-0.013261313496360477,-0.019806298191339212
1592334790.7370107,-0.3935067716816529,10.046364934514381,-0.2920776902652893,-1.3966666666666667,-1.5477777777777777,-1.8044444444444445,-0.05216602077626524,-0.01765634928645678,-0.0188746898855377
1592334790.7470107,-0.33016957177946793,9.840282619632447,0.1970607558225564,-1.4021908200408393,-1.5621405765506264,-1.742573926653711,-0.21305677109786397,-0.0434852520063492,-0.0011833178409396024
1592334790.7570107,-0.48314631903067146,9.979829247810613,0.39975606830087573,-1.4022222222222223,-1.5622222222222222,-1.7422222222222221,-0.2907941908328531,-0.048717566226696304,0.004719837705318473
1592334790.7670107,-0.1950596174191519,9.272100763446087,0.5192073885568868,-1.4022222222222223,-1.5622222222222222,-1.7422222222222221,-0.36190651288222414,-0.06907825586317233,0.020207021891008536
1592334790.7770107,0.9879273168642011,9.095215621876338,0.2690404112523205,-1.4022222222222223,-1.5622222222222222,-1.7422222222222221,-0.27585580865133724,-0.06876026836989388,0.02283158828719128
1592334790.7870107,0.05989866168436875,9.303751142340731,0.6381750979874494,-1.4022222222222223,-1.5622222222222222,-1.7422222222222221,-0.11487202888875545,-0.0471992938333642,0.0184234786274438
1592334790.7970107,0.24,9.69,0.36,-1.4177777777777778,-1.6,-1.71,0.09599310885968812,0.001090830782496456,0.007635815477475192
1592334790.8070107,-0.05578505250154414,9.8067572575664,0.3055132798023471,-1.4177777777777778,-1.6,-1.71,0.17920321714010773,0.018921568271157794,-0.008496756536075546
1592334790.8170106,-0.2984866256980391,10.054423081826759,0.000994976668281633,-1.4177777777777778,-1.6,-1.71,0.18458936308164983,0.018913509864174533,-0.021225597151153467
1592334790.8270106,-0.6003072559115179,9.95762299771167,0.34522525743707094,-1.4177777777777778,-1.6,-1.71,0.13729046145661042,0.006285693968361301,-0.02283815142776899
1592334790.8370106,-0.4745767941255117,9.836893062097621,0.046837320278914796,-1.4177777777777778,-1.6,-1.71,0.11213994882245139,-0.020103241500068432,-0.02907647291131713
1592334790.8470106,0.24528872099298432,9.828521316783593,-0.14112790070156503,-1.4054302332553816,-1.5897103795646699,-1.6503202014750855,0.08770797532873555,-0.03729193114386697,-0.015390545049966186
1592334790.8570106,-0.009057001287503419,9.965212438063283,-0.15,-1.4044444444444444,-1.5888888888888888,-1.6455555555555557,0.05948626131530896,-0.045904947795823894,-0.013478448317140478
1592334790.8670106,0.2122293259207783,9.538311327310632,-0.46013481584433624,-1.4044444444444444,-1.5888888888888888,-1.6455555555555557,-0.030896967012828395,-0.055153283698467434,0.00681030142456439
1592334790.8770106,0.31561600063118855,9.54905440056807,-0.10286559627598724,-1.4044444444444444,-1.5888888888888888,-1.6455555555555557,-0.08756648517321308,-0.05992692710608769,0.015884241591252388
1592334790.8870106,-0.24088605343884772,10.037936691415107,0.4397594807273374,-1.4044444444444444,-1.5888888888888888,-1.6455555555555557,-0.10780653028929069,-0.0549260917718599,0.02285773756513091
1592334790.8970106,-0.12358269720101783,9.959987277353688,0.23358269720101782,-1.3991108283856375,-1.6027562906417867,-1.6274212609556122,-0.10790509203058328,-0.045029106110335254,0.007242228187505733
1592334790.9070106,-0.38519107203246533,9.610597677826625,0.045712321046105286,-1.3988888888888888,-1.6033333333333333,-1.6266666666666667,-0.104990378542737,-0.06673776752804363,-0.008464359927081902
1592334790.9170105,-0.10864361892491592,9.379095745949943,-0.06132011547729822,-1.3988888888888888,-1.6033333333333333,-1.6266666666666667,-0.10671205098013511,-0.0697184872275144,-0.01679051255413186
1592334790.9270105,-0.33405812831644954,9.607543817333976,0.4250876346679531,-1.3988888888888888,-1.6033333333333333,-1.6266666666666667,-0.07066076085782728,-0.09397360729765677,-0.025269904561023283
1592334790.9370105,-0.6638634843220613,9.689739096657243,0.7187205161958609,-1.3988888888888888,-1.6033333333333333,-1.6266666666666667,0.023137858217295235,-0.11395049189467013,-0.019270433601823546
1592334790.9470105,0.2603347624764192,9.204497684788201,0.08622020236666095,-1.4131951066140742,-1.5945295070409118,-1.5694417957659255,0.16688143288786872,-0.09403066106779234,-0.003387318609587863
1592334790.9570105,0.0021215378551722175,9.504078254326561,0.47819771399906846,-1.4133333333333333,-1.5944444444444446,-1.568888888888889,0.2445943649101645,-0.07327776652615431,0.003835320226236331
1592334790.9670105,0.10358296926298374,9.920948737171368,-0.1046689760359848,-1.4133333333333333,-1.5944444444444446,-1.568888888888889,0.35683510462883633,-0.02875926587485033,0.022959192017976877
1592334790.9770105,-0.27011855364552456,9.968891523414346,-0.26224066390041495,-1.4133333333333333,-1.5944444444444446,-1.568888888888889,0.4015569897540999,-0.002660152838879916,0.013450131065031878
1592334790.9870105,0.011720106002063413,10.037851839864059,-0.6846501325025792,-1.4133333333333333,-1.5944444444444446,-1.568888888888889,0.33999805057958377,0.012335812595455846,0.003775263543823784
1592334790.9970105,-1.2069497861650271,10.478568053354069,-0.1075437389717977,-1.4271866495199927,-1.5756435153339778,-1.544150824269854,0.17377482113137502,0.011505154107997507,-0.00570939989873261
1592334791.0070105,-0.6703268498095047,10.091886905955484,-0.4711910968518147,-1.4288888888888889,-1.5733333333333333,-1.541111111111111,0.041861697610778875,0.008055130217809202,-0.012251339909289453
1592334791.0170105,0.7385100736847527,9.611100891430928,-0.8902372855155356,-1.4288888888888889,-1.5733333333333333,-1.541111111111111,-0.16646852288645841,-0.0018810886990476448,-0.008718018315152088
1592334791.0270104,0.04922697015245869,9.969955145181686,-0.0592269701524587,-1.4288888888888889,-1.5733333333333333,-1.541111111111111,-0.3037600014887507,-0.00422093448658072,0.002797048052529682
1592334791.0370104,0.09679822258129668,9.602737628761865,0.12156614825287822,-1.4288888888888889,-1.5733333333333333,-1.541111111111111,-0.34159708559787805,-0.005970464325671977,0.0011490407386135159
1592334791.0470104,-0.1739218808542525,9.116078119145747,0.6273454477332334,-1.4349054993547312,-1.5693222596894385,-1.5020031430831358,-0.26243287888677386,0.0003462744025740441,0.01476698378047024
1592334791.0570104,0.0519938686945097,9.179557670103913,0.47040490504439225,-1.4355555555555555,-1.568888888888889,-1.4977777777777779,-0.16619228459279684,0.0028055766432802907,0.014647715876663005
1592334791.0670104,-0.36076312391835846,9.583025300112629,0.5106502211356208,-1.4355555555555555,-1.568888888888889,-1.4977777777777779,0.043026581595393174,0.032219077406181684,0.003205669485500875
1592334791.0770104,0.00853353054846484,9.633048882315052,0.017564234081637653,-1.4355555555555555,-1.568888888888889,-1.4977777777777779,0.18462242681831242,0.04465085772633774,-0.011852729895427114
1592334791.0870104,-0.19373906960475692,9.48087093389297,0.1007625043721581,-1.4355555555555555,-1.568888888888889,-1.4977777777777779,0.25387855987168306,0.04778670590575415,-0.00974422083042217
1592334791.0970104,-0.07718572082978858,9.71263791636673,-0.13562103265493103,-1.4374659162794756,-1.5536060030975285,-1.4996881385016978,0.3909013631586417,0.06236891565228354,-0.0015500847474981538
1592334791.1070104,-0.15625121084920893,9.902768808524378,-0.3495100096867937,-1.4377777777777778,-1.551111111111111,-1.5,0.41334702555778363,0.06922883418433837,-0.002308285286758322
1592334791.1170104,-0.28,10.146040314136126,-0.5979269633507853,-1.4377777777777778,-1.551111111111111,-1.5,0.37326910100009053,0.08193595521310355,-0.0023874630689052667
1592334791.1270103,-0.28,10.11579036076889,-0.6398784060355552,-1.4377777777777778,-1.551111111111111,-1.5,0.3212082761236103,0.08237761984438975,-0.002181661564992912
1592334791.1370103,-0.062393471507395604,10.165603468261697,-0.8472059164464227,-1.4377777777777778,-1.551111111111111,-1.5,0.19394715384574468,0.07256181885076532,-0.0029234487517176776
1592334791.1470103,-0.2688081448515516,9.979815887337681,-0.6397698591721026,-1.4454026702432483,-1.5482517764365595,-1.4494850874162584,0.02748560397336397,0.0584294733717582,-0.00888678285231765
1592334791.1570103,-0.3654156938783586,10.012665110205374,-0.45829448775276005,-1.4466666666666668,-1.5477777777777777,-1.441111111111111,-0.04993156936070359,0.04235635799144037,-0.015762377469382034
1592334791.1670103,-0.25558741725538187,9.779004005117649,-0.35480419424820603,-1.4466666666666668,-1.5477777777777777,-1.441111111111111,-0.1818619767551798,0.0020302971890159734,-0.01522117616295807
1592334791.1770103,-0.015859437941329796,9.641464859485334,-0.10305672716932845,-1.4466666666666668,-1.5477777777777777,-1.441111111111111,-0.21991708956422434,-0.014069654436120703,-0.009560394369544789
1592334791.1870103,-0.47236758338440854,9.54292295221337,0.18773997113426516,-1.4466666666666668,-1.5477777777777777,-1.441111111111111,-0.19986856410245885,-0.023669102058567745,-0.010187974324195829
1592334791.1970103,0.011065956651718944,9.617913863976083,-0.0380197433981066,-1.4466666666666668,-1.532929365277086,-1.4454782912583735,-0.1293133150523343,-0.042705658263396847,-0.002333369657750422
1592334791.2070103,-0.07695680025623572,9.577044881290787,0.19100252232053488,-1.4466666666666668,-1.528888888888889,-1.4466666666666668,-0.07153337838585358,-0.034172653370756874,0.006897079733153314
1592334791.2170103,-0.7599026777218976,9.70578061709936,0.13426804403969012,-1.4466666666666668,-1.528888888888889,-1.4466666666666668,0.028847188330863537,-0.02763261045429727,0.009000680982305474
1592334791.2270103,-0.22314571257245652,9.828060763541876,-0.31030381770937443,-1.4466666666666668,-1.528888888888889,-1.4466666666666668,0.04363323129985824,-0.022028153532235348,0.0012721489673303658
1592334791.2370102,-0.1931147748089192,9.73462762933485,-0.05138483565999208,-1.4466666666666668,-1.528888888888889,-1.4466666666666668,0.02893452020759481,-0.00950393755218829,0.00456769455951551
1592334791.2470102,-0.22672716060259002,9.816636419698705,0.02202684051331749,-1.4420583600074395,-1.5273527866691465,-1.4528110755456363,0.06563093133041323,-0.023133697799904873,-0.0026642756245204603
1592334791.2570102,-0.4391106265513002,9.659410563919367,-0.09812823308357883,-1.44,-1.5266666666666666,-1.4555555555555555,0.10685290888790386,-0.027362142360564792,-0.011112485921973628
1592334791.2670102,-0.13377692807517366,9.910339631129105,-0.2639513670215424,-1.44,-1.5266666666666666,-1.4555555555555555,0.13433738928954742,-0.030304971514794016,-0.011999138607461015
1592334791.2770102,-0.15055097727218753,9.637735768399553,-0.32,-1.44,-1.5266666666666666,-1.4555555555555555,0.16073247930414464,-0.027464236783626007,-0.008663253880444043
1592334791.2870102,-0.514425399069329,9.77782882723685,-0.4331931436649585,-1.44,-1.5266666666666666,-1.4555555555555555,0.17169889837940755,-0.02343605954708649,-0.015181483367753438
1592334791.2970102,0.10153734013650517,10.15137697965675,-0.8740507587303691,-1.4450891259691208,-1.5173366023899455,-1.4267171750638719,0.1362284358839123,-0.007660608728975841,-0.015471422637597007
1592334791.3070102,0.05973103171417099,10.041000802890405,-0.7239201124046567,-1.4466666666666668,-1.5144444444444445,-1.4177777777777778,0.06736053055885541,-0.005383387852887167,-0.006792665903561632
1592334791.3170102,-0.3006828648958152,10.002048594687446,-0.48344245562498445,-1.4466666666666668,-1.5144444444444445,-1.4177777777777778,-0.058219118051079356,-0.02501155036056395,-0.003648006003800478
1592334791.3270102,-0.20235608082348455,9.6261880480366,-0.036777068242470456,-1.4466666666666668,-1.5144444444444445,-1.4177777777777778,-0.13022468257138578,-0.04206087337581276,0.004972626770933258
1592334791.3370101,0.06143957227785979,9.593021984598812,-0.05453297689821651,-1.4466666666666668,-1.5144444444444445,-1.4177777777777778,-0.10968722867424893,-0.0518537204124396,0.010739588775834467
1592334791.3470101,-0.28189981540001874,9.832995525797065,-0.03535152216764181,-1.4466666666666668,-1.5191689524385623,-1.4114784337856205,-0.04520420373775221,-0.04867495759193793,0.005814772104899836
1592334791.3570101,-0.44500140669587235,9.959497608617017,-0.1304939512077489,-1.4466666666666668,-1.521111111111111,-1.4088888888888889,-0.0325611300661317,-0.04390601571884031,0.0017453906306806961
1592334791.36701,-0.07422544495715228,9.906920237310482,-0.505129861568886,-1.4466666666666668,-1.521111111111111,-1.4088888888888889,-0.0803865346097563,-0.02998368081897213,0.0033564798461021466
1592334791.37701,-0.04760742251760214,9.738527560264087,-0.30825140926937333,-1.4466666666666668,-1.521111111111111,-1.4088888888888889,-0.14915607771417033,-0.012260128324191759,0.014006807027966764
1592334791.38701,-0.037940116205097754,9.573595572331312,-0.10239704822087452,-1.4466666666666668,-1.521111111111111,-1.4088888888888889,-0.17018186171393423,0.001801705111511281,0.017334813465107488
1592334791.39701,-0.1674483186328556,9.826058434399119,0.4142016951488423,-1.442661360712973,-1.508294132059292,-1.4088888888888889,-0.1146876799164806,0.022578175191884937,0.021081101647260445
1592334791.40701,-0.19319630010277491,9.796187050359713,0.3091778006166495,-1.441111111111111,-1.5033333333333334,-1.4088888888888889,-0.056611090640227166,0.03314799877452842,0.02003560737465324
1592334791.41701,0.05778972859074759,9.838421863697834,-0.4952633896279523,-1.441111111111111,-1.5033333333333334,-1.4088888888888889,0.08040579325333878,0.05428894337517593,-0.0012573525492743844
1592334791.42701,-0.08918352274080957,10.049866104400447,-0.426760298286994,-1.441111111111111,-1.5033333333333334,-1.4088888888888889,0.0889326349556746,0.05999569303730508,0.00033879089130211745
1592334791.43701,-0.22910706856775462,10.005446465716123,-0.36553572103929505,-1.441111111111111,-1.5033333333333334,-1.4088888888888889,0.07645555848404711,0.06096964761970273,0.004363323129985824
1592334791.44701,-0.3356485719057959,9.9414504760314,-0.5287539669283448,-1.4562058905406159,-1.508894567859993,-1.399355343986044,0.02349573345940479,0.06357905484881574,0.0067032070854113265
1592334791.45701,-0.3022933066933067,9.872933066933067,-0.46898621378621375,-1.4622222222222223,-1.511111111111111,-1.3955555555555557,-0.01498228291362325,0.060325840983224285,0.01015782496453533
1592334791.46701,-0.19667252283907238,9.75,-0.24666750326272463,-1.4622222222222223,-1.511111111111111,-1.3955555555555557,-0.06981221186580401,0.05490519501489158,0.022179723989158375
1592334791.47701,-0.25094881673087505,9.806783709411118,-0.27154650522839846,-1.4622222222222223,-1.511111111111111,-1.3955555555555557,-0.07538427161824902,0.05247682518582345,0.02686817675958139
1592334791.48701,-0.29046854394538824,9.84,-0.3339457761228764,-1.4622222222222223,-1.511111111111111,-1.3955555555555557,-0.074176493209759,0.041148927868943475,0.019813839840439853
1592334791.49701,-0.18658445040214477,9.830186405929664,-0.2622368711559691,-1.4622222222222223,-1.49802631901733,-1.3917391578615361,-0.08648720928343316,0.019838291411053668,0.01146389008251866
1592334791.50701,-0.19400081993349427,9.796499795016626,-0.18700040996674716,-1.4622222222222223,-1.4844444444444445,-1.3877777777777778,-0.10695602530442964,-0.00985854530838772,0.011549176499735572
1592334791.51701,-0.35623830110694094,9.85359399496413,-0.31623830110694096,-1.4622222222222223,-1.4844444444444445,-1.3877777777777778,-0.11667826418018377,-0.02537755705131061,0.00582386206024843
1592334791.52701,-0.368719794828357,9.854290722571234,-0.40114185548575326,-1.4622222222222223,-1.4844444444444445,-1.3877777777777778,-0.13275295895949615,-0.0363861787659014,-0.00012455711130221177
1592334791.53701,-0.24259060111872685,9.787232529740802,-0.30982313085952884,-1.4622222222222223,-1.4844444444444445,-1.3877777777777778,-0.15780010694601918,-0.04313652215189213,0.0008960058093680022
1592334791.54701,-0.14542924769703172,9.746287743091095,-0.1717169907881269,-1.4591750540202435,-1.4874916126464233,-1.384730609575799,-0.18459840714216927,-0.0400494418617396,0.005765451003111546
1592334791.55701,-0.101211051930759,9.702293608521972,-0.11675233022636483,-1.4555555555555555,-1.491111111111111,-1.3811111111111112,-0.1934453309850977,-0.03406594813526632,0.009331105953894284
1592334791.56701,-0.10708577801483782,9.685297968287834,-0.1058939048635019,-1.4555555555555555,-1.491111111111111,-1.3811111111111112,-0.17984992524395163,-0.032212011381703154,0.006927883595938433
1592334791.57701,-0.1926390736979714,9.721583444218783,-0.15684735158857996,-1.4555555555555555,-1.491111111111111,-1.3811111111111112,-0.15472369079898898,-0.033299126694412144,0.0020665102519119545
1592334791.58701,-0.21830551603919132,9.763016690376485,-0.1769833096235148,-1.4555555555555555,-1.491111111111111,-1.3811111111111112,-0.13470849845009156,-0.0390220566586518,-0.0018932008731860589
1592334791.59701,-0.14471866626972313,9.76188746650789,-0.13283119976183388,-1.4490149184611822,-1.4880923555290926,-1.3936892593695214,-0.12445765453298281,-0.049272491954234825,-0.004363323129985824
1592334791.60701,-0.0960186238271254,9.733981376172874,-0.16018623827125392,-1.441111111111111,-1.4844444444444445,-1.4088888888888889,-0.1206377583665415,-0.050824588286768335,-0.010272093254991328
1592334791.6170099,-0.12206860227796433,9.757585752847456,-0.26620580683389294,-1.441111111111111,-1.4844444444444445,-1.4088888888888889,-0.11167862208467122,-0.04186545200489805,-0.01538445570702767
1592334791.6270099,-0.16059095150369643,9.769704524248152,-0.2788180969926071,-1.441111111111111,-1.4844444444444445,-1.4088888888888889,-0.10075680606040338,-0.0303821048871021,-0.015800930643918746
1592334791.6370099,-0.17141640084797813,9.751416400847978,-0.19708200423989064,-1.441111111111111,-1.4844444444444445,-1.4088888888888889,-0.09599310885968812,-0.022280131743527703,-0.014803468245968586
1592334791.6470098,-0.17812372770244628,9.730938136148778,-0.04031949763654556,-1.4476557905592167,-1.4874650657281854,-1.3993235881570423,-0.09203912484540569,-0.017061379297083838,-0.012698056167098015
1592334791.6570098,-0.18923610346725372,9.715107319757843,0.08293560814529444,-1.4555555555555555,-1.491111111111111,-1.3877777777777778,-0.08609230363196382,-0.015271630954950384,-0.01058808265194111
1592334791.6670098,-0.10843139337298216,9.688431393372982,0.027058729821580293,-1.4555555555555555,-1.491111111111111,-1.3877777777777778,-0.06320400523892539,-0.012255801266617865,-0.006127900633308933
1592334791.6770098,-0.1248235350417534,9.72552939487474,-0.0751764649582466,-1.4555555555555555,-1.491111111111111,-1.3877777777777778,-0.033841437445722544,-0.007597316795777724,-0.004927987862082785
1592334791.6870098,-0.13665889190532635,9.748329445952663,-0.08832944595266318,-1.4555555555555555,-1.491111111111111,-1.3877777777777778,-0.015546246864098728,-0.008362187904239838,-0.006817056319428106
1592334791.6970098,-0.16,9.75640984534138,-0.10718030931723878,-1.4531621191164759,-1.4791439289157131,-1.3961548053145565,-0.0012017243682689166,-0.012083183189628085,-0.01029314674618968
1592334791.7070098,-0.1549047236275947,9.734714170882784,-0.07414251264835217,-1.448888888888889,-1.4577777777777778,-1.4111111111111112,0.014180800172453926,-0.014180800172453926,-0.01308996938995747
1592334791.7170098,-0.13008409085570666,9.739915909144294,-0.11962159114931999,-1.448888888888889,-1.4577777777777778,-1.4111111111111112,0.028845098732752456,-0.008206456314554527,-0.012546847221057526
1592334791.7270098,-0.14398541145366128,9.75028988244181,-0.18086964732543315,-1.448888888888889,-1.4577777777777778,-1.4111111111111112,0.04998848838033733,0.0009959669752466348,-0.009880719580634651
1592334791.7370098,-0.1559914204003813,9.74800285986654,-0.15800285986653956,-1.448888888888889,-1.4577777777777778,-1.4111111111111112,0.06239754851859315,0.006545764602592532,-0.005016885710347142
1592334791.7470098,-0.13832386363636365,9.752670454545454,-0.1809943181818182,-1.4440025252525253,-1.467550505050505,-1.4033743686868687,0.07450188307385597,0.01261582987370191,0.0009079926683848341
1592334791.7570097,-0.18491389207807118,9.759885189437428,-0.25468427095292767,-1.4355555555555555,-1.4844444444444445,-1.39,0.08234833116129675,0.014741870425678281,0.006532460805397836
1592334791.7670097,-0.2053996605512002,9.7961989816536,-0.4071938899216035,-1.4355555555555555,-1.4844444444444445,-1.39,0.07987088909123044,0.01023210382417673,0.008726646259971648
1592334791.7770097,-0.21,9.81,-0.49,-1.4355555555555555,-1.4844444444444445,-1.39,0.07553180833741088,0.008120658872588228,0.008341017922545836
1592334791.7870097,-0.18113235002314967,9.801752100006615,-0.3951491500760632,-1.4355555555555555,-1.4844444444444445,-1.39,0.05234818931412816,-0.005521758148423756,0.00019112446212270066
1592334791.7970097,-0.1525583114323259,9.760697273324572,-0.21395285808147174,-1.441137027303256,-1.480723463279311,-1.396046594393342,0.04053830355576145,-0.010096545528627472,-0.0020040969616003383
1592334791.8070097,-0.17,9.724974414414415,-0.1450255855855856,-1.448888888888889,-1.4755555555555555,-1.4044444444444444,0.04469615253800974,-0.010371265297019818,-0.005442990094744298
1592334791.8170097,-0.15052612078547611,9.734868469803631,-0.1984216376435717,-1.448888888888889,-1.4755555555555555,-1.4044444444444444,0.057082095737928655,-0.006071307897244076,-0.006573680132384163
1592334791.8270097,-0.13921039154523024,9.753815587317845,-0.29684156618092095,-1.448888888888889,-1.4755555555555555,-1.4044444444444444,0.06938250547548201,-0.0012630966242129222,-0.00545415391248228
1592334791.8370097,-0.14611910669975187,9.773880893300248,-0.36328535980148885,-1.448888888888889,-1.4755555555555555,-1.4044444444444444,0.07653734335490395,0.001090830782496456,-0.005030814124932787
1592334791.8470097,-0.15125341675271822,9.787502277835145,-0.415004555670291,-1.4459713363974434,-1.4755555555555555,-1.401526891952999,0.0736295869788943,0.001500016562567334,-0.003544951569844068
1592334791.8570096,-0.17,9.8,-0.4743631685351957,-1.441111111111111,-1.4755555555555555,-1.3966666666666667,0.058488458002787826,0.0037881359373774185,-3.969573514690317e-05
1592334791.8670096,-0.165453751579915,9.795453751579915,-0.514546248420085,-1.441111111111111,-1.4755555555555555,-1.3966666666666667,0.044822102739377416,0.003966397596030891,0.0011898240206919862
1592334791.8770096,-0.15571314234598999,9.78142628469198,-0.4899919964219298,-1.441111111111111,-1.4755555555555555,-1.3966666666666667,0.034750128460292164,0.00264928519391038,0.0009352472578349361
1592334791.8870096,-0.15693194744067465,9.77,-0.4292041576779761,-1.441111111111111,-1.4755555555555555,-1.3966666666666667,0.02974369727966337,0.0044067295951296815,0.002181661564992912
1592334791.8970096,-0.16713469523334995,9.772865304766649,-0.37853878093339977,-1.441111111111111,-1.4733269851814943,-1.398895237040728,0.026492495043984512,0.006232428430909164,0.0015565490368537704
1592334791.9070096,-0.17411277901657435,9.784704259672191,-0.36881703868876575,-1.441111111111111,-1.4677777777777778,-1.4044444444444444,0.025731304184626463,0.005967309038410591,0.001539465377784934
1592334791.9170096,-0.18107681415929205,9.803384778761062,-0.4480007079646018,-1.441111111111111,-1.4677777777777778,-1.4044444444444444,0.01864475002878261,0.004111563246733544,0.004732545216436483
