time,acc_x,acc_y,acc_z,mag_x,mag_y,mag_z,gyr_x,gyr_y,gyr_z
1592334831.376972,-0.1579236590198372,9.734025446993387,-0.314936382516531,-1.538888888888889,-1.5866666666666667,-1.6266666666666667,-0.012452125938685103,0.007749062310281214,0.004802431279355324
1592334831.386972,-0.20897186919891475,9.72,-0.32906563853586557,-1.538888888888889,-1.5866666666666667,-1.6266666666666667,-1.022864792002507e-05,0.0044754748026114765,0.0032724923474893677
1592334831.396972,-0.21502996164908916,9.729980025567274,-0.2725149808245446,-1.538888888888889,-1.5866666666666667,-1.6266666666666667,0.010357445252196194,0.0005486837001603098,0.003000329370017267
1592334831.406972,-0.1663252606794484,9.756325260679448,-0.2414256082520462,-1.538888888888889,-1.589933101618268,-1.6285720870551008,0.020147530809842884,-0.004363323129985824,0.0016471923958585343
1592334831.416972,-0.12782729103726084,9.703220040281973,-0.16539274924471298,-1.538888888888889,-1.6133333333333333,-1.6422222222222222,0.0361487370109922,-0.0025043519399761283,-0.0032439308164270235
1592334831.426972,-0.10912128890376249,9.639121288903763,-0.1624917531194722,-1.538888888888889,-1.6133333333333333,-1.6422222222222222,0.05689915627905618,0.0046630317166381705,-0.0077037675026027375
1592334831.436972,-0.1821216837637071,9.712121683763709,-0.31787831623629287,-1.538888888888889,-1.6133333333333333,-1.6422222222222222,0.08574678521953111,0.0105117964305205,-0.011304819219408619
1592334831.446972,-0.19332631825090613,9.728315795627266,-0.3199789547527183,-1.538888888888889,-1.6133333333333333,-1.6422222222222222,0.10144496709181439,0.014541349526144734,-0.007275266123784384
1592334831.456972,-0.2096726294867298,9.769181573716825,-0.3690178884601894,-1.538888888888889,-1.6133333333333333,-1.6422222222222222,0.10679428493470564,0.021673773316666402,-0.00014284233326271843
1592334831.4669719,-0.19335124572545187,9.712774792379092,-0.2889008304836346,-1.538888888888889,-1.6,-1.6122222222222222,0.11071639351508362,0.017636074619794922,0.007572934171986876
1592334831.4769719,-0.1475648282805683,9.715129656561137,-0.29165723235261215,-1.538888888888889,-1.6,-1.6122222222222222,0.122856809026837,0.015005994927728292,0.013886877471623748
1592334831.4869719,-0.14973495822060479,9.698053008355878,-0.37831805013527425,-1.538888888888889,-1.6,-1.6122222222222222,0.14278318621439096,0.012906497121251612,0.01572531021184568
1592334831.4969718,-0.19486720824871115,9.69,-0.33324480549914076,-1.538888888888889,-1.6,-1.6122222222222222,0.1637146820625717,0.006573955360972237,0.01273601601778982
1592334831.5069718,-0.21943934541477894,9.69,-0.3496262302765193,-1.538888888888889,-1.6,-1.6122222222222222,0.18069057635047064,0.0012131466384778392,0.010949079776958354
1592334831.5169718,-0.11739787327289923,9.7,-0.4424270523377852,-1.5466666666666666,-1.6133333333333333,-1.6122222222222222,0.20314654411554658,-1.273176887281631e-05,0.006273868470463724
1592334831.5269718,-0.15509741071631544,9.704257882652481,-0.5034183545886471,-1.5466666666666666,-1.6133333333333333,-1.6122222222222222,0.21705407399521434,0.007938373534654014,0.005686385385761493
1592334831.5369718,-0.10865723545693265,9.723462894182774,-0.5882685529086135,-1.5466666666666666,-1.6133333333333333,-1.6122222222222222,0.23096318010980416,0.014978685175505851,0.006922727852088412
1592334831.5469718,-0.13893697828065038,9.735851366855243,-0.5634054674209755,-1.5466666666666666,-1.6133333333333333,-1.6122222222222222,0.24164210628706817,0.024601671446866702,0.008123252028026978
1592334831.5569718,-0.07256359536337383,9.710961348261266,-0.4638453930450607,-1.5466666666666666,-1.6133333333333333,-1.6122222222222222,0.25159739905544926,0.028221777908096185,0.004503145566797491
1592334831.5669718,-0.16614738565914142,9.647915779623348,-0.3878105041525325,-1.5533333333333332,-1.6066666666666667,-1.6044444444444443,0.26785521482799424,0.0388266855934214,0.004579192532000972
1592334831.5769718,-0.12610229688996893,9.68357828819777,-0.4939937378788233,-1.5533333333333332,-1.6066666666666667,-1.6044444444444443,0.292663294876791,0.042622561809297,0.005649319258220892
1592334831.5869718,-0.19483408003644925,9.713775786569467,-0.6723856531753867,-1.5533333333333332,-1.6066666666666667,-1.6044444444444443,0.3152862942622101,0.0470573636771517,0.006732822845517207
1592334831.5969718,-0.17182693638646657,9.778173063613533,-0.7891346819323328,-1.5533333333333332,-1.6066666666666667,-1.6044444444444443,0.3187113716059375,0.04214382482775767,0.008432966856683415
1592334831.6069717,-0.18019358722514414,9.77,-0.8294192383245674,-1.5530537073414583,-1.6067957248167628,-1.6041433087608867,0.3096481225959938,0.040445207314083,0.012146958240460741
1592334831.6169717,-0.19,9.77,-0.8,-1.538888888888889,-1.6133333333333333,-1.5888888888888888,0.3021601267515183,0.044724062082354694,0.019634954084936207
1592334831.6269717,-0.2853773042978746,9.79,-0.6988341427750796,-1.538888888888889,-1.6133333333333333,-1.5888888888888888,0.2971264345866785,0.04468364511853511,0.025382394450167087
1592334831.6369717,-0.3824580423718783,9.802110308912297,-0.8957793821754054,-1.538888888888889,-1.6133333333333333,-1.5888888888888888,0.2786261723944694,0.011342548593558308,0.03206440858753992
1592334831.6469717,-0.09751798794321644,9.89832134137119,-0.7335221797281821,-1.538888888888889,-1.6133333333333333,-1.5888888888888888,0.26309916425885316,-0.024862178614434627,0.02590919326450826
1592334831.6569717,0.010161877231763306,9.97728447542935,-0.8524281584764496,-1.5392306297115004,-1.613549169642351,-1.5885111753481078,0.23520934412889274,-0.02294276256590412,0.013704032370493564
1592334831.6669717,0.02,10.42,-1.0,-1.56,-1.6266666666666667,-1.5655555555555556,0.14398966328953217,-0.025089107997418484,-0.015271630954950384
1592334831.6769717,-0.34329831351949125,10.038578932817252,-1.2734254907381808,-1.56,-1.6266666666666667,-1.5655555555555556,-0.07276749088301765,-0.027918572858182035,-0.03680023350084741
1592334831.6869717,0.04988627552339105,10.052070302403722,-0.8787361075213234,-1.56,-1.6266666666666667,-1.5655555555555556,-0.17505930955480148,-0.010193586699705187,-0.00545415391248228
1592334831.6969717,-0.25072829131652663,9.69,-0.6698879551820728,-1.56,-1.6266666666666667,-1.5655555555555556,-0.23024168381701104,-0.02207022616798852,-0.00293332647394005
1592334831.7069716,-0.09128111244497797,9.69,-0.2335062024809924,-1.56,-1.6266666666666667,-1.5655555555555556,-0.2009482285083283,-0.029393589995159203,0.01079798070200498
1592334831.7169716,-0.02,9.56,-0.58,-1.5533333333333332,-1.6388888888888888,-1.5866666666666667,-0.15926129424448257,-0.02945243112740431,0.007635815477475192
1592334831.7269716,-0.16426853222117585,9.714939862774115,-0.54,-1.5533333333333332,-1.6388888888888888,-1.5866666666666667,-0.12631667835987584,-0.017104074044223053,0.0020220800510837708
1592334831.7369716,-0.2,9.84,-0.54,-1.5533333333333332,-1.6388888888888888,-1.5866666666666667,-0.09708393964218458,-0.014180800172453926,0.009817477042468103
1592334831.7469716,-0.05129866133251269,9.862244960763196,-0.6037198030466225,-1.5533333333333332,-1.6388888888888888,-1.5866666666666667,-0.08227170303277856,-0.027446839956447217,0.002568210771346095
1592334831.7569716,-0.1642394983843668,9.684766502538853,-0.7408622480381597,-1.5533333333333332,-1.6388888888888888,-1.5866666666666667,-0.10867156195929542,-0.02920683055154834,-0.004471751609058406
1592334831.7669716,-0.08375260833697287,9.627809239578783,-0.13904619789391953,-1.5466666666666666,-1.6244444444444444,-1.5944444444444446,-0.08116626393132709,-0.011521188826553532,0.01145486131791724
1592334831.7769716,-0.04045000222113634,9.708199991115455,-0.42003331704500024,-1.5466666666666666,-1.6244444444444444,-1.5944444444444446,-0.0568704635723179,-0.01742693154327953,-0.0018835014741617317
1592334831.7869716,0.003352464158747125,9.882460208657667,-0.754863024839092,-1.5466666666666666,-1.6244444444444444,-1.5944444444444446,-0.041811006297046295,0.0010359052461981588,0.005764925486341727
1592334831.7969716,-0.06849640423921272,9.616601438304315,-0.4132028766086298,-1.5466666666666666,-1.6244444444444444,-1.5944444444444446,-0.055323431931163694,0.010475794658346783,0.00817055790289165
1592334831.8069715,-0.18756245268735805,9.568975018925057,-0.31795003785011355,-1.5466666666666666,-1.6244444444444444,-1.5944444444444446,-0.050994068237915316,0.004414685487799054,0.0003777032550445706
1592334831.8169715,-0.07280886861053683,9.735617737221075,-0.5307022171526342,-1.538888888888889,-1.6444444444444444,-1.6155555555555556,-0.003290923009459259,0.015902861685792597,0.01301336938134843
1592334831.8269715,-0.11165953185138638,9.80391504987825,-0.5521699002435001,-1.538888888888889,-1.6444444444444444,-1.6155555555555556,0.010063515891885947,0.009153711952192051,0.011094004393448216
1592334831.8369715,-0.13636870630743855,9.713314743539392,-0.7333705129212159,-1.538888888888889,-1.6444444444444444,-1.6155555555555556,-0.0025147972245912337,-0.0007292483536114475,-0.0023827596599201913
1592334831.8469715,-0.027799415411539106,9.651002922942306,-0.6157935695269302,-1.538888888888889,-1.6444444444444444,-1.6155555555555556,-0.006484973059764225,-0.0038619873509992187,0.008557232702963373
1592334831.8569715,0.0034354811684322237,9.807177405842161,-0.2722097071472455,-1.538888888888889,-1.6444444444444444,-1.6155555555555556,-0.005633173392826075,-0.027712378025267416,-0.009330560302737774
1592334831.8669715,-0.056276955896674856,9.82651532718082,-0.636969345638362,-1.5655555555555556,-1.63,-1.6088888888888888,-0.012482027131057914,-0.013546855640113606,0.001978601009367963
1592334831.8769715,0.015474149253731345,9.955474149253732,-0.37216453731343285,-1.5655555555555556,-1.63,-1.6088888888888888,-0.045539729985913595,-0.02288598148759508,-0.002396311013297886
1592334831.8869715,-0.2097883899129362,9.734232201741277,-0.47873033947761723,-1.5655555555555556,-1.63,-1.6088888888888888,-0.08663729341093189,-0.021516535614016397,-0.012859138593101532
1592334831.8969715,-0.19813380763442331,9.926800813087583,-0.42026659890936807,-1.5655555555555556,-1.63,-1.6088888888888888,-0.10835576533829754,-0.007650356192321127,-0.002196202279838847
1592334831.9069715,-0.08336297715145712,9.730050817973925,-0.4366624318355061,-1.5655555555555556,-1.63,-1.6088888888888888,-0.1307121144139229,-0.008544610155346142,-0.0030904562428638624
1592334831.9169714,-0.22440436203009248,9.851281461372107,-0.5202705562968758,-1.5266666666666666,-1.6511111111111112,-1.63,-0.12593581905962847,0.003873044057449801,0.003152382005497281
1592334831.9269714,-0.29937061419373506,9.536503653331403,-0.02153873978152355,-1.5266666666666666,-1.6511111111111112,-1.63,-0.11530767135257226,0.014432536423351973,0.0011823712373684727
1592334831.9369714,-0.2706234055382903,9.82784359200334,-0.5462850781576141,-1.5266666666666666,-1.6511111111111112,-1.63,-0.09974440503364271,0.02600993129212849,0.00562416140026873
1592334831.9469714,-0.2898069270168891,9.45064357661037,-0.12051486128829567,-1.5266666666666666,-1.6511111111111112,-1.63,-0.08057054077157828,0.02070823403799552,0.010946919649726283
1592334831.9569714,-0.24188941145109388,9.610368628496353,-0.248294902797083,-1.5266666666666666,-1.6511111111111112,-1.63,-0.04311044505496713,0.01635240895466864,0.02052973483304541
1592334831.9669714,-0.07031505986137367,9.61178533921445,-0.25084015963032974,-1.538888888888889,-1.6511111111111112,-1.6388888888888888,0.013559661283281926,0.001090830782496456,0.01630518223826093
1592334831.9769714,-0.0996807393404747,9.77819085626269,-0.32914863824126583,-1.538888888888889,-1.6511111111111112,-1.6388888888888888,0.05733807702041004,0.001090830782496456,0.01096635105080628
1592334831.9869714,-0.05068354883221751,9.939863290233555,-0.716718965605356,-1.538888888888889,-1.6511111111111112,-1.6388888888888888,0.04852070177062352,-0.01304523122350613,-0.013328572944364627
1592334831.9969714,-0.08858909251490396,9.94946566570987,-0.5008081254139987,-1.538888888888889,-1.6511111111111112,-1.6388888888888888,0.0049999020123303005,-0.0068154644849419774,-0.028346667355613357
1592334832.0069714,0.05453521748730403,10.19361890041952,-0.7617995142415545,-1.538888888888889,-1.6511111111111112,-1.6388888888888888,-0.028061736285687696,0.030838068021134077,-0.000795302107265021
1592334832.0169713,-0.28,9.94,-0.46,-1.5466666666666666,-1.6777777777777778,-1.6666666666666667,-0.1341721862470641,0.04581489286485115,0.015271630954950384
1592334832.0269713,-0.21330222830021722,9.78993001367549,-0.3182672351379615,-1.5466666666666666,-1.6777777777777778,-1.6666666666666667,-0.18692027355524599,0.04217709374014895,0.02527557854788144
1592334832.0369713,-0.22793515358361777,9.677094709897611,-0.33090017064846416,-1.5466666666666666,-1.6777777777777778,-1.6666666666666667,-0.211606745287991,0.038629556993799406,0.04974216290473493
1592334832.0469713,-0.18961286049732073,9.443097116021434,0.01767716298392438,-1.5466666666666666,-1.6777777777777778,-1.6666666666666667,-0.1672485478288359,0.046356728854711815,0.08189676942456278
1592334832.0569713,-0.18119513516768015,9.510438918658558,-0.032829188993918956,-1.5466666666666666,-1.6777777777777778,-1.6666666666666667,-0.08001656570120144,0.034419720774088156,0.08373323220619719
1592334832.0669713,-0.05,9.95,-0.28,-1.5466666666666666,-1.681111111111111,-1.7022222222222223,-0.00545415391248228,0.02399827721492203,0.0839939702522271
1592334832.0769713,-0.19745924904711704,9.759170383586085,-0.5488962776741546,-1.5466666666666666,-1.681111111111111,-1.7022222222222223,-0.01113132172510839,0.016428720131420552,0.07074724535609953
1592334832.0869713,-0.12109992364955144,9.90021998472991,-0.2262695648024432,-1.5466666666666666,-1.681111111111111,-1.7022222222222223,-0.03242598087211275,-0.009757485513701775,0.04357323977109191
1592334832.0969713,-0.22087299396711485,9.918836008043847,-0.783889042230196,-1.5466666666666666,-1.681111111111111,-1.7022222222222223,-0.10472934682600009,-0.004606685795786263,0.03796745767798427
1592334832.1069713,-0.2952957296636568,9.819605693781792,-0.26292989235440245,-1.5466666666666666,-1.681111111111111,-1.7022222222222223,-0.19854036399933478,-0.02535335305527374,0.01992687745234299
1592334832.1169713,-0.28,9.66,-0.47,-1.56,-1.7022222222222223,-1.7255555555555555,-0.25416357232167425,-0.02945243112740431,0.02181661564992912
1592334832.1269712,-0.18832523199292975,9.376641626159964,-0.003292090145824156,-1.56,-1.7022222222222223,-1.7255555555555555,-0.22507218063575904,-0.043998126970361914,0.027271251591038218
1592334832.1369712,-0.02,9.54,-0.02,-1.56,-1.7022222222222223,-1.7255555555555555,-0.14398966328953217,-0.032724923474893676,0.032724923474893676
1592334832.1469712,-0.0847184512812274,9.70179612820307,-0.10898787051168769,-1.56,-1.7022222222222223,-1.7255555555555555,-0.07515770640779862,-0.027430157560914173,0.013310781790302161
1592334832.1569712,-0.05523324170863346,9.829533516582734,-0.2643002748740997,-1.56,-1.7022222222222223,-1.7255555555555555,-0.039371679064088186,-0.013157816652767992,-0.005109358500121989
1592334832.1669712,-0.21,9.87,-0.11,-1.5733333333333333,-1.7044444444444444,-1.7755555555555556,-0.05017821599483697,0.011999138607461015,-0.020725784867432664
1592334832.1769712,-0.11856887156437693,9.969743049202497,-0.30117417763812104,-1.5733333333333333,-1.7044444444444444,-1.7755555555555556,-0.06468525444952275,0.03647976599974326,-0.0007786069922397255
1592334832.1869712,0.08812370321733418,10.623679842416285,-0.3102962573867367,-1.5733333333333333,-1.7044444444444444,-1.7755555555555556,-0.12379455363113909,0.08465391213206444,0.03891442482517862
1592334832.1969712,0.10957291519517823,10.033026086547064,-0.9363332862457032,-1.5733333333333333,-1.7044444444444444,-1.7755555555555556,-0.2727423410713426,0.11177322403233986,0.04140498200968172
1592334832.2069712,0.13443394728485233,9.490597808828198,-0.4776103524928549,-1.5733333333333333,-1.7044444444444444,-1.7755555555555556,-0.36038231045294333,0.1310128818824838,0.05300133386389079
1592334832.2169712,0.03,9.81,-0.57,-1.5322222222222222,-1.6977777777777778,-1.79,-0.42978732830360367,0.16907877128695067,0.08726646259971647
1592334832.2269711,0.18651049152055188,9.385185808729931,0.07840060772800062,-1.5322222222222222,-1.6977777777777778,-1.79,-0.43303926091187545,0.16013595661420327,0.07832364792696908
1592334832.2369711,0.316404254182032,9.421460103682326,0.03258511036288814,-1.5322222222222222,-1.6977777777777778,-1.79,-0.3455975320346802,0.16958124953580628,0.06068210432655276
1592334832.2469711,-0.08567185663220017,9.343070316435957,0.41601300290286203,-1.5322222222222222,-1.6977777777777778,-1.79,-0.24765807767421577,0.1606870445950137,0.03470887310548262
1592334832.2569711,0.028302066017573013,9.572547494656853,0.1974525053431489,-1.5322222222222222,-1.6977777777777778,-1.79,-0.1752428977634622,0.14723126473917952,-0.0011732065100751518
1592334832.266971,-0.13598600626035723,9.649598600626035,0.13020069968698214,-1.5376662779516765,-1.7184651895497043,-1.859683913337016,-0.09189631720611048,0.1236798442756348,-0.04402348801324263
1592334832.276971,-0.25784722501710466,9.62643055499658,0.020009256650702287,-1.5377777777777777,-1.718888888888889,-1.8611111111111112,-0.06482867881111701,0.10526668512683732,-0.06357826458215318
1592334832.286971,-0.4220891522803401,9.167122906467405,-0.1703939706261273,-1.5377777777777777,-1.718888888888889,-1.8611111111111112,0.021433770865379148,0.06845147260696705,-0.07901426167879508
1592334832.296971,-0.21123803598774887,9.35876196401225,0.20996697932618685,-1.5377777777777777,-1.718888888888889,-1.8611111111111112,0.18803487949250403,0.0572028926911729,-0.053692355341377646
1592334832.306971,-0.12230357316716971,9.673016064648039,0.1756125012170188,-1.5377777777777777,-1.718888888888889,-1.8611111111111112,0.33788814316168436,0.04062000641476107,-0.04557958523349109
1592334832.316971,-0.08,9.83,-0.55,-1.5322222222222222,-1.71,-1.8877777777777778,0.5421428989007386,0.04145156973486533,-0.020725784867432664
1592334832.326971,-0.14782644123039315,10.121653697290691,-0.5771305764921573,-1.5322222222222222,-1.71,-1.8877777777777778,0.5436226422999646,0.03701233953718735,-0.01702642636936768
1592334832.336971,-0.4782210543080109,10.16059298189733,-0.8882210543080109,-1.5322222222222222,-1.71,-1.8877777777777778,0.49503536258274283,0.017162473802010653,-0.007385359293672187
1592334832.346971,-0.44588214200334686,10.571345923978006,-0.8009239780062156,-1.5322222222222222,-1.71,-1.8877777777777778,0.3608903987101564,-0.033687582292389655,0.01044086479899638
1592334832.356971,-0.3096706234413965,10.53333566084788,-0.7056692269326683,-1.5322222222222222,-1.71,-1.8877777777777778,0.23198690090523333,-0.07915670971014736,0.020361920714149058
1592334832.366971,-0.251270087004985,10.200956435582253,-1.1295179118803604,-1.5332627729441677,-1.7297704637169602,-1.8992238357191757,-0.01817769845928699,-0.14270769985080922,0.0208643298675813
1592334832.376971,-0.22986652365629842,9.992087554125453,-0.7573304731259684,-1.5333333333333334,-1.731111111111111,-1.9,-0.14546429768067962,-0.1710618360428155,0.009744676990245721
1592334832.386971,-0.023155432702530315,9.640523070380608,-0.6405273229853286,-1.5333333333333334,-1.731111111111111,-1.9,-0.2612260232032891,-0.190091702339527,0.0024112857356651408
1592334832.396971,0.20735539151693527,9.321505542237306,-0.2533201205762977,-1.5333333333333334,-1.731111111111111,-1.9,-0.2830958710147767,-0.1908953869368798,-0.01256983695565562
1592334832.406971,0.19287984442829362,9.460752715629848,0.02756899565892082,-1.5333333333333334,-1.731111111111111,-1.9,-0.20372321753422573,-0.18117735293319787,-0.0287578511779768
1592334832.416971,0.028253446063756266,9.709683192420306,-0.2788505444616245,-1.5354409243602256,-1.7195193604632035,-1.9273986833495995,-0.04113078359265604,-0.1343538418519263,-0.0203664570184628
1592334832.426971,0.07980529626216898,9.708038940747565,-0.17440887784944514,-1.5355555555555556,-1.718888888888889,-1.9288888888888889,0.02555033263098555,-0.1026336685284788,-0.0085445862046902
1592334832.436971,0.11124217806564936,9.787578219343507,-0.825657042485454,-1.5355555555555556,-1.718888888888889,-1.9288888888888889,0.10748437466568164,-0.0332259703509465,0.017060442549366985
1592334832.446971,0.10106118158579995,10.086042189254401,-0.34003798466279656,-1.5355555555555556,-1.718888888888889,-1.9288888888888889,0.1300226564647359,0.00014705459054510303,0.03718628299857624
1592334832.456971,-0.03490827419598369,10.129993205495998,-0.44488109617997884,-1.5355555555555556,-1.718888888888889,-1.9288888888888889,0.11073377714891709,0.022894105455016217,0.04526540106383895
1592334832.466971,-0.20538452050570458,9.954231267345051,-0.4961541782300339,-1.5011539383972317,-1.7080769520677015,-1.9741024428684002,0.0016364816290477258,0.034822695679061856,0.04547926814860848
1592334832.476971,-0.19107029714881502,9.923690099049605,-0.3411821790913101,-1.4966666666666666,-1.7066666666666668,-1.98,-0.07520630185881588,0.01798477561764277,0.03302290395732404
1592334832.486971,-0.28318625906082573,9.63623778758273,-0.26,-1.4966666666666666,-1.7066666666666668,-1.98,-0.19505149347242826,0.0030987088742615203,0.018676022265634775
1592334832.496971,-0.17866092144514417,9.676670770396326,0.06934892750603722,-1.4966666666666666,-1.7066666666666668,-1.98,-0.24900223150195072,-0.0148361044073861,0.00043552654756428416
1592334832.506971,-0.1163081797581567,9.733691820241843,0.03989832955662061,-1.4966666666666666,-1.7066666666666668,-1.98,-0.23301289128805527,-0.01348159398135126,-0.010125058642176983
1592334832.5169709,-0.10890635294117647,9.447184,0.4018795294117647,-1.5372400522875815,-1.6938019346405229,-2.003750274509804,-0.17807758624380685,0.006459976893763954,-0.027662955311977183
1592334832.5269709,-0.032339744871435996,9.404822649658096,0.3309209421362019,-1.5422222222222222,-1.6922222222222223,-2.006666666666667,-0.14750176588568203,0.03301138269625786,-0.028887669814932536
1592334832.5369709,-0.07370077456176113,9.741102323685285,0.22,-1.5422222222222222,-1.6922222222222223,-2.006666666666667,-0.1110659622525611,0.06360561807854018,-0.030133433271845842
1592334832.5469708,-0.08347477415854895,9.646485128664764,-0.18486803311555064,-1.5422222222222222,-1.6922222222222223,-2.006666666666667,-0.061124062374691326,0.1024036082726868,-0.025135394399232555
1592334832.5569708,-0.42424156744056385,9.541151686511887,-0.24934550595356617,-1.5422222222222222,-1.6922222222222223,-2.006666666666667,-0.0430078422129955,0.10942289043538406,-0.03000642598898598
1592334832.5669708,-0.23761074592740783,9.576807659331237,0.010528722492140652,-1.5422222222222222,-1.6773760757041694,-2.043782032961799,-0.015585256495731017,0.12821298921722135,-0.026348286485701762
1592334832.5769708,-0.29504772393538914,9.74766886930984,-0.01611600587371513,-1.5422222222222222,-1.6744444444444444,-2.051111111111111,0.023489703391951944,0.13258359384098353,-0.014413863136996122
1592334832.5869708,-0.3277406218184666,10.000432296969223,-0.30480695434254834,-1.5422222222222222,-1.6744444444444444,-2.051111111111111,0.08651640431243329,0.16723788221717106,0.022571714192217956
1592334832.5969708,-0.4730996134967871,9.989225096625804,-0.050110734356104636,-1.5422222222222222,-1.6744444444444444,-2.051111111111111,0.07800044057071254,0.19074645269825283,0.05347083179450622
1592334832.6069708,-0.5423775352703837,10.114135503263018,-0.28527390397790353,-1.5422222222222222,-1.6744444444444444,-2.051111111111111,0.06761735952767485,0.2002224642216776,0.07353677585330404
1592334832.6169708,-0.5633246753246753,10.23215984015984,-0.5951048951048952,-1.5414383394383393,-1.6728054168054167,-2.054888000888001,0.05474858992269925,0.20809738517266357,0.09312752581707806
1592334832.6269708,-0.33066121669461523,9.733306083473076,0.08132243338923048,-1.53,-1.6488888888888888,-2.11,-0.024840307320760487,0.21592857639153057,0.1325278355684839
1592334832.6369708,-0.3060587788434147,9.850557876744848,0.2200659956319438,-1.53,-1.6488888888888888,-2.11,-0.043395042582324225,0.1985652293740027,0.1402263954936079
1592334832.6469707,-0.04,9.637153680422378,0.33961929114283684,-1.53,-1.6488888888888888,-2.11,-0.0665500268987318,0.18880874079553922,0.14004793074821204
1592334832.6569707,0.03195039195039195,10.072546507546509,-0.3683976833976834,-1.53,-1.6488888888888888,-2.11,-0.04583387743006659,0.16752315367841508,0.10270611493353156
1592334832.6669707,0.13537651912141824,9.826226335154422,-0.5769793733972572,-1.5277043891924036,-1.645445472677494,-2.1172694342240557,-0.1304625832035894,0.156539264615421,0.06156493746302018
1592334832.6769707,-0.10983078938223423,9.615632601780321,0.0972119008794675,-1.5233333333333334,-1.6388888888888888,-2.131111111111111,-0.21709993640353925,0.10789995739185707,0.015581918061169334
1592334832.6869707,-0.05400215648586564,9.338047442689044,0.12190942759364304,-1.5233333333333334,-1.6388888888888888,-2.131111111111111,-0.19917135148075085,0.06435313526438026,-0.004582194994834393
1592334832.6969707,-0.04088877982659095,9.477644488069364,0.14520157049709037,-1.5233333333333334,-1.6388888888888888,-2.131111111111111,-0.10047245178193695,0.03090192647974214,-0.007795811130352047
1592334832.7069707,-0.014321139004207183,10.008536680504863,-0.18348388175308583,-1.5233333333333334,-1.6388888888888888,-2.131111111111111,0.042624886788117544,0.006100671212230535,-0.007460661321850465
1592334832.7169707,-0.15851738168320367,9.728073738311085,-0.7690570347633664,-1.5310287434268448,-1.5730503803110698,-2.1764285261062333,-0.015908072199916815,0.01653298921361696,-0.021991542579251577
1592334832.7269707,-0.2809195402298851,9.551264367816092,-0.16965517241379313,-1.5333333333333334,-1.5533333333333332,-2.19,-0.14780130188584165,-0.02448727032431699,-0.05264825811152435
1592334832.7369707,-0.09918162712379414,9.436441394677537,0.2154804648925126,-1.5333333333333334,-1.5533333333333332,-2.19,-0.1540952259436641,-0.08930137451420414,-0.07419745744554547
1592334832.7469707,0.1546075854299662,9.554536237326323,0.1600713481036425,-1.5333333333333334,-1.5533333333333332,-2.19,0.04949107043057192,-0.10606189070315569,-0.0681885982121874
1592334832.7569706,0.05630421081655965,9.779843620750778,-0.200426399338244,-1.5333333333333334,-1.5533333333333332,-2.19,0.18109030618703192,-0.09097621966765627,-0.06922317529998594
1592334832.7669706,-0.060763094428297575,10.004578566569785,-0.3023424649063138,-1.5287193123492673,-1.5410292773758236,-2.19,0.21934312857850696,-0.058491559416124814,-0.07241393569842082
1592334832.7769706,-0.4184122285633096,10.06,-0.2197032844727557,-1.5266666666666666,-1.5355555555555556,-2.19,0.16723782482345503,-0.030910660764229474,-0.05077786424094445
1592334832.7869706,-0.33445715099174345,10.210417576160197,-0.5860439404004935,-1.5266666666666666,-1.5355555555555556,-2.19,0.0679446163919427,-0.020987104939817276,0.0006684017222348265
1592334832.7969706,-0.35957337883959045,10.155497724687145,-0.46367320819112623,-1.5266666666666666,-1.5355555555555556,-2.19,-0.04432074012068081,-0.023706179040371284,0.04865567558951805
1592334832.8069706,-0.20715952093005108,10.375976670697927,-0.22763293410837593,-1.5266666666666666,-1.5355555555555556,-2.19,-0.1335848960268853,-0.031737375425948455,0.06531430698012905
1592334832.8169706,-0.06168249047342246,9.754189110637473,-0.406095717884131,-1.5439718113773528,-1.5064514485421288,-2.196292779894795,-0.23258600523113349,-0.03136397416109893,0.06795009902039603
1592334832.8269706,-0.03421859864384889,9.518375847594447,-0.18543429124959637,-1.551111111111111,-1.4944444444444445,-2.198888888888889,-0.3028832380193469,-0.02979672789520873,0.06005697962308305
1592334832.8369706,-0.10072424820617558,9.810724248206176,0.08338340813200401,-1.551111111111111,-1.4944444444444445,-2.198888888888889,-0.3933683665229744,-0.022485900474179383,0.052423080138827016
1592334832.8469706,-0.0076608075099381945,9.924052636620527,0.1446783849801236,-1.551111111111111,-1.4944444444444445,-2.198888888888889,-0.42436188321410057,0.003969732742518172,0.06681561891686581
1592334832.8569705,-0.03264197872046429,9.589917092717977,0.3603509741605638,-1.551111111111111,-1.4944444444444445,-2.198888888888889,-0.4365822228282603,0.0021433762231725297,0.05609390422485472
1592334832.8669705,0.09571920810034762,9.564143871845246,0.43,-1.5560920860410055,-1.4638470270179504,-2.2373135526337884,-0.4003124771994093,0.013407508796523086,0.056992174470187666
1592334832.8769705,0.17509563004493223,9.640191260089864,0.4362260924887669,-1.558888888888889,-1.4466666666666668,-2.258888888888889,-0.3477606183853909,0.032827374558764076,0.0700597987262114
1592334832.8869705,0.19987996755879966,9.53,0.19704676939713434,-1.558888888888889,-1.4466666666666668,-2.258888888888889,-0.2000980294028605,0.07995279460718294,0.09960738895438305
1592334832.8969705,0.24,9.597362502398772,0.07878641335636155,-1.558888888888889,-1.4466666666666668,-2.258888888888889,-0.13697514617368614,0.10818818252998097,0.1100962467369384
1592334832.9069705,0.0772351207751038,9.675992320400054,0.16825623967495645,-1.558888888888889,-1.4466666666666668,-2.258888888888889,-0.058085168453432756,0.16409015767158375,0.1223916326533033
1592334832.9169705,-0.07,9.617803939585368,0.1943921208292655,-1.5569106733794036,-1.3978706840993638,-2.2582294837190604,-0.043837139540656836,0.19750170071565018,0.12847847930453146
1592334832.9269705,-0.006879529294168435,9.831985506258661,0.22049637656466525,-1.5555555555555556,-1.3644444444444443,-2.2577777777777777,-0.059183350097187934,0.20656931114981075,0.13118593816611
1592334832.9369705,-0.047967853310315875,9.836046983623383,0.17203214668968414,-1.5555555555555556,-1.3644444444444443,-2.2577777777777777,-0.0859499128548549,0.19504512954249917,0.12871938104991498
1592334832.9469705,-0.15341554523250803,9.712519515348882,-0.01650639337196494,-1.5555555555555556,-1.3644444444444443,-2.2577777777777777,-0.11047564930318747,0.17402718635525172,0.11423549189108245
1592334832.9569705,-0.1162640283520378,9.785337102354232,0.048005653531347545,-1.5555555555555556,-1.3644444444444443,-2.2577777777777777,-0.13326367451548568,0.15035232893359288,0.09949081344387256
1592334832.9669704,0.05393092208362062,10.161224847990974,0.22668150191186612,-1.5691412970043948,-1.3420279710538596,-2.2604949260675458,-0.16217664942799156,0.12677446221224248,0.09114389319911748
1592334832.9769704,0.06472568825510001,10.044282432164785,0.40476807288572,-1.5777777777777777,-1.3277777777777777,-2.2622222222222224,-0.17898370491503068,0.11667516543431483,0.08914664956104618
1592334832.9869704,0.03274704341614412,9.28252744926846,0.6534068841442443,-1.5777777777777777,-1.3277777777777777,-2.2622222222222224,-0.19498300812054212,0.10730898110273916,0.08835729338221293
1592334832.9969704,0.14567023122742837,9.400913418695183,0.22073542516767508,-1.5777777777777777,-1.3277777777777777,-2.2622222222222224,-0.16925863225106427,0.10547803113989239,0.0805286728860314
1592334833.0069704,0.1862064295104171,9.449195713659723,0.26689001314583916,-1.5777777777777777,-1.3277777777777777,-2.2622222222222224,-0.1182747279037731,0.10118406068279538,0.06634035387030282
1592334833.0169704,0.1424113595494181,9.619164659179589,0.3640189325823635,-1.5713790399499352,-1.2822756421131205,-2.2600893096129413,-0.04569197870515683,0.0918928242521195,0.04734412118470962
1592334833.0269704,0.07460649177412183,9.748958324912083,0.21668984194995755,-1.5677777777777777,-1.2566666666666666,-2.258888888888889,-0.0036032822957608596,0.08344350614742554,0.03618679769759313
1592334833.0369704,0.025848334660126857,9.984476258955857,-0.2384833466012686,-1.5677777777777777,-1.2566666666666666,-2.258888888888889,0.053301038100912954,0.05475815899696386,0.020154780150799606
1592334833.0469704,0.03591730655640874,10.084082693443591,-0.34189486119314827,-1.5677777777777777,-1.2566666666666666,-2.258888888888889,0.05668467045898683,0.04205194547209521,0.018640899902280843
1592334833.0569704,0.023532674874847788,10.087445541875253,-0.12255445812474632,-1.5677777777777777,-1.2566666666666666,-2.258888888888889,-0.004754729331471499,0.018200240780018327,0.035037053773715146
1592334833.0669703,0.017146752361476288,9.93430713798812,0.05567922874671341,-1.5734910896874086,-1.2319089817249327,-2.2557148267168716,-0.08133726776218558,0.006078123141850687,0.06139553411742372
1592334833.0769703,0.00692113805613901,9.775402711476035,0.18231544777544395,-1.5777777777777777,-1.2133333333333334,-2.2533333333333334,-0.1339150276287578,0.0017625342591805443,0.07535059955972578
1592334833.0869703,0.11003619102567465,9.634319320238127,0.0842831292124518,-1.5777777777777777,-1.2133333333333334,-2.2533333333333334,-0.22721744013357165,-0.012626700299407849,0.07916145628896326
1592334833.0969703,0.24296754433865952,9.61703245566134,0.17729005911821266,-1.5777777777777777,-1.2133333333333334,-2.2533333333333334,-0.2294739012329773,-0.02096154147639929,0.07237839260036268
1592334833.1069703,0.29,9.630772952631265,0.3210306035083528,-1.5777777777777777,-1.2133333333333334,-2.2533333333333334,-0.1916630061853315,-0.03065568331304677,0.05931677722982097
1592334833.1169703,0.35080980922918276,9.712112657901521,0.33919019077081725,-1.5839201827504223,-1.18814947294549,-2.247805168857953,-0.10960933590770033,-0.03625476217964834,0.03823285964753385
1592334833.1269703,0.3930764979868951,9.718922396779032,0.26784479355806423,-1.5888888888888888,-1.1677777777777778,-2.243333333333333,-0.06326818538479445,-0.03381575425739013,0.02945243112740431
1592334833.1369703,0.3402731844115656,9.776448602649648,0.13,-1.5888888888888888,-1.1677777777777778,-2.243333333333333,-0.061676638905864854,-0.027980083834648298,0.03369655507121655
1592334833.1469703,0.23151093344754564,9.865679920051395,0.2826580531563043,-1.5888888888888888,-1.1677777777777778,-2.243333333333333,-0.06805331095241203,-0.018056393956212544,0.03280733211063799
1592334833.1569703,0.15024197666653571,9.860483953333071,0.30235455866755706,-1.5888888888888888,-1.1677777777777778,-2.243333333333333,-0.07944943474925241,-0.016830468722025788,0.021971432463267677
1592334833.1669703,0.10424511930585682,9.865889370932754,0.16493275488069414,-1.5876864304651723,-1.15535237406604,-2.2421308749096167,-0.0839939702522271,-0.02348031006028326,0.011819778578581987
1592334833.1769702,0.02368089661251732,9.716319103387482,0.140429668807455,-1.5855555555555556,-1.1333333333333333,-2.24,-0.08575067348593542,-0.0371451165134494,0.0023657057763502663
1592334833.1869702,-0.054293904574567606,9.771695012833737,0.09344639815769905,-1.5855555555555556,-1.1333333333333333,-2.24,-0.09158048678292696,-0.05088695377265539,-0.003414239903053052
1592334833.1969702,-0.049199322576092566,9.721199134402784,0.10519969892270781,-1.5855555555555556,-1.1333333333333333,-2.24,-0.10040010216871635,-0.05807584728133022,0.0023562396485443515
1592334833.2069702,0.011400728378756952,9.643249089526554,0.14439708648497218,-1.5855555555555556,-1.1333333333333333,-2.24,-0.11334243477665726,-0.0665895068926561,0.00814303192788681
1592334833.2169702,0.16346138430707569,9.998170186526899,0.22531185447818716,-1.583992840381618,-1.1119762259561858,-2.2389581898840416,-0.13042344124932245,-0.07213090383055246,0.01844319581120276
1592334833.2269702,0.36,10.37,0.22,-1.5822222222222222,-1.0877777777777777,-2.2377777777777776,-0.13853550937704992,-0.06981317007977318,0.02945243112740431
1592334833.2369702,0.31778815100279534,9.812744863896654,0.18035308166200778,-1.5822222222222222,-1.0877777777777777,-2.2377777777777776,-0.15220468750203447,-0.04096901914038837,0.03804390401226051
1592334833.2469702,0.28086047075952436,9.967802475127396,0.3305930599369085,-1.5822222222222222,-1.0877777777777777,-2.2377777777777776,-0.14747905123109523,-0.021658060047231868,0.05694644909601748
1592334833.2569702,0.26680736191393706,9.991989201991009,0.4549393866409763,-1.5822222222222222,-1.0877777777777777,-2.2377777777777776,-0.12830413228755436,-0.0030491330097599835,0.07899975879877433
1592334833.2669702,0.1811758214472922,9.718991364802605,0.4585706403288548,-1.588758242061412,-1.0765731723391667,-2.2293743236988193,-0.08817371769944668,0.015775862195073098,0.09248232925709331
1592334833.2769701,0.10947606756328397,9.66630983109179,0.36,-1.5977777777777777,-1.0611111111111111,-2.2177777777777776,-0.04437620941875192,0.021414080666160445,0.09920844904418566
1592334833.2869701,0.1063981479236867,9.780552471455238,0.2511851833894936,-1.5977777777777777,-1.0611111111111111,-2.2177777777777776,-0.017582575972359606,0.011125463830536808,0.0968943909027859
1592334833.2969701,0.19538768663768663,9.817119873369872,0.12458207333207333,-1.5977777777777777,-1.0611111111111111,-2.2177777777777776,-0.008270758985771063,-0.004316085064773293,0.08322390989946353
1592334833.3069701,0.30804452643495034,9.78752505136053,0.13,-1.5977777777777777,-1.0611111111111111,-2.2177777777777776,-0.026787485470396805,-0.026344677049947737,0.05634515334387148
1592334833.31697,0.3133497797356828,10.05004933920705,0.17669955947136565,-1.598642584434655,-1.0472742046010768,-2.2117241311796376,-0.07086104039004268,-0.05606226295490574,0.019140572274789793
1592334833.32697,0.32500709219858154,9.980051063829787,0.24500141843971632,-1.6,-1.0255555555555556,-2.2022222222222223,-0.14888741613905598,-0.0774465099129193,-0.010360571517157828
1592334833.33697,0.3,9.786269843017239,0.13015874413791584,-1.6,-1.0255555555555556,-2.2022222222222223,-0.20909032622499257,-0.08467790402868963,-0.024535034456561286
1592334833.34697,0.3044914638576099,9.71610243370868,0.26050490374137303,-1.6,-1.0255555555555556,-2.2022222222222223,-0.23060907660925709,-0.07849365513881464,-0.024774894844305635
1592334833.35697,0.27279355701483005,9.662402147661723,0.5510616554559788,-1.6,-1.0255555555555556,-2.2022222222222223,-0.2167828756844502,-0.06857611428110447,-0.014558642478983606
1592334833.36697,0.22841702983573584,9.654748910492792,0.5647106939322829,-1.5929858084702202,-1.0255555555555556,-2.1909995157745743,-0.1860813236049144,-0.06630905446120326,-0.00970374979695808
1592334833.37697,0.23228291429030443,9.617625512089324,0.6310956703349667,-1.5833333333333333,-1.0255555555555556,-2.1755555555555555,-0.15992123416241752,-0.07199483164476608,-0.006318345300736059
1592334833.38697,0.016917328351237746,9.664595983185427,0.34922933208780943,-1.5833333333333333,-1.0255555555555556,-2.1755555555555555,-0.07393040667638873,-0.06897453978178664,-0.0004193151489932665
1592334833.39697,0.06,9.81,0.36,-1.5833333333333333,-1.0255555555555556,-2.1755555555555555,-0.031634092692397225,-0.06544984694978735,-0.002181661564992912
1592334833.40697,-0.011237190978908004,9.686953942854613,0.3589504902286258,-1.5833333333333333,-1.0255555555555556,-2.1755555555555555,0.04740460436110071,-0.058842502165589484,0.00962016035288699
1592334833.41697,0.05623657190337705,9.90032227431895,0.09709715710131164,-1.5912783482039816,-1.0121744778786739,-2.184336887781009,0.056969542379375855,-0.05754425333291738,0.018966367848907904
1592334833.42697,0.05,10.05,-0.09,-1.6044444444444443,-0.99,-2.198888888888889,0.044724062082354694,-0.05890486225480862,0.025089107997418484
1592334833.43697,0.03588563064913722,10.071247688989319,0.06507241166803615,-1.6044444444444443,-0.99,-2.198888888888889,-0.03760469940807562,-0.06535587259493743,0.053262759632626486
1592334833.44697,-0.00793982309324559,9.91884247669456,-0.04,-1.6044444444444443,-0.99,-2.198888888888889,-0.11160525545336789,-0.07380999612116401,0.06767299040921036
1592334833.45697,0.04917089138158158,10.101089776855215,0.07502534828948945,-1.6044444444444443,-0.99,-2.198888888888889,-0.17119250358681667,-0.08021279221549885,0.07584946908551302
1592334833.46697,0.10757579538365565,9.47106051154086,0.2910227698066126,-1.598316489914743,-0.9808080682054481,-2.1847179940389547,-0.20804705079534988,-0.08553518553465825,0.07327572420988966
1592334833.47697,0.16,9.34,0.35,-1.5866666666666667,-0.9633333333333334,-2.1577777777777776,-0.21162117180431245,-0.09053895494720585,0.06326818538479445
1592334833.48697,0.2871967060698632,9.683508301235223,0.6301312259264179,-1.5866666666666667,-0.9633333333333334,-2.1577777777777776,-0.15782355348382043,-0.09029575285509553,0.02752112891852162
1592334833.49697,0.36171063340834014,9.44436108584287,0.36016900464403695,-1.5866666666666667,-0.9633333333333334,-2.1577777777777776,-0.10164195885859481,-0.08718237979415229,0.007756769376659458
1592334833.50697,0.42268654942965783,9.358756337135615,0.4058705640050697,-1.5866666666666667,-0.9633333333333334,-2.1577777777777776,-0.04700885312603182,-0.07480060585505972,-0.002062265538874845
1592334833.51697,0.40671205635511815,9.475910546361522,0.6830233577134383,-1.5945611768362788,-0.9601755292654885,-2.158567228794739,-0.005339552154787667,-0.05551776814962465,-0.004291591327206809
1592334833.52697,0.31,10.14,0.87,-1.6088888888888888,-0.9544444444444444,-2.16,0.008726646259971648,-0.04145156973486533,-0.002181661564992912
1592334833.53697,0.18,9.572064751341498,0.37506149066728284,-1.6088888888888888,-0.9544444444444444,-2.16,-0.012891570322890157,-0.022789538460608327,-0.01730855418304269
1592334833.54697,0.15489623586660942,9.595636658556367,0.2997924717332188,-1.6088888888888888,-0.9544444444444444,-2.16,-0.04685066430056638,-0.016640828888612028,-0.027115375224520344
1592334833.55697,0.12,10.09,0.23,-1.6088888888888888,-0.9544444444444444,-2.16,-0.05890486225480862,-0.01854412330243975,-0.03599741582238304
1592334833.5669699,0.22623490737042615,9.74737779962518,0.38022857845095087,-1.5982299848775008,-0.9489312182316576,-2.146400708675126,-0.06622139465554278,-0.01601824461965455,-0.027320637644513913
1592334833.5769699,0.34,9.56,0.32,-1.5766666666666667,-0.9377777777777778,-2.118888888888889,-0.0545415391248228,-0.01090830782496456,-0.014180800172453926
1592334833.5869699,0.37245417970496203,9.790871703173893,0.04843987483236478,-1.5766666666666667,-0.9377777777777778,-2.118888888888889,-0.036360213364706406,0.00507136349484271,0.021453818107605757
1592334833.5969698,0.34,9.7,0.36,-1.5766666666666667,-0.9377777777777778,-2.118888888888889,-0.022907446432425576,0.004363323129985824,0.03490658503988659
1592334833.6069698,0.23634740535340387,10.088804538509423,0.24111623564031465,-1.5766666666666667,-0.9377777777777778,-2.118888888888889,-0.0015901338657527847,-0.0049843886329396375,0.04365412690394828
1592334833.6169698,0.4031563671938692,9.715062122941465,0.44359367356921575,-1.5847395691794843,-0.9339027845716252,-2.1192118049894018,-0.01918837689128023,-0.03832905105699948,0.021070091117026114
1592334833.6269698,0.24,10.24,0.55,-1.6044444444444443,-0.9244444444444444,-2.12,-0.044724062082354694,-0.05999569303730508,0.0032724923474893677
1592334833.6369698,0.15483958499600958,9.23981058792232,0.7133088587390264,-1.6044444444444443,-0.9244444444444444,-2.12,-0.1298995190193001,-0.10123896313511907,-0.05226289547749141
1592334833.6469698,0.12928483591734383,9.508212089793359,0.5541060448966798,-1.6044444444444443,-0.9244444444444444,-2.12,-0.13763970934352776,-0.1112647398146385,-0.08319030679505789
1592334833.6569698,0.23967164725999512,9.785791059359987,0.7605970604999593,-1.6044444444444443,-0.9244444444444444,-2.12,-0.10384383070295194,-0.10247296435743002,-0.10141144504453896
1592334833.6669698,0.2431327335909844,9.845622422136339,0.9581121106816928,-1.6050691580151486,-0.9219455901616272,-2.12,-0.06937972151935475,-0.0671279146213313,-0.0882961464908944
1592334833.6769698,0.2,9.86,1.03,-1.6066666666666667,-0.9155555555555556,-2.12,-0.015271630954950384,-0.02399827721492203,-0.04908738521234052
1592334833.6869698,-0.04852416385591802,9.886446097994284,1.0358438682767321,-1.6066666666666667,-0.9155555555555556,-2.12,0.004077436095432116,0.05679720720676718,0.0060111266781994015
1592334833.6969697,0.002938501977314184,9.869101091666865,1.0611844940680575,-1.6066666666666667,-0.9155555555555556,-2.12,-0.02010381836145455,0.12491685037508753,0.04808027373567823
1592334833.7069697,0.2054169323979592,9.501805644132652,0.7695501833545919,-1.6066666666666667,-0.9155555555555556,-2.12,-0.02419524243513524,0.15282231423093426,0.055166458027143844
1592334833.7169697,0.19464423012072568,9.490083631213327,1.2367363593444392,-1.6042026932847733,-0.9150627608791769,-2.1153184505744025,-0.0272707695624114,0.13405807829915473,0.03686003070906079
1592334833.7269697,-0.14,9.35,1.12,-1.5955555555555556,-0.9133333333333333,-2.098888888888889,-0.0272707695624114,0.12217304763960307,0.01308996938995747
1592334833.7369697,-0.021365467362446218,10.064361439165063,0.8483253227135402,-1.5955555555555556,-0.9133333333333333,-2.098888888888889,-0.01900542698201924,0.1107937991149628,-0.009678164679419256
1592334833.7469697,0.09681644873205558,10.056367102535889,0.669140714962,-1.5955555555555556,-0.9133333333333333,-2.098888888888889,-0.0023861836137493153,0.1090042505895271,-0.026859576127140402
1592334833.7569697,0.20615215756417815,9.78507388361552,0.8275259659749182,-1.5955555555555556,-0.9133333333333333,-2.098888888888889,0.036502533952565246,0.11755836272215892,-0.01323982864032625
1592334833.7669697,0.13713904230138982,9.785721915397222,0.4652831219275354,-1.5914747830308915,-0.9077491182995826,-2.094808116364225,0.0730491182388825,0.12418039607415274,0.01748142889686634
1592334833.7769697,0.0,10.06,0.07,-1.5744444444444445,-0.8844444444444445,-2.077777777777778,0.07744898555724837,0.11890055529211369,0.04036073895236887
1592334833.7869697,0.06255897219882055,9.971751263689974,0.269478201347936,-1.5744444444444445,-0.8844444444444445,-2.077777777777778,0.08139359784033029,0.0403092760005409,0.04195565968655973
1592334833.7969697,0.12,10.46,0.37,-1.5744444444444445,-0.8844444444444445,-2.077777777777778,0.07199483164476608,-0.009817477042468103,0.03490658503988659
1592334833.8069696,0.08760889187430468,9.504380444593716,0.7178968912025862,-1.5744444444444445,-0.8844444444444445,-2.077777777777778,0.02645027082336995,-0.0989105242126106,-0.0009965832227081433
1592334833.8169696,0.4457836758358565,9.541365715390066,0.8257012175481543,-1.5747835827839693,-0.8844444444444445,-2.075912516910391,0.01830316093993377,-0.16214834519262947,-0.02965839808118239
1592334833.8269696,0.7,9.66,0.08,-1.5766666666666667,-0.8844444444444445,-2.0655555555555556,0.01090830782496456,-0.19634954084936207,-0.061086523819801536
1592334833.8369696,0.8242966054088757,9.496321322526283,0.6606652756600594,-1.5766666666666667,-0.8844444444444445,-2.0655555555555556,0.02671603120524263,-0.18971018848055848,-0.09118806097819944
1592334833.8469696,0.8909080878825674,9.742550369375419,0.20672647030605393,-1.5766666666666667,-0.8844444444444445,-2.0655555555555556,0.06810782470002799,-0.14212474348441892,-0.08468797117580282
1592334833.8569696,0.7611247176316728,10.018859033804938,0.16962509412277574,-1.5766666666666667,-0.8844444444444445,-2.0655555555555556,0.08759540214016016,-0.09179336927826831,-0.07281806671753112
1592334833.8669696,0.5847000761614622,9.744774105102818,0.23235003808073115,-1.5766666666666667,-0.8833999830752306,-2.0655555555555556,0.0766171959308695,-0.06442444939838718,-0.07007221123589076
1592334833.8769696,0.62,9.33,0.25,-1.5766666666666667,-0.8755555555555555,-2.0655555555555556,0.062177354602297986,-0.056723200689815706,-0.05563236990731925
1592334833.8869696,0.23582849181103605,9.347289098030968,0.5045421803938064,-1.5766666666666667,-0.8755555555555555,-2.0655555555555556,0.04571501212099786,-0.08163789735099657,-0.07750209469810863
1592334833.8969696,0.22284232514586186,9.906306994165526,0.45811207952171723,-1.5766666666666667,-0.8755555555555555,-2.0655555555555556,0.008611222330022265,-0.11759246980144158,-0.11494007660654619
1592334833.9069695,0.23,9.62,0.68,-1.5766666666666667,-0.8755555555555555,-2.0655555555555556,-0.01090830782496456,-0.14726215563702155,-0.1461713248545251
1592334833.9169695,0.32977334599556823,10.072543209876542,0.2663273187717632,-1.5780539551897577,-0.8763025570679891,-2.0626742640075975,-0.04188907609808882,-0.1811642371168315,-0.18284050459089
1592334833.9269695,0.61,9.72,0.42,-1.5911111111111111,-0.8833333333333333,-2.0355555555555553,-0.06654067773228381,-0.16144295580947549,-0.17889624832941878
1592334833.9369695,0.3528293076903662,10.242048913454987,0.5157073269225916,-1.5911111111111111,-0.8833333333333333,-2.0355555555555553,-0.10909901906444243,-0.09301330528958246,-0.12745163233626597
1592334833.9469695,0.26140036984557746,9.881801916472538,0.5519993275534956,-1.5911111111111111,-0.8833333333333333,-2.0355555555555553,-0.1411099213705158,-0.036564823875364395,-0.07240948304430389
1592334833.9569695,0.18,9.46,0.7,-1.5911111111111111,-0.8833333333333333,-2.0355555555555553,-0.12980886311707826,0.002181661564992912,-0.042542400517361786
1592334833.9669695,0.10619920174165458,9.81543027334301,0.3591394533139816,-1.5901961041229908,-0.8841075700155888,-2.034640548567435,-0.04696004749527853,0.08620518504596689,0.014017828628661142
1592334833.9769695,0.05,9.6,0.79,-1.5766666666666667,-0.8955555555555555,-2.0211111111111113,-0.031634092692397225,0.11890055529211369,0.05999569303730508
1592334833.9869695,0.11329594081667191,9.921730773880038,0.5565918816333437,-1.5766666666666667,-0.8955555555555555,-2.0211111111111113,0.015003584534881868,0.13206977295955108,0.09113623114965683
1592334833.9969695,0.07729112116162819,9.656663175434419,0.47,-1.5766666666666667,-0.8955555555555555,-2.0211111111111113,0.04638266496411484,0.1383537994552239,0.10987841618984713
1592334834.0069695,0.12,9.937003409813327,0.47116723496888785,-1.5766666666666667,-0.8955555555555555,-2.0211111111111113,0.07730453332740614,0.12669794964582642,0.11300932516076488
1592334834.0169694,0.12,9.98548402011212,0.4792473366853532,-1.5766666666666667,-0.8955555555555555,-2.0211111111111113,0.0914069712122427,0.09761167150835101,0.10243249674713745
1592334834.0269694,0.0782228687671492,9.753652426908884,0.4936327940202479,-1.5733333333333333,-0.8833333333333333,-2.0211111111111113,0.07586388013974618,0.06813434961349564,0.10670542012339232
1592334834.0369694,-0.09516425814558836,9.749233461987254,0.42922762768153666,-1.5733333333333333,-0.8833333333333333,-2.0211111111111113,0.07501583859015132,0.0333002018397225,0.09491422326662391
1592334834.0469694,0.003685341226457882,10.051501444155347,0.08316090993722101,-1.5733333333333333,-0.8833333333333333,-2.0211111111111113,0.09878131118918757,0.016313092745882298,0.0900632836719416
1592334834.0569694,0.19933474087541297,9.660665259124587,0.5715987332121283,-1.5733333333333333,-0.8833333333333333,-2.0211111111111113,0.030833535962475234,-0.01338139498520304,0.09245844863074484
1592334834.0669694,0.2813299317733075,9.578670068226693,0.4978030614040232,-1.5733333333333333,-0.8833333333333333,-2.0211111111111113,-0.0049436153367634,-0.044686402372036846,0.07099215785120166
1592334834.0769694,0.33,9.56,0.54,-1.558888888888889,-0.8755555555555555,-2.0155555555555558,-0.030543261909900768,-0.0818123086872342,0.03381575425739013
1592334834.0869694,0.54476808245957,9.304851608317042,0.4934601030744624,-1.558888888888889,-0.8755555555555555,-2.0155555555555558,-0.00890169872071348,-0.06890650301566514,-0.016187409276705006
1592334834.0969694,0.508163576569277,9.514074162337353,0.41510795481626234,-1.558888888888889,-0.8755555555555555,-2.0155555555555558,0.03018639319577581,-0.057234951673663596,-0.05888131016746908
1592334834.1069694,0.4755521984575018,9.667216347300629,0.24930408682515703,-1.558888888888889,-0.8755555555555555,-2.0155555555555558,0.04682981129604125,-0.06485904893892067,-0.09622084591360718
1592334834.1169693,0.34215631708674565,9.433773554901805,0.19094338872545125,-1.558888888888889,-0.8755555555555555,-2.0155555555555558,0.0404636466985271,-0.06758740519499817,-0.11531933970614963
1592334834.1269693,0.32,9.88,0.01,-1.5777777777777777,-0.8755555555555555,-1.9922222222222221,0.016362461737446838,-0.08290313946973066,-0.13744467859455345
1592334834.1369693,0.31212097712291587,10.017196587824738,-0.02606048856145793,-1.5777777777777777,-0.8755555555555555,-1.9922222222222221,-0.006107214295644175,-0.08039917737885084,-0.1344035489605288
1592334834.1469693,0.2165533255929673,9.884927137881194,0.08034002322109803,-1.5777777777777777,-0.8755555555555555,-1.9922222222222221,-0.08551376171681514,-0.07945855624363404,-0.12507486481585386
1592334834.1569693,0.08911525471151349,9.833130083738034,0.41775466155045266,-1.5777777777777777,-0.8755555555555555,-1.9922222222222221,-0.15672358718635993,-0.09211964258928013,-0.11870023065114081
1592334834.1669693,0.02205607850190859,9.975630833183445,0.3423130883146472,-1.5777777777777777,-0.8755555555555555,-1.9922222222222221,-0.18141178429603314,-0.10857844066239561,-0.12418649667551264
1592334834.1769693,0.2,9.95,0.5,-1.558888888888889,-0.89,-1.9777777777777779,-0.19198621771937624,-0.11344640137963141,-0.1308996938995747
1592334834.1869693,0.34027052094605037,9.519458958107899,0.6129726387385994,-1.558888888888889,-0.89,-1.9777777777777779,-0.1505347322966753,-0.107402652501776,-0.13883034901581867
1592334834.1969693,0.1945773952307041,9.737048116269225,0.7098179765768308,-1.558888888888889,-0.89,-1.9777777777777779,-0.10539638727993272,-0.08867929394620087,-0.13013086368106622
1592334834.2069693,-0.01103493378385743,9.714825331080714,0.427244536487002,-1.558888888888889,-0.89,-1.9777777777777779,-0.055066474315266074,-0.09166789257648307,-0.13187763091914345
1592334834.2169693,-0.01865442258433702,9.676727887078314,0.4805809580903591,-1.558888888888889,-0.89,-1.9777777777777779,-0.02680712635173562,-0.09997946550693321,-0.13104647362609842
1592334834.2269692,-0.08,10.07,0.17,-1.5944444444444446,-0.8833333333333333,-1.9566666666666668,-0.01308996938995747,-0.12435470920459597,-0.1287180323345818
1592334834.2369692,-0.030172505590458948,9.950268342029602,0.5491183047598766,-1.5944444444444446,-0.8833333333333333,-1.9566666666666668,0.006507349813333665,-0.13855850847138856,-0.1232701509023737
1592334834.2469692,-0.1168029784279455,10.052701414992697,0.1411523451528719,-1.5944444444444446,-0.8833333333333333,-1.9566666666666668,-0.016809872902599873,-0.15146462386267154,-0.1246764190132677
1592334834.2569692,-0.08659960682724283,9.74,0.5529980341362141,-1.5944444444444446,-0.8833333333333333,-1.9566666666666668,-0.04985118120256121,-0.15916856290584672,-0.10945400360418903
1592334834.2669692,-0.055775597567473224,9.74,0.39887798783736605,-1.5944444444444446,-0.8833333333333333,-1.9566666666666668,-0.06666307027281745,-0.1583279684523339,-0.11281638141824027
1592334834.2769692,0.09,9.62,0.45,-1.5533333333333332,-0.8933333333333333,-1.971111111111111,-0.03381575425739013,-0.1407171709420428,-0.12435470920459597
1592334834.2869692,0.09924497041420119,9.709916107823801,0.23125838264299803,-1.5533333333333332,-0.8933333333333333,-1.971111111111111,-0.023897613829891654,-0.10685566060054795,-0.1046190917346294
1592334834.2969692,0.01,9.716669799567223,0.3512909007453389,-1.5533333333333332,-0.8933333333333333,-1.971111111111111,-0.008766439850843685,-0.09952784788542887,-0.0910032452977458
1592334834.3069692,0.009582188979138666,9.87774382048735,0.07100274645006721,-1.5533333333333332,-0.8933333333333333,-1.971111111111111,0.023171787883662226,-0.080685017014912,-0.07411268665256394
1592334834.3169692,-0.031266873137380934,9.657158885058143,0.16904049552971423,-1.5533333333333332,-0.8933333333333333,-1.971111111111111,0.049016248231491685,-0.07712026386348723,-0.06787436863757063
1592334834.3269691,-0.20772625594183985,9.888213486811447,0.24675179420262838,-1.5555555555555556,-0.9022222222222223,-1.9777777777777779,0.04436973779518905,-0.09066296844771382,-0.06434129995293261
1592334834.3369691,-0.07090036350079226,9.780707428464908,0.05128623357256035,-1.5555555555555556,-0.9022222222222223,-1.9777777777777779,0.0230477527498685,-0.098125663213576,-0.0632752007006666
1592334834.3469691,-0.01,9.92,0.31,-1.5555555555555556,-0.9022222222222223,-1.9777777777777779,0.011999138607461015,-0.08726646259971647,-0.05235987755982988
1592334834.356969,-0.03790634323517966,9.743259826177196,0.8309184070566871,-1.5555555555555556,-0.9022222222222223,-1.9777777777777779,0.03127850081842996,-0.0629135840174399,-0.030036405526076365
1592334834.366969,0.046598668670818126,10.085054541550354,-0.15186429031565385,-1.5555555555555556,-0.9022222222222223,-1.9777777777777779,0.0790125252944702,-0.020466791610785393,0.011313486929014883
1592334834.376969,0.00040561969675893816,9.861892891918208,0.136957852274308,-1.5687987511784982,-0.9022222222222223,-1.9557057850728736,0.011417139643857821,0.012905610035285998,0.02070366174487209
1592334834.386969,-0.13,9.72,0.45,-1.568888888888889,-0.9022222222222223,-1.9555555555555555,-0.044724062082354694,0.01308996938995747,0.014180800172453926
1592334834.396969,-0.05415470941883768,9.703145490981964,0.25617314629258514,-1.568888888888889,-0.9022222222222223,-1.9555555555555555,-0.05023968726057605,0.025040490609437083,0.030727675707118002
1592334834.406969,0.06,9.52,0.46,-1.568888888888889,-0.9022222222222223,-1.9555555555555555,-0.03599741582238304,0.017453292519943295,0.022907446432425576
1592334834.416969,0.17879403006754302,9.741748856126081,0.3491255719369598,-1.568888888888889,-0.9022222222222223,-1.9555555555555555,-0.03858909951787275,0.0019031903470050383,-0.00560107421796123
1592334834.426969,0.01,9.540463802723117,0.6792115353706978,-1.5555555555555556,-0.8955555555555555,-1.9477777777777778,-0.02596238875633989,-0.0010250598451365567,-0.04362058304267364
1592334834.436969,0.01,9.733070511790233,0.3517801299566047,-1.5555555555555556,-0.8955555555555555,-1.9477777777777778,0.06438118192493122,0.026288112686410525,-0.03836804986352997
1592334834.446969,0.0195568318797419,9.701772672481031,0.4068978231581933,-1.5555555555555556,-0.8955555555555555,-1.9477777777777778,0.12079842914236652,0.04707805371778667,-0.02566921371029684
1592334834.456969,-0.02,10.01,0.29,-1.5555555555555556,-0.8955555555555555,-1.9477777777777778,0.17016960206944715,0.07090400086226964,-0.020725784867432664
1592334834.466969,-0.07678323658502054,9.967412572561233,0.055769149086790315,-1.5555555555555556,-0.8955555555555555,-1.9477777777777778,0.14849028623059538,0.08406644262157249,-0.0021435141484168647
1592334834.476969,-0.2290826055070338,9.875045669711314,0.3795413027535169,-1.5766666666666667,-0.91,-1.9466666666666668,0.06835215937308799,0.09628336192008838,0.016662678383232914
1592334834.486969,-0.21044002933528902,9.977579838655911,0.3702200146676445,-1.5766666666666667,-0.91,-1.9466666666666668,0.016495624692493917,0.08001464515754905,0.02276344716918516
1592334834.496969,-0.26734509556815794,9.779292165511446,0.6280529300567108,-1.5766666666666667,-0.91,-1.9466666666666668,-0.0191329565540709,0.05148143916031478,0.012481813853934277
1592334834.506969,-0.20368133427963095,9.84579276082328,0.28945848119233497,-1.5766666666666667,-0.91,-1.9466666666666668,-0.04139505401653869,0.024341629558454453,0.000631040575452704
1592334834.516969,-0.09815384615384615,9.697230769230769,0.4227692307692308,-1.5766666666666667,-0.91,-1.9466666666666668,-0.061058553799737514,0.005317100814168623,-0.008332268977069082
1592334834.526969,-0.13,9.47,0.87,-1.5566666666666666,-0.9022222222222223,-1.9322222222222223,-0.04581489286485115,-0.017453292519943295,-0.017453292519943295
1592334834.536969,0.06865499918975856,9.858672824501701,0.48996434937611405,-1.5566666666666666,-0.9022222222222223,-1.9322222222222223,0.014483956029200232,-0.02216414008979106,-0.009915936408186873
1592334834.546969,0.12,9.57,0.36,-1.5566666666666666,-0.9022222222222223,-1.9322222222222223,0.05890486225480862,-0.02181661564992912,0.001090830782496456
1592334834.556969,0.22954317390952494,9.915482317714655,0.3684263979930404,-1.5566666666666666,-0.9022222222222223,-1.9322222222222223,0.06258157198135855,-0.012624841333554312,0.0020100082141339365
1592334834.566969,0.27738551586825627,10.05759229496006,0.3745642526447094,-1.5541309707529392,-0.8976579695775129,-1.9393221707806592,0.06277030265640046,-0.0014485359854788365,-0.0037929311757349117
1592334834.576969,0.3075697459639696,10.143114280231247,0.3795949576606616,-1.5513361346329657,-0.8926272645615606,-1.9471477119165848,0.06222153786749446,0.008977995003735166,-0.010378108642606913
1592334834.586969,0.23791065003037526,9.8616426001215,0.091642600121501,-1.551111111111111,-0.8922222222222222,-1.9477777777777778,0.03760320396572717,0.00883451101700527,-0.04138025461431238
1592334834.596969,0.015205954692556645,9.878816828478966,0.030709902912621358,-1.551111111111111,-0.8922222222222222,-1.9477777777777778,-0.0833104112034363,-0.04345923496455829,-0.13418557275297743
1592334834.6069689,-0.37255935161498555,9.850572357568078,0.1967566404475578,-1.551111111111111,-0.8922222222222222,-1.9477777777777778,-0.15465686535543727,-0.07254456320725547,-0.16096429111485383
1592334834.6169689,-0.3024120834774588,9.494388715938353,0.7107871171067297,-1.551111111111111,-0.8922222222222222,-1.9477777777777778,-0.12989292152512258,-0.09001271996577322,-0.14945295671969708
1592334834.6269689,-0.19,9.62,0.74,-1.5566666666666666,-0.9111111111111111,-1.9266666666666667,0.061086523819801536,-0.08617563181722002,-0.07744898555724837
1592334834.6369689,-0.1641598868058012,9.809494163424125,0.20597099398655816,-1.5566666666666666,-0.9111111111111111,-1.9266666666666667,0.12591706287927873,-0.07302160939935508,-0.03234948012456858
1592334834.6469688,-0.23599218614772138,9.830500976731535,0.16749511634232586,-1.5566666666666666,-0.9111111111111111,-1.9266666666666667,0.1353176651135678,-0.07815727975169397,-0.004365454027634677
1592334834.6569688,-0.20161550111786908,9.925961247205327,0.2659612472053273,-1.5566666666666666,-0.9111111111111111,-1.9266666666666667,0.0996726730209307,-0.08691401493001066,0.017663004128175237
1592334834.6669688,-0.11031286703657203,9.84846624276052,0.34338038151553196,-1.5566666666666666,-0.9111111111111111,-1.9266666666666667,0.06437774818510218,-0.10149678775322335,0.020322913946628114
1592334834.6769688,-0.002681484984629945,9.975530858358951,0.46672262946323007,-1.5566666666666666,-0.9046430729618244,-1.9406807493234544,0.02603162293694131,-0.11530305779306473,0.013317472996049188
1592334834.6869688,0.05940157729956803,9.742393690801729,0.38832283121309397,-1.5566666666666666,-0.9044444444444445,-1.941111111111111,-0.010549279978547838,-0.11076828276608347,0.008230189211416609
1592334834.6969688,0.04609092865855117,9.744772678353621,0.36,-1.5566666666666666,-0.9044444444444445,-1.941111111111111,-0.03862779643310191,-0.09891108707273738,-0.016573177070721753
1592334834.7069688,0.09836915504511895,9.835046056486581,0.36,-1.5566666666666666,-0.9044444444444445,-1.941111111111111,-0.0032490470919508893,-0.0707060073411246,-0.03709829457153885
1592334834.7169688,0.03417498961691355,9.629418151612839,0.4289318276209877,-1.5566666666666666,-0.9044444444444445,-1.941111111111111,0.03143278853656244,-0.034620733570075106,-0.04487231652013164
1592334834.7269688,-0.00884461076834901,9.671513772293583,0.44231077846330197,-1.5753386227331811,-0.9221336659811424,-1.9185082169253302,0.04363323129985824,0.008218136188511537,-0.04980011575294202
1592334834.7369688,-0.05739843247131877,9.808496081178298,0.4577744121767445,-1.5777777777777777,-0.9244444444444444,-1.9155555555555555,0.041048047840768535,0.028802831091544093,-0.046300440806202416
1592334834.7469687,-0.08202720670962463,9.674734581159864,0.4141904469673724,-1.5777777777777777,-0.9244444444444444,-1.9155555555555555,0.056663844857117736,0.05688497880525192,-0.03928474712804691
1592334834.7569687,-0.08,9.668888516265032,0.3674076558233124,-1.5777777777777777,-0.9244444444444444,-1.9155555555555555,0.12152616873260641,0.06997470689521401,-0.03729025907983471
1592334834.7669687,-0.08,9.716639749823292,0.3087043502473922,-1.5777777777777777,-0.9244444444444444,-1.9155555555555555,0.17363207332096714,0.06879741028714888,-0.036288891265475194
1592334834.7769687,-0.3130944926007712,10.031080386275995,-0.030504927326060416,-1.5572740955582656,-0.9114947504110682,-1.9317426730972758,0.19397956078337325,0.07398817470876311,-0.03811630455371066
1592334834.7869687,-0.2520803988288359,10.121503521405396,-0.14187940175674607,-1.5566666666666666,-0.9111111111111111,-1.9322222222222223,0.17120035385972884,0.0860306998805411,-0.0011346815411819242
1592334834.7969687,0.062451151749145645,9.895202045235175,-0.1723468030156784,-1.5566666666666666,-0.9111111111111111,-1.9322222222222223,0.08428835484109115,0.08488995799171223,0.039470442553412775
1592334834.8069687,-0.49212928576562764,9.57290701296212,0.2965261039365551,-1.5566666666666666,-0.9111111111111111,-1.9322222222222223,0.04579547394946684,0.028210587568204583,-0.036728722244143905
1592334834.8169687,-0.2331535164196455,9.676592560302238,0.1353545480964836,-1.5566666666666666,-0.9111111111111111,-1.9322222222222223,0.06116732169707233,0.03990939622450507,-0.030914955921082718
1592334834.8269687,-0.3501521776553624,9.685788948183852,0.11131657772422104,-1.5449498288097014,-0.9238931160459822,-1.9162447160536331,0.07340140057112372,0.10073387558974589,-0.004814377621216068
1592334834.8369687,-0.1600324000996926,9.784983799950153,0.059219905292016276,-1.5444444444444445,-0.9244444444444444,-1.9155555555555555,0.06103097183262281,0.10133262449520287,-0.007979730308377746
1592334834.8469687,0.017631720693369896,9.786051072372931,-0.058685486240329064,-1.5444444444444445,-0.9244444444444444,-1.9155555555555555,0.060426454218650824,0.1286611458992004,0.01323394815669037
1592334834.8569686,-0.19713406868046046,9.697961694662725,0.08285055151034533,-1.5444444444444445,-0.9244444444444444,-1.9155555555555555,0.06496001771368977,0.13575284626565812,0.013958455551851353
1592334834.8669686,-0.20331201576598334,9.76818130880847,0.08590934559576482,-1.5444444444444445,-0.9244444444444444,-1.9155555555555555,0.08056555762093248,0.12083438411619474,0.012686216365240338
1592334834.8769686,-0.20736267340045256,9.864835208080544,0.030109861279637953,-1.5643712035913524,-0.9045176852975364,-1.9263492167601306,0.09596914084656141,0.08871688512542135,0.009014333963799952
1592334834.8869686,-0.20406071046138088,9.943757158154478,-0.08360538200102426,-1.5711111111111111,-0.8977777777777778,-1.93,0.07209416890490683,0.047686049313023754,-0.00105771836244954
1592334834.8969686,-0.12256718644383843,9.913540311866303,-0.04031046779945459,-1.5711111111111111,-0.8977777777777778,-1.93,0.022372137682578702,0.01139609629109034,-0.004117153313513067
1592334834.9069686,-0.09210952404245952,9.828985716382137,0.1220285672357286,-1.5711111111111111,-0.8977777777777778,-1.93,-0.041825567335732006,-0.022549029841610686,-0.004363323129985824
1592334834.9169686,-0.1039068369646882,9.81,0.24344102178812926,-1.5711111111111111,-0.8977777777777778,-1.93,-0.08217988014174184,-0.03931293492876127,-0.00360482283757375
1592334834.9269686,-0.09279755913437343,9.749791456970307,0.4692268495218923,-1.552952979086283,-0.9264485125538221,-1.9376455292736119,-0.10507041851287546,-0.055830450119553524,-0.008901977956579502
1592334834.9369686,-0.12280026030015861,9.745466710050026,0.5218668402001058,-1.55,-0.9311111111111111,-1.9388888888888889,-0.10511244000418721,-0.06258463595355343,-0.01339543040339905
1592334834.9469686,-0.11807608582979165,9.718076085829793,0.5000951072872396,-1.55,-0.9311111111111111,-1.9388888888888889,-0.10711128316462713,-0.06654067773228381,-0.01723305144431279
1592334834.9569685,-0.11842219482120839,9.676311220715167,0.7342436498150432,-1.55,-0.9311111111111111,-1.9388888888888889,-0.11166712321401168,-0.07205299135257762,-0.01653457358322766
1592334834.9669685,-0.11564446886698491,9.67871106226603,0.7756444688669849,-1.55,-0.9311111111111111,-1.9388888888888889,-0.10855465264992335,-0.07261054768386109,-0.016362461737446838
1592334834.9769685,-0.10151204578730201,9.698487954212696,0.77,-1.5603741662599642,-0.9254524749693124,-1.9388888888888889,-0.08140751217164786,-0.07477250816545553,-0.017288353911009982
1592334834.9869685,-0.08774635072589897,9.693873175362949,0.8006341231852525,-1.5622222222222222,-0.9244444444444444,-1.9388888888888889,-0.06074066327461742,-0.0759356568835607,-0.016784959628638057
1592334834.9969685,-0.024255213751424184,9.69,0.7324010501808094,-1.5622222222222222,-0.9244444444444444,-1.9388888888888889,-0.0293297146907347,-0.07635815477475191,-0.017231149291784435
1592334835.0069685,-0.017496220878534592,9.69,0.71,-1.5622222222222222,-0.9244444444444444,-1.9388888888888889,-0.013368036182214426,-0.06736333543938394,-0.015000159973933848
1592334835.0169685,-0.025895578316262803,9.695895578316263,0.7158955783162628,-1.5622222222222222,-0.9244444444444444,-1.9388888888888889,0.003044679573528079,-0.056641722197693194,-0.014823908003253736
1592334835.0269685,-0.09184270263052477,9.74122846842035,0.6787715315796502,-1.5622222222222222,-0.9244444444444444,-1.9228555956143083,0.024741568640089535,-0.04152483557591162,-0.01677074037055374
1592334835.0369685,-0.07601980420839427,9.730679869472263,0.6306798694722628,-1.5622222222222222,-0.9244444444444444,-1.9155555555555555,0.0441361648036504,-0.02429492623429161,-0.016653709996781552
1592334835.0469685,-0.052969896695180665,9.72703010330482,0.5286086570373487,-1.5622222222222222,-0.9244444444444444,-1.9155555555555555,0.055222307683562115,-0.013500031613714611,-0.011761269884030642
1592334835.0569685,-0.05705297693718035,9.73705297693718,0.4758940461256393,-1.5622222222222222,-0.9244444444444444,-1.9155555555555555,0.06550763582362606,0.0029401800074004645,-0.0052013144316797625
1592334835.0669684,-0.08269236641221374,9.728653816793894,0.49836545801526716,-1.5622222222222222,-0.9244444444444444,-1.9155555555555555,0.0742918839545563,0.02234108875554392,-0.0007971391664762266
1592334835.0769684,-0.08251731333353496,9.70834487555569,0.5433102488886201,-1.5583371807407855,-0.9166743614815711,-1.9239731454320017,0.07853981633974483,0.042895938289037906,0.005540649763684557
1592334835.0869684,-0.07,9.73270508947246,0.5665410178944922,-1.5555555555555556,-0.9111111111111111,-1.93,0.08424793127428264,0.05802687402982646,0.00444556005906829
1592334835.0969684,-0.0766785961101787,9.75,0.49653544278803435,-1.5555555555555556,-0.9111111111111111,-1.93,0.0916375935322229,0.0680055291789732,0.002181661564992912
1592334835.1069684,-0.14068598210481467,9.73651422619893,0.5072002083037448,-1.5555555555555556,-0.9111111111111111,-1.93,0.08204288954430217,0.08120148889386355,0.009537010158988567
1592334835.1169684,-0.15323504917512693,9.73,0.5411766338832488,-1.5555555555555556,-0.9111111111111111,-1.93,0.08245406291702222,0.08129890530340377,0.01187078776150341
1592334835.1269684,-0.11484079077640447,9.73,0.55,-1.5555555555555556,-0.9236907157229088,-1.9209147300025904,0.10441923752744571,0.058923988635300795,0.004733308850982034
1592334835.1369684,-0.1357163047062703,9.758573043765017,0.4785673905874594,-1.5555555555555556,-0.9311111111111111,-1.9155555555555555,0.11453723216212788,0.04799655442984406,0.001090830782496456
1592334835.1469684,-0.19074015030744704,9.783580050102481,0.3617296743338647,-1.5555555555555556,-0.9311111111111111,-1.9155555555555555,0.12120332366796223,0.03836775558808332,0.0025721844504596456
1592334835.1569684,-0.20341981522175753,9.757099076108787,0.3463207391129699,-1.5555555555555556,-0.9311111111111111,-1.9155555555555555,0.12076577514928521,0.011564363114463443,0.003990279158551519
1592334835.1669683,-0.16694741908314284,9.767543817430713,0.36,-1.5555555555555556,-0.9311111111111111,-1.9155555555555555,0.11769872953527827,-0.009614606054683398,0.0013587587378972622
1592334835.1769683,-0.15221076961519242,9.796105384807596,0.33557846076961517,-1.568444701260481,-0.9236489741240491,-1.9074150424787606,0.11405491705227593,-0.022115251700921792,-0.004420801626052526
1592334835.1869683,-0.1262343911100928,9.786493756444036,0.29298751288807423,-1.5766666666666667,-0.9188888888888889,-1.9022222222222223,0.100569149615744,-0.02729906193142929,-0.004335030760967929
1592334835.1969683,-0.09033469445559043,9.806220407392546,0.16200816673354262,-1.5766666666666667,-0.9188888888888889,-1.9022222222222223,0.08775177119884493,-0.02407129621789982,-0.0018423909718200226
1592334835.2069683,-0.07342706756074699,9.82,0.14601052707477108,-1.5766666666666667,-0.9188888888888889,-1.9022222222222223,0.07610701751261972,-0.016080650021123757,-0.006109800707701146
1592334835.2169683,-0.08051264524948736,9.830512645249488,0.16474367737525633,-1.5766666666666667,-0.9188888888888889,-1.9022222222222223,0.06282081800988133,-0.00964971427687569,-0.011020149668692835
1592334835.2269683,-0.08414338501916635,9.799003695134164,0.2185661498083365,-1.561049026717777,-0.9260469738654633,-1.9152369221796304,0.04559753286157027,0.0004824487975768248,-0.01308996938995747
1592334835.2369683,-0.08708895761324359,9.77177223940331,0.2617722394033109,-1.55,-0.9311111111111111,-1.9244444444444444,0.03733669487478774,0.006034117901007683,-0.0123166840719236
1592334835.2469683,-0.12,9.803041573535985,0.18935449262405007,-1.55,-0.9311111111111111,-1.9244444444444444,0.023334708806866073,0.009983369144482092,-0.005584839048695534
1592334835.2569683,-0.1461690978614927,9.813457725534628,0.15616909786149272,-1.55,-0.9311111111111111,-1.9244444444444444,0.0089301825233818,0.010194656387527598,-0.004699795222363289
1592334835.2669683,-0.14434109120116273,9.789121454934884,0.21697672639651183,-1.55,-0.9311111111111111,-1.9244444444444444,-0.0046987435302795755,0.004123737129776002,-0.00545415391248228
1592334835.2769682,-0.10327129337539433,9.791382965299684,0.25465425867507885,-1.5565336838415702,-0.9204196284612688,-1.9196926743778477,-0.016664177961450907,-0.004006480378740138,-0.006037283831731016
1592334835.2869682,-0.11079231692677072,9.834633853541417,0.21304921968787516,-1.5622222222222222,-0.9111111111111111,-1.9155555555555555,-0.025428273870967806,-0.007888552981703063,-0.008560337125065225
1592334835.2969682,-0.1180406893250359,9.85,0.1421627573001436,-1.5622222222222222,-0.9111111111111111,-1.9155555555555555,-0.04010262614442823,-0.006117529415633786,-0.005903801775961311
1592334835.3069682,-0.11594946292528273,9.832151611224152,0.1278483887758482,-1.5622222222222222,-0.9111111111111111,-1.9155555555555555,-0.06032728329646171,-0.005012308859807806,-0.0006765494282014407
1592334835.3169682,-0.095929912341944,9.815185982468389,0.2170242805057792,-1.5622222222222222,-0.9111111111111111,-1.9155555555555555,-0.07869976846809902,-0.003353642508098638,0.003716470037976008
1592334835.3269682,-0.08557262855972138,9.78404561906713,0.3311452571194427,-1.5558778179941877,-0.9076505269867287,-1.923053487825051,-0.09227930793093064,-0.001090830782496456,0.004846274435245984
1592334835.3369682,-0.09362319172312764,9.753623191723127,0.38550723310748947,-1.55,-0.9044444444444445,-1.93,-0.09490227807719166,0.003778382351246937,0.0032724923474893677
1592334835.3469682,-0.1017308297021697,9.73826917029783,0.39413458514891514,-1.55,-0.9044444444444445,-1.93,-0.09490227807719166,0.005905167187811213,7.340481165175362e-05
1592334835.3569682,-0.11,9.73,0.4403195229723951,-1.55,-0.9044444444444445,-1.93,-0.09551216790628973,0.006673933570678417,-0.0015717717358948436
1592334835.3669682,-0.12414525950719846,9.720569826995202,0.5130056055167964,-1.55,-0.9044444444444445,-1.93,-0.08930673891105194,0.008150151627370282,-0.0016051669323915467
1592334835.3769681,-0.13477708063605884,9.725668758091825,0.5552229193639412,-1.5563835681114837,-0.9148902831723268,-1.9340622706163988,-0.07611498747055036,0.0058779856516297255,9.726692168062542e-05
1592334835.3869681,-0.12380970568411592,9.715238822736463,0.5661902943158841,-1.5622222222222222,-0.9244444444444444,-1.9377777777777778,-0.06685246270678212,0.0005714669104976938,0.002181661564992912
1592334835.3969681,-0.11425939115450891,9.705740608845492,0.5470375646180357,-1.5622222222222222,-0.9244444444444444,-1.9377777777777778,-0.05684457676057114,-0.002343237350283082,0.0009292549972062859
1592334835.406968,-0.09922566982782433,9.731548660344352,0.5084513396556487,-1.5622222222222222,-0.9244444444444444,-1.9377777777777778,-0.043629615619150214,-0.006798383651266237,0.0
1592334835.416968,-0.09,9.754569217289719,0.49,-1.5622222222222222,-0.9244444444444444,-1.9377777777777778,-0.03409770088195478,-0.010814325616776341,0.000996848574308239
