time,acc_x,acc_y,acc_z,mag_x,mag_y,mag_z,gyr_x,gyr_y,gyr_z
1592337228.2999198,-0.1712503428310224,9.771250342831022,-0.116251714155112,-1.809305161934752,-1.7365279428445664,-2.431111111111111,0.016907727540442098,-0.16076070040859305,-0.014453482936702546
1592337228.3099198,-0.11226657770005982,9.753180939671436,-0.06,-1.8222222222222222,-1.731111111111111,-2.431111111111111,0.017353551101471045,-0.19233531268402912,-0.015271630954950384
1592337228.3199198,-0.02108671143571393,9.75,-0.10134797313857163,-1.8222222222222222,-1.731111111111111,-2.431111111111111,0.02128544987406912,-0.19511166900751237,-0.016023358319840225
1592337228.3299198,0.09388675188149564,9.715047186716044,0.03379237844940869,-1.8222222222222222,-1.731111111111111,-2.431111111111111,0.02781103768142111,-0.1610498605832804,-0.01026204499104831
1592337228.3399198,0.11336589328899638,9.683365893288997,0.12217880894800484,-1.8222222222222222,-1.731111111111111,-2.431111111111111,0.03852492894725113,-0.10552866566572619,-0.004611649537526252
1592337228.3499198,0.029193718011638517,9.676436934726215,0.03700904438056511,-1.8172157174351664,-1.7268198212936345,-2.436117615898167,0.06336890922553959,-0.010204694055142821,-7.517960171030038e-05
1592337228.3599198,-0.10303212900392769,9.726516064501965,-0.15179551608889755,-1.8144444444444445,-1.7244444444444444,-2.438888888888889,0.09169075260835126,0.07812217592354374,0.011239061790363023
1592337228.3699198,-0.045326309353025576,9.793883257684438,-0.4594162884221914,-1.8144444444444445,-1.7244444444444444,-2.438888888888889,0.09624426084013638,0.10472727172132182,0.023417266994984122
1592337228.3799198,-0.0276170283331754,9.802382971666825,-0.5095318866672984,-1.8144444444444445,-1.7244444444444444,-2.438888888888889,0.08851510878041026,0.09137446951319834,0.024518160984519862
1592337228.3899198,-0.13461702520353547,9.786922871849558,-0.4803843077743371,-1.8144444444444445,-1.7244444444444444,-2.438888888888889,0.07119745118740936,0.07405043797403996,0.015439316855030227
1592337228.3999197,-0.15287914691943127,9.809696682464455,-0.3957582938388625,-1.8004210110584518,-1.7293938915218536,-2.443838335966298,0.04950071185243811,0.05224433221391142,0.006859050903683284
1592337228.4099197,-0.14,9.824416396201467,-0.40091477341026566,-1.7955555555555556,-1.731111111111111,-2.4455555555555555,0.03460722614140848,0.03486187133669735,0.0030453834503522286
1592337228.4199197,-0.15352324851528173,9.850284872772923,-0.5752324851528173,-1.7955555555555556,-1.731111111111111,-2.4455555555555555,0.007802618678101251,0.001933063173153636,-0.004425472727945643
1592337228.4299197,-0.17966974627688914,9.807547343261628,-0.6531131641845928,-1.7955555555555556,-1.731111111111111,-2.4455555555555555,-0.014643836680835744,-0.032292622362249605,-0.007260196852402927
1592337228.4399197,-0.25832368364621716,9.685397976489853,-0.6284659921632844,-1.7955555555555556,-1.731111111111111,-2.4455555555555555,-0.02749388195826209,-0.07620002822351805,-0.0059159021552865
1592337228.4499197,-0.22002902208201894,9.605553943217664,-0.5777842271293375,-1.806046337188924,-1.7348137399228882,-2.4375331931300384,-0.006188761342915541,-0.13513266791271206,-0.0025457994621657038
1592337228.4599197,-0.13373264318667719,9.559861145493416,-0.5161285023067402,-1.8144444444444445,-1.7377777777777779,-2.431111111111111,0.0387926528251551,-0.1801783396638772,0.00711312010173727
1592337228.4699197,-0.1914814515477249,9.618806541124492,-0.5241563619709583,-1.8144444444444445,-1.7377777777777779,-2.431111111111111,0.09070951939833895,-0.19943797993057877,0.020941253260904034
1592337228.4799197,0.37527185019723397,9.73889145002614,-0.5328280499976237,-1.8144444444444445,-1.7377777777777779,-2.431111111111111,0.13772110603299606,-0.19428880332791143,0.04073587566365371
1592337228.4899197,0.5389129020172342,9.758152150336205,-0.5892392483189715,-1.8144444444444445,-1.7377777777777779,-2.431111111111111,0.16947601583748298,-0.16892458843346272,0.03785892426358764
1592337228.4999197,0.08302810397150018,9.57458107929806,-0.6159664863438449,-1.8043091290261102,-1.7377777777777779,-2.4217554353403408,0.19244448466903566,-0.0948706139035343,0.012498856838999171
1592337228.5099196,0.06484383186233023,9.542457179704188,-0.657452142022327,-1.8,-1.7377777777777779,-2.417777777777778,0.20751929109013714,-0.059460718637103595,0.00817738418781146
1592337228.5199196,0.4782814621844082,9.960916775212704,-1.0391982373971123,-1.8,-1.7377777777777779,-2.417777777777778,0.2706920937960679,0.0012568905194432975,0.018929751921499274
1592337228.5299196,0.13247238843033843,10.044069484189864,-1.121680580848095,-1.8,-1.7377777777777779,-2.417777777777778,0.2740879062729223,0.06940862646885798,0.0042375820701299055
1592337228.5399196,-0.16408197986112485,9.998586520010287,-1.1913078399177037,-1.8,-1.7377777777777779,-2.417777777777778,0.20858353101483432,0.10454828305497565,-0.014009328107769822
1592337228.5499196,-0.2673422550184479,9.914053530110687,-1.1840535301106871,-1.7922647114001626,-1.7377777777777779,-2.417777777777778,0.07663763283840572,0.09894857062362097,-0.02083632775299551
1592337228.5599196,-0.2500298364960019,9.820149182480009,-1.0967959581493416,-1.7877777777777777,-1.7377777777777779,-2.417777777777778,-0.003909667363577021,0.08220087131708156,-0.01528464958226267
1592337228.5699196,-0.30923161706817826,9.693589460977273,-1.01,-1.7877777777777777,-1.7377777777777779,-2.417777777777778,-0.08092443781257115,0.0409618323437209,-0.0022235703527317147
1592337228.5799196,0.09681625299291186,9.734992769599128,-0.8243994026029443,-1.7877777777777777,-1.7377777777777779,-2.417777777777778,-0.08419919114903132,0.014114496445210229,0.007498475736682961
1592337228.5899196,0.05652537225525023,9.781171706760412,-0.8299797537317554,-1.7877777777777777,-1.7377777777777779,-2.417777777777778,-0.049479659454088616,0.004748971795944336,0.014372520242801586
1592337228.5999196,-0.29303371151783103,9.704215727707162,-0.8195370761678749,-1.804924345040076,-1.7342302121373023,-2.40831760273651,-0.023047661149567116,0.007986352270329048,0.007004849250338251
1592337228.6099195,-0.3179749009877368,9.712025099012262,-0.7794393281481128,-1.82,-1.731111111111111,-2.4,-0.024372080777669478,-0.009137874422261728,0.0006864473140031141
1592337228.6199195,-0.2143178249360671,9.889925075149177,-0.9051774417874288,-1.82,-1.731111111111111,-2.4,-0.01859918116193585,-0.028824428946911937,0.010280305644472186
1592337228.6299195,-0.05480552070263489,9.844805520702636,-0.8573249686323714,-1.82,-1.731111111111111,-2.4,-0.01800295079127401,-0.03381575425739013,0.008443331364141327
1592337228.6399195,0.29585932342409027,9.553639746334046,-0.7359099365835117,-1.82,-1.731111111111111,-2.4,-0.05621687993010853,-0.041486158063635946,-0.007437298110392344
1592337228.6499195,0.16221470971018637,10.171892518172871,-0.316185442656255,-1.8159804886307125,-1.7257517626187278,-2.409378859861671,-0.07148187836374834,-0.040761953321691996,-0.05954551714919168
1592337228.6599195,-0.6862113381569531,10.52185894887493,-0.33322334419972965,-1.8133333333333332,-1.7222222222222223,-2.4155555555555557,-0.036723797932855164,-0.03251702640996213,-0.10669863681906655
1592337228.6699195,-1.633720030935808,9.5276563547306,-0.9086916731116268,-1.8133333333333332,-1.7222222222222223,-2.4155555555555557,0.016018705215527874,-0.03809221024926996,-0.09037017004500053
1592337228.6799195,0.08433257864058974,9.527118358302424,-0.8805549400260129,-1.8133333333333332,-1.7222222222222223,-2.4155555555555557,0.05971976681547894,-0.1144650320804693,0.035038111098395615
1592337228.6899195,0.13489896079639163,9.650865738073003,-0.7210938462455541,-1.8133333333333332,-1.7222222222222223,-2.4155555555555557,0.11818238041287914,-0.14634775823162927,0.09605022212119543
1592337228.6999195,-0.2216185585266513,9.633063573578891,-0.7594026326663126,-1.8200685057290333,-1.725895952619877,-2.4155555555555557,0.13508436700854426,-0.13820132534062016,0.09153941438189321
1592337228.7099195,-0.028345407805562044,9.668097686375322,-0.916749240476747,-1.8255555555555556,-1.728888888888889,-2.4155555555555557,0.13040437157884777,-0.13670845066750278,0.07338698563009284
1592337228.7199194,0.027406740416773878,9.712901123402796,-0.9212966297916131,-1.8255555555555556,-1.728888888888889,-2.4155555555555557,0.14992679116051108,-0.1435733870711882,0.016179393746593086
1592337228.7299194,-0.240466476774759,9.698526073619632,-0.9919404031551271,-1.8255555555555556,-1.728888888888889,-2.4155555555555557,0.12493881992969305,-0.1180722743813465,-0.015389652918227496
1592337228.7399194,-0.19581634247324428,9.75928560268729,-0.8697961096789314,-1.8255555555555556,-1.728888888888889,-2.4155555555555557,0.1017032897299089,-0.11037424831576435,-0.02435447381447169
1592337228.7499194,-0.14077846735024285,9.890239476524554,-0.7917964112250405,-1.8205422513041913,-1.728888888888889,-2.4182900851472087,0.09107130892022058,-0.11627145736898738,-0.012867888487260877
1592337228.7599194,-0.06437637969094923,9.980634657836644,-0.9149668874172185,-1.8133333333333332,-1.728888888888889,-2.422222222222222,0.060069739497706325,-0.10519955210291014,-0.0006134418142184816
1592337228.7699194,-0.15905993992353903,9.87179478427089,-0.988717913708356,-1.8133333333333332,-1.728888888888889,-2.422222222222222,0.006759382689435822,-0.08855307397527568,-0.0084842476938175
1592337228.7799194,-0.21176831657307038,9.603379913804362,-1.0310016977928693,-1.8133333333333332,-1.728888888888889,-2.422222222222222,-0.06202719975774382,-0.06940174010721868,-0.012888528260735846
1592337228.7899194,-0.14578953650288443,9.405789536502883,-0.9629325641535708,-1.8133333333333332,-1.728888888888889,-2.422222222222222,-0.10231662908348804,-0.057863245799240785,-0.007176525158352057
1592337228.7999194,-0.14134218905792673,9.453579170821138,-0.8404473963526422,-1.8133333333333332,-1.7254064234380082,-2.4175789349543813,-0.08785343628956774,-0.04936438206119741,-0.001563041116728864
1592337228.8099194,-0.1842412512836717,9.537120625641835,-0.8197373410221976,-1.8133333333333332,-1.7222222222222223,-2.4133333333333336,-0.06020685354228236,-0.041885566830689905,0.0007767397640748127
1592337228.8199193,-0.20702475977426407,9.629090955310387,-0.7981819106207738,-1.8133333333333332,-1.7222222222222223,-2.4133333333333336,-0.04713111061669356,-0.029713866701591523,0.01022316249541241
1592337228.8299193,-0.0017419812156654335,9.68,-0.9315483785220627,-1.8133333333333332,-1.7222222222222223,-2.4133333333333336,-0.07220947478318794,-0.025606373072753007,0.01986015661224586
1592337228.8399193,-0.04792208793538813,9.691875325276124,-0.825412980203936,-1.8133333333333332,-1.7222222222222223,-2.4133333333333336,-0.09135721996256142,-0.019043921827853513,0.01665769400902171
1592337228.8499193,-0.32535552369512144,9.783933428914636,-0.5707110473902429,-1.812420574951671,-1.7213094638405602,-2.415615229287489,-0.11718757012175482,-0.012953821602519138,0.0036619570210245462
1592337228.8599193,-0.28467903791016247,9.889165339280027,-0.5,-1.8111111111111111,-1.72,-2.418888888888889,-0.14305816538813626,-0.017612625401043844,0.001124973542732288
1592337228.8699193,0.029453207736469533,9.829054679226353,-0.5,-1.8111111111111111,-1.72,-2.418888888888889,-0.16336682112466153,-0.041039095735174336,-0.006549027961632544
1592337228.8799193,-0.2944456997599209,9.751903685920068,-0.7452407851998305,-1.8111111111111111,-1.72,-2.418888888888889,-0.1708622126044145,-0.06563470741285694,-0.007843475397656693
1592337228.8899193,-0.31558363197542605,9.694805456008192,-0.79703302128282,-1.8111111111111111,-1.72,-2.418888888888889,-0.18001785421425912,-0.09116714200062331,-0.0011640487998032737
1592337228.8999193,-0.1199008091882015,9.684950404594101,-0.5285147481075437,-1.8111111111111111,-1.7225027553003278,-2.418888888888889,-0.1908953869368798,-0.11891137533119876,0.0012528466309016982
1592337228.9099193,-0.03083101311861941,9.59,-0.3881586274362254,-1.8111111111111111,-1.7277777777777779,-2.418888888888889,-0.17700196719707845,-0.136152985224596,0.01251107690079908
1592337228.9199193,0.0645870916483619,9.45427419731738,-0.4902967705753143,-1.8111111111111111,-1.7277777777777779,-2.418888888888889,-0.13806574911882147,-0.12597476905439606,0.008445845402375233
1592337228.9299192,0.11366715758468336,9.398483063328424,-0.5096170839469808,-1.8111111111111111,-1.7277777777777779,-2.418888888888889,-0.03617413362219837,-0.09621320284673086,0.012413622174300611
1592337228.9399192,0.10668876755070204,9.571364274570982,-0.4560066302652106,-1.8111111111111111,-1.7277777777777779,-2.418888888888889,0.047527356797833056,-0.0625013492132224,0.01807130942173482
1592337228.9499192,0.1751893053536439,9.831842487832628,-0.5266632956197459,-1.8133742775073918,-1.7227988117059605,-2.4274889211947555,0.05211869646652525,-0.04403740613374954,0.009898973912761434
1592337228.9599192,0.0948361310951239,9.972418065547563,-0.5902897681854516,-1.8166666666666667,-1.7155555555555555,-2.44,0.030302816995213797,-0.04074266052130049,-0.0014452853892788775
1592337228.9699192,0.02698588937066093,9.95910774706133,-0.8753645454773302,-1.8166666666666667,-1.7155555555555555,-2.44,-0.0294892305016553,-0.02786188343364516,-0.009134966211263274
1592337228.9799192,0.0218268793800378,10.075696620344901,-0.8639010739314501,-1.8166666666666667,-1.7155555555555555,-2.44,-0.10638127024537289,-0.029921857027059316,-0.005075915402739136
1592337228.9899192,-0.29468811763775793,9.965096845600444,-0.687655941181121,-1.8166666666666667,-1.7155555555555555,-2.44,-0.2063804581785468,-0.042868468284665055,0.006824138718454191
1592337228.9999192,-0.249260044384088,9.78917723824981,-0.5930866814613627,-1.818838579561974,-1.7155555555555555,-2.4421719128953074,-0.2678685273281688,-0.05738757737255377,0.01697744735398396
1592337229.0099192,-0.03,9.71,-0.52,-1.8222222222222222,-1.7155555555555555,-2.4455555555555555,-0.27052603405912107,-0.056723200689815706,0.019634954084936207
1592337229.0199192,-0.018643839155018507,9.259845584225483,-0.4248841881691111,-1.8222222222222222,-1.7155555555555555,-2.4455555555555555,-0.1639084005670446,-0.04827557868097372,0.00859555620841421
1592337229.0299191,0.026157259873002384,9.188611288152398,-0.32615725987300237,-1.8222222222222222,-1.7155555555555555,-2.4455555555555555,0.02165060790603103,-0.052880045457221726,0.012519306504852864
1592337229.0399191,-0.07818577075098815,9.35682509881423,-0.530648023715415,-1.8222222222222222,-1.7155555555555555,-2.4455555555555555,0.2178033582534684,-0.05387714556976828,0.005840536523444413
1592337229.0499191,-0.13513702623906707,9.675829062452049,-0.862689274205923,-1.8263946942185396,-1.7170728180996708,-2.4455555555555555,0.35103319560143614,-0.056403500399103995,-0.0024750158736323606
1592337229.059919,-0.07825708164722683,9.816618424184718,-0.8685060699833373,-1.8344444444444445,-1.72,-2.4455555555555555,0.32389084694254483,-0.0738234078257936,-0.0004503539417190796
1592337229.069919,-0.15,9.75,-0.93,-1.8344444444444445,-1.72,-2.4455555555555555,0.2825251726665821,-0.08835729338221293,-0.004363323129985824
1592337229.079919,0.1990859564164649,10.055169491525424,-1.044909200968523,-1.8344444444444445,-1.72,-2.4455555555555555,0.1728808316051193,-0.07516761730450912,0.006026641980535807
1592337229.089919,0.039357944115847435,10.142804405466041,-1.0856753008362228,-1.8344444444444445,-1.72,-2.4455555555555555,0.03509685191428817,-0.07072957472858063,0.013674697405979739
1592337229.099919,-0.1007633307868602,10.158092284186402,-0.9442744079449962,-1.822086546133605,-1.715614939309057,-2.4515351837704777,-0.13492145116162346,-0.07705761980576507,0.010491975465197385
1592337229.109919,-0.12,9.69,-1.22,-1.8,-1.7077777777777778,-2.462222222222222,-0.2454369260617026,-0.07635815477475191,0.0
1592337229.119919,-0.29846428062170255,9.57336746043063,-0.46,-1.8,-1.7077777777777778,-2.462222222222222,-0.2827584888185491,-0.10554376555076675,-0.002203997697941221
1592337229.129919,-0.18059213162671192,9.531548452490394,-0.3498828465690781,-1.8,-1.7077777777777778,-2.462222222222222,-0.20073981140550953,-0.127237569540036,-0.008466891585272092
1592337229.139919,-0.1803849586712717,9.427609530831619,-0.3901594939656176,-1.8,-1.7077777777777778,-2.462222222222222,-0.07939448177102285,-0.13244105485468594,-0.015532390690298211
1592337229.149919,0.12691701582139953,9.368847164029766,-0.5880698517916327,-1.8047865813408932,-1.7098719071144186,-2.467307964896921,0.04204060880727211,-0.13526301702956053,-0.012837641013717436
1592337229.159919,-0.18,9.42,-0.23,-1.8177777777777777,-1.7155555555555555,-2.4811111111111113,0.1265363707695889,-0.13526301702956053,0.017453292519943295
1592337229.169919,0.1555825269258105,9.981226832868623,-0.4044792520911924,-1.8177777777777777,-1.7155555555555555,-2.4811111111111113,0.21426448779428514,-0.13505553792550362,0.015813676823525653
1592337229.179919,-0.019887079519790796,10.031896113158208,-0.5780135504576251,-1.8177777777777777,-1.7155555555555555,-2.4811111111111113,0.15035737663709275,-0.12545046707252389,0.015483391900388777
1592337229.189919,0.0054616581836537115,10.138416901526941,-0.6301846632734616,-1.8177777777777777,-1.7155555555555555,-2.4811111111111113,0.062306888750238404,-0.10320583910475643,0.025146671082289636
1592337229.199919,0.2181188239973078,10.073219322666503,-0.6989739039985315,-1.8196612992593044,-1.7196993028149146,-2.478850885333279,-0.02588800046543888,-0.0512471213689417,0.02246299804740132
1592337229.209919,0.0,10.06,-0.58,-1.8233333333333333,-1.7277777777777779,-2.4744444444444444,-0.07635815477475191,-0.006544984694978735,0.01308996938995747
1592337229.219919,-0.0430696308164764,9.813224959387586,-0.7506357789794601,-1.8233333333333333,-1.7277777777777779,-2.4744444444444444,-0.18785794620536198,0.017926842754826373,-0.007201177536344297
1592337229.229919,-0.23073537122483223,9.641535759228187,-0.5014707424496645,-1.8233333333333333,-1.7277777777777779,-2.4744444444444444,-0.2241354408355651,-0.013123800472583661,-0.0007628723247135973
1592337229.239919,-0.19564571338121525,9.559188579569062,-0.3383257157555252,-1.8233333333333333,-1.7277777777777779,-2.4744444444444444,-0.1787503898298222,-0.0494526573708449,0.009525134133762013
1592337229.249919,-0.22197887237440117,9.154063382876796,-0.2570052819063997,-1.823073878447911,-1.7215508605276448,-2.4793740872674666,-0.06960159634121994,-0.07534503948836747,0.028909896569201614
1592337229.259919,-0.13,9.43,-0.28,-1.8222222222222222,-1.701111111111111,-2.4955555555555557,0.05999569303730508,-0.09708393964218458,0.04145156973486533
1592337229.269919,0.15972150871975127,9.465867243477087,-0.7429336217385426,-1.8222222222222222,-1.701111111111111,-2.4955555555555557,0.1859504446902026,-0.09427627068612805,0.048185757605988845
1592337229.279919,0.01242116743325905,9.708623452984968,-0.5513599506851913,-1.8222222222222222,-1.701111111111111,-2.4955555555555557,0.17426881680285525,-0.06900093072382735,0.04186583611719802
1592337229.289919,0.08878240095560422,10.170608799522197,-0.44632470635078636,-1.8222222222222222,-1.701111111111111,-2.4955555555555557,0.14463284734856457,-0.022860712053689117,0.012990354801080082
1592337229.299919,-0.2747056544063035,10.321766073562179,-0.8888264927180547,-1.8264050261389364,-1.7055553402726198,-2.4955555555555557,0.10478545084121355,0.04729038706791987,-0.01713242263917473
1592337229.3099189,-0.29,10.23,-0.69,-1.84,-1.72,-2.4955555555555557,0.002181661564992912,0.06981317007977318,-0.019634954084936207
1592337229.3199189,0.015594207817184229,9.703565246903105,-0.7262899485265004,-1.84,-1.72,-2.4955555555555557,-0.1925932734721672,0.03509314122920036,-0.022075887721202954
1592337229.3299189,-0.051523406695820485,9.489778717709752,-0.28573446125170265,-1.84,-1.72,-2.4955555555555557,-0.236577337488286,-0.0032633949225104857,-0.005155033707231084
1592337229.3399189,-0.0764855308079987,9.233534791090879,-0.1511477808486425,-1.84,-1.72,-2.4955555555555557,-0.18756694318118403,-0.029708380001869927,0.01225619586956939
1592337229.3499188,0.09164298555935743,9.238945369135301,-0.3813588122716465,-1.8383750249698751,-1.72,-2.502984012836127,-0.06524180907770943,-0.034532641946727824,0.009914837627880273
1592337229.3599188,0.0565395326882228,9.631497757847534,0.005776728817559591,-1.8322222222222222,-1.72,-2.531111111111111,0.0524370106498549,-0.015063608469168667,0.017034209596236017
1592337229.3699188,0.01906032650695518,9.90406419049459,-0.21876255795981453,-1.8322222222222222,-1.72,-2.531111111111111,0.0956864444195065,0.008011657893768589,0.013055801897567162
1592337229.3799188,-0.04,9.95,-0.56,-1.8322222222222222,-1.72,-2.531111111111111,0.09926560120717749,0.031634092692397225,0.01090830782496456
1592337229.3899188,0.018385557462212918,9.796625373169412,-0.30835640911121037,-1.8322222222222222,-1.72,-2.531111111111111,0.07145219839638947,0.077991618805625,-0.00018167264742219012
1592337229.3999188,-0.3315769655261962,10.071576965526196,-0.09735603453872621,-1.8319882490423942,-1.7230416513377624,-2.535322628348013,0.03375396435557047,0.09019286067764405,-0.0004017228860424038
1592337229.4099188,-0.3,10.04,0.1,-1.8311111111111111,-1.7344444444444445,-2.551111111111111,-0.03599741582238304,0.0643590161672909,0.002181661564992912
1592337229.4199188,-0.09185143122628604,9.812757143225873,-0.21703714219342848,-1.8311111111111111,-1.7344444444444445,-2.551111111111111,-0.04748479900815097,0.021170220350015492,-0.001090830782496456
1592337229.4299188,-0.3137697851893725,9.819179856792914,-0.19314820048991896,-1.8311111111111111,-1.7344444444444445,-2.551111111111111,-0.054377051215704124,-0.002532296756455347,-0.0007546351731840826
1592337229.4399188,-0.22958026710275278,9.789160534205505,-0.265524666121559,-1.8311111111111111,-1.7344444444444445,-2.551111111111111,-0.058637877778743804,-0.028514120429786755,-0.000800953428194454
1592337229.4499187,-0.2986472978910369,9.910864729789104,-0.21334770430579966,-1.831975840900215,-1.734636606619801,-2.551111111111111,-0.056304793276318606,-0.04685249412459672,-0.004876057930732524
1592337229.4599187,-0.3502619887326524,9.910065497183163,-0.4103274859158155,-1.8411111111111111,-1.7366666666666666,-2.551111111111111,-0.04772980475972321,-0.06474962282041036,-0.019432506124020362
1592337229.4699187,-0.11067202804986642,9.823564113980408,-0.2351527715939448,-1.8411111111111111,-1.7366666666666666,-2.551111111111111,-0.08441386846611494,-0.09630858649555425,-0.008973248811090337
1592337229.4799187,0.22,9.63,-0.34,-1.8411111111111111,-1.7366666666666666,-2.551111111111111,-0.11344640137963141,-0.1112647398146385,-0.00545415391248228
1592337229.4899187,0.024610132015347598,9.768463289328217,-0.2021746764648501,-1.8411111111111111,-1.7366666666666666,-2.551111111111111,-0.0634203497880236,-0.07360401454586185,0.007986538465617383
1592337229.4999187,-0.21750552852720034,9.87048208757187,-0.5180716497125166,-1.8411111111111111,-1.7392289547397906,-2.554954543220797,-0.04665870668112108,-0.054884564638469406,-0.0017768818097896716
1592337229.5099187,0.047162521611916475,9.934325043223833,-0.19337744380901717,-1.8411111111111111,-1.761111111111111,-2.5877777777777777,-0.11290011552892117,-0.06173501611901142,-0.007075674813661012
1592337229.5199187,-0.06833678672036878,9.838457383651898,-0.3428773310362489,-1.8411111111111111,-1.761111111111111,-2.5877777777777777,-0.21784865675671744,-0.07714464089919335,-0.005240523466591185
1592337229.5299187,-0.3195567557279151,9.732389188931979,-0.5353448645047704,-1.8411111111111111,-1.761111111111111,-2.5877777777777777,-0.276563222244611,-0.08574307307124994,0.0013998013153322273
1592337229.5399187,0.003662456946039036,9.654753157290472,-0.3772215843857635,-1.8411111111111111,-1.761111111111111,-2.5877777777777777,-0.2553395655533208,-0.0516259776303891,0.025077836496795673
1592337229.5499187,-0.009360824742268039,9.637783505154639,-0.13311340206185568,-1.8441340206185568,-1.7624662084765177,-2.5905922107674684,-0.1962382086354784,-0.07213202891844091,0.005589102050523079
1592337229.5599186,0.19,9.23,0.03,-1.8733333333333333,-1.7755555555555556,-2.617777777777778,-0.06872233929727672,-0.0839939702522271,-0.014180800172453926
1592337229.5699186,0.14274664393777967,9.426920946089922,0.16653952695503943,-1.8733333333333333,-1.7755555555555556,-2.617777777777778,0.0989820270425396,-0.08811950947202885,-0.031530657853656344
1592337229.5799186,-0.18893079858525688,9.744528341399851,-0.02691827997021593,-1.8733333333333333,-1.7755555555555556,-2.617777777777778,0.24566333639723562,-0.09037429980745215,-0.024567704285252574
1592337229.5899186,-0.15004184015436173,9.934989539961409,-0.2568867675434142,-1.8733333333333333,-1.7755555555555556,-2.617777777777778,0.30297653831857857,-0.08494987345342159,-0.022702773034056482
1592337229.5999186,-0.4243015081799591,9.885545117586911,-0.3225383435582822,-1.8727806180413542,-1.7767991649625086,-2.6171559730743015,0.28827294744153087,-0.09516801471720167,-0.021477473794302503
1592337229.6099186,-0.64,10.12,-0.21,-1.8644444444444443,-1.7955555555555556,-2.6077777777777778,0.22689280275926282,-0.11562806294462433,-0.016362461737446838
1592337229.6199186,-0.3359568791854957,10.088086241629009,-0.6761006152338432,-1.8644444444444443,-1.7955555555555556,-2.6077777777777778,0.0943387187972271,-0.14507265448672402,-0.018668101592768133
1592337229.6299186,-0.28982372625724656,9.950781920158365,-0.5813050855446105,-1.8644444444444443,-1.7955555555555556,-2.6077777777777778,-0.03261140345001966,-0.15216608703763707,0.0050084541409094
1592337229.6399186,0.1534787818272591,9.794896655017475,-0.6816245631552671,-1.8644444444444443,-1.7955555555555556,-2.6077777777777778,-0.08727898836506716,-0.13761688063820068,0.021447160031933313
1592337229.6499186,0.4688721440557635,9.568195430489222,-0.5855637666193365,-1.8645363438176785,-1.7957644177674512,-2.608095248339859,-0.11464385816058477,-0.11652204572996962,0.008702040260327752
1592337229.6599185,0.32,9.33,0.0,-1.8766666666666667,-1.8233333333333333,-2.65,-0.1287180323345818,-0.09053895494720585,0.00545415391248228
1592337229.6699185,0.20168875990273746,9.837792506601824,-0.1900507229325176,-1.8766666666666667,-1.8233333333333333,-2.65,-0.0350852671548849,-0.06895760645874857,-0.0033801294268195536
1592337229.6799185,-0.019538733446181414,9.762493776759932,-0.47711963556706166,-1.8766666666666667,-1.8233333333333333,-2.65,0.02172412910096011,-0.034272756200768986,-0.01245342515010678
1592337229.6899185,-0.36,9.81,-0.2,-1.8766666666666667,-1.8233333333333333,-2.65,0.03381575425739013,-0.015271630954950384,-0.014180800172453926
1592337229.6999185,-0.056988372487202954,10.005491372588901,-0.346618529441676,-1.8766666666666667,-1.8233333333333333,-2.65,0.04127943450002615,-0.009940430781638946,0.002879040382142671
1592337229.7099185,-0.31,9.71,-0.28,-1.88,-1.87,-2.678888888888889,0.019634954084936207,0.002181661564992912,0.016362461737446838
1592337229.7199185,0.044675080972700634,9.97683281065241,-0.5460441622538688,-1.88,-1.87,-2.678888888888889,0.01841886647488817,0.003978607733968874,0.009895934307632493
1592337229.7299185,0.17226698322738762,10.089723519950985,-0.434332541931531,-1.88,-1.87,-2.678888888888889,-0.013191642137318901,0.026493144309790048,0.012617362379420407
1592337229.7399185,0.2058584707646177,9.5327916041979,-0.38711664167916043,-1.88,-1.87,-2.678888888888889,-0.007026781919151833,0.059888474347499276,0.018396869323945027
1592337229.7499185,0.2980869565217391,9.490869565217391,-0.3703478260869565,-1.88,-1.87,-2.678888888888889,-0.016172752036143104,0.09098477274526962,0.02388445139413979
1592337229.7599185,0.16,9.53,0.15,-1.9122222222222223,-1.9088888888888889,-2.6944444444444446,0.007635815477475192,0.11453723216212788,0.011999138607461015
1592337229.7699184,-0.31334285941097084,9.700916884972612,-0.4772636341986187,-1.9122222222222223,-1.9088888888888889,-2.6944444444444446,0.04846122045976198,0.11648811941297034,-0.0034709669171076795
1592337229.7799184,-0.4951921272346671,9.8560455715695,-0.2908534443348332,-1.9122222222222223,-1.9088888888888889,-2.6944444444444446,0.0989195411059476,0.13014712800783676,-0.008067176703392019
1592337229.7899184,-0.3572565411358064,9.755308870222258,-0.3321675173827418,-1.9122222222222223,-1.9088888888888889,-2.6944444444444446,0.1506842804534897,0.1288482428335173,-0.014866137047659288
1592337229.7999184,-0.3403990997146417,9.603591897431775,-0.222594148145171,-1.9122222222222223,-1.9088888888888889,-2.6944444444444446,0.15160371125430655,0.10954019601636314,-0.005671829039490636
1592337229.8099184,-0.16,9.82,-0.35,-1.8944444444444444,-1.9233333333333333,-2.6944444444444446,0.10144726277217041,0.05999569303730508,-0.001090830782496456
1592337229.8199184,-0.3272550111358575,9.672422048997772,-0.42870824053452117,-1.8944444444444444,-1.9233333333333333,-2.6944444444444446,0.0746168341436732,0.026725961537968565,-0.005383699363056005
1592337229.8299184,-0.11791121229368241,9.67615356754799,-0.016815853469239927,-1.8944444444444444,-1.9233333333333333,-2.6944444444444446,0.09083865544159485,0.023135297825240715,0.01842424310468415
1592337229.8399184,0.048025410585755754,9.668118662265876,-0.5434491191792262,-1.8944444444444444,-1.9233333333333333,-2.6944444444444446,0.09446686971916454,0.04874996813508881,0.01694947679149437
1592337229.8499184,-0.2772175607428321,10.11845508410546,0.2821676541933431,-1.8944444444444444,-1.9233333333333333,-2.6944444444444446,0.08264070155530334,0.07149259921943728,0.02149800300836406
1592337229.8599184,-0.03,9.79,-0.2,-1.9122222222222223,-1.9766666666666666,-2.7088888888888887,0.08072147790473774,0.11562806294462433,0.017453292519943295
1592337229.8699183,-0.2068519079345851,9.882333434282252,-0.048321219462951745,-1.9122222222222223,-1.9766666666666666,-2.7088888888888887,0.028683420752927832,0.16223481570821685,-0.015620430319331318
1592337229.8799183,-0.3470434637324868,10.09368093180896,-0.590724395541447,-1.9122222222222223,-1.9766666666666666,-2.7088888888888887,-0.08498997788008594,0.154913774973603,-0.02322995450944263
1592337229.8899183,-0.3297785745171519,9.69407033727299,-0.1535395647160565,-1.9122222222222223,-1.9766666666666666,-2.7088888888888887,-0.14522044445402194,0.1436035566746409,-0.025933782547016986
1592337229.8999183,-0.4280163591813203,9.935886422600174,-0.2895611127125973,-1.9122222222222223,-1.9766666666666666,-2.7088888888888887,-0.15758515209047577,0.1287659075108963,-0.023460841019726224
1592337229.9099183,-0.11,9.74,0.14,-1.9111111111111112,-2.0211111111111113,-2.7744444444444443,-0.21380283336930533,0.06654067773228381,-0.008726646259971648
1592337229.9199183,-0.07335980595438363,9.868240679159658,0.011759320840342702,-1.9111111111111112,-2.0211111111111113,-2.7744444444444443,-0.20580918306098503,0.019577982170901828,-0.017719502856832027
1592337229.9299183,-0.388242742433601,9.5617572575664,-0.23664013873711215,-1.9111111111111112,-2.0211111111111113,-2.7744444444444443,-0.18295235905558233,0.0028834948448511226,-0.01923470983550261
1592337229.9399183,-0.25767339005573076,9.682900378810416,0.2717213065984411,-1.9111111111111112,-2.0211111111111113,-2.7744444444444443,-0.20441384831386894,-0.011129087423452814,-0.026496321028645197
1592337229.9499183,-0.11625790841117789,9.716174609785606,-0.052702445409650744,-1.9111111111111112,-2.0211111111111113,-2.7744444444444443,-0.23435850652846626,-0.0011475346852537049,-0.03012597656980851
1592337229.9599183,-0.06328402581393663,9.669768689725183,-0.09557827568704227,-1.8911111111111112,-2.097777777777778,-2.7977777777777777,-0.28111747812404786,0.046138796284061,-0.020934680821067145
1592337229.9699183,0.04508827948910594,9.777113072877537,0.2901765589782119,-1.8911111111111112,-2.097777777777778,-2.7977777777777777,-0.30757576147032867,0.1039846122106445,0.02784507434891357
1592337229.9799182,0.13419908825586724,9.258920861574087,0.3952106900793555,-1.8911111111111112,-2.097777777777778,-2.7977777777777777,-0.27210614555826057,0.13667576379227464,0.049280534800471114
1592337229.9899182,0.4670671508466677,9.684142263476776,0.04325695199627155,-1.8911111111111112,-2.097777777777778,-2.7977777777777777,-0.15140299555066902,0.14286347837125846,0.05037309798953495
1592337229.9999182,-0.29040896380301373,9.171013282585054,0.6622696908497747,-1.8911111111111112,-2.097777777777778,-2.7977777777777777,-0.054559629257808884,0.15796748962794305,0.021942017976952173
1592337230.0099182,-0.7217932989451182,9.684977461777963,0.3806278172777545,-1.8877777777777778,-2.1777777777777776,-2.81,0.11467911772187542,0.1137888225858103,-0.026042970297443385
1592337230.0199182,-0.45,9.625435226317684,0.39154352263176856,-1.8877777777777778,-2.1777777777777776,-2.81,0.13249205276449305,0.11810078734201249,-0.024292928564959314
1592337230.0299182,-0.4554578011221201,9.99499104691417,0.4322740838008834,-1.8877777777777778,-2.1777777777777776,-2.81,0.11880198075440929,0.09827399604916023,-0.03188215675359524
1592337230.0399182,-0.545946851486665,9.67624169554479,0.4845099653462503,-1.8877777777777778,-2.1777777777777776,-2.81,0.1394213564500596,0.10052041895726334,-0.035776350864164266
1592337230.0499182,-0.03200838582451038,9.59593881028508,0.5808734276579043,-1.8877777777777778,-2.1777777777777776,-2.81,0.13504151349183088,0.10402429332384631,-0.007745355931500466
1592337230.0599182,0.29774393263992077,9.841074789499752,0.6071173848439821,-1.8877777777777778,-2.258888888888889,-2.8,0.115609423191283,0.09619031204721225,0.02092298805495679
1592337230.0699182,-0.49676784443917477,9.542696229547072,0.8431159592127104,-1.8877777777777778,-2.258888888888889,-2.8,0.14998625783537822,0.09737805266084677,0.02230990810954988
1592337230.0799181,0.34502154373610083,9.369162110822831,-0.10810044477390661,-1.8877777777777778,-2.258888888888889,-2.8,0.1920816856283892,0.07592683086290906,0.006710878507225984
1592337230.0899181,-0.7669852566324762,9.979820550990029,0.588151675197292,-1.8877777777777778,-2.258888888888889,-2.8,0.16020727113404448,0.062198886937734205,0.011971733816905831
1592337230.0999181,0.6699168009135588,9.894290666612289,-0.2928061338934318,-1.8877777777777778,-2.258888888888889,-2.8,0.09116628441411923,0.07246173631502038,-0.0010900744814584078
1592337230.109918,-0.88,10.07,1.04,-1.8622222222222222,-2.3377777777777777,-2.758888888888889,0.0032724923474893677,0.05563236990731925,-0.0272707695624114
1592337230.119918,-0.12255853382851611,9.973305344744066,0.29867430970450504,-1.8622222222222222,-2.3377777777777777,-2.758888888888889,-0.038918510234932896,0.04156870237984516,-0.0272707695624114
1592337230.129918,-0.7084478727121242,9.87016125997796,0.7287703926680463,-1.8622222222222222,-2.3377777777777777,-2.758888888888889,-0.08392360731304921,0.03164728574349308,-0.012029922393351338
1592337230.139918,-0.028593263515426015,9.65273988112086,-0.010659496178884731,-1.8622222222222222,-2.3377777777777777,-2.758888888888889,-0.15186044118576758,0.033788583833144537,0.009545772800012148
1592337230.149918,0.17832395546510235,9.261615587214175,0.8641943014485813,-1.8622222222222222,-2.3377777777777777,-2.758888888888889,-0.1473078626613091,0.04102701677498313,0.021535778633556723
1592337230.159918,0.33,9.78,1.02,-1.8555555555555556,-2.391111111111111,-2.7288888888888887,-0.009817477042468103,0.056723200689815706,0.032724923474893676
1592337230.169918,0.03818431201049577,9.617880173339165,0.5417465113505346,-1.8555555555555556,-2.391111111111111,-2.7288888888888887,0.10424773976416772,0.07971308934851751,0.02299843211928907
1592337230.179918,-0.5018271950929328,9.75693519815985,0.42017026676889724,-1.8555555555555556,-2.391111111111111,-2.7288888888888887,0.19952417768975228,0.12154155804825542,-0.00608065411310546
1592337230.189918,-0.5489677541103485,9.99380652466209,-0.05735498785176796,-1.8555555555555556,-2.391111111111111,-2.7288888888888887,0.20496358655018,0.1030447960708587,-0.028861278191847178
1592337230.199918,-0.8844036643601988,9.85668414384563,0.24051768833447035,-1.8555555555555556,-2.391111111111111,-2.7288888888888887,0.11909284597717165,0.06866586826017877,-0.033795024113877144
1592337230.209918,-0.286533597583994,9.483219453881969,-0.026685856297974042,-1.8555555555555556,-2.4483417921507766,-2.6452440473693777,-0.02717375878406368,-0.02104193637111769,-0.026262571236321492
1592337230.219918,-0.35324700804394743,9.58654110260938,0.7557406317441632,-1.8555555555555556,-2.448888888888889,-2.6444444444444444,-0.03271978713218622,-0.06321939012907359,-0.023274480921729367
1592337230.229918,0.6299600775635908,9.716258697387932,0.2062986198243414,-1.8555555555555556,-2.448888888888889,-2.6444444444444444,0.05659728295833557,-0.09855140379739882,0.0020991680314243998
1592337230.239918,0.21386040693008546,9.406069253646793,0.3883132700750602,-1.8555555555555556,-2.448888888888889,-2.6444444444444444,0.12646244887050595,-0.10756730597552093,-0.0029537862287681966
1592337230.249918,-0.24130783096334868,9.957089925896256,0.47188463849389145,-1.8555555555555556,-2.448888888888889,-2.6444444444444444,0.12109619906621531,-0.10799224746714915,-0.017212754828870074
1592337230.259918,0.43,10.52,-0.61,-1.8411111111111111,-2.488888888888889,-2.5933333333333333,0.09599310885968812,-0.07308566242726255,-0.02945243112740431
1592337230.269918,-0.37801992675146695,10.204487457173236,0.3904056235970542,-1.8411111111111111,-2.488888888888889,-2.5933333333333333,0.04142944639957663,-0.067209575700789,-0.020218580557231598
1592337230.279918,0.710699244410978,9.63207280658479,-0.6594414872900061,-1.8411111111111111,-2.488888888888889,-2.5933333333333333,-0.12108989258068192,-0.02353838524557675,-0.010297677107029288
1592337230.289918,0.43363861091963585,9.515455064058377,0.05787383233105947,-1.8411111111111111,-2.488888888888889,-2.5933333333333333,-0.20262964172237358,-0.01662693070612987,0.003503798981765968
1592337230.299918,-0.6229568146519555,9.748374649535068,0.6026409423724711,-1.8411111111111111,-2.488888888888889,-2.5933333333333333,-0.19685679245514043,-0.019829480477175577,0.008697096554646743
1592337230.309918,0.3785933662751132,9.0676379560316,0.4105024114566382,-1.8515522087759269,-2.525432730715744,-2.53799551570981,-0.0803870666333987,-0.03712662272703201,-0.0035082037184563652
1592337230.319918,0.8322915451895043,9.32714052478134,0.15731778425655976,-1.8522222222222222,-2.5277777777777777,-2.5344444444444445,0.04163958698227403,-0.011782117346243643,-0.0013175200483167104
1592337230.329918,-0.1332004058613937,9.44196300054272,0.7377595035276906,-1.8522222222222222,-2.5277777777777777,-2.5344444444444445,0.14447532352701167,0.0423468803157562,-8.767006406906557e-05
1592337230.339918,-0.22,10.035285527361092,0.591903359970092,-1.8522222222222222,-2.5277777777777777,-2.5344444444444445,0.1880764771073891,0.07440807619236947,-0.010804495642687161
1592337230.349918,-0.4214202565726956,10.003019876464998,0.41333980044345897,-1.8522222222222222,-2.5277777777777777,-2.5344444444444445,0.14641561290115954,0.08477283276017605,-0.028274354613966973
1592337230.3599179,0.36640464128125505,9.751141036117012,-0.37270174865174055,-1.8575086706251929,-2.5161475912912423,-2.4826372500953315,0.04370838970121475,0.04782277736712506,-0.05561358030698012
1592337230.3699179,-0.8200771208226221,9.84250642673522,0.25970865467009424,-1.8577777777777778,-2.5155555555555558,-2.48,-0.030056734555753875,0.02345145972755234,-0.04106879749370654
1592337230.3799179,-0.3773920353052431,9.268223179573395,0.22358148576232006,-1.8577777777777778,-2.5155555555555558,-2.48,-0.09318321954237167,-0.012102295873852397,-0.01346815539046678
1592337230.3899179,0.008113354587318433,9.45701381509033,0.22450230251505493,-1.8577777777777778,-2.5155555555555558,-2.48,-0.015529210763527118,-0.047310988728708675,-0.005082970047917599
1592337230.3999178,-0.3029595491105501,9.526485058416016,0.4343163271296895,-1.8577777777777778,-2.5155555555555558,-2.48,0.08528762268024498,-0.048085124791623704,0.009964325805707955
1592337230.4099178,1.028160027645137,9.601861334506157,-0.42675735109323953,-1.8509042961659825,-2.5263567409455194,-2.433849480606517,0.20373286697004428,-0.03340967406222228,0.014307627413155716
1592337230.4199178,0.7948703590992088,9.842809089064719,-0.23115276932440665,-1.85,-2.5277777777777777,-2.4277777777777776,0.2099249730927349,-0.004582330259699455,0.020253644800202406
1592337230.4299178,-0.3635485445254636,10.497326749727279,0.11418613997818222,-1.85,-2.5277777777777777,-2.4277777777777776,0.10625425847855888,0.05537878009056964,0.01685711532418147
1592337230.4399178,-0.029554240266346066,10.126607786923149,0.239374826597614,-1.85,-2.5277777777777777,-2.4277777777777776,-0.06588303176251643,0.08247943751037755,0.010620997543955598
1592337230.4499178,0.6739016571912424,9.526496310632636,-0.07705032055159061,-1.85,-2.5277777777777777,-2.4277777777777776,-0.16860038650384424,0.09478055418740662,0.018422399412654705
1592337230.4599178,-0.2700355293878792,9.707233783372248,0.7344726423713328,-1.8615435545178718,-2.508888324930351,-2.374257661376735,-0.2366508161807584,0.09714451059315661,0.009453497671636122
1592337230.4699178,-0.23463102824325388,9.680414601526238,0.5606675320588467,-1.8622222222222222,-2.5077777777777777,-2.371111111111111,-0.211171185870238,0.07950492396148624,0.014135574161724982
1592337230.4799178,0.4363702102473044,9.533709822692298,0.22064541032965337,-1.8622222222222222,-2.5077777777777777,-2.371111111111111,-0.16607902172447211,0.0777832610907919,0.014735015981888743
1592337230.4899178,0.25905392307510466,10.036655634618567,0.08804425427294864,-1.8622222222222222,-2.5077777777777777,-2.371111111111111,-0.12296453883856204,0.07233550835376969,0.0032380920197465184
1592337230.4999177,-0.15030597305361482,10.120538557052576,0.18028151003539725,-1.8622222222222222,-2.5077777777777777,-2.371111111111111,-0.14747177450289575,0.07161163889689788,0.00038319274786820224
1592337230.5099177,-0.02838281144096516,9.681526365731328,0.481503321133252,-1.8622222222222222,-2.5095089843808833,-2.3486054252707365,-0.25054565761985226,0.07454424380703008,0.0033992162163519763
1592337230.5199177,-0.2819287076831146,9.022683459355106,0.9326345062168188,-1.8622222222222222,-2.51,-2.3422222222222224,-0.2597922902464413,0.07970763779892182,0.015020076265985078
1592337230.5299177,0.0449059943548773,9.49926087164522,0.5260146868870497,-1.8622222222222222,-2.51,-2.3422222222222224,-0.12737352847005334,0.08160484575005701,0.00950298191206984
1592337230.5399177,-0.23290199099036019,9.497186471535608,0.6559566323553438,-1.8622222222222222,-2.51,-2.3422222222222224,0.06475977420282746,0.0549826021139969,-0.0018844029839961071
1592337230.5499177,0.2164134834175711,9.493317895330339,0.12694146311995325,-1.8622222222222222,-2.51,-2.3422222222222224,0.18758550923686412,0.03491264752948545,-0.0050902068466724135
1592337230.5599177,-0.003921069982104175,9.645429970801544,0.12475934821512666,-1.8551409165593964,-2.498492878297908,-2.336911242975103,0.25144682111598793,0.024016565608939586,-0.007192167806869588
1592337230.5699177,-0.6199521090440229,9.98213713391048,0.2653269478725364,-1.8533333333333333,-2.4955555555555557,-2.3355555555555556,0.2592175808108112,-0.0020337795506408414,-0.008526573548298992
1592337230.5799177,-0.3060474150108296,10.105993737640079,0.2080080516056126,-1.8533333333333333,-2.4955555555555557,-2.3355555555555556,0.2142442402694266,-0.00850838251525846,-0.0026186769954887725
1592337230.5899177,-0.6035880933226067,10.001297619610998,0.3799238086224031,-1.8533333333333333,-2.4955555555555557,-2.3355555555555556,0.16318603432926987,-0.007000190120185955,0.0014988534271820834
1592337230.5999177,0.10005199128683573,9.820242489005794,0.13048497801159015,-1.8533333333333333,-2.4955555555555557,-2.3355555555555556,0.10519337052331323,0.0038506582170004565,0.012577304476972103
1592337230.6099176,0.21651487663280117,9.78992198838897,0.33332910014513784,-1.8568819545234638,-2.4831353813900985,-2.3000693436542496,0.05590329649317514,0.03050071317654867,0.019195217873269457
1592337230.6199176,0.17253110726098597,9.989261300992283,0.2532698062687037,-1.8577777777777778,-2.48,-2.2911111111111113,0.041222545095856385,0.03698052083694356,0.019143401577655948
1592337230.6299176,0.05129758015246899,10.190259516030494,0.23587802480941378,-1.8577777777777778,-2.48,-2.2911111111111113,-0.017839706293029403,0.05683313274253682,0.02016621507245374
1592337230.6399176,0.2908256097850049,10.401945860099083,-0.08266527603290114,-1.8577777777777778,-2.48,-2.2911111111111113,-0.14594111966201162,0.08497418463423242,0.027404553867259734
1592337230.6499176,0.09360539519388977,10.229168173231226,0.07988563651506225,-1.8577777777777778,-2.48,-2.2911111111111113,-0.3234107751901182,0.093049822324536,0.024482303045486386
1592337230.6599176,-0.2847077941090356,8.896726005738712,0.9186206593663993,-1.8497237349781708,-2.460670297280943,-2.270170599832133,-0.5426615816877545,0.08985792828048535,0.005211835790247678
1592337230.6699176,-0.49319280813815947,8.77878022237994,1.1107040454222854,-1.8466666666666667,-2.453333333333333,-2.2622222222222224,-0.5471308884589503,0.10347532545338242,-0.01704875352428646
1592337230.6799176,-0.20156204068085914,9.025123749466598,0.6851811199089659,-1.8466666666666667,-2.453333333333333,-2.2622222222222224,-0.23821055356415405,0.10132675470127682,-0.005986070330982342
1592337230.6899176,-0.13799002138275124,9.73102637205987,0.45362794012829655,-1.8466666666666667,-2.453333333333333,-2.2622222222222224,0.06905821876843743,0.11832831619309916,0.013827815728224852
1592337230.6999176,0.06098393251656958,10.342787507531632,-0.09147620004016871,-1.8466666666666667,-2.453333333333333,-2.2622222222222224,0.24554438790119132,0.12086762180760766,0.0032009387556911455
1592337230.7099175,-0.19313506588579799,10.35050878477306,0.20530990727183995,-1.8547959709343311,-2.443578168212136,-2.2784808307575513,0.24187795088608685,0.11650627755154268,-0.0030598761719112704
1592337230.7199175,-0.27399493410377174,10.207406102821862,0.46941623461431903,-1.8577777777777778,-2.44,-2.2844444444444445,0.14341823667627684,0.10844076296164218,-0.005415946557334879
1592337230.7299175,-0.32951067917278787,9.663286247033563,0.5629370550344672,-1.8577777777777778,-2.44,-2.2844444444444445,-0.11504843967201744,0.07609114839268757,-0.01739227305589812
1592337230.7399175,-0.16143680877209568,9.385628603837791,0.604730598355232,-1.8577777777777778,-2.44,-2.2844444444444445,-0.14950259152340808,0.04432558249459048,-0.012315927044130336
1592337230.7499175,-0.08,9.464512060732215,0.6581706869107383,-1.8577777777777778,-2.44,-2.2844444444444445,-0.07469316972218183,0.04571289321901223,0.002673851038912274
1592337230.7599175,-0.038716617210682494,9.68825296735905,0.28780786350148374,-1.860071299043851,-2.4277678865809427,-2.268389795581932,0.044992319058910775,0.0475162813813191,0.008316370884062372
1592337230.7699175,-0.19229026257941395,9.84239969079885,0.44708964417711433,-1.8611111111111112,-2.422222222222222,-2.261111111111111,0.07908722119216363,0.04336350779599,0.014989970684058662
1592337230.7799175,-0.19184483375044692,9.94430937909665,0.4146120843761173,-1.8611111111111112,-2.422222222222222,-2.261111111111111,0.07325336254756054,0.036198655966740635,0.013928989991820434
1592337230.7899175,-0.07,9.925076860732135,0.14363906524382009,-1.8611111111111112,-2.422222222222222,-2.261111111111111,0.015942249495717348,-0.0013109419567357075,0.005811094137731424
1592337230.7999175,-0.12507826443737818,9.61356713509078,0.5088290081033953,-1.8611111111111112,-2.422222222222222,-2.261111111111111,-0.04860173110131913,-0.026441317455462354,-0.001889087523545407
1592337230.8099174,-0.09603055555555555,9.559557222222223,0.5572825,-1.8404987345679011,-2.4179575925925927,-2.241920277777778,-0.05154217868492852,-0.05025814965050991,-0.01073177504333055
1592337230.8199174,0.01790565457897972,9.743552550706822,0.33757682851874615,-1.8288888888888888,-2.4155555555555557,-2.2311111111111113,0.009774986937464591,-0.06254694308960664,-0.00701983466529411
1592337230.8299174,-0.004218912881608347,9.861229188384215,0.189468652271035,-1.8288888888888888,-2.4155555555555557,-2.2311111111111113,0.05657095547621099,-0.05932527477381098,-0.001569204347395274
1592337230.8399174,-0.07,9.83950457112127,0.19879268620596935,-1.8288888888888888,-2.4155555555555557,-2.2311111111111113,0.04197835975512981,-0.05188031092111472,-0.007743901291766653
1592337230.8499174,-0.111131648434553,9.809717087891363,0.32768766503206337,-1.8288888888888888,-2.4155555555555557,-2.2311111111111113,0.007610303780562787,-0.05073906184792738,-0.008634063488918573
1592337230.8599174,-0.16602831021617157,9.78397168978383,0.44137108028822875,-1.8449171991050604,-2.407244579887911,-2.223393776562584,-0.02598647794762291,-0.05709710483573422,-0.0048713481066422004
1592337230.8699174,-0.21511549192699994,9.793410327951333,0.4307370900608334,-1.8588888888888888,-2.4,-2.216666666666667,-0.042648000999964984,-0.07749937841688892,-0.0011712348352793792
1592337230.8799174,-0.1523136985292312,9.885994794608,0.3340052053920004,-1.8588888888888888,-2.4,-2.216666666666667,-0.05155394787570588,-0.10366144007782555,-0.00018451477547126206
1592337230.8899174,-0.13753122180540386,9.898410180920271,0.23246877819459616,-1.8588888888888888,-2.4,-2.216666666666667,-0.06924260637450709,-0.13138800112150328,-0.004979469773121554
1592337230.8999174,-0.15539210691330932,9.845653511522181,0.21947719078225428,-1.8588888888888888,-2.4,-2.216666666666667,-0.10722234734322773,-0.14714809635940357,-0.007635815477475192
1592337230.9099174,-0.0668677494199536,9.725972820682799,0.3705933046072257,-1.8507630832688837,-2.3953566825028543,-2.224212057599529,-0.15339966061974522,-0.1482065540473234,-0.002507428397949262
1592337230.9199173,0.006461628725651256,9.614153485097395,0.5223081436282563,-1.8433333333333333,-2.391111111111111,-2.2311111111111113,-0.1679879405044542,-0.14508049407202864,0.002181661564992912
1592337230.9299173,0.04644247507517013,9.618221237537586,0.5035575249248299,-1.8433333333333333,-2.391111111111111,-2.2311111111111113,-0.14479893923641354,-0.13249217909794941,0.002844204458365502
1592337230.9399173,0.05246158237784862,9.635846139207384,0.38061563347447547,-1.8433333333333333,-2.391111111111111,-2.2311111111111113,-0.07241452566151517,-0.08099009868261497,0.0026347774868720002
1592337230.9499173,0.02088243332942876,9.687793916676428,0.22397094998242945,-1.8433333333333333,-2.391111111111111,-2.2311111111111113,-0.01807897305545042,-0.033494991826287054,0.0027030123202600965
1592337230.9599173,-0.021625235605818128,9.756218926704364,0.11378107329563641,-1.8391284264099799,-2.383902699242505,-2.234715317045414,-0.0026827555305502476,-0.002297420982289739,0.0026827555305502476
1592337230.9699173,-0.05063799283154122,9.767340501792114,0.10797849462365591,-1.8355555555555556,-2.3777777777777778,-2.2377777777777776,-0.002181661564992912,0.011337602520011552,0.0024717678161084566
1592337230.9799173,-0.04903105982770885,9.753806211965541,0.049480755552042996,-1.8355555555555556,-2.3777777777777778,-2.2377777777777776,-0.0035329364946419636,0.02192231062656238,0.0032724923474893677
1592337230.9899173,-0.03656581335371096,9.782829066768555,-0.03939488012226573,-1.8355555555555556,-2.3777777777777778,-2.2377777777777776,-0.006511980525492084,0.02757937287409913,0.0025562732156539474
1592337230.9999173,-0.06840389133929675,9.80568077826786,-0.05431922173214065,-1.8355555555555556,-2.3777777777777778,-2.2377777777777776,-0.014452260060904857,0.03317049180927503,0.0028013383453046993
1592337231.0099173,-0.10700499662390277,9.775990006752195,0.023688318703578654,-1.8387046290044264,-2.385335554055068,-2.2339988896391327,-0.024581507091229925,0.04032564970289005,0.005127449724849512
1592337231.0199172,-0.10264282842721222,9.761571447715191,0.04528565685442445,-1.8411111111111111,-2.391111111111111,-2.2311111111111113,-0.02899272491319683,0.04426435586814721,0.005913860126689758
1592337231.0299172,-0.10640370624896324,9.737192587502074,0.02,-1.8411111111111111,-2.391111111111111,-2.2311111111111113,-0.032434709081304074,0.03637368381143535,0.006647065094042185
1592337231.0399172,-0.10321588819418903,9.71559470393527,0.05356822361162192,-1.8411111111111111,-2.391111111111111,-2.2311111111111113,-0.03002428482264905,0.022128980801548,0.006415240423165807
1592337231.0499172,-0.08069688033524755,9.729303119664753,0.11721247865900977,-1.8411111111111111,-2.391111111111111,-2.2311111111111113,-0.018568841802244884,0.010273584155310793,0.003931934516948269
1592337231.0599172,-0.057189579372623575,9.718649298954373,0.16427014020912548,-1.8358920508555132,-2.390162191064639,-2.221621910646388,-0.0070226768110541495,0.0023408922703513834,0.002181661564992912
1592337231.0699172,-0.045535086004691167,9.73981577404222,0.10911405394839718,-1.8288888888888888,-2.388888888888889,-2.2088888888888887,-0.0008573554684163896,0.0016946150022647006,-0.00023347531408006612
1592337231.0799172,-0.05,9.807953090677184,-0.05181236270874176,-1.8288888888888888,-2.388888888888889,-2.2088888888888887,-0.004397745737289489,0.0027915034005246836,-0.0009619778939293686
1592337231.0899172,-0.08346914319952067,9.813265428400241,-0.05632714200119833,-1.8288888888888888,-2.388888888888889,-2.2088888888888887,-0.017245452981996097,0.0020555199586287324,0.0006084861944303179
