time,acc_x,acc_y,acc_z,mag_x,mag_y,mag_z,gyr_x,gyr_y,gyr_z
1592337275.9498744,-0.039563412102338644,9.770436587897661,-0.6504365878976613,-1.7933333333333332,-1.6933333333333334,-2.1777777777777776,-0.015128757899540058,0.011951514255657573,0.004363323129985824
1592337275.9598744,-0.02,9.72,-0.6,-1.7933333333333332,-1.7133333333333334,-2.1777777777777776,-0.02399827721492203,0.014180800172453926,0.007635815477475192
1592337275.9698744,-0.038439162451846226,9.700780418774077,-0.5427314657092691,-1.7933333333333332,-1.7133333333333334,-2.1777777777777776,-0.025174238479618607,0.013132534631057532,0.008641515777771527
1592337275.9798744,-0.006449206232724249,9.722579682493091,-0.61,-1.7933333333333332,-1.7133333333333334,-2.1777777777777776,-0.02487887205076137,0.014602899733333343,0.005841485426846374
1592337275.9898744,-0.0449434278530521,9.737471713926526,-0.6024151417795781,-1.7933333333333332,-1.7133333333333334,-2.1777777777777776,-0.007623473349610656,0.018832258657894535,0.0006771409411110839
1592337275.9998744,-0.01146468980104963,9.720732344900526,-0.5521970347015744,-1.7933333333333332,-1.7133333333333334,-2.1777777777777776,-0.0003195457443587093,0.02796216816445947,-0.0020618319108583966
1592337276.0098743,-0.02,9.74,-0.58,-1.8,-1.6866666666666668,-2.1844444444444444,-0.01090830782496456,0.0370882466048795,0.002181661564992912
1592337276.0198743,-0.03,9.740264612426905,-0.5923815118421404,-1.8,-1.6866666666666668,-2.1844444444444444,-0.014325123862803182,0.03938536712215182,2.8864738069850947e-05
1592337276.0298743,-0.03773906702110141,9.756449222517585,-0.6838695335105508,-1.8,-1.6866666666666668,-2.1844444444444444,-0.020479155338378265,0.043070430464230196,0.0006687301557754274
1592337276.0398743,-0.09365107947056749,9.8,-0.71,-1.8,-1.6866666666666668,-2.1844444444444444,-0.02697648075508212,0.038871637182288823,-0.0022812293118888087
1592337276.0498743,-0.12479552247118009,9.8,-0.71,-1.8,-1.6866666666666668,-2.1844444444444444,-0.03377114418083702,0.035474305469411375,-0.0031305622401081716
1592337276.0598743,-0.11,9.8,-0.69,-1.7933333333333332,-1.701111111111111,-2.1844444444444444,-0.05235987755982988,0.017453292519943295,-0.008726646259971648
1592337276.0698743,0.102617545530294,9.764563742411617,-0.6333019878585883,-1.7933333333333332,-1.701111111111111,-2.1844444444444444,-0.0670487625855047,0.007403002765534215,-0.01027284468372689
1592337276.0798743,0.17528765443742336,9.774502263510326,-0.6115707818541922,-1.7933333333333332,-1.701111111111111,-2.1844444444444444,-0.07492463255242753,0.0366887914298594,-0.006630657554935721
1592337276.0898743,0.11724144578313253,9.708344867469881,-0.6316551325301205,-1.7933333333333332,-1.701111111111111,-2.1844444444444444,-0.07072345391097297,0.09972441251981923,-0.007575633160376303
1592337276.0998743,0.07681445783132532,9.684088674698796,-0.6559113253012049,-1.7933333333333332,-1.701111111111111,-2.1844444444444444,-0.0680775137368863,0.15440717611761062,-0.006693653102347409
1592337276.1098742,-0.021540371047818134,9.566919257904363,-0.6953912986673634,-1.8,-1.701111111111111,-2.17,-0.0666219841029938,0.2267288360993122,-0.001342873405810407
1592337276.1198742,-0.03980663705252156,9.530386725894957,-0.7593232296838255,-1.8,-1.701111111111111,-2.17,-0.041715227553994996,0.26359083579183046,-0.004331684191690264
1592337276.1298742,0.06731456351922216,9.476811176928704,-0.921160880749534,-1.8,-1.701111111111111,-2.17,0.024544477783969003,0.27375123553394515,-0.011999138607461015
1592337276.1398742,-0.2969641421450394,9.45066570188133,-1.0606657018813315,-1.8,-1.701111111111111,-2.17,0.09872378157586514,0.2859269369688391,-0.01206377458484483
1592337276.1498742,-0.1114950152757678,9.602413169319826,-1.2124131693198263,-1.8,-1.701111111111111,-2.17,0.168614567449376,0.28776616817603673,-0.012983390188443657
1592337276.1598742,0.07352839434995675,9.463040021139618,-1.2530400211396175,-1.7877777777777777,-1.7077777777777778,-2.1911111111111112,0.24820695179406824,0.25206733663231645,-0.0042884575696516165
1592337276.1698742,-0.10760949076244959,9.658592328612961,-1.4433864766013316,-1.7877777777777777,-1.7077777777777778,-2.1911111111111112,0.28806914646343385,0.22094320727502492,-0.002217875960285395
1592337276.1798742,0.40399956691208316,9.910741302151004,-1.610592608632886,-1.7877777777777777,-1.7077777777777778,-2.1911111111111112,0.31595306548073726,0.18497250806061802,0.010779020677219562
1592337276.1898742,0.10523087686567163,10.24055270522388,-1.6305013992537314,-1.7877777777777777,-1.7077777777777778,-2.1911111111111112,0.3057564594875613,0.14205476148643795,0.0070987950059616615
1592337276.1998742,-0.555019239738806,10.248703941231343,-1.7853748833955225,-1.7877777777777777,-1.7077777777777778,-2.1911111111111112,0.24618261116692475,0.12960649467317062,-0.01690857670533963
1592337276.2098742,-1.3,9.77,-2.08,-1.7877777777777777,-1.7077777777777778,-2.1844444444444444,0.09053895494720585,0.074176493209759,-0.03599741582238304
1592337276.2198741,-0.0473253624783002,10.738466955182279,-2.0526746375217,-1.7877777777777777,-1.7077777777777778,-2.1844444444444444,-0.058456997258117246,-0.0394092658763822,-0.0213093002555707
1592337276.2298741,-0.2769840897357676,9.178458722485567,-1.868351246069367,-1.7877777777777777,-1.7077777777777778,-2.1844444444444444,-0.16736432339450963,-0.19082668205538028,0.018383265822803772
1592337276.2398741,-0.828692048743036,10.076426954347697,-1.976795283186015,-1.7877777777777777,-1.7077777777777778,-2.1844444444444444,-0.26131123366902936,-0.26286616734877,-0.016776271788802366
1592337276.249874,-0.12684843593125583,9.547979998818828,-1.4566053113372837,-1.7877777777777777,-1.7077777777777778,-2.1844444444444444,-0.27482169162232845,-0.36014146461252333,0.022854404874208235
1592337276.259874,-0.30610575324243433,9.270189557698703,-1.6687961423345525,-1.791111111111111,-1.6866666666666668,-2.1777777777777776,-0.2666840025268897,-0.4395391450961111,-0.00018827441839563063
1592337276.269874,-0.5586633464724904,5.639732338848632,-1.9178969480963957,-1.791111111111111,-1.6866666666666668,-2.1777777777777776,-0.24713997329441265,-0.4643033028730474,0.03783846794083394
1592337276.279874,3.630808600634473,12.639181059804958,-0.15516508048407943,-1.791111111111111,-1.6866666666666668,-2.1777777777777776,-0.06080178763528806,-0.577808028518598,0.07164496090454063
1592337276.289874,-0.8817059306141585,10.08409868729489,-1.5263947491795593,-1.791111111111111,-1.6866666666666668,-2.1777777777777776,0.053418702797801615,-0.3715729931299323,0.006648757665574879
1592337276.299874,-0.11973159868729488,9.838300515705578,-0.543202062822316,-1.791111111111111,-1.6866666666666668,-2.1777777777777776,-0.08421839261902764,-0.1731610763602174,-0.03446362148490659
1592337276.309874,-0.13,10.04,-1.32,-1.778888888888889,-1.6866666666666668,-2.1822222222222223,-0.1810779098944117,-0.11671889372712078,-0.01854412330243975
1592337276.319874,0.058363088426031884,9.942051194018463,-1.1994476234073395,-1.778888888888889,-1.6866666666666668,-2.1822222222222223,-0.19669380128514422,-0.06576177445209885,-0.011147122117355922
1592337276.329874,-0.45570658870714437,9.174396095580951,-0.5056234748363092,-1.778888888888889,-1.6866666666666668,-2.1822222222222223,-0.14945501832024785,-0.06119587308933155,-0.005808873560253905
1592337276.339874,0.6,9.8,-0.75,-1.778888888888889,-1.6866666666666668,-2.1822222222222223,-0.10253809355466686,-0.01854412330243975,0.02617993877991494
1592337276.349874,0.3369861049142711,9.465901268404615,-0.6789151634903435,-1.778888888888889,-1.6866666666666668,-2.1822222222222223,-0.024996565721205677,0.032633285067644624,0.01609954016156499
1592337276.359874,-0.38,9.9,-0.83,-1.7866666666666666,-1.681111111111111,-2.19,0.08072147790473774,0.15598880189699318,-0.002181661564992912
1592337276.369874,-0.39348891163425453,9.798833162743092,-0.8974445581712727,-1.7866666666666666,-1.681111111111111,-2.19,0.1189781899905882,0.17217433393331455,-0.011745839586455526
1592337276.379874,0.38917518643252347,10.266373887418812,-0.93,-1.7866666666666666,-1.681111111111111,-2.19,0.10662388723881727,0.19592886774419258,0.015521115527107835
1592337276.389874,-0.8233701551318382,9.944523317804139,-1.1372061860621487,-1.7866666666666666,-1.681111111111111,-2.19,0.026163016521486115,0.22110486646767846,-0.010545500891157921
1592337276.399874,-0.5466748036301357,9.752597791208142,-0.9525977912081423,-1.7866666666666666,-1.681111111111111,-2.19,-0.05668053122577611,0.24988026248963083,-0.01090830782496456
1592337276.409874,-0.15,9.95,-0.94,-1.8055555555555556,-1.6866666666666668,-2.187777777777778,-0.13199052468207118,0.22580197197676635,-0.008726646259971648
1592337276.419874,-0.5519921612098657,9.899750979848767,-0.8251450967971812,-1.8055555555555556,-1.6866666666666668,-2.187777777777778,-0.14765143267385686,0.21170715478415925,-0.00402837386243594
1592337276.429874,-0.2932276384287743,9.627998106956932,-0.9544628490298154,-1.8055555555555556,-1.6866666666666668,-2.187777777777778,-0.16332261263818804,0.1702196780684543,0.014734733646007497
1592337276.439874,-0.49274324548317583,9.7747223603514,-1.0180208851317754,-1.8055555555555556,-1.6866666666666668,-2.187777777777778,-0.1921055527627125,0.15009148102812125,0.0005037385314163971
1592337276.449874,-0.06530284080757548,9.514351736049074,-1.02,-1.8055555555555556,-1.6866666666666668,-2.187777777777778,-0.18429591808870863,0.14154079983016682,0.009659243454480458
1592337276.459874,0.0012358194545015674,9.546910451363747,-1.1556746319092444,-1.785096682489876,-1.6931273634242499,-2.2017759540858743,-0.18851151488650014,0.11742663042597438,-0.008086313056246963
1592337276.469874,-0.09648887002452368,9.46316001697793,-0.9863200339558573,-1.7844444444444445,-1.6933333333333334,-2.2022222222222223,-0.22028963424920187,0.08514298484980579,-0.018199418923166146
1592337276.479874,-0.03380288933563981,9.696418252372716,-0.9138028893356398,-1.7844444444444445,-1.6933333333333334,-2.2022222222222223,-0.213186095015351,0.0025000011668603606,0.010339815107563651
1592337276.489874,0.08473790906458152,9.40403224249445,-0.5944707500724007,-1.7844444444444445,-1.6933333333333334,-2.2022222222222223,-0.1407452077888272,-0.0188696139819162,0.004698159425057077
1592337276.4998739,0.1532665208222472,9.461174835925029,-0.4613752734582865,-1.7844444444444445,-1.6933333333333334,-2.2022222222222223,-0.0908608574148603,0.001068966439371856,5.00063540883099e-05
1592337276.5098739,0.19,9.83,-0.29,-1.7966666666666666,-1.681111111111111,-2.24,-0.05781403147231216,0.04145156973486533,0.0032724923474893677
1592337276.5198739,0.16671814399548693,9.771795359988717,-0.29582046400112827,-1.7966666666666666,-1.681111111111111,-2.24,-0.049560147781216,0.0751020186293343,0.00835180538816393
1592337276.5298738,0.17757001924192908,9.693239974344094,-0.47461012186555085,-1.7966666666666666,-1.681111111111111,-2.24,-0.033608489412152956,0.16542889766603236,0.011999138607461015
1592337276.5398738,0.09578895980186702,9.895849209373214,-0.5835678224423699,-1.7966666666666666,-1.681111111111111,-2.24,-0.04497292279144967,0.21616976367931556,-0.010455526806224962
1592337276.5498738,-0.4076063207179087,9.879378072571205,-0.6742103004291845,-1.7966666666666666,-1.681111111111111,-2.24,-0.039969308179578396,0.21925698728178766,-0.017009639766266235
1592337276.5598738,-0.1177586206896552,9.842359913793103,-0.7460668103448276,-1.79871408045977,-1.68622964559387,-2.24614224137931,-0.03415898980533083,0.17001091440173483,-0.015529057615905905
1592337276.5698738,-0.5937768291236808,9.755927427961579,-0.7873655875726313,-1.798888888888889,-1.6866666666666668,-2.2466666666666666,-0.10412594890714605,0.10466697924402137,-0.003043771015862397
1592337276.5798738,-0.3370468888785003,9.77746435416764,-0.7625356458323594,-1.798888888888889,-1.6866666666666668,-2.2466666666666666,-0.14203793749183752,0.0054863826560911655,-0.00817345415448235
1592337276.5898738,-0.4199060864578106,9.816635362152605,-0.5401878270843788,-1.798888888888889,-1.6866666666666668,-2.2466666666666666,-0.14008512147653296,-0.04323547311145493,-0.00672849722177337
1592337276.5998738,-0.42230447235073804,9.473701255783212,-0.689301608283763,-1.798888888888889,-1.6866666666666668,-2.2466666666666666,-0.10101155530165573,-0.08887831588418525,-0.0015082736265582186
1592337276.6098738,0.4931003884169641,9.379611583035969,-0.5958262544604793,-1.791413213194247,-1.6749191762893723,-2.2402589446426884,0.03636720356514682,-0.0951564963856776,0.025163065545971232
1592337276.6198738,0.5875092731433983,9.575531528687556,-0.5727472180569805,-1.791111111111111,-1.6744444444444444,-2.24,0.08285527411458363,-0.06792713734495096,0.024297952217200474
1592337276.6298738,0.8554548873267958,10.008582255778297,-0.6141091729584309,-1.791111111111111,-1.6744444444444444,-2.24,0.06425977514756365,0.012994862097919967,0.015037586235294732
1592337276.6398737,0.40537993356099145,9.950449044068112,-0.5573143308476781,-1.791111111111111,-1.6744444444444444,-2.24,0.03936787438831112,0.07629221889777894,0.0014817580592305576
1592337276.6498737,0.15933197548030784,9.881332915532402,-0.938669434597834,-1.791111111111111,-1.6744444444444444,-2.24,0.019489384649321335,0.12770024262933324,0.0031997930828287576
1592337276.6598737,-0.02573668992394243,9.477178641020805,-0.82181815324659,-1.8029815408469,-1.6853256717022511,-2.256816442125701,-0.03546739369976707,0.12553786531543684,-0.005348149487959084
1592337276.6698737,0.17435266272189345,9.763437475345167,-0.8376339250493097,-1.8044444444444445,-1.6866666666666668,-2.258888888888889,-0.10640225940351034,0.08819050600103122,-0.011091532971783884
1592337276.6798737,-0.6798572039790352,9.812059311156274,-0.9716803936249866,-1.8044444444444445,-1.6866666666666668,-2.258888888888889,-0.2725423616612519,-0.028071069951452282,-0.01972660533957852
1592337276.6898737,-0.4999403776084796,10.105768229782804,-0.7413874035868073,-1.8044444444444445,-1.6866666666666668,-2.258888888888889,-0.4488245011321119,-0.15226661865009963,-0.02446639553065857
1592337276.6998737,-0.597901027301435,10.059517528080905,-0.36984330655154496,-1.8044444444444445,-1.6866666666666668,-2.258888888888889,-0.5676793578360403,-0.245330315306488,-0.028220804382295187
1592337276.7098737,-0.6224637387843217,9.55079673480402,-0.3150725224313567,-1.790889683449894,-1.6866666666666668,-2.2870410848006477,-0.6759752445923437,-0.3342606355202471,-0.04378342934526573
1592337276.7198737,-0.3814397120575885,9.366261147770446,-0.1291517696460708,-1.79,-1.6866666666666668,-2.2888888888888888,-0.660438382289104,-0.36822843832851826,-0.026797181920948432
1592337276.7298737,0.5604536682160428,9.525464405121095,0.29442768218761045,-1.79,-1.6866666666666668,-2.2888888888888888,-0.49030132088908995,-0.4172628035580292,-0.004641330942557156
1592337276.7398736,0.5938262380125169,9.80870118744497,0.156533564952526,-1.79,-1.6866666666666668,-2.2888888888888888,-0.3671370718333876,-0.3579222085171088,0.0040679995735414445
1592337276.7498736,0.43622774095663974,9.476845803721153,0.13408129042561687,-1.79,-1.6866666666666668,-2.2888888888888888,-0.3217401168323217,-0.2582396192462242,0.009294230175866154
1592337276.7598736,0.8607572256165121,9.47452910823388,0.09707524771281142,-1.8024004839940768,-1.659004048526034,-2.3060587898037643,-0.2086568773970485,-0.11280780143469148,0.025891872985252702
1592337276.7698736,1.0070207914151577,9.407846411804158,0.6931871227364186,-1.8044444444444445,-1.6544444444444444,-2.3088888888888888,-0.059477347222819,0.03212346674364598,0.033844726020627464
1592337276.7798736,0.39470088713885865,9.439365719436406,0.2505218463873997,-1.8044444444444445,-1.6544444444444444,-2.3088888888888888,0.12145072608440191,0.17878239910879673,0.028624126297733157
1592337276.7898736,0.1696395648564813,9.246689020927082,0.19777032635763903,-1.8044444444444445,-1.6544444444444444,-2.3088888888888888,0.2707153055193284,0.2781807457052913,0.039591762584201995
1592337276.7998736,0.37182496270512183,9.411824962705122,0.10077573346593735,-1.8044444444444445,-1.6544444444444444,-2.3088888888888888,0.39468492530624255,0.3462338128476904,0.05302598407445228
1592337276.8098736,0.49,9.655901482544238,0.023213135660768373,-1.822163912358078,-1.6721639123580778,-2.3070236817400853,0.4641502542715315,0.44286289935324696,0.048658217290899225
1592337276.8198736,0.1437443511943189,10.173414299548096,-0.20939436733376374,-1.8255555555555556,-1.6755555555555555,-2.3066666666666666,0.421371813531748,0.4768876796833673,0.029436806332061097
1592337276.8298736,-1.0695053927443077,10.728859352870682,-0.7682318335330647,-1.8255555555555556,-1.6755555555555555,-2.3066666666666666,0.11862068749684415,0.5061869581783763,-0.014995803713837595
1592337276.8398736,-1.3491869822485207,10.786211360946746,-1.0459349112426035,-1.8255555555555556,-1.6755555555555555,-2.3066666666666666,-0.25582723772124166,0.40549996156746,-0.0055729963761942634
1592337276.8498735,-1.353462465873538,10.339297542894721,-0.5639222016300991,-1.8255555555555556,-1.6755555555555555,-2.3066666666666666,-0.46866112801572013,0.24121879052854214,0.013171856151035654
1592337276.8598735,-0.8411222696459955,9.604253075571178,-0.16434597037408988,-1.8195586799453232,-1.681552431165788,-2.310950149245404,-0.5377795757707527,0.02273435954953884,0.008950947141434013
1592337276.8698735,-0.8229361684958036,9.560848127824404,-0.4004563428018076,-1.8177777777777777,-1.6833333333333333,-2.312222222222222,-0.46477410595508273,-0.08623069271573934,-0.0025464455193719713
1592337276.8798735,-0.27963296453750897,9.499260119880647,-0.45642100815927755,-1.8177777777777777,-1.6833333333333333,-2.312222222222222,-0.3152638643840369,-0.30327722664952894,-0.007070222985988291
1592337276.8898735,0.11293555966605011,9.7658711193321,-0.18262410638404242,-1.8177777777777777,-1.6833333333333333,-2.312222222222222,-0.23498304471829293,-0.42193725125814224,-0.0027881270517770484
1592337276.8998735,0.08861986383386362,9.767111088302713,-0.11314619042731534,-1.8177777777777777,-1.6833333333333333,-2.312222222222222,-0.2293895957049872,-0.44018785811267147,-0.015991200845036056
1592337276.9098735,0.3704097988319273,9.913957819597664,0.44238870863075913,-1.8289916720744106,-1.6833333333333333,-2.3605282284231017,-0.25317364869559883,-0.43271494540305133,-0.0305573131694936
1592337276.9198735,0.30813852813852816,9.702132034632035,0.568517316017316,-1.8322222222222222,-1.6833333333333333,-2.3744444444444444,-0.24603428577592684,-0.40026052235012005,-0.03351707440027801
1592337276.9298735,0.006082202011042065,9.393917797988959,0.5473917797988959,-1.8322222222222222,-1.6833333333333333,-2.3744444444444444,-0.18558050720773336,-0.2957532233755518,-0.03229755801029788
1592337276.9398735,0.28277699331638895,9.790901816812577,0.43645862750635417,-1.8322222222222222,-1.6833333333333333,-2.3744444444444444,-0.14513358260771073,-0.2066520027158658,-0.0030301539641050465
1592337276.9498734,0.10588330344650915,9.62965337852484,0.6242772971801289,-1.8322222222222222,-1.6833333333333333,-2.3744444444444444,-0.13880383736999338,-0.11476497670152033,0.016327424116001844
1592337276.9598734,0.08264899005690701,9.417205302982929,0.7314702019886186,-1.8084473905460712,-1.6880882996685636,-2.3831618827257,-0.1193975719315527,0.011254329908900101,0.015905180507350847
1592337276.9698734,-0.1205772292993631,9.418612659235668,0.5375959394904458,-1.798888888888889,-1.69,-2.3866666666666667,-0.08974328247795095,0.06746371511734531,0.008623251829512887
1592337276.9798734,-0.5960305049281427,9.759862342382029,0.07867187930180056,-1.798888888888889,-1.69,-2.3866666666666667,-0.030654861689311506,0.09166143970373322,0.0309612505347228
1592337276.9898734,-0.16449093974873535,9.804489989787921,0.24653003063623624,-1.798888888888889,-1.69,-2.3866666666666667,0.00042291810207933933,0.0598176658889137,0.0450134598231405
1592337276.9998734,-0.3638359804336011,9.80546933188397,0.2754286692030517,-1.798888888888889,-1.69,-2.3866666666666667,0.006246678916042521,0.06168757098807846,0.01664302507476506
1592337277.0098734,-0.530703690082138,9.922537084712518,0.10351845041069019,-1.8233024804871072,-1.6875586408401781,-2.3842253075068447,-0.036889290677864776,0.039668856426815224,-0.023169054587171035
1592337277.0198734,-0.5613791707159054,10.03034459021704,0.09551708778749596,-1.8322222222222222,-1.6866666666666668,-2.3833333333333333,-0.08892139282840916,0.0073349712735724,-0.026668948643577814
1592337277.0298734,-0.2454090218985615,9.762476776202362,0.13172898278479708,-1.8322222222222222,-1.6866666666666668,-2.3833333333333333,-0.19854010062485009,-0.02014341523606821,-0.009612312939916276
1592337277.0398734,0.003588480663634444,9.415623924775527,0.12,-1.8322222222222222,-1.6866666666666668,-2.3833333333333333,-0.22567068564758366,-0.011476409761249742,0.009466574674474405
1592337277.0498734,0.12693923930334897,9.557348098258371,0.4056575005681466,-1.8322222222222222,-1.6866666666666668,-2.3833333333333333,-0.21334480298227443,-0.020242446070411785,0.0159490309437998
1592337277.0598733,0.058849394497629326,9.369307220729018,0.49448192552773834,-1.8409323964740267,-1.7072543512618408,-2.3912516735622464,-0.10945829531281216,-0.0031719513047514976,0.009366030630384286
1592337277.0698733,-0.00881324374645835,9.495860114951833,0.471287946247875,-1.8444444444444446,-1.7155555555555555,-2.3944444444444444,-0.024524133064494316,0.021731313088940565,0.0057241020790889064
1592337277.0798733,-0.012344894077181645,9.892344894077182,0.14431117596477055,-1.8444444444444446,-1.7155555555555555,-2.3944444444444444,0.06367251787250876,0.06576012416847905,-0.007703493203538304
1592337277.0898733,-0.26650944073515687,9.916014789288536,0.16287098858496663,-1.8444444444444446,-1.7155555555555555,-2.3944444444444444,0.032579181778704,0.07181933076289557,-0.012304248574336325
1592337277.0998733,-0.3858691026487637,9.953803653973145,0.1784254163915181,-1.8444444444444446,-1.7155555555555555,-2.3944444444444444,-0.010883736319334914,0.056839215013627334,-0.011349994645215985
1592337277.1098733,-0.5247318590653953,9.982061946304185,0.092288496652465,-1.8542577188671732,-1.7163104228188424,-2.417090462343049,-0.1653811448487379,-0.04001881694811709,-0.0027979326380283744
1592337277.1198733,-0.48231792857429157,9.815821876628322,0.1829560303018157,-1.8588888888888888,-1.7166666666666666,-2.4277777777777776,-0.18268230428150967,-0.07174395236984667,0.005135636046015219
1592337277.1298733,0.00675067433179849,9.560678146200583,0.42706617987630435,-1.8588888888888888,-1.7166666666666666,-2.4277777777777776,-0.15648605525017817,-0.15082540344169867,6.88326319990655e-05
1592337277.1398733,0.24447050632607492,9.825201546107124,0.7529241591241927,-1.8588888888888888,-1.7166666666666666,-2.4277777777777776,-0.12343255873492356,-0.16608128467847158,-0.02633942691919431
1592337277.1498733,0.00019488548269969153,9.727231566345456,0.5188899574117324,-1.8588888888888888,-1.7166666666666666,-2.4277777777777776,-0.10711691533353712,-0.14551149136979755,-0.04488370577644682
1592337277.1598732,-0.19892411759048506,9.83860705927612,0.28972141185522393,-1.8623417647121683,-1.733240470618408,-2.4402081307415835,-0.06577993228162411,-0.13199052468207118,-0.030812568736945465
1592337277.1698732,-0.0937715904104671,9.885931229805736,0.38541465555068016,-1.8644444444444443,-1.7433333333333334,-2.4477777777777776,-0.04699449044284375,-0.13328791231663634,-0.007929442112773213
1592337277.1798732,0.35819944018625577,9.455441441912784,0.5909127056792319,-1.8644444444444443,-1.7433333333333334,-2.4477777777777776,-0.038475590916057796,-0.11761006084296466,0.017552853264969852
1592337277.1898732,0.3342043654078085,9.555586586894318,0.5072589684773098,-1.8644444444444443,-1.7433333333333334,-2.4477777777777776,0.0005637949625710605,-0.059155701485044745,0.015661845376565155
1592337277.1998732,0.2942757242757243,9.54931068931069,0.5772927072927073,-1.8644444444444443,-1.7433333333333334,-2.4477777777777776,0.05681146971417357,-0.005928191265515203,0.013693685926923542
1592337277.2098732,0.2856819724044334,9.649934403981,0.7433114679936667,-1.8602236799115333,-1.753885244665611,-2.449888160044233,0.11707296343372164,0.056818688478285764,0.0217776309714323
1592337277.2198732,0.17726939351198873,9.809286318758815,0.7095909732016925,-1.8577777777777778,-1.76,-2.451111111111111,0.1328893446300746,0.09345542720573939,0.02425983043498465
1592337277.2298732,-0.09262851838707037,9.934365666548363,0.46802861120969724,-1.8577777777777778,-1.76,-2.451111111111111,0.08717917588636101,0.19594002887551323,0.013351144577991376
1592337277.2398732,-0.25765863710651604,9.910801771714157,0.31409247021483216,-1.8577777777777778,-1.76,-2.451111111111111,0.0009089352210484083,0.22945649667817206,-0.010860017653892624
1592337277.2498732,-0.49704405071521457,9.956174008452535,0.09295594928478544,-1.8577777777777778,-1.76,-2.451111111111111,-0.09170603040403152,0.20344450675038897,-0.015176724066730093
1592337277.2598732,-0.5392088463982089,9.987481922972197,0.05661846125918979,-1.8616626495493769,-1.769064700800398,-2.4627657264259084,-0.19929214046391236,0.12504558300124924,-0.008271476134651975
1592337277.2698731,-0.5490225151015925,9.926545853926415,0.11984074684239429,-1.8644444444444443,-1.7755555555555556,-2.471111111111111,-0.25466675620816354,0.06322864950799886,-0.003718768532530477
1592337277.2798731,-0.283351119481063,9.458343272651183,0.4416567273488178,-1.8644444444444443,-1.7755555555555556,-2.471111111111111,-0.32415780570302,-0.0759919195810889,-0.00027210852617358915
1592337277.2898731,-0.3273814442782171,9.367947092208686,0.34056564793046945,-1.8644444444444443,-1.7755555555555556,-2.471111111111111,-0.28341892808650737,-0.16160718527828477,-0.0205983904624478
1592337277.299873,-0.2610295532646048,9.526723024054983,0.36777182130584196,-1.8644444444444443,-1.7755555555555556,-2.471111111111111,-0.18999648239515246,-0.21528591340637376,-0.029485118565285306
1592337277.309873,0.07235476630578294,9.58434248745709,0.616789015051492,-1.8607339436082504,-1.7953448933485903,-2.489663615292081,-0.10236461775884999,-0.23803795653376733,-0.032848351251577
1592337277.319873,0.14748259582299753,9.536722013283187,0.7115211650796192,-1.8577777777777778,-1.8111111111111111,-2.5044444444444443,-0.07724682791203258,-0.23049423771728578,-0.03059759832360838
1592337277.329873,0.29,9.655977404998287,0.8478774392331394,-1.8577777777777778,-1.8111111111111111,-2.5044444444444443,-0.0657758638183664,-0.15380415277764906,-0.0055882204139941685
1592337277.339873,0.21403993855606757,9.759400921658987,0.728863287250384,-1.8577777777777778,-1.8111111111111111,-2.5044444444444443,-0.06505775109248448,-0.11632344662317431,-0.0036545344648613986
1592337277.349873,0.018267312206572767,9.73260961602951,0.8240834590878605,-1.8577777777777778,-1.8111111111111111,-2.5044444444444443,-0.0021424746945787818,-0.04701866596931131,0.00636461992210997
1592337277.359873,0.009511653718090984,9.69484128745838,0.7300244173140954,-1.8700298433838944,-1.825590825009249,-2.5100135651744977,0.07153864403228588,0.00879856118614289,0.0043686501615540635
1592337277.369873,-0.1475957941164888,9.663630921907613,0.7049068640964045,-1.8822222222222222,-1.84,-2.5155555555555558,0.10623771662599203,0.04296416149962265,0.00590697348001251
1592337277.379873,-0.03780387643535352,9.88120059637467,0.46289895634432787,-1.8822222222222222,-1.84,-2.5155555555555558,0.08905522991985636,0.08882685479016836,-0.00417806079651954
1592337277.389873,-0.3594402719018871,9.9,0.338827304273423,-1.8822222222222222,-1.84,-2.5155555555555558,0.06239075547149817,0.10285499293800228,-0.006087952679153106
1592337277.399873,-0.35668782278638544,9.766470039201046,0.3293466492439798,-1.8822222222222222,-1.84,-2.5155555555555558,0.013458195200115097,0.05721020901937903,0.0075170329580695056
1592337277.409873,-0.2,9.781104560110549,0.4061897742975587,-1.8900172987358617,-1.8513928041353191,-2.5335441936639542,-0.030733290561185962,-0.03862706666682039,0.02384221455207385
1592337277.419873,-0.20985032074126872,9.847614635305298,0.4736295240357963,-1.8966666666666667,-1.8611111111111112,-2.548888888888889,-0.03962807593927372,-0.08718482522825381,0.029913660678980186
1592337277.429873,0.003602976221998677,9.396660223481438,1.100584388073929,-1.8966666666666667,-1.8611111111111112,-2.548888888888889,0.007464851451589566,-0.12359526383669417,0.034676091218875056
1592337277.439873,0.15578313540895083,9.658910181357674,0.9468729540512771,-1.8966666666666667,-1.8611111111111112,-2.548888888888889,0.10011867044519633,-0.05697589726663115,0.023575326482381115
1592337277.449873,0.11653479504289799,9.79173260247855,0.8454706863679695,-1.8966666666666667,-1.8611111111111112,-2.548888888888889,0.15787531175836497,0.04253893426130047,0.019697953288850642
1592337277.459873,-0.007418430400907505,9.737144093853548,0.7685850323890265,-1.904793211074294,-1.8859986533594701,-2.5504126159653193,0.16181811511110064,0.15339922256692273,0.010067268467063772
1592337277.469873,-0.23,9.71,0.47,-1.9144444444444444,-1.9155555555555555,-2.5522222222222224,0.13635384781205698,0.21380283336930533,0.0
1592337277.479873,-0.11407419975115934,10.047239000113109,0.17608585001696642,-1.9144444444444444,-1.9155555555555555,-2.5522222222222224,0.00013769564000294665,0.2869527784385406,-0.0040474621636708225
1592337277.489873,-0.16899541744236002,9.86869516444699,0.20387989880185212,-1.9144444444444444,-1.9155555555555555,-2.5522222222222224,-0.11799613790411517,0.30096348814287105,-0.001546814608088201
1592337277.499873,-0.02,9.81,0.24,-1.9144444444444444,-1.9155555555555555,-2.5522222222222224,-0.16035212502697901,0.2999784651865254,0.004363323129985824
1592337277.509873,-0.5215518777848505,9.373204010184596,0.300033418204965,-1.9080869580592685,-1.9346280147110828,-2.563959120164085,-0.1459414935438909,0.22234561458076968,0.014050192107407725
1592337277.519873,-0.32,9.39,0.44,-1.9,-1.958888888888889,-2.578888888888889,-0.09708393964218458,0.1832595714594046,0.015271630954950384
1592337277.529873,-0.029882281483195494,9.432046046161856,0.5821585584543298,-1.9,-1.958888888888889,-2.578888888888889,0.14858958444225015,0.1310732222533588,0.04265399502414983
1592337277.539873,0.46629902130908585,9.540683695425834,0.4083591309779968,-1.9,-1.958888888888889,-2.578888888888889,0.3216141211939081,0.1375490900368428,0.05189649973038043
1592337277.5498729,0.6229490987508647,9.699111771168164,0.32357285266712776,-1.9,-1.958888888888889,-2.578888888888889,0.43073391039654835,0.16247608711615122,0.042249553485465635
1592337277.5598729,0.6101116736152472,9.905937462775462,0.3859821322215604,-1.891564985771954,-1.9770907616967772,-2.5988665541658396,0.49610399266256716,0.20832431605340224,0.0015486028905053947
1592337277.5698729,-0.02536544889879322,10.341115431118276,0.12084611554965508,-1.8788888888888888,-2.0044444444444443,-2.628888888888889,0.43299478095506927,0.2647299497844812,-0.04811088464698962
1592337277.5798728,-0.48,10.67,-0.15,-1.8788888888888888,-2.0044444444444443,-2.628888888888889,0.3665191429188092,0.2868884957965679,-0.06763150851478027
1592337277.5898728,-0.9217919139260163,10.370520215184959,-0.43397398924075203,-1.8788888888888888,-2.0044444444444443,-2.628888888888889,-0.14098517495548962,0.24067162716030654,-0.053479081679190126
1592337277.5998728,-0.8652056952559475,10.004136438869724,-0.3956639479929009,-1.8788888888888888,-2.0044444444444443,-2.628888888888889,-0.41514887385805377,0.11885700646114558,-0.031957119735292555
1592337277.6098728,-0.5561203306208753,9.420721471134748,-0.01069968603831617,-1.8746144536283575,-2.038212483002641,-2.6246144536283578,-0.5350936312496689,-0.06849099119129458,-0.0010050013341139589
1592337277.6198728,-0.31,9.07,0.5,-1.8677777777777778,-2.0922222222222224,-2.617777777777778,-0.5290529295107812,-0.2181661564992912,0.01308996938995747
1592337277.6298728,0.052214934409687164,8.986048183652876,0.45928102926337033,-1.8677777777777778,-2.0922222222222224,-2.617777777777778,-0.2035610220517087,-0.41780772778533465,0.027989275912839815
1592337277.6398728,0.7296785954139883,9.208888036074066,0.7933579583613163,-1.8677777777777778,-2.0922222222222224,-2.617777777777778,0.12924832491588367,-0.4452556081159186,0.025396169065809986
1592337277.6498728,0.96,9.68,0.83,-1.8677777777777778,-2.0922222222222224,-2.617777777777778,0.2999784651865254,-0.42869649752110717,0.01854412330243975
1592337277.6598728,0.6869243932794026,9.879124144368388,1.0376804604853764,-1.8688029800179768,-2.1058915854248776,-2.6164108414575122,0.5561531507010069,-0.2857338578618906,-0.0011751716192887301
1592337277.6698728,0.4102057885410514,10.38418050797401,1.1139548730064974,-1.8711111111111112,-2.1366666666666667,-2.6133333333333333,0.49540730104182,-0.09880091889156234,0.006164965796268511
1592337277.6798728,0.012404718693284938,10.35227194574458,0.7196852612474925,-1.8711111111111112,-2.1366666666666667,-2.6133333333333333,0.320047657239372,0.07501037598292924,0.0019410723705345755
1592337277.6898727,-0.40307666714197443,10.284106421407863,0.2814366177099672,-1.8711111111111112,-2.1366666666666667,-2.6133333333333333,0.12056155890198379,0.2132746574492858,-0.0344265500192229
1592337277.6998727,-0.9005989936905998,10.117747384394217,0.20708330005590608,-1.8711111111111112,-2.1366666666666667,-2.6133333333333333,-0.07130314160422375,0.25082573989856216,-0.0666202183843419
1592337277.7098727,-0.9949981711777616,9.803084308705195,0.037059253840526704,-1.8711111111111112,-2.1727456717873688,-2.607320165813216,-0.2387321470256888,0.19957345651515104,-0.0631397115325765
1592337277.7198727,-0.77,9.32,0.09,-1.8711111111111112,-2.243333333333333,-2.5955555555555554,-0.31525009614147576,0.14398966328953217,-0.04581489286485115
1592337277.7298727,-0.028558777565549587,8.987879261445853,0.49874052208137987,-1.8711111111111112,-2.243333333333333,-2.5955555555555554,-0.2885180178007035,-0.006638933656277265,0.026701393397767476
1592337277.7398727,0.6170228156721373,8.840892230338678,0.7497199032349872,-1.8711111111111112,-2.243333333333333,-2.5955555555555554,-0.060336234864219046,-0.09110248013704404,0.0459619961716834
1592337277.7498727,0.6216030214015946,9.285216114141837,0.7496055392362568,-1.8711111111111112,-2.243333333333333,-2.5955555555555554,0.19601217522338643,-0.09254438073743537,0.038047243872747764
1592337277.7598727,0.5083776036690235,9.61319319701892,0.83579399961781,-1.8626876446482792,-2.254915599719727,-2.5966084888634096,0.3929425539620446,-0.05643199285432029,0.015842790202808266
1592337277.7698727,0.18,9.88,0.87,-1.8444444444444446,-2.28,-2.598888888888889,0.4974188368183839,-0.025089107997418484,-0.006544984694978735
1592337277.7798727,-0.18963248747116376,10.58576724206507,0.5371163789674648,-1.8444444444444446,-2.28,-2.598888888888889,0.46529612204848786,0.08341848781252331,-0.03565613529835484
1592337277.7898726,-0.9781402032947774,10.611938310550299,0.22080827199439185,-1.8444444444444446,-2.28,-2.598888888888889,0.21062080389007348,0.1703490748942995,-0.06589382616627347
1592337277.7998726,-0.8383121375521416,9.92662915861227,0.2683170210601282,-1.8444444444444446,-2.28,-2.598888888888889,-0.09172957971074014,0.1881741808676459,-0.06249595842876974
1592337277.8098726,-0.7015647645637921,9.852436553000596,0.604063117608307,-1.840854116343027,-2.3074170509562797,-2.577020526816618,-0.34670073544036156,0.12631777344115186,-0.04044235364058464
1592337277.8198726,-1.09,9.69,0.71,-1.8322222222222222,-2.3733333333333335,-2.5244444444444443,-0.45378560551852565,0.05235987755982988,-0.006544984694978735
1592337277.8298726,0.24886146095717884,9.129289937690574,1.3031748641124221,-1.8322222222222222,-2.3733333333333335,-2.5244444444444443,-0.394079923359017,-0.04854452950621097,0.042681953971572185
1592337277.8398726,0.49103146232333517,8.975524490423997,1.3441258492933406,-1.8322222222222222,-2.3733333333333335,-2.5244444444444443,-0.17515649686925472,-0.03881602587936893,0.053075021066367946
1592337277.8498726,0.4289986201458703,9.05930041395624,1.316104277547802,-1.8322222222222222,-2.3733333333333335,-2.5244444444444443,0.08066015227115443,0.008891249249130142,0.05950489444454968
1592337277.8598726,0.3310943736767207,9.20766651626115,1.4505095276109818,-1.8370398266094354,-2.381362673978689,-2.514809235670018,0.35704529782878763,0.06779889468289026,0.06747233831556418
1592337277.8698726,0.24,9.61,1.2,-1.8522222222222222,-2.4066666666666667,-2.4844444444444442,0.5781403147231217,0.09926560120717749,0.08072147790473774
1592337277.8798726,0.606145552560647,9.921284815813118,1.584389680400462,-1.8522222222222222,-2.4066666666666667,-2.4844444444444442,0.7142652434837884,0.2001242549933878,0.06493362398802835
1592337277.8898726,0.0731848827271864,10.069469186212135,1.252643386193144,-1.8522222222222222,-2.4066666666666667,-2.4844444444444442,0.5831475605156646,0.3699560212174734,0.01515932127154693
1592337277.8998725,-0.32331396718222505,10.156121535683441,1.0176556488969146,-1.8522222222222222,-2.4066666666666667,-2.4844444444444442,0.3615512681288059,0.49229774727844844,-0.022612236123305273
1592337277.9098725,-0.6598755276881053,10.159427924012913,0.7446268934690837,-1.8506937546560716,-2.4164925295919213,-2.4719983514057886,0.13501340179090388,0.5820993166967321,-0.04493842915722386
1592337277.9198725,-1.15,9.83,0.6,-1.8444444444444446,-2.4566666666666666,-2.421111111111111,-0.008726646259971648,0.6250460383704692,-0.04581489286485115
1592337277.9298725,-0.31216775975146704,10.161812219537453,0.056976182257507765,-1.8444444444444446,-2.4566666666666666,-2.421111111111111,-0.1276769045770386,0.5711254105194942,-0.008034192753236755
1592337277.9398725,-0.7371233799023733,9.57698367278236,-0.08547719239185325,-1.8444444444444446,-2.4566666666666666,-2.421111111111111,-0.15873782032411607,0.4765127463073876,0.004124262083224271
1592337277.9498725,-0.75,9.21,0.23,-1.8444444444444446,-2.4566666666666666,-2.421111111111111,-0.09272061651219875,0.33815754257390135,0.007635815477475192
1592337277.9598725,-0.34886345273363856,9.501023431187718,0.23289792620522487,-1.8432701918185355,-2.460776550857348,-2.4150441392105817,0.005218830600664432,0.18498850740203635,-0.011800832445816763
1592337277.9698725,-0.25,9.88,0.34,-1.8377777777777777,-2.48,-2.3866666666666667,0.1112647398146385,0.03490658503988659,-0.02617993877991494
1592337277.9798725,0.0564384734785634,9.81908232082642,0.37793154204356905,-1.8377777777777777,-2.48,-2.3866666666666667,0.132842205280705,-0.08664041576220011,-0.007096355486313387
1592337277.9898725,0.13,9.9,0.4,-1.8377777777777777,-2.48,-2.3866666666666667,0.09272061651219875,-0.12435470920459597,0.006544984694978735
1592337277.9998724,-0.009852982227598402,9.7,0.6017095468502838,-1.8377777777777777,-2.48,-2.3866666666666667,0.01996782647269066,-0.14508851264761413,-0.007826307398108877
1592337278.0098724,0.11435470636502168,9.725215097878326,0.6581989215801196,-1.8365770588311907,-2.4816009585954495,-2.3780615142161268,-0.029675302778311742,-0.14341490249158098,-0.0208137571541936
1592337278.0198724,-0.23,9.84,0.65,-1.8311111111111111,-2.488888888888889,-2.338888888888889,-0.06544984694978735,-0.08617563181722002,-0.02617993877991494
1592337278.0298724,-0.07328529610448097,9.85,0.378856864069654,-1.8311111111111111,-2.488888888888889,-2.338888888888889,-0.09536997972395896,-0.058406075110248964,-0.026709811422266982
1592337278.0398724,-0.007176204052540474,9.68494730679157,0.31086345585989206,-1.8311111111111111,-2.488888888888889,-2.338888888888889,-0.1340309036123695,-0.04074132460314008,-0.03016267625912955
1592337278.0498724,0.10934794738939818,9.253699481865285,0.32688162614587485,-1.8311111111111111,-2.488888888888889,-2.338888888888889,-0.13167201426706243,-0.052884032837381786,-0.018282045663663798
1592337278.0598724,0.3891706734754784,9.513275193155819,0.580130981198395,-1.8312518191833111,-2.490155261538688,-2.3336826902174916,-0.07476243902153272,-0.06075783133313027,-0.01662445355883563
1592337278.0698724,-0.72,9.26,0.65,-1.8322222222222222,-2.4988888888888887,-2.2977777777777777,0.04908738521234052,-0.10362892433716332,-0.01090830782496456
1592337278.0798724,0.4567113938989661,9.853213433563385,0.7798496549246992,-1.8322222222222222,-2.4988888888888887,-2.2977777777777777,0.197211078033044,-0.14112333937846355,0.007064190705622814
1592337278.0898724,-0.3453758986811408,10.0800657048993,0.39273722801504546,-1.8322222222222222,-2.4988888888888887,-2.2977777777777777,0.19784366168690234,-0.07557068744512228,-0.0018830763072405848
1592337278.0998724,-0.6607492082343627,9.602254354711006,0.3425435471100554,-1.8322222222222222,-2.4988888888888887,-2.2977777777777777,0.13616457182948843,-0.03297083542623675,-0.007850181431723505
1592337278.1098723,0.18670115792067013,9.649834934712983,0.40094850948509486,-1.8317411239768964,-2.500332183624866,-2.2933516739207795,0.08005351537458377,-0.02994275405489009,-0.002507782076094032
1592337278.1198723,-0.27,10.07,0.2,-1.8266666666666667,-2.5155555555555558,-2.2466666666666666,-0.030543261909900768,0.01090830782496456,-0.017453292519943295
1592337278.1298723,-0.11105863060834968,9.912284201188204,0.24403908707223312,-1.8266666666666667,-2.5155555555555558,-2.2466666666666666,-0.08185494606882375,-0.01894519033682788,-0.011291164533378058
1592337278.1398723,-0.24201643033494286,9.898578732329744,0.2952231859992571,-1.8266666666666667,-2.5155555555555558,-2.2466666666666666,-0.16509044283746474,-0.013245005642445823,-0.013627269509265301
1592337278.1498723,-0.299854427820461,9.652758361735312,0.2772416382646872,-1.8266666666666667,-2.5155555555555558,-2.2466666666666666,-0.19430443005010595,-0.04694145243561376,-0.015115230862399047
1592337278.1598723,-0.07371613424989892,9.499307376812432,0.4306926231875686,-1.8266666666666667,-2.5155555555555558,-2.2466666666666666,-0.16435059862599294,-0.1024441400744114,-0.014234235820513369
1592337278.1698723,0.07,9.68,0.53,-1.8355555555555556,-2.4955555555555557,-2.2177777777777776,-0.12326387842209952,-0.16035212502697901,-0.002181661564992912
1592337278.1798723,0.09833829660512208,9.441840381179272,0.6063192376414532,-1.8355555555555556,-2.4955555555555557,-2.2177777777777776,-0.054328440556235036,-0.17978632466772737,0.010419740375031662
1592337278.1898723,0.5174467270944443,9.544815966326262,0.6423982971803027,-1.8355555555555556,-2.4955555555555557,-2.2177777777777776,0.07217403229157374,-0.18760598936022585,0.013634328204382914
1592337278.1998723,0.5089343025648059,9.875532848717597,0.7710245508160747,-1.8355555555555556,-2.4955555555555557,-2.2177777777777776,0.23152438258833194,-0.20386910677012351,0.013239732332390465
1592337278.2098722,0.1298694760395301,10.066891354341477,0.656804338367829,-1.8345410597993108,-2.495454105979931,-2.2169154563849696,0.28335277077376975,-0.16152356975691712,0.003960185592990117
1592337278.2198722,-0.5,10.42,0.59,-1.8133333333333332,-2.493333333333333,-2.198888888888889,0.20943951023931953,-0.07199483164476608,-0.0272707695624114
1592337278.2298722,-0.5851213715837719,10.277233067390936,0.5212985910711255,-1.8133333333333332,-2.493333333333333,-2.198888888888889,0.046921648184318356,-0.049264777147433304,-0.03915473303038628
1592337278.2398722,-0.5638515976838945,9.965837443705768,0.3054864536421474,-1.8133333333333332,-2.493333333333333,-2.198888888888889,-0.16581836549112955,-0.060131374327000116,-0.048701161403225855
1592337278.2498722,-0.689355688480431,9.721994731421328,0.37794347171605136,-1.8133333333333332,-2.493333333333333,-2.198888888888889,-0.31903766941620954,-0.10482661712746812,-0.03873460426662546
1592337278.2598722,-0.6954483353018163,9.461074153286303,0.7605758610783031,-1.81291743366567,-2.492949425947798,-2.19700134424334,-0.3828501963067233,-0.1667400679742941,-0.01698216727695236
1592337278.2698722,0.47,9.16,0.78,-1.798888888888889,-2.48,-2.1333333333333333,-0.3817907738737596,-0.16144295580947549,-0.001090830782496456
1592337278.2798722,0.23166074296395756,9.256249111444594,0.9520830371481979,-1.798888888888889,-2.48,-2.1333333333333333,-0.26216558276288615,-0.12724107565706216,0.012498876554601072
1592337278.2898722,0.5388899516954422,9.347859295040413,0.9624281409919173,-1.798888888888889,-2.48,-2.1333333333333333,-0.07483702257688261,-0.10152833556551297,0.026592919624251924
1592337278.2998722,0.28902605169792195,9.51,0.8533802331474911,-1.798888888888889,-2.48,-2.1333333333333333,0.08199865111345447,-0.03923525369777567,0.02284892969141218
1592337278.3098722,0.13038713467469526,9.522775444264942,0.4646456160963431,-1.7994265759370769,-2.479784925180725,-2.1331827809598405,0.20726499378416646,-0.005496383754495213,-0.00585533741160515
1592337278.3198721,0.15,10.17,0.7,-1.8266666666666667,-2.468888888888889,-2.1255555555555556,0.26289021858164585,-0.007635815477475192,-0.02617993877991494
1592337278.3298721,-0.23972537376736294,10.022019404092884,0.4091437811472802,-1.8266666666666667,-2.468888888888889,-2.1255555555555556,0.19517589436966837,-0.03696136277830771,-0.01729997938218494
1592337278.3398721,-0.11749688279301745,9.824641521197007,0.41071695760598503,-1.8266666666666667,-2.468888888888889,-2.1255555555555556,0.07600417882569369,-0.05793066331719879,0.007051296114909292
1592337278.349872,-0.06,9.8,0.46,-1.8266666666666667,-2.468888888888889,-2.1255555555555556,0.014180800172453926,-0.053450708342326333,0.004363323129985824
1592337278.359872,-0.7535012842616375,10.113500580556632,0.4219999296294993,-1.8266666666666667,-2.468888888888889,-2.1255555555555556,-0.004472440751274218,-0.0772854050782012,-0.009108461981595612
1592337278.369872,-0.03,9.78,0.5,-1.8355555555555556,-2.4355555555555557,-2.088888888888889,-0.05235987755982988,-0.10799224746714915,-0.0272707695624114
1592337278.379872,-0.05005939339545443,9.853533247102922,0.44574822479740256,-1.8355555555555556,-2.4355555555555557,-2.088888888888889,-0.12942992446127874,-0.14307502746409023,-0.020497125911072174
1592337278.389872,-0.13306462390225277,9.794276918671248,0.5054338487972508,-1.8355555555555556,-2.4355555555555557,-2.088888888888889,-0.1502446552650328,-0.20474792784608248,-0.03534157411910375
1592337278.399872,0.047510505666089116,9.95532014897134,0.4422262054131565,-1.8355555555555556,-2.4355555555555557,-2.088888888888889,-0.1386301649250242,-0.31047484649206364,-0.05468972491613164
1592337278.409872,-0.3367435422516978,10.172507219533568,0.5174063452231583,-1.8355555555555556,-2.4355555555555557,-2.088888888888889,-0.1459198369905475,-0.4152638824339612,-0.05560093392432205
1592337278.419872,-0.5998048613488531,9.866210201985622,0.6264703868538172,-1.8377777777777777,-2.442222222222222,-2.057777777777778,-0.2147651993146985,-0.49198596923065424,-0.0545344436832386
1592337278.429872,-0.15233537709984546,9.418069388365485,0.759710881810478,-1.8377777777777777,-2.442222222222222,-2.057777777777778,-0.26769996615329944,-0.53667612982742,-0.038191692548212364
1592337278.439872,0.40176674749203634,9.333479769885418,1.218286977606618,-1.8377777777777777,-2.442222222222222,-2.057777777777778,-0.2393263443826603,-0.5492426083639189,-0.01598287772674501
1592337278.449872,0.568343372895171,9.485652969125862,1.2654776246993102,-1.8377777777777777,-2.442222222222222,-2.057777777777778,-0.14629265839119568,-0.49531168857457064,-0.0014799438563982451
1592337278.459872,0.33486809407367646,9.527344983201129,1.2321240134390967,-1.8377777777777777,-2.442222222222222,-2.057777777777778,-0.042600692661520945,-0.42345497548119954,-0.012394887617416637
1592337278.469872,-0.12,10.01,1.19,-1.8266666666666667,-2.4155555555555557,-2.0833333333333335,0.02945243112740431,-0.31197760379398637,-0.031634092692397225
1592337278.479872,-0.2431616081278703,9.88610026425841,1.1373258588398285,-1.8266666666666667,-2.4155555555555557,-2.0833333333333335,-0.0045729981748190195,-0.18903579430086984,-0.05044408798174505
1592337278.489872,-0.484828760552571,9.81,0.909839313123561,-1.8266666666666667,-2.4155555555555557,-2.0833333333333335,-0.10183147087059095,-0.10431801880212295,-0.054741256176664164
1592337278.499872,-0.3305158109419242,9.774565471358137,1.09138486822565,-1.8266666666666667,-2.4155555555555557,-2.0833333333333335,-0.16695128083263436,-0.057566071204940734,-0.04578780730951284
1592337278.509872,-0.006618814723877764,9.483888679880405,1.3488414549630716,-1.8266666666666667,-2.4155555555555557,-2.0833333333333335,-0.20318890276420187,-0.0376353791425786,-0.027668996343729085
1592337278.519872,0.52,9.51,1.66,-1.8377777777777777,-2.4033333333333333,-2.0366666666666666,-0.1636246173744684,0.11017390903214205,0.006544984694978735
1592337278.529872,0.13350533524446567,9.519662366618888,1.447427934384456,-1.8377777777777777,-2.4033333333333333,-2.0366666666666666,-0.09933057504260569,0.19976396801916385,-0.0029410215507059247
1592337278.539872,-0.16360424367529164,9.412400748883876,0.7727977533483751,-1.8377777777777777,-2.4033333333333333,-2.0366666666666666,0.02565889964181117,0.2420338335523609,0.00907650178576776
1592337278.549872,-0.2789755493655215,9.436270504487775,0.6982048901268957,-1.8377777777777777,-2.4033333333333333,-2.0366666666666666,0.12983654746377116,0.2511199822553773,0.03793498247690089
1592337278.559872,0.1970102135561746,9.392999071494893,0.7934020427112349,-1.8377777777777777,-2.4033333333333333,-2.0366666666666666,0.24406493035328136,0.22846311292192067,0.03510287381021882
1592337278.569872,-0.05,9.68,0.62,-1.8433333333333333,-2.382222222222222,-2.0544444444444445,0.3196134192714616,0.21162117180431245,0.01308996938995747
1592337278.579872,-0.7117377140359938,10.166571848555877,0.37671407572206106,-1.8433333333333333,-2.382222222222222,-2.0544444444444445,0.2824596907503947,0.17977511878625513,-0.021940688929905576
1592337278.589872,-0.59,10.1,0.4,-1.8433333333333333,-2.382222222222222,-2.0544444444444445,0.13526301702956053,0.15926129424448257,-0.01090830782496456
1592337278.5998719,-0.36527560946319204,9.94082022336976,0.390636483727633,-1.8433333333333333,-2.382222222222222,-2.0544444444444445,0.013716276820138262,0.14394027657102598,0.010541116917874663
1592337278.6098719,-0.12768412005817797,9.707684120058177,0.5767453391511305,-1.8433333333333333,-2.382222222222222,-2.0544444444444445,-0.020736818657576917,0.11573782391586322,0.019759426776367446
1592337278.6198719,-0.25,9.7,0.5,-1.8533333333333333,-2.38,-2.04,-0.01090830782496456,0.061086523819801536,0.006544984694978735
1592337278.6298718,-0.13905335353696469,9.72773666161576,0.4815088922561608,-1.8533333333333333,-2.38,-2.04,0.008253828228001933,0.009651316519733583,0.003519384265562973
1592337278.6398718,-0.02,9.89,0.3,-1.8533333333333333,-2.38,-2.04,-0.007635815477475192,-0.011999138607461015,0.0
1592337278.6498718,-0.22072979878633026,9.826131427658895,0.27262775471095496,-1.8533333333333333,-2.38,-2.04,-0.035503737374986855,-0.03688121173023928,-0.008957546324200177
1592337278.6598718,-0.2243084696918856,9.780771174229713,0.3249203560784004,-1.8533333333333333,-2.38,-2.04,-0.057863402314628345,-0.07008015588209354,-0.01324083789938156
1592337278.6698718,-0.2695670926517572,9.750173162939298,0.3003463258785942,-1.848927369542066,-2.3744925452609156,-2.033391054313099,-0.07624481989600819,-0.11638833366411827,-0.018506345009525176
1592337278.6798718,-0.23125607233340306,9.740314018083351,0.36780187341654463,-1.8488888888888888,-2.3744444444444444,-2.033333333333333,-0.08058446166810593,-0.1526425023206298,-0.014317816409085748
1592337278.6898718,-0.1632180125975369,9.720919432170726,0.33183886434144966,-1.8488888888888888,-2.3744444444444444,-2.033333333333333,-0.09112831327258021,-0.17462081106768523,-0.014180800172453926
1592337278.6998718,-0.17882272641687064,9.72,0.43352499529278854,-1.8488888888888888,-2.3744444444444444,-2.033333333333333,-0.0854700629138928,-0.18896982208285001,-0.01315417970315234
1592337278.7098718,-0.11033636863176073,9.72,0.4941828243975194,-1.8488888888888888,-2.3744444444444444,-2.033333333333333,-0.08255175991749153,-0.19064890319346067,-0.015623010507189507
1592337278.7198718,-0.07118298188114527,9.701182981881145,0.5852680724754189,-1.8499342787843809,-2.3995338019362507,-2.019743264691938,-0.07565445390758212,-0.1775533682476336,-0.016362461737446838
1592337278.7298717,0.02235418973791066,9.681529162052417,0.5715291620524178,-1.85,-2.401111111111111,-2.0188888888888887,-0.0621707608946334,-0.16059573987504486,-0.015355033806860527
1592337278.7398717,0.058616900434610826,9.699077933623073,0.46507136507309366,-1.85,-2.401111111111111,-2.0188888888888887,-0.047559505599194,-0.12700455848764922,-0.018393250544321352
1592337278.7498717,-0.013813284217796706,9.690773339472775,0.4046400368366525,-1.85,-2.401111111111111,-2.0188888888888887,-0.03482805326005773,-0.09223194642204528,-0.02357648596381053
1592337278.7598717,-0.10892883895131088,9.764107365792759,0.36294631710362046,-1.85,-2.401111111111111,-2.0188888888888887,-0.03381575425739013,-0.08540619437388607,-0.02884859296391002
1592337278.7698717,-0.1221610780319649,9.798919460984019,0.31432215606392977,-1.8390984365750895,-2.3822811379226296,-2.0377188620773703,-0.045491301382961105,-0.07912915894990587,-0.023732526086651037
1592337278.7798717,-0.15524134300688897,9.791189664248277,0.34524134300688897,-1.8377777777777777,-2.38,-2.04,-0.05939948472208759,-0.06989028944184791,-0.016180036622950204
1592337278.7898717,-0.08676814229839815,9.735076106723799,0.3408460177872998,-1.8377777777777777,-2.38,-2.04,-0.07107196939983995,-0.06772379473927288,-0.016270175512954226
1592337278.7998717,-0.05403076577588144,9.74731282281608,0.39193846844823715,-1.8377777777777777,-2.38,-2.04,-0.07105056364178179,-0.06857577651776457,-0.02486087376430554
1592337278.8098717,-0.06452899941415326,9.757264499707077,0.4508514979495364,-1.8377777777777777,-2.38,-2.04,-0.07248886884225278,-0.06159043338735262,-0.030934542719864344
1592337278.8198717,-0.1384597637822389,9.76,0.5384597637822389,-1.8442977552808482,-2.3865199775030703,-2.010660101236183,-0.07415249125149258,-0.0546375469578885,-0.024190292881053427
1592337278.8298717,-0.08886057622701607,9.753607572028377,0.552784855943246,-1.8444444444444446,-2.3866666666666667,-2.01,-0.07626841037166032,-0.04896309335975261,-0.015630608567316743
1592337278.8398716,-0.08577878103837472,9.724221218961626,0.5170353649360422,-1.8444444444444446,-2.3866666666666667,-2.01,-0.07369961383832903,-0.028005377199984253,-0.0015348785276661937
1592337278.8498716,-0.053540016388964766,9.72,0.5555749795137941,-1.8444444444444446,-2.3866666666666667,-2.01,-0.07109707880465088,-0.006197563582607559,0.005965750867835029
1592337278.8598716,-0.013552706552706552,9.712710541310543,0.5162632478632478,-1.8444444444444446,-2.3866666666666667,-2.01,-0.06374759152869161,0.017105904870748267,0.007340141287598518
1592337278.8698716,-0.062182273442265096,9.754415909601617,0.4467009084780585,-1.8523406061513987,-2.3758094443196045,-2.016909141493585,-0.052365480363117084,0.05028323353895134,0.005697805820434202
1592337278.8798716,-0.19035043804755944,9.76859645986054,0.36263186125514035,-1.8533333333333333,-2.3744444444444444,-2.017777777777778,-0.056895416599156735,0.061890263075061305,-0.0001722159093410277
1592337278.8898716,-0.26983581409841567,9.78709594688526,0.21323242491790706,-1.8533333333333333,-2.3744444444444444,-2.017777777777778,-0.071800620311088,0.04555183952234506,-0.004820587806170012
1592337278.8998716,-0.2715081168062852,9.798491883193716,0.2834107151308628,-1.8533333333333333,-2.3744444444444444,-2.017777777777778,-0.09455554990570952,0.012900136232342842,-0.001748870876854912
1592337278.9098716,-0.24183689627870153,9.778877672209026,0.412652414885194,-1.8533333333333333,-2.3744444444444444,-2.017777777777778,-0.11046324261261418,-0.019245217433628583,-0.0026268898059881004
1592337278.9198716,-0.20249821701477333,9.724163695024624,0.6250106979113601,-1.828887304013132,-2.3795373672194864,-2.0300007924378787,-0.1266279864776926,-0.054543095072958805,-0.004272485395950119
1592337278.9298716,-0.11020895386644233,9.65714626770651,0.7746865692003365,-1.8266666666666667,-2.38,-2.031111111111111,-0.12077092295403226,-0.05770266906096615,0.00053401872576638
1592337278.9398715,-0.015934608574207546,9.65,0.7619782028580692,-1.8266666666666667,-2.38,-2.031111111111111,-0.10063226143586024,-0.04660611720777274,-0.0009469718110561673
1592337278.9498715,-0.019509279647687953,9.65,0.7885278389430639,-1.8266666666666667,-2.38,-2.031111111111111,-0.0733330638095148,-0.009509340508123403,0.007207581184755601
1592337278.9598715,-0.02,9.673310780333784,0.7725169147496618,-1.8266666666666667,-2.38,-2.031111111111111,-0.05800936743110832,0.010799569167800952,0.007635815477475192
1592337278.9698715,-0.16379858966140218,9.725949647415352,0.661138469607786,-1.8396484837888767,-2.3859916079025583,-2.0361041176965764,-0.03427131072264857,0.0328216481695477,0.008616190027989155
1592337278.9798715,-0.12881965540945073,9.721469942568243,0.6158797702729671,-1.8411111111111111,-2.3866666666666667,-2.0366666666666666,-0.030863953630288776,0.02171945026745826,0.005935191493064292
1592337278.9898715,-0.1448119349852452,9.71172935500492,0.5438348400393461,-1.8411111111111111,-2.3866666666666667,-2.0366666666666666,-0.028738887079553684,0.013319642178721421,0.004551966497308739
