time,acc_x,acc_y,acc_z,mag_x,mag_y,mag_z,gyr_x,gyr_y,gyr_z
1592336984.4501524,-0.09290300101157695,9.665806002023153,0.42989299763965383,-1.2622222222222221,-1.4733333333333334,-1.8966666666666667,0.03815573309368288,-0.007612471183782112,0.00545415391248228
1592336984.4601524,-0.07108897353257154,9.671188592636,0.46445551323371426,-1.2622222222222221,-1.4733333333333334,-1.8966666666666667,0.053472441859235144,-0.013694779073738346,0.0030240484189043753
1592336984.4701524,-0.047042370181586496,9.722957629818413,0.4311271105447595,-1.265101695515203,-1.4680542989628687,-1.900505964390641,0.07048400147274264,-0.01261881667415349,-0.0009423054316079611
1592336984.4801524,-0.01849858086674458,9.722747871300118,0.420254966966394,-1.268888888888889,-1.461111111111111,-1.9055555555555554,0.06662101940844355,-0.005726087590986655,0.00220947414653914
1592336984.4901524,-0.037446987622861305,9.71,0.36216963960684384,-1.268888888888889,-1.461111111111111,-1.9055555555555554,0.07517924248408564,-0.001090830782496456,-0.0005338498846809868
1592336984.5001523,-0.0861720506448941,9.720468820257958,0.2585935392261271,-1.268888888888889,-1.461111111111111,-1.9055555555555554,0.08716418188594886,-0.0005198452128063219,-0.0037411972034118775
1592336984.5101523,-0.10116987244381453,9.76090544644665,0.19909455355335087,-1.268888888888889,-1.461111111111111,-1.9055555555555554,0.08508480103472357,-0.002889652485497192,-0.0036264878077415076
1592336984.5201523,-0.08573093503790694,9.782923740151627,0.16853812992418613,-1.2636711428241085,-1.4691749004839536,-1.8993891283880877,0.0804279735615954,-0.007942032936917188,-0.002194374681292558
1592336984.5301523,-0.06975317571538357,9.770246824284616,0.12876587857691785,-1.2566666666666666,-1.48,-1.8911111111111112,0.07138210537163604,-0.01261186488059106,0.002740539132617503
1592336984.5401523,-0.06,9.78,0.04583614885102916,-1.2566666666666666,-1.48,-1.8911111111111112,0.06446325581362823,-0.015804016390406444,0.004869648653857552
1592336984.5501523,-0.05485717141928873,9.78514282858071,0.015142828580711268,-1.2566666666666666,-1.48,-1.8911111111111112,0.05606872402984539,-0.014679475019964115,0.0071059802674729765
1592336984.5601523,-0.07133742866351933,9.794267485732703,0.0328024571981116,-1.2566666666666666,-1.48,-1.8911111111111112,0.0467737517985125,-0.013555479870067253,0.006704794517255628
1592336984.5701523,-0.08818527363853476,9.788185273638534,0.07756769484341888,-1.2566666666666666,-1.4747490105060155,-1.8911111111111112,0.03497395243591954,-0.01675837361282565,0.005883749485877567
1592336984.5801523,-0.04749047282992237,9.77562738179252,0.12562738179251942,-1.2566666666666666,-1.4666666666666666,-1.8911111111111112,0.01792611416186942,-0.02256734125267474,0.0059311325665647105
1592336984.5901523,-0.05284740677938467,9.78,0.10715259322061534,-1.2566666666666666,-1.4666666666666666,-1.8911111111111112,0.005248323696353418,-0.02275214448416348,0.005869531489401797
1592336984.6001523,-0.08180717414662368,9.775084304487974,0.07819282585337632,-1.2566666666666666,-1.4666666666666666,-1.8911111111111112,-0.003254099961372393,-0.018759647807403614,0.006544984694978735
1592336984.6101522,-0.04837302582100777,9.77093256455252,0.11162697417899223,-1.2566666666666666,-1.4666666666666666,-1.8911111111111112,-0.01146671255242953,-0.005986579967513766,0.007001662410388383
1592336984.6201522,-0.0744833937012708,9.792758303149364,0.10724169685063539,-1.2566666666666666,-1.4690805656168784,-1.8955365925198329,-0.019616337168149787,-0.0009967416886658021,0.008820735353802301
1592336984.6301522,-0.09524311565696303,9.79427065302911,0.09145869394177812,-1.2566666666666666,-1.4733333333333334,-1.9033333333333333,-0.034535307780635634,-0.002022542739599644,0.011946098998996593
1592336984.6401522,-0.07197187189852582,9.796478903923894,0.028450775822420178,-1.2566666666666666,-1.4733333333333334,-1.9033333333333333,-0.04942537349671888,-0.007912358547966958,0.01554817402544215
1592336984.6501522,-0.05,9.79823702159909,-0.014559255399772642,-1.2566666666666666,-1.4733333333333334,-1.9033333333333333,-0.05781403147231216,-0.012897658279098632,0.017052110461839194
1592336984.6601522,-0.03889885887057447,9.805198478494098,0.017003803764751777,-1.2566666666666666,-1.4733333333333334,-1.9033333333333333,-0.06871255129064552,-0.014464333190629394,0.015675279837110877
1592336984.6701522,-0.010493332457465677,9.795844445904223,0.08950666754253432,-1.2626523462304846,-1.4694602465567452,-1.891714073003569,-0.09314288976985176,-0.012744297203478925,0.016362461737446838
1592336984.6801522,0.01,9.825024354660329,0.10004870932065793,-1.2755555555555556,-1.461111111111111,-1.8666666666666667,-0.11558024268089298,-0.008742586347882095,0.014191426897727559
1592336984.6901522,0.014655016503142378,9.82,0.02017475245286432,-1.2755555555555556,-1.461111111111111,-1.8666666666666667,-0.13407785998800884,0.0021625990295027963,0.008952437430666985
1592336984.7001522,0.024366603832112435,9.811266792335775,-0.06,-1.2755555555555556,-1.461111111111111,-1.8666666666666667,-0.15446876021460967,0.014242565937489219,0.003072540974964665
1592336984.7101521,0.10171835271107248,9.672500706291427,-0.048046941214821254,-1.2755555555555556,-1.461111111111111,-1.8666666666666667,-0.16146855827052287,0.01854412330243975,-0.0026077528935725337
1592336984.7201521,0.1601961904761905,9.43472380952381,-0.07074857142857142,-1.279077037037037,-1.4636264550264548,-1.870691216931217,-0.104706249595686,0.02101355641671982,-0.0006183452207065626
1592336984.7301521,0.09947076552139844,9.379470765521399,-0.12211693791440627,-1.2833333333333334,-1.4666666666666666,-1.8755555555555556,-0.04158846603921479,0.024171468793047147,0.007064559429354082
1592336984.7401521,0.0991358822652016,9.525309998508428,-0.2559267637846169,-1.2833333333333334,-1.4666666666666666,-1.8755555555555556,0.12241588534798212,0.025277629242382325,0.014369321417417764
1592336984.750152,0.06185238437574886,9.811109992810929,-0.46629523124850225,-1.2833333333333334,-1.4666666666666666,-1.8755555555555556,0.1821283279189465,0.028684745567367026,0.007272257497054374
1592336984.760152,0.005976499029049261,9.87171798834859,-0.5820705029128522,-1.2833333333333334,-1.4666666666666666,-1.8755555555555556,0.15999809028306214,0.03753996026739706,-0.0026461930187762777
1592336984.770152,-0.04387339201083277,9.827919431279621,-0.5561266079891672,-1.2833333333333334,-1.4644508387873316,-1.8808735424659595,0.10978277566558137,0.03971126258803077,-0.012427937762719946
1592336984.780152,-0.11,9.87,-0.49,-1.2833333333333334,-1.461111111111111,-1.8888888888888888,0.08617563181722002,0.0370882466048795,-0.016362461737446838
1592336984.790152,-0.0291413489077329,9.837792160386364,-0.4053518279328354,-1.2833333333333334,-1.461111111111111,-1.8888888888888888,0.07258496576860388,0.008387917175240128,-0.002514050391062759
1592336984.800152,0.3354790223205218,10.146017513372001,-0.5005698616533887,-1.2833333333333334,-1.461111111111111,-1.8888888888888888,0.07215807836481695,0.006486244433473475,-0.003393394872322701
1592336984.810152,-0.08668397684928247,9.872935066994371,-0.6154273368746531,-1.2833333333333334,-1.461111111111111,-1.8888888888888888,0.02878511563404487,0.02994785839589959,-0.016906190678186966
1592336984.820152,-0.5055068957173965,9.708009617711106,-0.3764674570529882,-1.277486658870339,-1.4626497096540043,-1.8888888888888888,-0.028714345406801515,0.03730536363184567,-0.005890136515636486
1592336984.830152,0.10278391959798999,9.92202512562814,-0.4956201005025126,-1.2622222222222221,-1.4666666666666666,-1.8888888888888888,-0.06586140260380663,0.030767019259355564,0.0018916869499473721
1592336984.840152,-0.28,9.84,-0.43,-1.2622222222222221,-1.4666666666666666,-1.8888888888888888,-0.09926560120717749,0.05999569303730508,-0.001090830782496456
1592336984.850152,-0.41694885268411186,9.56619709012173,-0.07983575823189247,-1.2622222222222221,-1.4666666666666666,-1.8888888888888888,-0.1230461212803374,0.0675956765194956,0.005146816782508499
1592336984.860152,-0.47419863459037714,9.456279258777633,-0.06343953185955786,-1.2622222222222221,-1.4666666666666666,-1.8888888888888888,-0.060047823116962745,0.08983661737739627,-0.006693218526930464
1592336984.870152,-0.2302790346907994,9.455168740573152,0.01,-1.2700652547343723,-1.4666666666666666,-1.890952844813139,0.022200997763897036,0.10481106900869229,0.012809652203580648
1592336984.880152,-0.18,9.65,0.01,-1.2833333333333334,-1.4666666666666666,-1.8944444444444444,0.10035643198967394,0.08835729338221293,0.014180800172453926
1592336984.890152,-0.40803357451311234,9.654454771641834,-0.5387325192324192,-1.2833333333333334,-1.4666666666666666,-1.8944444444444444,0.17115673732413111,0.08152358964093326,0.0476559876196369
1592336984.900152,-0.09971587664191883,10.057115219874357,-0.476128640776699,-1.2833333333333334,-1.4666666666666666,-1.8944444444444444,0.13886109215129444,0.08779638146571364,0.019345815400226802
1592336984.910152,-0.7079602665350444,9.647337117472853,-0.25043435340572556,-1.2833333333333334,-1.4666666666666666,-1.8944444444444444,0.05311594820460809,0.09645560818948302,-0.01308996938995747
1592336984.920152,-0.3955642897248738,9.775749578888265,-0.5364682762492982,-1.2833333333333334,-1.4666666666666666,-1.9025017156404018,0.00537575619201089,0.06087521746384349,-0.007816497723874098
1592336984.930152,0.94,10.09,-0.89,-1.2833333333333334,-1.4666666666666666,-1.9177777777777778,0.001090830782496456,0.02945243112740431,0.002181661564992912
1592336984.940152,-0.9852088841882602,9.589312004230566,0.14145319936541517,-1.2833333333333334,-1.4666666666666666,-1.9177777777777778,0.09272061651219875,0.09529090457014136,-0.05085094304853733
1592336984.950152,-0.1567190401371233,9.81965290672761,-0.2815140694186545,-1.2833333333333334,-1.4666666666666666,-1.9177777777777778,0.1047989069604694,0.07886327937423457,-0.003172695587570931
1592336984.960152,0.21879392289880975,9.662413372872404,0.03275866271275948,-1.2833333333333334,-1.4666666666666666,-1.9177777777777778,0.11634277268548981,0.09887051458993175,0.015045905155460722
1592336984.970152,-0.02350373065301844,9.731533575877165,-0.03521828944934327,-1.2873032757120444,-1.4601703973196851,-1.9130860276938466,0.08779620532818358,0.1466847895383869,0.01838497514733174
1592336984.980152,-0.01,9.61,-0.15,-1.2955555555555556,-1.4466666666666668,-1.9033333333333333,0.04581489286485115,0.1636246173744684,0.002181661564992912
1592336984.990152,-0.5075325546014801,9.670825662051005,-0.08117815425079292,-1.2955555555555556,-1.4466666666666668,-1.9033333333333333,0.045313989985227184,0.15781124116438516,-0.0034141729295123855
1592336985.0001519,-0.12532753568390204,9.676600103979581,-0.03238302297003498,-1.2955555555555556,-1.4466666666666668,-1.9033333333333333,0.07641803755922442,0.1515553878109244,0.02816153564826935
1592336985.0101519,0.1593684045349339,9.967294731473853,-0.17754736965987997,-1.2955555555555556,-1.4466666666666668,-1.9033333333333333,0.07821715877040572,0.1609423230636269,0.017418844331174334
1592336985.0201519,-0.15940434253506694,9.844531800422724,-0.19514891436623327,-1.2940732793896823,-1.4499007237558446,-1.9042765999843436,0.049249825586983716,0.18137498364623228,0.001090830782496456
1592336985.0301518,-0.21585505176722597,9.656763655837201,-0.172945376651196,-1.2833333333333334,-1.4733333333333334,-1.9111111111111112,0.007731034372984075,0.17244648252994893,0.0056802257686904885
1592336985.0401518,-0.08725788718929253,9.655559751434035,-0.2,-1.2833333333333334,-1.4733333333333334,-1.9111111111111112,0.0059426291883153,0.16398685453727924,0.014665156154223029
1592336985.0501518,-0.21841468661853994,9.67,-0.17475594014438017,-1.2833333333333334,-1.4733333333333334,-1.9111111111111112,0.02619328929291007,0.15589566120867562,0.01400786930881391
1592336985.0601518,-0.18334735205596858,9.703047377967351,-0.09583683801399215,-1.2833333333333334,-1.4733333333333334,-1.9111111111111112,0.049934789684003424,0.1446872201250514,0.014817500430264738
1592336985.0701518,0.004370560677043978,9.812185280338522,-0.03688831796886807,-1.2817550753110676,-1.472604906553826,-1.9102612798683527,0.06183792274780801,0.1370689791305502,0.009221534277057089
1592336985.0801518,0.011267651056183919,9.884591462993251,-0.007577342148303426,-1.268888888888889,-1.4666666666666666,-1.9033333333333333,0.03513399326779179,0.1410183046661551,0.0006022674482245292
1592336985.0901518,-0.08117211360411707,9.94589760238559,-0.1841209147969122,-1.268888888888889,-1.4666666666666666,-1.9033333333333333,-0.017193537177416784,0.13115742933083332,-0.010170095838089328
1592336985.1001518,-0.14542184481072443,9.704758008730291,-0.07764878467666914,-1.268888888888889,-1.4666666666666666,-1.9033333333333333,-0.06393203018964697,0.11080457850966391,-0.014772231694199613
1592336985.1101518,-0.17112381287372494,9.64559620119592,0.03660569820612029,-1.268888888888889,-1.4666666666666666,-1.9033333333333333,-0.07259530655669257,0.08834981142644131,-0.01611977778741905
1592336985.1201518,-0.20299790507837895,9.75054973632883,-0.1328837679693708,-1.2694075625867869,-1.4666666666666666,-1.9060131474391389,-0.05435935312690819,0.0641768301693763,-0.014592688672064487
1592336985.1301517,-0.12,9.52,0.07,-1.2755555555555556,-1.4666666666666666,-1.9377777777777778,-0.039269908169872414,0.04908738521234052,-0.006544984694978735
1592336985.1401517,-0.07394101734471968,9.742891317031773,-0.04130748422001803,-1.2755555555555556,-1.4666666666666666,-1.9377777777777778,0.003672245695830109,0.041967852717532055,0.0020671570236169773
1592336985.1501517,-0.19051265778153867,9.79474367110923,-0.14057753331922995,-1.2755555555555556,-1.4666666666666666,-1.9377777777777778,0.0427101673840584,0.05138089135513117,-0.004992621954582362
1592336985.1601517,-0.23721082487851494,9.790756765549071,-0.025697293780371267,-1.2755555555555556,-1.4666666666666666,-1.9377777777777778,0.050482467802865895,0.05781403147231216,-0.009817477042468103
1592336985.1701517,-0.27049754879571264,9.83,-0.013051977710788344,-1.273633939959874,-1.4653102321285385,-1.936986524297203,0.04096987831232144,0.05725916626657533,-0.009262611836731272
1592336985.1801517,-0.06708452804220667,9.83285422640211,-0.05427113201055167,-1.2566666666666666,-1.4533333333333334,-1.93,0.004999380441399059,0.051425834153939066,-0.005608714337840248
1592336985.1901517,-0.2411540959942259,9.829615301335258,-0.11336557199566943,-1.2566666666666666,-1.4533333333333334,-1.93,-0.03524229795627525,0.048237789039556736,-0.010992236054061725
1592336985.2001517,-0.34794711108050413,9.764105777838992,-0.17230838096549825,-1.2566666666666666,-1.4533333333333334,-1.93,-0.06220522446114422,0.04497586738384413,-0.014376865756250894
1592336985.2101517,-0.30854543277864244,9.654284089548666,-0.07759846761642523,-1.2566666666666666,-1.4533333333333334,-1.93,-0.0689830652229626,0.0429580732553824,-0.0010895901632657938
1592336985.2201517,0.0713563160543533,9.636050578761953,0.222220684448918,-1.2586355057876195,-1.4533333333333334,-1.9299519795336353,-0.08328681051307096,0.04538407783890042,0.016887564728618385
1592336985.2301517,-0.16793673380035026,9.764954028021016,0.044954028021015766,-1.3022222222222222,-1.4533333333333334,-1.9288888888888889,-0.05772376570265725,0.0699034358494281,0.0027120326612986535
1592336985.2401516,-0.3441354372123603,9.76706771860618,0.005346628679962009,-1.3022222222222222,-1.4533333333333334,-1.9288888888888889,-0.02753413399634746,0.09947246779431759,-0.0011473286292924226
1592336985.2501516,-0.40775484373478726,9.787278745983837,-0.09367344951806056,-1.3022222222222222,-1.4533333333333334,-1.9288888888888889,-0.026528715752918382,0.09736591371749642,0.0048827714171234115
1592336985.2601516,-0.06720039800233445,9.593644400221963,-0.06635559977803716,-1.3022222222222222,-1.4533333333333334,-1.9288888888888889,-0.027847796733382377,0.08458546223887842,0.009914451838501063
1592336985.2701516,0.0772618204779855,9.609695757830886,-0.05030424216911272,-1.3022222222222222,-1.4533333333333334,-1.9288888888888889,0.00804629897699826,0.07758173624660902,0.005537123093332692
1592336985.2801516,-0.21522020633226613,9.829690738764379,-0.2031865291118226,-1.2755555555555556,-1.4533333333333334,-1.951111111111111,0.06536294784867493,0.10342139096737353,0.0009701965138190938
1592336985.2901516,-0.11379617805345255,9.927812870564626,-0.30982121682021346,-1.2755555555555556,-1.4533333333333334,-1.951111111111111,0.04774302557516916,0.10220200364537402,0.005434651692891902
1592336985.3001516,-0.34481286603221084,9.96518713396779,-0.29058061859443635,-1.2755555555555556,-1.4533333333333334,-1.951111111111111,-0.0049333441021166815,0.08978311941599582,0.002874161432632843
1592336985.3101516,-0.3393292453763228,9.895202254969835,-0.29596518643062014,-1.2755555555555556,-1.4533333333333334,-1.951111111111111,-0.05525535306897368,0.0816117926064956,0.006584082417812947
1592336985.3201516,0.0008276134902581167,9.8122371674414,-0.10514548511522104,-1.2755555555555556,-1.4533333333333334,-1.951111111111111,-0.12041598043991458,0.07437172289861327,0.012919143412209979
1592336985.3301516,-0.1380443714050945,9.70210079430293,-0.009709668583949602,-1.2833333333333334,-1.4533333333333334,-1.9644444444444444,-0.18550457351354824,0.07725149469249072,0.010354974872572493
1592336985.3401515,-0.25,9.62,0.05,-1.2833333333333334,-1.4533333333333334,-1.9644444444444444,-0.19853120241435498,0.09272061651219875,0.008726646259971648
1592336985.3501515,0.10293234442836469,9.48413531114327,0.06096676659086211,-1.2833333333333334,-1.4533333333333334,-1.9644444444444444,-0.13978332890845382,0.1011625462406629,0.030341733347153527
1592336985.3601515,0.14957083525611445,9.413802491924319,0.2695108444854638,-1.2833333333333334,-1.4533333333333334,-1.9644444444444444,-0.048284992841644,0.10403716788335834,0.02854231481233574
1592336985.3701515,0.09159457219169251,9.597638534982961,0.025429036318423234,-1.2838445952168975,-1.4528220714497693,-1.963336710363389,0.05200536509049923,0.10261843319323896,0.02358331745604463
1592336985.3801515,-0.13,9.81,-0.15,-1.29,-1.4466666666666668,-1.95,0.1265363707695889,0.11671889372712078,0.00545415391248228
1592336985.3901515,-0.09687000994459441,10.006101718994175,-0.11945759340815457,-1.29,-1.4466666666666668,-1.95,0.14208657501827637,0.12277947454940065,0.0005645231388660449
1592336985.4001515,-0.28165630929791274,9.796404411764705,-0.2506487191650854,-1.29,-1.4466666666666668,-1.95,0.07372931986028353,0.12923596996750433,-0.013199880423260245
1592336985.4101515,-0.0497585941226107,9.613887074879848,-0.09772095241589317,-1.29,-1.4466666666666668,-1.95,0.05538376438136746,0.1283524877637441,-0.0034099617585718533
1592336985.4201515,-0.1343924496459625,9.844706680852624,-0.2592946765968375,-1.29,-1.4466666666666668,-1.95,0.07300872357928406,0.1174417987364624,0.010018578582697942
1592336985.4301515,0.15492833851520438,9.742292661965067,-0.44917064786026645,-1.288888888888889,-1.4533333333333334,-1.9766666666666666,0.09792467980014569,0.1383332585798099,0.020316071902717038
1592336985.4401515,-0.4,9.75,-0.48,-1.288888888888889,-1.4533333333333334,-1.9766666666666666,0.09708393964218458,0.15598880189699318,0.015271630954950384
1592336985.4501514,-0.40477198027937555,9.815466310599836,-0.356398931799507,-1.288888888888889,-1.4533333333333334,-1.9766666666666666,0.009424661438171413,0.1527352444716733,0.024353222974879792
1592336985.4601514,-0.04879358500765835,9.722198396251915,-0.06411262275880711,-1.288888888888889,-1.4533333333333334,-1.9766666666666666,-0.019054737073714828,0.1607931355583078,0.03756786226562216
1592336985.4701514,0.10236597891701955,9.684408505270746,0.10972087575457248,-1.288888888888889,-1.4533333333333334,-1.9766666666666666,-0.02152807965468152,0.1682131633012079,0.029323386995733183
1592336985.4801514,-0.19,9.8,-0.27,-1.3044444444444445,-1.4466666666666668,-1.9822222222222223,0.00545415391248228,0.20398535632683729,0.01854412330243975
1592336985.4901514,-0.479114932885906,9.477401845637585,-0.06001426174496645,-1.3044444444444445,-1.4466666666666668,-1.9822222222222223,0.06227545616260304,0.21778464026336605,0.003130007152158245
1592336985.5001514,-0.265752786557977,9.667592271312119,-0.28551845426242367,-1.3044444444444445,-1.4466666666666668,-1.9822222222222223,0.11797395705963541,0.18102678651814713,0.00040131331875003297
1592336985.5101514,-0.36767835084948264,9.793080412287628,-0.314620618431444,-1.3044444444444445,-1.4466666666666668,-1.9822222222222223,0.14541898891663055,0.15556259085375426,0.003189724128830837
1592336985.5201514,-0.29932430075013083,9.810627435017736,-0.3399517357678665,-1.3043479159801774,-1.4467363816686374,-1.982350926841245,0.15921391094538825,0.12307434522572228,0.008737175881992605
1592336985.5301514,-0.16546904536862003,10.001982514177692,-0.36281427221172025,-1.2844444444444445,-1.461111111111111,-2.008888888888889,0.137909931326691,0.08160764903664294,0.010311727521068518
1592336985.5401514,-0.1917489334318469,10.215289463021664,-0.4522851967490526,-1.2844444444444445,-1.461111111111111,-2.008888888888889,0.06175591439007434,0.06995010565027177,0.007635815477475192
1592336985.5501513,-0.13031895916085912,9.925678234188807,-0.17825797397902146,-1.2844444444444445,-1.461111111111111,-2.008888888888889,-0.07682385231572256,0.06659000031434327,0.00953607108506838
1592336985.5601513,0.16682268370607028,9.896140575079873,-0.10797284345047924,-1.2844444444444445,-1.461111111111111,-2.008888888888889,-0.18778024605849494,0.07671537571790171,0.016655905673185502
1592336985.5701513,-0.02580690894568688,9.293126198083067,0.2521607428115017,-1.2844444444444445,-1.461111111111111,-2.008888888888889,-0.18869383862060055,0.10412315258106995,0.005692794927918205
1592336985.5801513,-0.2,9.32,0.14,-1.2977777777777777,-1.4466666666666668,-2.017777777777778,-0.007635815477475192,0.148352986419518,-0.006544984694978735
1592336985.5901513,-0.19007514289140254,9.667369998800911,-0.10812142771493663,-1.2977777777777777,-1.4466666666666668,-2.017777777777778,0.07247909790245778,0.1396919147027685,-4.9180907416603026e-05
1592336985.6001513,0.0933363290211196,9.577454769056121,-0.2537251377622212,-1.2977777777777777,-1.4466666666666668,-2.017777777777778,0.1677315051054046,0.1177027130372573,0.011999138607461015
1592336985.6101513,0.334253408778341,9.914035718495814,-0.23360033793076349,-1.2977777777777777,-1.4466666666666668,-2.017777777777778,0.1860282044863609,0.11099500040977975,0.011459659797743525
1592336985.6201513,0.029351251522653166,9.7409831427561,-0.32424692522299503,-1.2977777777777777,-1.4466666666666668,-2.017777777777778,0.16085872760540354,0.10919718063256852,0.007864020243321047
1592336985.6301513,0.09393797102810321,10.104980161059329,-0.5847096940811871,-1.298888888888889,-1.4733333333333334,-2.0355555555555553,0.11271137817258688,0.12046520713222449,-0.010019672450817117
1592336985.6401513,-0.052049286640726326,9.748197146562905,-0.16385214007782103,-1.298888888888889,-1.4733333333333334,-2.0355555555555553,0.05170434155132575,0.12109565770332413,-0.028953233382798822
1592336985.6501513,0.013744780239224291,9.56886403850237,-0.3241234340717673,-1.298888888888889,-1.4733333333333334,-2.0355555555555553,-0.035992860721797915,0.1048023645709494,-0.015095680544212932
1592336985.6601512,0.1064456376374778,9.732811632966726,-0.3199203576917703,-1.298888888888889,-1.4733333333333334,-2.0355555555555553,-0.11021007482247172,0.0902235657401466,0.007013724691497303
1592336985.6701512,0.15667777799956087,9.598859258667838,-0.08550370266871599,-1.298888888888889,-1.4733333333333334,-2.0355555555555553,-0.10199086007582531,0.07926461274461802,0.010666709023340163
1592336985.6801512,0.17,9.72,0.05,-1.281111111111111,-1.48,-2.033333333333333,-0.05999569303730508,0.06763150851478027,0.01090830782496456
1592336985.6901512,0.17077717955527658,9.596839373234506,-0.22453366812332504,-1.281111111111111,-1.48,-2.033333333333333,-0.012230873319916322,0.0363054473256081,0.03350772275416508
1592336985.7001512,0.44814193578870276,9.69688936662808,-0.3771189964327057,-1.281111111111111,-1.48,-2.033333333333333,0.046775918675544946,0.051688071760758326,0.016134729647746603
1592336985.7101512,-0.038613868846900136,9.939604016351751,-0.34306934423450064,-1.281111111111111,-1.48,-2.033333333333333,0.07363649262007037,0.055103157821686725,-0.007149798507130191
1592336985.7201512,-0.022811069457265038,9.821083020929489,-0.2640553472863252,-1.281111111111111,-1.48,-2.033333333333333,0.042607768577176054,0.04906979481334617,-0.014045070516662261
1592336985.7301512,-0.14078377027579625,9.86502362669817,-0.38695942568949065,-1.3166666666666667,-1.48,-2.071111111111111,-0.03183494651338259,0.02874375540640265,-0.02143961513436461
1592336985.7401512,-0.050091605952013674,9.742178845195435,-0.19009160595201366,-1.3166666666666667,-1.48,-2.071111111111111,-0.07961066180377802,0.003287481336336828,-0.017535848453336302
1592336985.7501512,0.19722144880226586,9.622513561518891,0.07336277663098267,-1.3166666666666667,-1.48,-2.071111111111111,-0.13451973768018916,-0.04007691662789425,-0.0033362214561398497
1592336985.7601511,0.031070251774248058,9.405396459952687,0.10958093950659006,-1.3166666666666667,-1.48,-2.071111111111111,-0.10254795490087563,-0.048995960395152575,0.011405545471066621
1592336985.7701511,0.18167666441365327,9.75090528894897,-0.03216627238932074,-1.3166666666666667,-1.48,-2.071111111111111,-0.013640177211138943,-0.01807151598133111,0.018170267686590063
1592336985.7801511,0.04,9.93,-0.14,-1.3244444444444445,-1.4933333333333334,-2.088888888888889,0.05999569303730508,0.00545415391248228,0.011999138607461015
1592336985.7901511,-0.327643905522133,9.98907628923898,-0.3827175261593202,-1.3244444444444445,-1.4933333333333334,-2.088888888888889,0.05297611434613076,0.03560021849047611,0.0018311933309573807
1592336985.800151,-0.2193049007001,9.490761299233224,-0.051059198933180935,-1.3244444444444445,-1.4933333333333334,-2.088888888888889,-0.018529680717425986,0.017442460581182973,-0.014141083063666075
1592336985.810151,-0.010241993484790794,9.71996277023311,-0.36949739814697297,-1.3244444444444445,-1.4933333333333334,-2.088888888888889,-0.014138158227916687,0.014225472685778654,-0.002151203033180598
1592336985.820151,-0.12558213817320305,9.702218132588737,-0.1299447899479629,-1.3244444444444445,-1.4933333333333334,-2.088888888888889,0.00618605858714499,0.03551750934917661,0.012366094691863458
1592336985.830151,0.038770789342570416,9.349408289639138,-0.11520486844290494,-1.3066666666666666,-1.5122222222222221,-2.1166666666666667,0.0681711396482789,0.012684424338788535,-0.013008860379723684
1592336985.840151,-0.3337086177748293,9.838120225127865,-0.18814569111258533,-1.3066666666666666,-1.5122222222222221,-2.1166666666666667,0.12068600313818875,0.006952310045912432,-0.011383983719054531
1592336985.850151,-0.10033790579725649,9.811192835284299,-0.30483104710137177,-1.3066666666666666,-1.5122222222222221,-2.1166666666666667,0.19313995994784477,-0.0028387651986356757,-0.0025720159989612336
1592336985.860151,-0.1871146653934909,10.17804647091589,-0.5735123736770907,-1.3066666666666666,-1.5122222222222221,-2.1166666666666667,0.24273914451320336,0.001180756834113097,-0.004543175233219106
1592336985.870151,-0.12870752765178642,9.93607404312883,-0.23975730086735103,-1.3066666666666666,-1.5122222222222221,-2.1166666666666667,0.18812859842792184,0.003001108370289147,-0.008183878305571208
1592336985.880151,-0.15,10.1,-0.49,-1.3277777777777777,-1.52,-2.131111111111111,0.07853981633974483,0.0032724923474893677,0.001090830782496456
1592336985.890151,0.0511003694445059,9.637615866203571,-0.13908302546291176,-1.3277777777777777,-1.52,-2.131111111111111,-0.00255121629815555,-0.002201666846029338,-0.006625005819124439
1592336985.900151,0.1067732230161715,9.516991350131628,-0.09268898081985708,-1.3277777777777777,-1.52,-2.131111111111111,-0.07643897224904744,-0.0032138278864525145,-0.010673649980817147
1592336985.910151,-0.07945765805082225,9.79050901588939,-0.2883729741524667,-1.3277777777777777,-1.52,-2.131111111111111,-0.10610275223936966,0.0012978919349772356,-0.00011832065856044556
1592336985.920151,-0.0628172422685525,9.499301739699668,-0.23845172680565752,-1.3277777777777777,-1.52,-2.131111111111111,-0.08159771725143611,0.007651049154071123,-0.0037486962123283816
1592336985.930151,-0.19381115619101344,9.908860081143825,-0.09480137120045129,-1.3511111111111112,-1.5644444444444445,-2.1644444444444444,-0.016275793573911613,0.01674051669220153,0.0075818076267959505
1592336985.940151,0.033689874378945994,9.499358226117899,0.09629949447831468,-1.3511111111111112,-1.5644444444444445,-2.1644444444444444,0.06710768916373573,0.030637763815142757,0.005596486609232919
1592336985.950151,0.022215033301617507,10.28502568981922,-0.4549609895337774,-1.3511111111111112,-1.5644444444444445,-2.1644444444444444,0.142795665447302,0.05689134016342601,0.008485023609005734
1592336985.960151,0.1976458834857968,9.760963649494464,-0.1260086663456909,-1.3511111111111112,-1.5644444444444445,-2.1644444444444444,0.1585520178979436,0.074203409472447,-0.00147238521845393
1592336985.970151,-0.11958845537145915,9.907266167824693,-0.12996258685195083,-1.3511111111111112,-1.5644444444444445,-2.1644444444444444,0.08980755611415303,0.065462090373856,-0.0029987643665262
1592336985.980151,0.22,9.74,-0.13,-1.3244444444444445,-1.5766666666666667,-2.1955555555555555,-0.12435470920459597,0.053450708342326333,0.009817477042468103
1592336985.990151,0.07730266125394678,9.508116824537664,-0.13,-1.3244444444444445,-1.5766666666666667,-2.1955555555555555,-0.12435470920459597,0.053450708342326333,0.009817477042468103
1592336986.000151,0.07954032762285856,9.48977016381143,0.1631049143428786,-1.3244444444444445,-1.5766666666666667,-2.1955555555555555,-0.0913161633544221,0.058779506060096326,0.014080515216684089
1592336986.010151,-0.21184728479962056,9.597010671093194,-0.20940147023950675,-1.3244444444444445,-1.5766666666666667,-2.1955555555555555,0.08561803285237549,0.06102723560179153,0.008874866804996658
1592336986.020151,-0.007995522954849787,9.640770091739451,0.0164665320888214,-1.3244444444444445,-1.5766666666666667,-2.1955555555555555,0.11900184843494899,0.05841812755532561,-0.004615335062407957
1592336986.030151,0.06830141332564177,9.79150706662821,-0.0809408710700894,-1.344360253821748,-1.621739287888985,-2.2238569688811975,0.14705597697772824,0.06913378418169283,-0.0024904733368476192
1592336986.040151,0.2557534112583753,9.887988457964495,-0.08022350467061183,-1.3455555555555556,-1.6244444444444444,-2.2255555555555557,0.12382463170399027,0.10180667623046152,-0.001115211359969967
1592336986.0501509,-0.10247295909839782,10.223083259712041,-0.285727895704496,-1.3455555555555556,-1.6244444444444444,-2.2255555555555557,0.05273366310839861,0.11429312944028369,-0.013914506294078439
1592336986.0601509,0.5070702231121282,9.769646024027459,0.2095330377574371,-1.3455555555555556,-1.6244444444444444,-2.2255555555555557,-0.037411735968081214,0.0985105846780168,-0.002427925350772466
1592336986.0701509,0.383269117819805,9.920859861388465,-0.14193468812404555,-1.3455555555555556,-1.6244444444444444,-2.2255555555555557,-0.08576969361459477,0.09642006153997452,0.007469237300892859
1592336986.0801508,0.0683575011399909,9.134496124031006,0.3235731874145008,-1.3595837259968588,-1.6730034959720321,-2.2600864366418403,-0.056826961429090106,0.11718099212973784,0.005579900388458159
1592336986.0901508,0.041144355265276086,9.600246763102822,-0.13139111836809786,-1.36,-1.6744444444444444,-2.261111111111111,0.044123970939882975,0.1034119021192994,0.01985197630280013
1592336986.1001508,0.26582814624025186,9.23480074407956,-0.05649543297321791,-1.36,-1.6744444444444444,-2.261111111111111,0.13537090082090852,0.1251192871230232,0.00019742707801782833
1592336986.1101508,0.006074480051695641,9.748405332312183,-0.2955883971950315,-1.36,-1.6744444444444444,-2.261111111111111,0.25817899293131574,0.10902013415715348,-0.012424866237601735
1592336986.1201508,0.03699225235196458,9.615527116768124,-0.1846873270614278,-1.36,-1.6744444444444444,-2.261111111111111,0.2778870289977299,0.1250791126019373,-0.025050774984309174
1592336986.1301508,0.08,9.79,-0.23,-1.3633333333333333,-1.7333333333333334,-2.2533333333333334,0.19198621771937624,0.08835729338221293,-0.032724923474893676
1592336986.1401508,-0.3735780687527196,9.991590252778986,-0.23,-1.3633333333333333,-1.7333333333333334,-2.2533333333333334,0.1356366240913452,0.057433735903415405,-0.03135054314250268
1592336986.1501508,-0.244513589027178,9.990434340868681,-0.19321056642113285,-1.3633333333333333,-1.7333333333333334,-2.2533333333333334,0.03732514279970664,0.014188004033349255,-0.014490843262525945
1592336986.1601508,0.014529466657095674,9.89580145000359,0.01581867776900439,-1.3633333333333333,-1.7333333333333334,-2.2533333333333334,-0.07960206674498112,-0.028821470360384255,0.023648578681103267
1592336986.1701508,-0.0633055984785451,9.57898133840485,0.13108106501842387,-1.3633333333333333,-1.7333333333333334,-2.2533333333333334,-0.07539205704975713,-0.046901185542344945,0.025331766954917845
1592336986.1801507,0.008676347747863522,9.657749791171367,0.13039709567564095,-1.360044121741738,-1.789249930390456,-2.2675865835635802,-0.0009529612104878099,-0.0480398708485026,0.033700243807634034
1592336986.1901507,-0.0603423395160974,9.63889729814517,0.017452256774244154,-1.36,-1.79,-2.267777777777778,0.02378679266966253,-0.044159974966995266,0.0307464906871111
1592336986.2001507,0.031669298197854856,10.060522132084717,0.2133385963957097,-1.36,-1.79,-2.267777777777778,0.011355342359719873,-0.04764703958501411,0.01618036955150825
1592336986.2101507,0.05931296193276644,9.896870380672334,0.04330803464992447,-1.36,-1.79,-2.267777777777778,-0.03793478261307134,-0.030440576615307503,0.0047380442662284476
1592336986.2201507,0.3909711257705202,9.932653833675786,0.28236920082188816,-1.36,-1.79,-2.267777777777778,-0.12971571723345554,-0.0004963297755245615,-0.001090830782496456
1592336986.2301507,-0.12382071423856356,9.516602416001056,0.32532048320021123,-1.355792021475565,-1.8573276563909609,-2.3098575630221285,-0.19626774114186218,0.03655402826866317,-0.030009043573684436
1592336986.2401507,-0.07284343061438621,9.734038394279718,0.24446430653246803,-1.3555555555555556,-1.8611111111111112,-2.312222222222222,-0.2118414320439212,0.038179077387375956,-0.020225324438483332
1592336986.2501507,0.37411537513353604,9.892928205549621,0.35218204727860414,-1.3555555555555556,-1.8611111111111112,-2.312222222222222,-0.23633659996592135,0.05121478461662415,-0.009205772772622117
1592336986.2601507,-0.12098050055281934,9.558929540657353,0.26044677857071064,-1.3555555555555556,-1.8611111111111112,-2.312222222222222,-0.1476033075095452,0.010314320915307859,-0.020764707867511688
1592336986.2701507,-0.1745532661923681,9.420721611383165,0.30463919430841724,-1.3555555555555556,-1.8611111111111112,-2.312222222222222,-0.08896454233948367,0.0030681946485038446,-0.011386245510504446
1592336986.2801507,0.36878472958642633,9.61584093319194,0.24995334040296927,-1.3631775656887002,-1.927803699776128,-2.314127724755508,0.09230001622321071,0.006392060167464388,0.016056612682418137
1592336986.2901506,0.22270322270322274,9.590901074234408,0.09041366041366042,-1.3644444444444443,-1.9388888888888889,-2.3144444444444443,0.18848810861552634,0.012711318012034619,0.011945970007512494
1592336986.3001506,-0.26544643374471294,9.47514079610638,-0.003708789617011418,-1.3644444444444443,-1.9388888888888889,-2.3144444444444443,0.32840674532027,0.03843005884848573,-0.026369486350267042
1592336986.3101506,0.10924859884107535,9.914916880402775,-0.3322437541559799,-1.3644444444444443,-1.9388888888888889,-2.3144444444444443,0.33644839819026906,0.029475849742094554,-0.02619164808726006
1592336986.3201506,-0.2085949915723574,9.687759450999279,0.2072848944538086,-1.3644444444444443,-1.9388888888888889,-2.3144444444444443,0.3147813120723545,0.057100162880524316,-0.021164187823982578
1592336986.3301506,0.081700826557355,9.118901283515893,-0.17086284523889522,-1.3466928745828013,-1.9879667585063727,-2.3144444444444443,0.2890958869230591,0.06257143472370791,-0.015534351035890327
1592336986.3401506,-0.04020886050528176,9.474534682893522,-0.0898329115957746,-1.3455555555555556,-1.991111111111111,-2.3144444444444443,0.3391012906180421,0.07331932112361365,-0.011339172182721322
1592336986.3501506,-0.16487693025183958,9.390015286558192,0.1392615815110374,-1.3455555555555556,-1.991111111111111,-2.3144444444444443,0.40020064890651186,0.11328530345600644,-0.02139035619657614
1592336986.3601506,-0.6013445023229621,9.626918203575954,0.1036393073349289,-1.3455555555555556,-1.991111111111111,-2.3144444444444443,0.422076415507722,0.08832151081536489,-0.029427398687935508
1592336986.3701506,-0.5313804144624319,10.138272741736605,-0.30999721570343264,-1.3455555555555556,-1.991111111111111,-2.3144444444444443,0.390818579851376,0.08632605981622225,-0.03355242932922614
1592336986.3801506,-0.5733026057030481,10.485674778761062,-0.4090695673549656,-1.3509509177318912,-2.070243089697367,-2.261390049710477,0.26930810057482935,0.08394322302371496,-0.03667221318328578
1592336986.3901505,-0.5496754102287699,10.499031420928654,-0.35225655767157743,-1.3522222222222222,-2.088888888888889,-2.2488888888888887,0.14095936002582382,0.07604118801486015,-0.03159868544098309
1592336986.4001505,-0.13344371622398526,10.021052086926527,-0.06371162469817176,-1.3522222222222222,-2.088888888888889,-2.2488888888888887,-0.14308534111616214,0.05193480851051627,-0.017124926992913778
1592336986.4101505,-0.806350693947632,9.941201650212237,0.3790551819525922,-1.3522222222222222,-2.088888888888889,-2.2488888888888887,-0.25029171353979984,0.033614465360672495,-0.012574989254480714
1592336986.4201505,-0.10430258214562582,9.578986820919553,0.10959866420180098,-1.3522222222222222,-2.088888888888889,-2.2488888888888887,-0.2635729446042209,0.017802309799349002,-0.004504460895371743
1592336986.4301505,-0.42616553302396537,9.126864789269595,0.37470281609560746,-1.3522222222222222,-2.1481067107409997,-2.2044755224998056,-0.18749384773374067,0.019266258689186817,0.0007259492379349944
1592336986.4401505,-0.13791583411491248,9.432950699343474,0.15466052277453823,-1.3522222222222222,-2.16,-2.1955555555555555,-0.0994521140103014,0.023239548647575374,0.00046238983746077803
1592336986.4501505,-0.5372810662485299,9.394949431595453,0.44941042728341835,-1.3522222222222222,-2.16,-2.1955555555555555,0.03332768124479058,0.039478666926444264,-0.004496737165320553
1592336986.4601505,-0.32070866141732285,9.325383858267717,0.2968799212598425,-1.3522222222222222,-2.16,-2.1955555555555555,0.0839155936310438,0.040528228718185254,-0.006461239812070543
1592336986.4701505,-0.5004584010508271,9.628375893314336,0.27949573658080457,-1.3522222222222222,-2.16,-2.1955555555555555,0.1486644476654943,0.04779010358757938,0.0033482144656144415
1592336986.4801505,0.4086154798761611,9.794338080495356,-0.3174340557275542,-1.3443912624699002,-2.190453732370141,-2.156400756793946,0.12176758279828256,0.07736901381443254,-0.005558576475314447
1592336986.4901505,0.21977194801052546,10.027700342875368,0.014549876405390294,-1.3422222222222222,-2.198888888888889,-2.1455555555555557,0.06585874540354031,0.08022246696468653,-0.01453185615189382
1592336986.5001504,1.0832328527741373,10.082836937527304,-0.06418004587155968,-1.3422222222222222,-2.198888888888889,-2.1455555555555557,-0.055894027520475426,0.10414452535496029,-0.0149503445948917
1592336986.5101504,-0.9063894580654279,10.311076567983232,0.9243062719329236,-1.3422222222222222,-2.198888888888889,-2.1455555555555557,-0.14931451242968577,0.1388962935848409,-0.01648328835065207
1592336986.5201504,-1.0421869444788954,9.849061970317086,0.6148431105047749,-1.3422222222222222,-2.198888888888889,-2.1455555555555557,-0.19655409698766477,0.15203454594746235,-0.017453292519943295
1592336986.5301504,1.0554999091624777,9.761549990916247,-0.27043692848059103,-1.3404681160297949,-2.2322169065450117,-2.0727601485698135,-0.21546682428529246,0.17470200297983624,-0.010564933610259989
1592336986.5401504,0.29474338395686717,9.963105321644647,-0.01171914228094001,-1.34,-2.241111111111111,-2.0533333333333332,-0.23767347211385503,0.18054378577129523,-0.010396766238111671
1592336986.5501504,-0.3831057252004958,9.980776431300123,0.2659792040883447,-1.34,-2.241111111111111,-2.0533333333333332,-0.26904462144484703,0.1603483442235484,-0.0028781297122811716
1592336986.5601504,-0.08131630788218261,9.809020957444282,0.2762278973726058,-1.34,-2.241111111111111,-2.0533333333333332,-0.3021233368115205,0.14960490587665648,0.010085362692825088
1592336986.5701504,-0.08521154384981788,9.78291758395709,0.6193983909058159,-1.34,-2.241111111111111,-2.0533333333333332,-0.2939776951524375,0.13426208820364097,0.010271789746782061
1592336986.5801504,-0.21720791087007785,9.682792089129922,0.6713505069559067,-1.342382398019335,-2.261758560612015,-2.045392006602216,-0.26053805844203676,0.13277347419914715,-0.005306836456534427
1592336986.5901504,-0.19286259277242146,9.490805761716492,0.7393553906268063,-1.3433333333333333,-2.27,-2.042222222222222,-0.19799873797468734,0.11003743853749248,-0.023927961240225486
1592336986.6001503,-0.4522893619063618,9.6331453528833,0.9360020157903578,-1.3433333333333333,-2.27,-2.042222222222222,-0.11597006827622944,0.08929213413248323,-0.030792626072845292
1592336986.6101503,-0.12228085351787776,9.512403883121875,0.674838523644752,-1.3433333333333333,-2.27,-2.042222222222222,-0.023416794369888846,0.07035103646906642,-0.03572680507174643
1592336986.6201503,-0.004825443030505673,9.468619082272879,0.36519009499832816,-1.3433333333333333,-2.27,-2.042222222222222,0.07717901872334493,0.052586677162563204,-0.029641148307012883
1592336986.6301503,-0.330736206837431,9.433389568974386,0.17008435346157802,-1.3364280842925016,-2.2544631896581286,-2.003380196367543,0.18282541609498953,0.030318235747040338,-0.013225486309512546
1592336986.6401503,-0.4711440762451649,9.529594449096782,0.3107385253419468,-1.3344444444444445,-2.25,-1.9922222222222221,0.22871228953879236,0.018608502197765935,-0.005035517095847679
1592336986.6501503,-0.4065060047179927,9.80372399742655,0.05974801629852022,-1.3344444444444445,-2.25,-1.9922222222222221,0.25109299361757803,0.008498444366700086,0.007838928028816076
1592336986.6601503,-0.20643405037868706,9.973565949621312,-0.18484066106903477,-1.3344444444444445,-2.25,-1.9922222222222221,0.14823550177720446,-0.012846632854911746,-0.0007051454098868249
1592336986.6701503,0.013101976284584982,10.310564031620553,-0.16527114624505929,-1.3344444444444445,-2.25,-1.9922222222222221,0.008144539287857619,-0.0301670330795425,-0.00031707389622446375
1592336986.6801503,-0.32237890682861803,10.456486446452377,0.2655680639905199,-1.348594611497885,-2.2432972892904757,-1.9557296861370332,-0.17662038526150844,-0.03819087277281845,-0.0007429477022542889
1592336986.6901503,-0.5666462444302992,10.179458943348186,0.4907248567791216,-1.3555555555555556,-2.24,-1.9377777777777778,-0.2707003170167319,-0.0541261415973699,-0.00573423912374231
1592336986.7001503,-0.17782558170959117,9.514127232927061,0.29752965975731704,-1.3555555555555556,-2.24,-1.9377777777777778,-0.387440170665805,-0.10517480103373741,-0.021329289658375758
1592336986.7101502,-0.28451867239507106,9.44176738586469,0.6936683820405081,-1.3555555555555556,-2.24,-1.9377777777777778,-0.33821617582284486,-0.13073373373732577,-0.016821253391564664
1592336986.7201502,-0.020310657270243115,9.473200057529123,0.6817330648640875,-1.3555555555555556,-2.24,-1.9377777777777778,-0.21972231219202562,-0.12886346597982476,0.001740497152454435
1592336986.7301502,0.22767529682849552,9.291322366947226,0.5523247031715044,-1.3469338567613602,-2.234513464403694,-1.9275884973846378,-0.05044258894314707,-0.10370541200780209,0.012768623425452721
1592336986.7401502,0.14891866180434438,9.367973680038054,0.45165490724591717,-1.3433333333333333,-2.232222222222222,-1.9233333333333333,0.0411864288454461,-0.09474380753581503,0.0051777276720946196
1592336986.7501502,-0.13648734737214657,9.826487347372147,0.29996157443688853,-1.3433333333333333,-2.232222222222222,-1.9233333333333333,0.13851455148351155,-0.08763496303570759,-0.005456249701836117
1592336986.7601502,-0.003574348618430756,9.629892134167365,0.19263557109786733,-1.3433333333333333,-2.232222222222222,-1.9233333333333333,0.12551646037486247,-0.06578854552895584,0.003355179072321266
1592336986.7701502,0.2976893273542601,9.545102421524664,0.11074798206278028,-1.3433333333333333,-2.232222222222222,-1.9233333333333333,0.106055362459807,-0.06642946190864776,0.0049495346141758476
1592336986.7801502,0.38357410562180577,9.6994043157297,0.2860698466780239,-1.3489417628872484,-2.218902202031674,-1.8938890781752793,0.05606108312967349,-0.07556607906687104,0.008661667186102324
1592336986.7901502,0.015354851031321629,9.74,0.4671283422459893,-1.3522222222222222,-2.2111111111111112,-1.8766666666666667,0.0458572677657602,-0.07508674108120353,0.013379260380135961
1592336986.8001502,-0.24910271870203904,9.627988379741286,0.4393197763648322,-1.3522222222222222,-2.2111111111111112,-1.8766666666666667,0.10317271742692169,-0.08525371119480646,0.014180800172453926
1592336986.8101501,0.03565690376569036,9.640796652719665,0.24553807531380753,-1.3522222222222222,-2.2111111111111112,-1.8766666666666667,0.16911345879300496,-0.07337685491229717,0.014180800172453926
1592336986.8201501,0.07725155340958562,9.814304824474611,0.3578810305932639,-1.3522222222222222,-2.2111111111111112,-1.8766666666666667,0.18627199475897538,-0.055773219055532126,0.010518204253086697
1592336986.8301501,-0.09905321354526606,10.06739921677033,0.3992927896797973,-1.351592311039443,-2.2048119992833195,-1.8565095088177328,0.11941694719675093,-0.03606626807633467,-0.0010219785285448257
1592336986.84015,-0.14328181592656908,9.8796688166708,0.18984544777970727,-1.3511111111111112,-2.2,-1.8411111111111111,-0.015365559847186683,-0.036004641121785835,-0.010547908808311426
1592336986.85015,-0.06884372104266548,9.795480037065389,0.11181499536682647,-1.3511111111111112,-2.2,-1.8411111111111111,-0.0714299253606434,-0.04150202192205786,-0.009543813480057024
1592336986.86015,-0.38875674804608806,9.775714822872184,0.31850884967636234,-1.3511111111111112,-2.2,-1.8411111111111111,-0.1406155088998957,-0.04627562406796503,0.0019512959634359695
1592336986.87015,-0.12738834384254316,9.443623763572997,0.33904510566288604,-1.3511111111111112,-2.2,-1.8411111111111111,-0.09781020057674662,-0.06551416858600821,0.005637999081127203
1592336986.88015,-0.007704997869361352,9.308302794180314,0.4188524989346808,-1.3550101797176735,-2.1844037255737505,-1.811218251794133,0.004420663629205748,-0.06932034724831902,0.005083881042012916
1592336986.89015,-0.22279225908372824,9.323217219589258,0.5184533965244866,-1.3577777777777778,-2.1733333333333333,-1.79,0.05565425545382432,-0.06023781266596345,0.0031391973063738844
1592336986.90015,0.34942710547949085,9.780638092808346,0.22,-1.3577777777777778,-2.1733333333333333,-1.79,0.15490152712946365,-0.058229126645491076,-0.0039152034004187215
1592336986.91015,0.06267969430202186,9.75477121021573,0.2774264777014608,-1.3577777777777778,-2.1733333333333333,-1.79,0.1705644043007536,-0.03655887129092057,-0.010118703362351641
1592336986.92015,-0.2212264150943396,9.756207547169812,0.3316603773584906,-1.3577777777777778,-2.1733333333333333,-1.79,0.16780682143113407,-0.024136174691199885,-0.005592051388760133
1592336986.93015,-0.2248068509727264,9.708127152564462,0.314440100530578,-1.353826677836731,-2.1654311334512397,-1.77287856692213,0.15804831234671635,-0.014462976356439559,-0.000444333566434375
1592336986.94015,-0.08104714955871828,9.682499403673372,0.25127931939254194,-1.3511111111111112,-2.16,-1.761111111111111,0.15975592793714197,-0.015132078857547441,-0.00258119340880065
1592336986.95015,-0.5133871548310794,9.888720111071116,0.27552681647554894,-1.3511111111111112,-2.16,-1.761111111111111,0.17672445904383757,-0.026184874919620793,-0.017602779023535266
1592336986.96015,-0.5926268312214423,10.015979085213623,0.06697819021150314,-1.3511111111111112,-2.16,-1.761111111111111,0.16043914381873361,-0.03198920746642488,-0.014680946266072527
1592336986.97015,-0.018712871287128757,9.855280528052806,-0.15016501650165018,-1.3511111111111112,-2.16,-1.761111111111111,0.1366418559394488,-0.031205680602901915,-0.006598986218864698
1592336986.98015,0.021710897983314714,9.782845365565263,0.15050318596860018,-1.355893056559154,-2.1456541636558715,-1.737201383870897,0.09660090145622854,-0.0204772792408349,-0.009140822304301249
1592336986.99015,-0.10366261581037181,9.983345365579753,0.313698712549633,-1.36,-2.1333333333333333,-1.7166666666666666,0.07001687232672715,-0.020921612027519864,-0.013024693669928405
1592336987.00015,-0.1170927226675719,9.700043867665874,0.09051126720108624,-1.36,-2.1333333333333333,-1.7166666666666666,-0.030249227229176147,-0.031480310532053114,0.004111529409400172
1592336987.01015,-0.13568136946475448,9.746723438415309,0.2781963940899525,-1.36,-2.1333333333333333,-1.7166666666666666,-0.12010505816348499,-0.01532518913465552,0.012511763517939704
1592336987.02015,0.049135384285561155,9.703884446350092,0.3065288884124772,-1.36,-2.1333333333333333,-1.7166666666666666,-0.14982245673892947,-0.003366807291123374,0.016742481036740812
1592336987.03015,0.06366129139734791,9.664370960218564,0.36442626774172054,-1.357115975507726,-2.1241044549580566,-1.7091682029867543,-0.13331384845169464,0.01803741434096958,0.023473723317281883
1592336987.04015,0.02329909221213569,9.89181000159261,0.3567009077878643,-1.3544444444444443,-2.1155555555555554,-1.7022222222222223,-0.12447093245566941,0.033374661829175686,0.023673408037781025
1592336987.05015,-0.05407378982973764,9.584073789829738,0.43407378982973766,-1.3544444444444443,-2.1155555555555554,-1.7022222222222223,-0.05025036753205506,0.05238114784540427,0.014720897992308558
1592336987.06015,0.03694244179175039,9.555227908442658,0.30127092936217154,-1.3544444444444443,-2.1155555555555554,-1.7022222222222223,0.004155367799390531,0.056209178431239494,0.012735512773559457
1592336987.07015,-0.1746161263107147,10.010768751757665,0.029231047366518027,-1.3544444444444443,-2.1155555555555554,-1.7022222222222223,0.035242125833192764,0.0755190727138838,-0.0004195519865103781
1592336987.08015,-0.35207782050446457,9.628376458319755,0.2616072476047709,-1.3523971843837579,-2.113508295494869,-1.6989466061251242,-0.016020701744521044,0.07245169657394046,0.000919062082078582
1592336987.0901499,0.011966713023193215,9.380983356511598,0.44975416087210085,-1.3488888888888888,-2.11,-1.6933333333333334,-0.0006617605612892971,0.05233306067100443,0.007123921197258774
1592336987.1001499,-0.046392653099768616,9.62464658388026,0.35473299022616744,-1.3488888888888888,-2.11,-1.6933333333333334,0.08820937015602992,0.04607303743644906,0.006225445803878683
1592336987.1101499,-0.10939404727997717,9.962820421532328,0.043084828633817546,-1.3488888888888888,-2.11,-1.6933333333333334,0.15651599017177703,0.04195672494699123,0.0067280584741259974
1592336987.1201499,-0.12104889210019265,9.973243818240206,-0.0028291586384071588,-1.3488888888888888,-2.11,-1.6933333333333334,0.13045004147080722,0.039581192532138286,0.012845198031810586
1592336987.1301498,-0.3385503725831336,9.897785182024096,0.2836644453927716,-1.3509753909113786,-2.1033231935280323,-1.6829008232208835,0.05136744821482482,0.020977338760582963,0.010083963031482273
1592336987.1401498,-0.12,9.966061537733841,0.26589196603836057,-1.3544444444444443,-2.0922222222222224,-1.6655555555555555,-0.04221899265393261,0.003140250108502615,0.006229109943875773
1592336987.1501498,-0.05081195832968573,9.839072047623215,0.2262179374945286,-1.3544444444444443,-2.0922222222222224,-1.6655555555555555,-0.11205189889194905,-0.00314596247032857,0.0022575794912893903
1592336987.1601498,-0.04201439525803265,9.83140800677424,0.15100719762901632,-1.3544444444444443,-2.0922222222222224,-1.6655555555555555,-0.16511119953272874,-0.012248022706586377,-0.004846517496452711
1592336987.1701498,-0.12358635453081425,9.7451044817157,0.21510448171569976,-1.3544444444444443,-2.0922222222222224,-1.6655555555555555,-0.20596420366075485,-0.012947161777794359,-0.007410206872061189
1592336987.1801498,-0.13928507149285071,9.768334833183347,0.3157104289571043,-1.352724986760583,-2.0898149814648166,-1.6700261455335947,-0.2195946020085237,-0.021245041116328252,-0.010570693098228497
1592336987.1901498,-0.1698590306323881,9.759436122529554,0.39563436215425346,-1.3488888888888888,-2.0844444444444443,-1.68,-0.21174419078477655,-0.028883949677319068,-0.007666570222591211
1592336987.2001498,-0.18911542732815084,9.79088457267185,0.29074972236701946,-1.3488888888888888,-2.0844444444444443,-1.68,-0.20637471159814555,-0.03750363401751023,-0.00545415391248228
1592336987.2101498,-0.17877453417619624,9.763019627340956,0.2284901863295215,-1.3488888888888888,-2.0844444444444443,-1.68,-0.21701329063997685,-0.05183477465314338,-0.004528018252745013
1592336987.2201498,-0.09481420636783228,9.667568645857779,0.3986591566924822,-1.3488888888888888,-2.0844444444444443,-1.68,-0.2197821357317198,-0.05961945327198967,-0.00252001281685855
1592336987.2301497,-0.004744798212540148,9.527051040357492,0.6941020807149839,-1.3469229157938836,-2.0808401604369346,-1.68,-0.18711769415786556,-0.05182786715515612,0.00019589559925854531
1592336987.2401497,-0.04,9.52,0.68,-1.3422222222222222,-2.0722222222222224,-1.68,-0.13635384781205698,-0.03490658503988659,0.0032724923474893677
1592336987.2501497,-0.013734367023991834,9.654937468095968,0.345562787136294,-1.3422222222222222,-2.0722222222222224,-1.68,-0.031439828481451104,-0.01855776564760114,0.002050423596616376
1592336987.2601497,-0.020278853601859024,9.680278853601859,0.11916343919442292,-1.3422222222222222,-2.0722222222222224,-1.68,0.0002433456741742675,-0.013051946628367742,-7.604552317945859e-06
1592336987.2701497,-0.06368195142378559,9.738409757118928,-0.022091708542713567,-1.3422222222222222,-2.0722222222222224,-1.68,0.041734441159513955,-0.004824345310569806,-0.003902300949401842
1592336987.2801497,-0.08444768423314201,9.77,-0.08167152634971302,-1.3534593099591103,-2.0766367924045714,-1.6848158947443805,0.053450708342326333,-0.0007879989348650007,-0.008332646792539148
1592336987.2901497,-0.11,9.77,-0.12,-1.3733333333333333,-2.0844444444444443,-1.6933333333333334,0.053450708342326333,-0.002181661564992912,-0.007635815477475192
1592336987.3001497,-0.1195881524100276,9.777752891446015,-0.21816473903598896,-1.3733333333333333,-2.0844444444444443,-1.6933333333333334,0.0430980626605151,-0.006500059092094847,-0.00957235552423848
1592336987.3101497,-0.09,9.76,-0.23,-1.3733333333333333,-2.0844444444444443,-1.6933333333333334,0.03599741582238304,-0.0032724923474893677,-0.007635815477475192
1592336987.3201497,-0.08670905351421904,9.75,-0.11683621405687616,-1.3733333333333333,-2.0844444444444443,-1.6933333333333334,0.030874506356074735,-0.004377194193410758,-0.004004336556961983
1592336987.3301497,-0.07483126510878324,9.744831265108783,-0.07190942788074134,-1.3655802309965082,-2.0789885576148266,-1.6933333333333334,0.03571550506608791,-0.002181661564992912,-0.0021448493223088253
1592336987.3401496,-0.09386871758182794,9.751167948488643,-0.015766410302271508,-1.3433333333333333,-2.0633333333333335,-1.6933333333333334,0.0353683980361608,-0.0007962225761702802,0.0024762697713190877
1592336987.3501496,-0.12040545458957126,9.772162181835828,-0.057026908985029,-1.3433333333333333,-2.0633333333333335,-1.6933333333333334,0.036424902488437445,-0.00019162921566676398,0.005218296462094637
1592336987.3601496,-0.09390610176550894,9.76,-0.10656338940694635,-1.3433333333333333,-2.0633333333333335,-1.6933333333333334,0.03623606739580332,-0.0038860199831452754,0.007397163904054918
1592336987.3701496,-0.09388416473999765,9.75694208237,-0.0577683294799953,-1.3433333333333333,-2.0633333333333335,-1.6933333333333334,0.033572316767429035,-0.005877850558749957,0.008393079191857259
1592336987.3801496,-0.0631899583750121,9.741594979187505,-0.027898744796876512,-1.3449676429357627,-2.065901534137151,-1.6938002789340274,0.03123089606713515,-0.0045925345157306185,0.007406604091730397
1592336987.3901496,-0.023894919273921372,9.717964973091307,-0.02398248654565356,-1.3511111111111112,-2.0755555555555554,-1.6955555555555555,0.03815997317226702,-0.0011099349976053966,0.0052417190205156705
1592336987.4001496,-0.06369275692614486,9.74477102770458,-0.0964696246706075,-1.3511111111111112,-2.0755555555555554,-1.6955555555555555,0.048349417716938924,0.0066626057906770215,0.001661223176563045
1592336987.4101496,-0.07,9.777412139034855,-0.19517572193028973,-1.3511111111111112,-2.0755555555555554,-1.6955555555555555,0.05373300018248644,0.007513837846467115,-0.001090830782496456
1592336987.4201496,-0.0760925113522666,9.786953744323865,-0.1669537443238667,-1.3511111111111112,-2.0755555555555554,-1.6955555555555555,0.050698402828389506,0.006118743805058432,-0.001423125728784532
1592336987.4301496,-0.09171956025720805,9.783439120514416,-0.16,-1.3511111111111112,-2.078039364815967,-1.6919253727903385,0.04502997438642754,0.007073090699199173,-0.002181661564992912
1592336987.4401495,-0.0894448074796421,9.778889614959285,-0.15648160249321402,-1.3511111111111112,-2.09,-1.6744444444444444,0.031775641886376035,0.0016767397161631835,-0.0017978639344468205
